t,pX,pY,pZ,aX,aY,aZ,reX,reY,reZ,rtX,rtY,rtZ,ID
3.62,-42.39287,1.08362,-36.76463,2.297081561390721,-0.09416703575006,2.4932536694627663,16.79047,355.1074,165.6052,-0.02361779,-0.1500087,0.9813759,7
3.64,-42.48187,1.263771,-36.71077,2.404142160940125,-0.1051194388430251,2.5091099124257044,18.76486,354.1212,167.6952,-0.0328538,-0.1672935,0.9805452,7
3.66,-42.57102,1.442238,-36.66367,2.5033847676679493,-0.091401117153633,2.524316122652678,20.6217,353.3676,169.8545,-0.04088937,-0.1830212,0.9792724,7
3.68,-43.02119,1.155621,-36.54878,2.61132806285413,-0.1223370584347978,2.529841360213545,14.69601,354.4418,163.5857,-0.02935882,-0.1333015,0.9813612,7
3.7,-43.02589,1.355938,-36.56192,2.711420400471648,-0.1280014127628642,2.536385430097398,14.64888,352.2724,163.5533,-0.04795438,-0.1354497,0.9806398,7
3.72,-42.97715,1.160506,-36.45441,2.8032536034949773,-0.1102384300396922,2.543485746354036,18.34837,355.0297,166.2711,-0.02346131,-0.1632609,0.9800363,7
3.74,-42.99895,1.3555,-36.44036,2.898164124815517,-0.1384159691528272,2.528994977459881,19.13565,352.9796,166.6037,-0.04061162,-0.1718128,0.9787087,7
3.76,-43.02074,1.550371,-36.42691,2.985329509543603,-0.1418813871395168,2.516676653680048,19.93585,350.9268,166.9087,-0.05772328,-0.1803101,0.9769799,7
3.78,-42.90752,1.180163,-36.31836,3.077371339654663,-0.1675440338153775,2.4918022319146,15.1048,357.6211,168.8658,-0.00773382,-0.1327812,0.9867015,7
3.8,-42.9201,1.372617,-36.28181,3.1615104454555896,-0.168748758114194,2.46925222705689,16.47254,355.4554,168.81,-0.02509722,-0.1462867,0.9847502,7
3.82,-42.8005,1.202794,-36.13705,3.2522795315018467,-0.192130339561889,2.4408325738408383,6.915112,2.854344,171.8951,0.02905946,-0.05838275,0.9952692,7
3.84,-42.80986,1.385805,-36.06176,3.334451214118391,-0.191513475648199,2.414842165548132,9.376392,0.6932261,171.7915,0.01186345,-0.08109056,0.9940449,7
3.86,-42.82043,1.567488,-35.98771,3.40752737410448,-0.1687403714103071,2.390813010205425,11.83429,358.5122,171.5921,-0.005322318,-0.1037509,0.9920104,7
3.88,-42.66473,1.226645,-35.87651,3.480019920046645,-0.1920365501144133,2.348520450281228,0.841898,6.046358,175.3949,0.0529907,-0.005211867,0.9977596,7
3.9,-42.67361,1.393713,-35.7571,3.5433635993603527,-0.191586500140827,2.309333759481936,4.545556,3.906211,175.4006,0.03561766,-0.03823559,0.9977745,7
3.92,-42.68465,1.557411,-35.64049,3.59708533618278,-0.1692167204444113,2.2727786890691064,8.248785,1.753032,175.2668,0.0182144,-0.07122228,0.9963976,7
3.94,-42.44889,1.260338,-35.54849,3.6507055999796014,-0.1994267853972239,2.210417080263998,355.0426,9.490932,180.0416,0.08266757,0.04306999,0.9956384,7
3.96,-42.45507,1.412504,-35.39816,3.695329040050592,-0.2048502369656832,2.151324269212492,359.5346,7.348782,180.2063,0.06409295,0.003937541,0.9979342,7
3.98,-42.46428,1.55934,-35.25239,3.7305203241704543,-0.1873248053534185,2.0951434566709315,4.031325,5.216477,180.2033,0.04541607,-0.03521688,0.9983474,7
4.0,-42.32391,1.249005,-35.39071,3.755873316922591,-0.2190716077035578,2.013649088787509,359.5933,10.79146,181.3386,0.09406842,0.002435042,0.9954912,7
4.02,-42.3275,1.412411,-35.26632,3.773158376953415,-0.2254887694368652,1.936443146891221,3.341826,8.666845,181.4557,0.07515284,-0.03003255,0.996665,7
4.04,-42.20301,1.237279,-35.28678,3.78352319013376,-0.2570484395100986,1.843904152843297,6.258948,13.19957,182.5751,0.1135145,-0.05679579,0.9917825,7
4.06,-42.20081,1.404224,-35.16488,3.786258723538663,-0.2624534325508085,1.7558312030583163,9.96089,11.09644,182.7184,0.09424172,-0.08866942,0.9914776,7
4.08,-42.2011,1.567668,-35.04561,3.7809612063511295,-0.2435973279512004,1.6720202659965686,13.66444,8.976318,182.7237,0.07485675,-0.1204107,0.9897959,7
4.1,-42.09372,1.217242,-35.18453,3.767250437501557,-0.2022919985890234,1.592251403901905,11.9373,14.39744,183.3185,0.1215924,-0.1067302,0.9867029,7
4.12,-42.08529,1.389989,-35.06704,3.7348422555068574,-0.239195286804767,1.475502376343487,15.57558,12.30426,183.4184,0.1021147,-0.1378311,0.9850656,7
4.14,-41.98483,1.190677,-35.12846,3.696284561073827,-0.2482133386385068,1.3642888295176494,16.1208,16.78772,183.7921,0.1398661,-0.1434212,0.9796557,7
4.16,-41.96989,1.369561,-35.01481,3.6463311805273033,-0.2847061960053416,1.2387691359149624,19.72183,14.71752,183.9303,0.1202911,-0.1740738,0.9772894,7
4.18,-41.9572,1.545299,-34.90262,3.590901586739822,-0.2921974856254525,1.1191124175303448,23.32414,12.60688,183.9301,0.1005748,-0.2044859,0.9736247,7
4.2,-41.94671,1.718029,-34.79216,3.5297252069658924,-0.2726641405719289,1.0053799886049823,26.92231,10.43475,183.7803,0.08074205,-0.2346124,0.96867,7
4.22,-41.84312,1.16068,-35.01335,3.4492925314881564,-0.3084809839067486,0.8701137595263093,21.60442,16.08957,184.0906,0.1307566,-0.1903628,0.97293,7
4.24,-41.82009,1.347949,-34.90574,3.364589341009207,-0.3140830248647005,0.7416826559933174,25.14093,13.959,184.0243,0.1109433,-0.2200584,0.9691277,7
4.26,-41.74614,1.138803,-34.96414,3.2754116005623715,-0.2914825859230334,0.6202535819037474,26.33743,16.75732,184.0275,0.1338753,-0.2302341,0.9638826,7
4.28,-41.71732,1.331676,-34.86102,3.1734048967509336,-0.3255215233404778,0.4842971296051246,29.82922,14.58541,183.8748,0.1139606,-0.2592982,0.9590505,7
4.3,-41.69029,1.521776,-34.7581,3.068021161632668,-0.3281729225752045,0.3559325758453582,33.31136,12.32045,183.556,0.09391604,-0.2880171,0.9530085,7
4.32,-41.63679,1.124777,-34.87069,2.960311552293658,-0.3580333914890296,0.2268181235663258,32.11384,15.93693,183.539,0.1246979,-0.2779047,0.952439,7
4.34,-41.60172,1.322258,-34.77245,2.8494102739876705,-0.3560647536201023,0.1055882412976627,35.53849,13.61371,183.127,0.1045584,-0.3059998,0.9462161,7
4.36,-41.51475,1.117109,-34.77374,2.7352377502246776,-0.3243212246983932,-0.0074185699488591,39.6546,17.91996,182.6821,0.1386304,-0.3383845,0.930222,7
4.38,-41.47343,1.316847,-34.68001,2.613013955600767,-0.3488336349057191,-0.1261863890494288,43.0239,15.45642,182.1161,0.1183758,-0.3656129,0.9226445,7
4.4,-41.43361,1.514029,-34.58577,2.4880594724311846,-0.3412082984428907,-0.2357521663011121,46.36995,12.79988,181.3073,0.09799558,-0.3923909,0.9139512,7
4.42,-41.36848,1.114525,-34.64233,2.3603433261734743,-0.3035018479863088,-0.3357440392748163,44.70621,19.79574,181.101,0.1553692,-0.376163,0.911678,7
4.44,-41.32368,1.315447,-34.55151,2.237693450392003,-0.3229604141170513,-0.4302674482119584,48.03491,17.25837,180.4738,0.1353838,-0.4029709,0.9033267,7
4.46,-41.2171,1.109937,-34.50084,2.1120241804381834,-0.3104107452723827,-0.5148344283251456,50.71499,21.15011,178.7077,0.1705785,-0.419094,0.8873623,7
4.48,-41.16914,1.309719,-34.41364,1.9833550516748923,-0.2678759467611197,-0.5890521587789892,53.98627,18.3917,177.8501,0.1507809,-0.4453,0.8780934,7
4.5,-41.12256,1.507097,-34.32583,1.8616740252056312,-0.2809899638167382,-0.6521992593257102,57.22519,15.3048,176.6266,0.1308199,-0.4709734,0.8678057,7
4.52,-40.93045,1.104557,-34.17851,1.7364156138704887,-0.2629777965805967,-0.7044142004086265,61.24241,16.96039,171.128,0.1654895,-0.4924666,0.8427857,7
4.54,-40.88452,1.296079,-34.09243,1.6076317163487897,-0.2157846930897767,-0.7453365142276933,64.38528,13.11113,169.1317,0.1463047,-0.5177559,0.83119,7
4.56,-40.84022,1.485326,-34.00628,1.4974074443498964,-0.2159700496894021,-0.7686474121364504,67.45116,8.483775,166.3325,0.1269657,-0.5424411,0.818649,7
4.58,-40.6979,1.12932,-33.91886,1.3826232791829245,-0.1865656691314144,-0.7798199434386914,60.89846,11.47001,166.6677,0.1440972,-0.4908291,0.8460861,7
4.6,-40.65531,1.313922,-33.83095,1.2633464748605636,-0.1294340913248607,-0.778559284534444,63.88986,7.049227,164.012,0.1251029,-0.5157165,0.8341985,7
4.62,-40.47863,1.178605,-33.70144,1.149227547833673,-0.1155246291907532,-0.7710614499423256,51.98843,16.91599,171.2411,0.1649226,-0.4221525,0.8815442,7
4.64,-40.43794,1.356995,-33.61002,1.0308592372732948,-0.0731171266757962,-0.7495115568033746,55.06309,13.60552,169.6897,0.145854,-0.4476882,0.8720322,7
4.66,-40.39951,1.53303,-33.51937,0.9386332468272478,-0.0745815650670931,-0.7273873777949822,58.07448,9.864161,167.6762,0.1266405,-0.4727184,0.8615555,7
4.68,-40.24429,1.228888,-33.49099,0.8578254447449245,-0.077211717945315,-0.6964322697199199,37.72923,22.7679,174.6849,0.2012764,-0.3079707,0.9237118,7
4.7,-40.19926,1.400611,-33.38915,0.8433165549638755,-0.0147090125348552,-0.6670819469092271,41.10381,20.16667,173.8271,0.1823094,-0.3363051,0.9172453,7
4.72,-40.15702,1.569415,-33.28844,0.8452699816029492,-0.0260532283385027,-0.6346343394986342,44.44241,17.35239,172.7085,0.1631366,-0.3642192,0.9096577,7
4.74,-40.03471,1.257252,-33.34245,0.8437117206940332,0.0161713811298694,-0.6020306179613892,19.91202,28.93704,176.5494,0.2510143,-0.1599239,0.9519707,7
4.76,-39.98433,1.42557,-33.23581,0.8488170233430461,0.0532095479962424,-0.5560698022910273,23.45555,26.73055,176.1267,0.2328866,-0.1899951,0.9504741,7
4.78,-39.8445,1.271938,-33.23111,0.8625709392829162,0.0136344829226301,-0.5134768790923934,2.29542,35.5261,177.936,0.3053141,-0.01357828,0.9518707,7
4.8,-39.7896,1.438714,-33.12514,0.8644956951508256,0.0518131733216532,-0.4702299710206827,5.862765,33.47077,177.8067,0.2884599,-0.04346094,0.9559348,7
4.82,-39.63169,1.285372,-33.07506,0.8725133886962979,0.0846749993100773,-0.416386836850017,353.3065,39.09725,178.7068,0.3333939,0.05877949,0.9409112,7
4.84,-39.57518,1.449045,-32.96768,0.8792533862254732,0.0968438238453022,-0.3811449408728613,356.8982,37.05239,178.7396,0.3173203,0.02915416,0.9478685,7
4.86,-39.52215,1.609262,-32.86164,0.8913736576471933,0.1061807807562996,-0.3409190487805356,0.4877802,35.01457,178.6444,0.3008513,-0.0005005484,0.9535883,7
4.88,-39.40914,1.296019,-32.89691,0.9091794804910212,0.1094208951446649,-0.2961766710590718,353.4799,40.29184,179.4708,0.3436047,0.05497566,0.9373798,7
4.9,-39.35342,1.457222,-32.78786,0.901498052725195,0.1098584524069578,-0.2799214730092898,357.068,38.2463,179.5875,0.3274033,0.02535095,0.9445315,7
4.92,-39.30132,1.614919,-32.68031,0.8999862656241113,0.1104061271058973,-0.2661006748814909,0.6568612,36.21264,179.576,0.3107942,-0.00429828,0.9504528,7
4.94,-39.18243,1.254612,-32.7723,0.9077482002984424,0.0599818462997434,-0.2702833801308997,357.4497,42.84274,181.1317,0.3653204,0.01710957,0.9305636,7
4.96,-39.12308,1.419336,-32.66908,0.8866923088726422,0.0766833659662753,-0.2738464985786901,1.014241,40.81106,181.2707,0.3485354,-0.0121611,0.9371884,7
4.98,-39.06714,1.580736,-32.56703,0.8711354362236365,0.0937976576924203,-0.2863292434265378,4.580434,38.78388,181.2832,0.3313204,-0.04140686,0.9426056,7
5.0,-39.01468,1.240518,-32.66349,0.8616747817058705,0.1089766753657465,-0.3083819644040213,4.040738,44.0257,182.0327,0.3739428,-0.03932375,0.9266122,7
5.02,-38.95058,1.407021,-32.56142,0.8241934333425567,0.094246241442857,-0.3329294879741638,7.689342,42.01532,182.1635,0.3564405,-0.06933682,0.9317195,7
5.04,-38.87861,1.226282,-32.597,0.7940426695511844,0.0812415290355785,-0.361973737344873,10.36472,45.51861,183.1554,0.3828401,-0.09386917,0.9189828,7
5.06,-38.81151,1.397185,-32.49975,0.7451242177402033,0.0658066531950548,-0.3947085904989245,13.98249,43.52668,183.2871,0.3646234,-0.1235508,0.9227333,7
5.08,-38.7475,1.564774,-32.40316,0.7033302173807057,0.0527787686533151,-0.4319341225895572,17.60158,41.50961,183.2893,0.3459467,-0.1530626,0.9252714,7
5.1,-38.68668,1.729221,-32.3075,0.6691832364347361,0.0392510961544829,-0.4741745902114895,21.21776,39.44888,183.1538,0.3268333,-0.1823647,0.926596,7
5.12,-38.69938,1.190894,-32.50158,0.6174237660844941,0.0207666537639278,-0.5067260797978697,16.10534,46.5827,183.7409,0.3870997,-0.1413776,0.9107728,7
5.14,-38.62857,1.369997,-32.41195,0.5732505800622958,0.0054024701154082,-0.5430816688119493,19.69152,44.59953,183.8335,0.368363,-0.1706239,0.9132448,7
5.16,-38.5951,1.168097,-32.46247,0.5230415100404526,0.0454452770802856,-0.5571790745548286,20.17727,46.30837,184.0665,0.3811691,-0.1746949,0.9071074,7
5.18,-38.52231,1.353252,-32.37862,0.4639808344126326,0.0034473435347888,-0.5972159049083716,23.72034,44.30133,184.0679,0.3620058,-0.2033317,0.9086025,7
5.2,-38.45167,1.535429,-32.29452,0.4132648319157175,-0.0361054397275473,-0.6403324558552872,27.26021,42.23633,183.9299,0.3424025,-0.2317028,0.9089464,7
5.22,-38.47705,1.145487,-32.40493,0.3714397859045268,-0.0763773997904878,-0.6869487848211522,24.61744,44.45351,184.0119,0.3624439,-0.2101542,0.9066838,7
5.24,-38.40272,1.336891,-32.3267,0.316084015604499,-0.0943135868700753,-0.7060090869107718,28.10999,42.36948,183.8263,0.3428028,-0.2380181,0.9069321,7
5.26,-38.33012,1.525469,-32.24788,0.2686049110406827,-0.108756601217199,-0.7263957238040524,31.59264,40.19989,183.4848,0.3227549,-0.2655754,0.906057,7
5.28,-38.3171,1.12488,-32.32201,0.221562129949306,-0.0639535467541274,-0.7237591591767103,32.11393,42.00449,183.4997,0.3363765,-0.2686148,0.8997542,7
5.3,-38.24136,1.322426,-32.24959,0.172569270354927,-0.1041406192306524,-0.7376131259554413,35.54076,39.76027,183.0532,0.3160673,-0.2955401,0.897984,7
5.32,-38.15858,1.11726,-32.23722,0.131980954527382,-0.1423228704083683,-0.7520531998886151,39.67039,41.3038,182.6098,0.3244488,-0.3249844,0.8827226,7
5.34,-38.08199,1.317133,-32.1685,0.0960252895719291,-0.0942038127287565,-0.735236299752041,43.03664,38.89336,181.976,0.3037145,-0.3511626,0.8792038,7
5.36,-38.0065,1.514426,-32.09875,0.067771104358953,-0.1316986741794942,-0.7284930466146364,46.37789,36.28749,181.1003,0.2826384,-0.3769171,0.8746438,7
5.38,-37.96552,1.114688,-32.12931,0.0396018776704556,-0.107641741473088,-0.7062626927968161,44.69921,40.76183,181.0256,0.3188958,-0.3593206,0.868132,7
5.4,-37.88976,1.315744,-32.06151,0.01807613771778,-0.0830587637292817,-0.682342153969691,48.02257,38.26736,180.3226,0.2983259,-0.3852785,0.8633744,7
5.42,-37.81504,1.514277,-31.99263,0.0161339592052467,-0.1468966761613025,-0.657069788926187,51.31943,35.53435,179.34,0.277427,-0.410781,0.8576144,7
5.44,-37.68592,1.107258,-31.95436,0.0167434253488476,-0.1222330539167257,-0.6088305512388725,53.3486,39.23251,177.5777,0.3088603,-0.4164286,0.8383384,7
5.46,-37.6118,1.306111,-31.88783,0.0228756265187168,-0.0976890031381458,-0.5588212050729884,56.60332,36.37787,176.5096,0.2884282,-0.4418442,0.8315738,7
5.48,-37.5388,1.502555,-31.82036,0.0364706182280798,-0.097550376939718,-0.5003473022858089,59.8196,33.13268,175.0189,0.267685,-0.4667465,0.8238675,7
5.5,-37.39656,1.104738,-31.74965,0.0540444944049092,-0.0963326847821512,-0.4399860925497658,61.23596,33.66387,171.0097,0.2866352,-0.4664617,0.8096211,7
5.52,-37.32641,1.296394,-31.68167,0.0758711022512681,-0.0973668712390624,-0.3782434271352901,64.35937,29.81944,168.9071,0.2664937,-0.491188,0.8008131,7
5.54,-37.25774,1.485763,-31.61314,0.1029249798263594,-0.0861130702735854,-0.3190895151707318,67.40244,25.19121,165.9976,0.2460723,-0.5153576,0.7911179,7
5.56,-37.03486,1.144652,-31.50196,0.1321116500639121,-0.0742103919703469,-0.2593816049165309,58.33473,29.00728,167.7395,0.2678212,-0.4457799,0.8275044,7
5.58,-36.96838,1.327063,-31.42907,0.163724014041545,-0.0648589293540672,-0.1996535424472489,61.3366,24.99417,165.3747,0.2479956,-0.4702412,0.8188766,7
5.6,-36.90393,1.507169,-31.3561,0.1831281289248023,0.0202473067121445,-0.140645508291485,64.23894,20.27962,162.2849,0.2279159,-0.4941816,0.8093575,7
5.62,-36.77392,1.195888,-31.32905,0.2189081066940987,0.0108824780248212,-0.0944764339311508,48.24143,34.98853,173.1295,0.2972244,-0.3726185,0.8615471,7
5.64,-36.70931,1.372768,-31.25165,0.2376738619103928,0.0477851761187319,-0.0544099835397022,51.33615,32.08601,171.8982,0.2778727,-0.3976513,0.8555958,7
5.66,-36.52709,1.239355,-31.21438,0.258607566074601,0.0832098990878887,-0.0157820313669936,31.99601,41.03691,175.2905,0.3472552,-0.2440578,0.8955585,7
5.68,-36.4507,1.409151,-31.12696,0.2947157862627048,0.0471410841824113,0.0050971910498063,35.49768,38.68616,174.5838,0.3286963,-0.2724113,0.8928668,7
5.7,-36.3774,1.575751,-31.0399,0.3173109009997397,0.0798994318618394,0.0341942532403023,38.97125,36.17043,173.6592,0.3097402,-0.3004202,0.8890525,7
5.72,-36.21503,1.268087,-31.04976,0.3505980646675528,0.0654965216393492,0.0520779913571076,8.080914,47.31185,177.5045,0.4015565,-0.05580937,0.9128627,7
5.74,-36.13585,1.435329,-30.96048,0.3866200086666298,0.0497379709127739,0.0669048332646409,11.65212,45.31777,177.26,0.3853841,-0.08448377,0.9168508,7
5.76,-36.06001,1.5992,-30.87161,0.4131830835920658,0.1013767501247915,0.1009965802462735,15.21167,43.28004,176.8833,0.3687401,-0.1130425,0.9196732,7
5.78,-35.97522,1.279336,-30.90214,0.4402048951392512,0.1492330744779594,0.1306949001639448,354.4109,49.86378,178.3441,0.4203566,0.05029015,0.9059337,7
5.8,-35.8967,1.444479,-30.81104,0.4573358526667324,0.1498466687328737,0.1501782659762365,357.9918,47.92133,178.2862,0.4057622,0.02208496,0.9136885,7
5.82,-35.82166,1.606208,-30.72047,0.474564981347747,0.1498773695470999,0.1665812309443257,1.567527,45.97768,178.107,0.3906701,-0.006140032,0.9202811,7
5.84,-35.66327,1.29611,-30.72057,0.4761145994734317,0.1940092848231506,0.1872791391132273,353.4806,51.3105,179.4431,0.4320006,0.05335649,0.9000661,7
5.86,-35.58627,1.457304,-30.62526,0.4761789525677837,0.162525420303061,0.1810749041837343,357.0728,49.36197,179.5411,0.417333,0.02487986,0.9083858,7
5.88,-35.51301,1.614975,-30.53072,0.4761279920176706,0.1305373820931866,0.1704750369439804,0.6652538,47.42393,179.517,0.402151,-0.003620359,0.9155453,7
5.9,-35.48884,1.262154,-30.62652,0.4666939118306512,0.1657575575944609,0.1756738432323836,355.769,51.54005,180.5121,0.434608,0.0313011,0.899852,7
5.92,-35.41307,1.426435,-30.53473,0.4555938169553322,0.126673984245692,0.1553811948927173,359.3247,49.60104,180.614,0.4194758,0.003101894,0.907732,7
5.94,-35.32234,1.246026,-30.54945,0.4450386792028418,0.0879126509164681,0.1299657390124373,1.439581,52.65959,181.5419,0.4433107,-0.01722533,0.8961791,7
5.96,-35.24321,1.411424,-30.45848,0.424748099887906,0.123854481678643,0.1283599110967048,5.073977,50.73576,181.6642,0.4273827,-0.04620758,0.9028702,7
5.98,-35.16753,1.573386,-30.36806,0.4028140758173002,0.1570387900580832,0.1220030926621413,8.710028,48.80683,181.6636,0.4109185,-0.07512534,0.9083896,7
6.0,-35.09542,1.732115,-30.27844,0.3639627520784225,0.0900418760320129,0.0777998548054803,12.34297,46.85691,181.538,0.39394,-0.103938,0.9127313,7
6.02,-35.111,1.226293,-30.43187,0.3268512793662861,0.0980784163793652,0.0586782290506775,10.37131,52.52847,183.1085,0.4383397,-0.09297594,0.8938487,7
6.04,-35.03038,1.397068,-30.34454,0.2895127485400408,0.1061368138524665,0.0357021833022002,14.01155,50.62476,183.2002,0.4211168,-0.1220656,0.8983473,7
6.06,-35.00259,1.199658,-30.39823,0.2380397160283038,0.0862137514148685,0.0028563867293684,14.781,53.70494,183.6197,0.4440943,-0.1288512,0.8861545,7
6.08,-34.92082,1.376724,-30.31697,0.1872347865918904,0.0692225106288795,-0.0329117457663667,18.37391,51.81357,183.7173,0.4264191,-0.1575255,0.8897631,7
6.1,-34.84168,1.550603,-30.23565,0.1372889590565345,0.0521672179779705,-0.0722451916751736,21.96692,49.88667,183.6895,0.4082209,-0.1859921,0.8922414,7
6.12,-34.83106,1.168297,-30.31786,0.077084769020157,-0.0476506809449902,-0.1369488002428105,20.16709,51.96063,184.0101,0.425525,-0.1723846,0.8872008,7
6.14,-34.74877,1.353533,-30.24285,0.030385338940051,-0.0411758813233948,-0.1626574879019702,23.71372,50.02834,183.9597,0.4071408,-0.2003809,0.8893407,7
6.16,-34.66852,1.535771,-30.1674,-0.0148266679831099,-0.0334012765071158,-0.1900432456096927,27.25558,48.03664,183.7735,0.3882694,-0.2281203,0.8903762,7
6.18,-34.69675,1.145581,-30.25227,-0.0682344545070661,-0.0526464839519055,-0.2190202341138309,24.61576,49.10128,183.9777,0.3989741,-0.2078651,0.8912272,7
6.2,-34.61535,1.337046,-30.18099,-0.1191203157944871,-0.0682659724855675,-0.2481154628828479,28.10824,47.09797,183.7625,0.3800568,-0.2352178,0.8919845,7
6.22,-34.53556,1.525664,-30.10901,-0.1673309486796421,-0.0834984979654158,-0.2778409799805348,31.59035,45.01018,183.397,0.3606972,-0.2622764,0.8916597,7
6.24,-34.51904,1.124957,-30.1638,-0.2043671037514638,-0.0996312395662455,-0.2934712006268314,32.1099,45.67202,183.4714,0.3650669,-0.2660619,0.8885182,7
6.26,-34.4381,1.322553,-30.09675,-0.2378940875178261,-0.1121641760409322,-0.3080449395541209,35.53519,43.50857,183.0018,0.345404,-0.2925716,0.8871401,7
6.28,-34.35834,1.517456,-30.02876,-0.2677741808955116,-0.1244308060734396,-0.3220161801961754,38.94167,41.21084,182.345,0.32535,-0.3187271,0.884712,7
6.3,-34.3429,1.117323,-30.07428,-0.2851846289649193,-0.0517536991851359,-0.3128407126779766,39.65223,44.25087,182.5895,0.3471212,-0.3221167,0.8741167,7
6.32,-34.26234,1.317226,-30.00978,-0.3077626903119173,-0.0933546488289317,-0.3208730290449946,43.01679,41.92495,181.9392,0.3270024,-0.347955,0.870883,7
6.34,-34.18279,1.51453,-29.94423,-0.327008783110795,-0.0730467482216226,-0.3176345572823495,46.35678,39.40744,181.0535,0.3065228,-0.3733834,0.8666421,7
6.36,-34.10198,1.113872,-29.95617,-0.3421622173577154,-0.0518853422752036,-0.3113470601716916,46.39954,44.34765,180.2853,0.3459892,-0.3656664,0.8515282,7
6.38,-34.02197,1.31481,-29.89347,-0.3484440445695735,-0.1184696521625043,-0.3077370078472174,49.71494,41.90594,179.5447,0.3260293,-0.3912733,0.8467529,7
6.4,-33.94287,1.513223,-29.82969,-0.345654420090316,-0.0958664909326166,-0.2870210593249114,53.00399,39.21277,178.5151,0.3057175,-0.4164303,0.8410207,7
6.42,-33.77558,1.103843,-29.764,-0.338799119197573,-0.0727782483562161,-0.2633503250327553,56.54029,41.80204,176.0905,0.3291122,-0.4314887,0.8165288,7
6.44,-33.69852,1.300317,-29.70149,-0.3063651116620529,-0.1355720958734654,-0.2279687557507643,59.7723,38.83045,174.8118,0.3091812,-0.4564174,0.8093793,7
6.46,-33.62261,1.494408,-29.63815,-0.279538738562151,-0.109478574842321,-0.1863014002659326,62.96033,35.38175,173.0286,0.2889251,-0.4808314,0.80134,7
6.48,-33.46936,1.109352,-29.56658,-0.2506338986207228,-0.083796984895776,-0.1426563467257455,62.64494,33.38107,167.6921,0.2973109,-0.4687821,0.7975448,7
6.5,-33.39645,1.298526,-29.50127,-0.2195773552165492,-0.0617919495835644,-0.0975080426321186,65.69707,29.13826,165.0672,0.2777538,-0.4930664,0.7884695,7
6.52,-33.32509,1.485408,-29.43551,-0.1832287777545787,-0.0554420739049619,-0.0523367153908362,68.64463,23.95801,161.4849,0.2579136,-0.5168092,0.778545,7
6.54,-33.09463,1.162053,-29.33121,-0.1455272483212413,-0.0480784922012748,-0.0057101252618187,55.72975,32.16778,168.6978,0.2879541,-0.4227926,0.8325689,7
6.56,-33.02482,1.342285,-29.26014,-0.1063458024782173,-0.0429036022965228,0.0418514190136463,58.7392,28.51974,166.5883,0.2686985,-0.4470119,0.8247378,7
6.58,-32.95711,1.520165,-29.18901,-0.0696084976797823,-0.029804352851304,0.0800023706022479,61.66269,24.29851,163.8818,0.2491744,-0.4707499,0.8160354,7
6.6,-32.8916,1.695786,-29.11798,-0.0321648484034069,-0.0163262618954343,0.1186976984445644,64.46857,19.32944,160.4067,0.2294046,-0.493982,0.8064729,7
6.62,-32.72646,1.229194,-29.12828,0.0060966387961332,-0.0055854470372485,0.1573158803655343,37.72259,40.80349,174.677,0.3435962,-0.2873544,0.8807539,7
6.64,-32.65212,1.401532,-29.04773,0.0483856483938653,0.0057617059247638,0.1906299105121278,41.03628,38.40285,173.8349,0.3253799,-0.3139617,0.87698,7
6.66,-32.58052,1.571022,-28.96739,0.0918332133102084,0.017016984422345,0.2239835768325111,44.31765,35.80569,172.7541,0.3068103,-0.3402047,0.8722097,7
6.68,-32.42196,1.263755,-28.99836,0.1185171783943022,0.0712834323121368,0.2626834882285278,13.82941,48.42382,177.1378,0.4097449,-0.09959917,0.9038857,7
6.7,-32.34001,1.431846,-28.91355,0.143005552702899,0.1224199131504008,0.2988213130332702,17.35746,46.4817,176.8347,0.3937595,-0.127823,0.9063423,7
6.72,-32.19883,1.27585,-28.88686,0.1661755487430603,0.0775551954964511,0.3099341930248425,358.3602,52.3184,178.1383,0.440555,0.02000385,0.8974649,7
6.74,-32.1152,1.441901,-28.80126,0.1753716191210461,0.1015426025466943,0.3334405807852754,1.925692,50.4613,178.0491,0.4264002,-0.007943017,0.9042186,7
6.76,-32.0349,1.604557,-28.71598,0.1818830558157969,0.1239175541195219,0.3544663963879566,5.485399,48.593,177.8437,0.4117353,-0.03587167,0.9098529,7
6.78,-31.95807,1.764004,-28.63127,0.1943303856430076,0.0756089293963981,0.359031074443418,9.035461,46.69883,177.5195,0.3965788,-0.06374794,0.9143624,7
6.8,-31.86147,1.294007,-28.68979,0.203125959660714,0.0970697496931611,0.3790318763511449,352.8382,53.21141,179.1887,0.4465672,0.05900723,0.8925398,7
6.82,-31.77954,1.455904,-28.59917,0.2086717092670666,0.1164429316715554,0.3963369386677531,356.4295,51.35646,179.2472,0.4329126,0.03092089,0.9008735,7
6.84,-31.70124,1.614283,-28.50914,0.2104005529109853,0.058261902717715,0.3875436187304046,0.01982369,49.51062,179.1896,0.4187346,0.002804434,0.9080813,7
6.86,-31.62529,1.262109,-28.57595,0.1975036578530975,0.0691826728644051,0.3890260676605934,355.7678,54.1794,180.5238,0.4552199,0.0307934,0.8896016,7
6.88,-31.54487,1.426298,-28.48781,0.1810455146087162,0.0793074165495106,0.38636506283938,359.3272,52.33031,180.6445,0.4409752,0.002788878,0.8974826,7
6.9,-31.46786,1.587125,-28.40019,0.1611541182731755,0.085945719671655,0.3787164738799742,2.887808,50.48834,180.6505,0.4262051,-0.02521173,0.9042579,7
6.92,-31.39505,1.240696,-28.45375,0.1353959513656706,0.0697537840874634,0.363396862250017,4.023686,54.39829,182.0077,0.4561858,-0.03922222,0.8890197,7
6.94,-31.31222,1.407378,-28.36667,0.1083366797617277,0.0550816777277687,0.3455261379988243,7.658047,52.57198,182.1266,0.4406763,-0.06806354,0.8949882,7
6.96,-31.23266,1.570629,-28.27999,0.0772960160151701,0.0902749303768503,0.3401940008445092,11.2939,50.73574,182.1287,0.4246243,-0.09681469,0.8998189,7
6.98,-31.15653,1.730644,-28.19396,0.0320766514173467,0.0494428980873828,0.3043917761331083,14.92683,48.87414,182.0104,0.408051,-0.1254346,0.9035071,7
7.0,-31.19343,1.217453,-28.33713,-0.0136323875048347,0.0104842819230825,0.2656197187446683,11.91823,53.60585,183.2815,0.4456494,-0.1054683,0.8887163,7
7.02,-31.11042,1.390321,-28.25345,-0.0596888572294784,-0.0295287956839369,0.2232087763368797,15.54635,51.79435,183.3639,0.4289866,-0.134319,0.8926634,7
7.04,-31.03026,1.559867,-28.16991,-0.1051466377305736,-0.0516596381513942,0.1886611833708094,19.17404,49.95397,183.3267,0.4117994,-0.1629915,0.8954823,7
7.06,-31.0409,1.183204,-28.26896,-0.1502666051813563,-0.0702530316997729,0.1520616190740105,17.43213,53.39098,183.8557,0.4392547,-0.1502471,0.8848798,7
7.08,-30.95774,1.364322,-28.19139,-0.1874772334400898,-0.0335811222187038,0.1339162474266233,21.01136,51.57927,183.8978,0.4219445,-0.1786251,0.8874898,7
7.1,-30.87683,1.542318,-28.11359,-0.2247689134933055,0.0019649728248381,0.114547149180392,24.589,49.72408,183.8167,0.4041309,-0.2067748,0.889004,7
7.12,-30.87862,1.153148,-28.18555,-0.2836729172574701,-0.0718131721227247,0.0618677364647006,23.09181,50.23413,183.9813,0.4093338,-0.1955637,0.8895363,7
7.14,-30.79618,1.342513,-28.11321,-0.330240701677301,-0.0604220087345431,0.0324513453681332,26.61015,48.34829,183.8249,0.391291,-0.2231367,0.8904679,7
7.16,-30.71544,1.528955,-28.04028,-0.374893703528055,-0.0477289987996261,0.0036329469663209,30.12049,46.38979,183.5298,0.3727961,-0.2504327,0.8903307,7
7.18,-30.74314,1.132921,-28.11082,-0.429952727705746,-0.1197467126498236,-0.0447155395099607,28.03964,46.69149,183.8603,0.3767647,-0.2352473,0.8935092,7
7.2,-30.66246,1.327864,-28.04103,-0.4657411572054624,-0.1042476902747125,-0.0690480704215623,31.49711,44.70877,183.5219,0.3581708,-0.2621491,0.8928842,7
7.22,-30.58311,1.520033,-27.97045,-0.4979732090800053,-0.0871771304488837,-0.091771844226709,34.94094,42.62332,183.0244,0.3391744,-0.2887362,0.8912136,7
7.24,-30.54589,1.11889,-27.99789,-0.5298676629457781,-0.1557243156071499,-0.1264709609116492,37.42021,43.57524,182.9324,0.3438158,-0.3067631,0.8822535,7
7.26,-30.46597,1.31812,-27.93116,-0.5482214560635112,-0.134612682770536,-0.1413248834826834,40.80917,41.38439,182.3276,0.3244835,-0.3328159,0.8791154,7
7.28,-30.38709,1.514704,-27.86347,-0.5623209873758723,-0.1122022905605562,-0.1538043024696791,44.17598,39.02421,181.5096,0.3047966,-0.3584813,0.8749721,7
7.3,-30.30938,1.708658,-27.79496,-0.5721812258269336,-0.091847460360231,-0.1643283491633629,47.51283,36.44856,180.4366,0.284778,-0.38373,0.8698303,7
7.32,-30.29403,1.114701,-27.86223,-0.5767668066009204,-0.0994575295624688,-0.1727791525532271,44.70298,43.00836,181.024,0.3358528,-0.3568315,0.8617004,7
7.34,-30.21514,1.315721,-27.79677,-0.5761907789809935,-0.1037876455837797,-0.1779125262561245,48.03724,40.70514,180.3317,0.3165753,-0.3825406,0.8567953,7
7.36,-30.13717,1.514171,-27.73029,-0.5704549935235543,-0.1082744294420623,-0.1801088683917533,51.34749,38.17669,179.3771,0.2969616,-0.407816,0.8509367,7
7.38,-30.02673,1.107272,-27.70033,-0.5473528040927449,-0.1126423686917276,-0.1654601990702566,53.33342,41.39039,177.5878,0.3245737,-0.4131001,0.832446,7
7.4,-29.94979,1.306092,-27.6361,-0.5203195884924972,-0.1147276742811086,-0.1477840762323676,56.59343,38.73679,176.5415,0.3053737,-0.4381942,0.8255507,7
7.42,-29.87385,1.502467,-27.57098,-0.4893705007225164,-0.1179086579134541,-0.1274845748373505,59.81842,35.71346,175.0965,0.2858583,-0.4628016,0.817763,7
7.44,-29.64726,1.109301,-27.44008,-0.4472280774567982,-0.1122353776499617,-0.096420406455933,62.64952,32.47107,167.7074,0.2909028,-0.4707151,0.7998908,7
7.46,-29.57501,1.298419,-27.37333,-0.4032418224634915,-0.1050962115346061,-0.0632491115994673,65.71209,28.33261,165.1008,0.2720551,-0.4949362,0.7904004,7
7.48,-29.50426,1.485219,-27.30619,-0.3573934820612034,-0.0997595406887676,-0.0284247173953073,68.67312,23.26768,161.5487,0.2529346,-0.5186226,0.7800772,7
7.5,-29.43514,1.669758,-27.23878,-0.3214301287299026,-0.0129209166493195,0.0064645516572139,71.48235,16.88458,156.6624,0.2335617,-0.5417526,0.7689316,7
7.52,-29.27145,1.162041,-27.1757,-0.2720334820406975,-0.0221741035899447,0.0378854704481153,55.73341,30.17346,168.6706,0.2735212,-0.4263897,0.8373904,7
7.54,-29.20325,1.342297,-27.10274,-0.2212541622469435,-0.0317981794469875,0.0705456005387663,58.7404,26.59833,166.5414,0.255017,-0.4505188,0.8290354,7
7.56,-29.1371,1.520182,-27.0298,-0.1931094588560151,0.0312359798512973,0.0982012293226564,61.66241,22.45505,163.8215,0.2362644,-0.474174,0.8198251,7
7.58,-28.93665,1.229094,-26.98168,-0.1477130919777427,0.0261426352227166,0.1160693902106952,37.7421,39.45831,174.685,0.3332019,-0.2893151,0.8846829,7
7.6,-28.86379,1.401396,-26.8995,-0.1007550989197403,0.0201103675185042,0.1347660451417396,41.05889,37.15572,173.8599,0.3157349,-0.3159585,0.8804353,7
7.62,-28.79359,1.570831,-26.81763,-0.0522250874377547,0.0099952702006617,0.1536577401364773,44.34527,34.66283,172.8045,0.2979324,-0.3422426,0.8752091,7
7.64,-28.6327,1.263772,-26.81749,-0.0089843487436582,0.0214553538732213,0.1711349941440141,13.8443,45.89357,177.1199,0.389701,-0.101222,0.9126856,7
7.66,-28.55357,1.431884,-26.72992,0.0341263977964581,0.0332587870149372,0.188004719951536,17.37194,44.03553,176.8053,0.374353,-0.1296199,0.9145008,7
7.68,-28.4775,1.596668,-26.64278,0.0770897740883524,0.0424221655172654,0.2035539127920143,20.88786,42.11847,176.3616,0.358572,-0.1578623,0.9152185,7
7.7,-28.40463,1.758304,-26.55629,0.1064678980800377,0.11713366842084,0.2337112743305556,24.38648,40.12386,175.7778,0.3423777,-0.1859078,0.9148401,7
7.72,-28.32945,1.279438,-26.62398,0.1344479525104027,0.0982151867097332,0.2419307590431416,354.4194,49.8408,178.3437,0.4201772,0.05022632,0.9060209,7
7.74,-28.24994,1.444701,-26.53399,0.151403766024293,0.126425337764817,0.2577400629889501,357.9875,48.07756,178.2978,0.4070089,0.02208677,0.9131348,7
7.76,-28.1737,1.60654,-26.44458,0.1649093527337743,0.1529256674379911,0.2719574121939079,1.551402,46.31367,178.1423,0.3933635,-0.006071455,0.9191407,7
7.78,-28.04016,1.296126,-26.44904,0.1755596801879688,0.1044298943312674,0.2637421846174299,353.4732,51.34417,179.4469,0.4322649,0.05339378,0.8999352,7
7.8,-27.96185,1.457334,-26.35476,0.1838481443855837,0.054591633806184,0.2537330826221411,357.0613,49.57375,179.5612,0.4190141,0.02488462,0.9076096,7
7.82,-27.88708,1.61499,-26.26128,0.1863403202165199,0.0945040612853698,0.2625620266244648,0.6502361,47.81446,179.5646,0.4052672,-0.003647584,0.9141728,7
7.84,-27.82034,1.254722,-26.32813,0.1852376748292035,0.0603581432098372,0.2481130031955509,357.4412,51.87959,181.0915,0.4374889,0.01591206,0.8988962,7
7.86,-27.74263,1.419469,-26.23776,0.1817358851870327,0.0267469496233183,0.2311023832300534,1.007381,50.12225,181.2122,0.4234606,-0.01244359,0.9058101,7
7.88,-27.66817,1.58085,-26.14805,0.1756898959507573,0.0669348164682544,0.2341851084071979,4.574523,48.36885,181.2236,0.4089366,-0.04077587,0.9116274,7
7.9,-27.5971,1.739056,-26.05923,0.1659580398411195,0.104696033537993,0.2346015238351477,8.13925,46.60573,181.1251,0.393935,-0.06905042,0.9163424,7
7.92,-27.5961,1.237868,-26.18558,0.1384515984487877,0.0438207534057501,0.1991872493979452,6.187026,51.88639,182.5273,0.435666,-0.05814929,0.8982202,7
7.94,-27.51607,1.405442,-26.09562,0.1103599820341547,0.0589995652903678,0.1826832346332603,9.831919,50.15511,182.6524,0.4203761,-0.08736924,0.9030021,7
7.96,-27.43916,1.569564,-26.0062,0.0713862611326208,0.0227693806785296,0.1454957785946833,13.47787,48.4109,182.666,0.4045771,-0.1164721,0.906654,7
7.98,-27.44599,1.208716,-26.1098,0.0312851419401796,-0.0111997426187238,0.1063256211448937,13.46562,52.51187,183.4948,0.4359204,-0.1184913,0.8918095,7
8.0,-27.36467,1.383562,-26.02549,-0.0098767238181021,-0.0458565728934131,0.064567012674086,17.08379,50.79881,183.6102,0.419731,-0.1474698,0.8948831,7
8.02,-27.28598,1.555112,-25.94133,-0.0355626779075111,0.0164323548000427,0.0538789741386538,20.70258,49.05782,183.6124,0.4030403,-0.176258,0.896852,7
8.04,-27.29389,1.175823,-26.02835,-0.0777989158089034,-0.0275622914378558,0.0117779656368761,18.75411,51.42184,183.9978,0.4226528,-0.1616406,0.8908794,7
8.06,-27.21247,1.358953,-25.95007,-0.1195896622736083,-0.0683308554730151,-0.0316457039716735,22.3195,49.6895,184.0146,0.4058115,-0.1899635,0.8925932,7
8.08,-27.13311,1.538995,-25.87157,-0.1476764089836755,-0.0274834412912763,-0.0495530255433585,25.88265,47.91116,183.9122,0.3884987,-0.2180499,0.8932333,7
8.1,-27.05597,1.716048,-25.79303,-0.192754946249209,-0.0685839161303084,-0.0897091276755834,29.4397,46.06834,183.6795,0.3707359,-0.2458636,0.8928013,7
8.12,-27.13374,1.145584,-25.93711,-0.2361761724380957,-0.1064986516644004,-0.1296242171285375,24.61692,47.83028,183.9836,0.3890527,-0.2085213,0.8955986,7
8.14,-27.05333,1.33696,-25.86358,-0.2658438716466071,-0.0597936220237995,-0.14726983577382,28.11887,46.01159,183.7869,0.3715217,-0.2360115,0.8955418,7
8.16,-26.97444,1.525445,-25.78947,-0.3040486590014351,-0.0970066502655162,-0.1805090734611747,31.61189,44.11589,183.4534,0.3535741,-0.2632165,0.8944393,7
8.18,-26.98443,1.12496,-25.85355,-0.3396089920193477,-0.1312357971093844,-0.2124735486065834,32.1007,44.5037,183.4804,0.3559786,-0.2668252,0.8922197,7
8.2,-26.90462,1.32249,-25.78425,-0.3565119053261267,-0.0788488017565074,-0.2219681454106474,35.53049,42.52844,183.0328,0.3377297,-0.2933849,0.8900967,7
8.22,-26.82592,1.517292,-25.71412,-0.3724284661426904,-0.1109968221839062,-0.2412130858955428,38.944,40.42893,182.4131,0.319113,-0.3196043,0.8869626,7
8.24,-26.77134,1.115718,-25.7361,-0.3847836048547286,-0.1405090072402203,-0.2584359620952541,41.87756,43.36031,182.2945,0.338311,-0.3389316,0.8703642,7
8.26,-26.69169,1.31612,-25.66975,-0.3874592402081402,-0.0821842329009915,-0.2592007524520543,45.24343,41.20021,181.6574,0.3195328,-0.3647102,0.8659098,7
8.28,-26.61297,1.513893,-25.60243,-0.3867007545937384,-0.0246311754821719,-0.2570648858100011,48.58761,38.84602,180.7883,0.3004166,-0.3900775,0.8604974,7
8.3,-26.53532,1.709049,-25.5343,-0.3883277259716431,-0.083141137814785,-0.2659344495225122,51.90207,36.24157,179.635,0.2809838,-0.4150061,0.8541344,7
8.32,-26.51845,1.113106,-25.58291,-0.3860250590973177,-0.1409423442918009,-0.2723936397019755,48.08282,41.52493,179.4461,0.3255801,-0.3793704,0.8532351,7
8.34,-26.44078,1.313989,-25.51717,-0.370608064513799,-0.0836671260503879,-0.2563314880841791,51.38137,39.18386,178.6246,0.3070519,-0.4047581,0.8471697,7
8.36,-26.36399,1.51234,-25.45048,-0.3357518835787667,-0.1119035438669273,-0.2313242863360445,54.65305,36.57803,177.5065,0.2882085,-0.4297026,0.8401937,7
8.38,-26.19942,1.102297,-25.36499,-0.2980561439876759,-0.1395473606186778,-0.2036887994863572,59.6904,38.38275,173.9626,0.3094823,-0.4543339,0.8094179,7
8.4,-26.1253,1.296371,-25.2991,-0.2625556164934659,-0.0795336678730442,-0.1682242978677552,62.89227,35.2916,172.3872,0.2910442,-0.4788855,0.8006982,7
8.42,-26.05239,1.488069,-25.23262,-0.2041930529384497,-0.0957059477223895,-0.1217967684786267,66.04276,31.60622,170.1957,0.272315,-0.5029235,0.7911427,7
8.44,-25.83467,1.129066,-25.10412,-0.1446564022431364,-0.1125349299352874,-0.0730324894236447,60.93597,29.16473,166.613,0.2727235,-0.4620845,0.8135819,7
8.46,-25.7649,1.313672,-25.034,-0.1067161364861228,-0.0452238554526249,-0.0321515595259787,63.93338,25.0914,163.941,0.254658,-0.4859782,0.8039178,7
8.48,-25.69685,1.495939,-24.96375,-0.0687190603650371,0.0204639779794915,0.0095195656105251,66.82451,20.18733,160.42,0.2363462,-0.5093663,0.7934332,7
8.5,-25.63062,1.675943,-24.89349,-0.0186910252942698,-0.0101217784259604,0.045187925707506,69.56258,14.14889,155.7492,0.2178091,-0.5322254,0.782141,7
8.52,-25.48076,1.195783,-24.85185,0.0320071219047828,-0.0427643675563752,0.082310925843041,48.26854,35.05043,173.0903,0.2978005,-0.3726295,0.8612304,7
8.54,-25.41375,1.372637,-24.77552,0.0689868444344097,0.0228503998312741,0.1210367647318593,51.36726,32.40454,171.8486,0.2804056,-0.3972632,0.8546241,7
8.56,-25.34892,1.547034,-24.69941,0.1196022717681195,0.0195806891366173,0.1484185034768503,54.42237,29.45133,170.2719,0.2627445,-0.4214912,0.847163,7
8.58,-25.16373,1.250335,-24.68697,0.1713407794281281,0.0152475890933171,0.1768497029645708,26.17203,42.48979,175.9613,0.3601619,-0.1984588,0.9043819,7
8.6,-25.08568,1.419417,-24.5998,0.2037250789659879,0.0767184804428749,0.2094015892211773,29.67662,40.5506,175.4335,0.3442799,-0.2266884,0.9025019,7
8.62,-25.01051,1.585222,-24.51309,0.2430127150397014,0.0677061493982368,0.2282624938724327,33.16315,38.50074,174.7439,0.3280075,-0.2546519,0.8995609,7
8.64,-24.87909,1.272042,-24.52,0.2815958931747175,0.0578942704376386,0.2461826236923827,2.345892,48.2563,177.8962,0.4089673,-0.01117578,0.9121348,7
8.66,-24.79889,1.438924,-24.43143,0.305450942871603,0.1153528006710166,0.2746640606424875,5.906239,46.5592,177.7535,0.3955455,-0.03957828,0.9167919,7
8.68,-24.72178,1.602398,-24.34337,0.3256333468915358,0.1696460726309949,0.3005286859399487,9.459762,44.84056,177.5031,0.3816693,-0.06792554,0.9203591,7
8.7,-24.64787,1.762641,-24.25605,0.3439474010268113,0.1295628584272225,0.3031140972509036,13.00313,43.08644,177.1404,0.3673557,-0.09618388,0.9228337,7
8.72,-24.56424,1.291703,-24.30669,0.3601211257665122,0.0874518837375177,0.3038769196781805,352.2147,50.19562,178.9744,0.4226191,0.06526267,0.9037173,7
8.74,-24.48514,1.454204,-24.21362,0.3733279915701448,0.1360428540852665,0.3250678400266515,355.8084,48.51061,179.0214,0.4102288,0.0368464,0.9112093,7
8.76,-24.4094,1.613162,-24.12132,0.3816698160438267,0.1094157050197036,0.3211916862776003,359.401,46.83464,178.9627,0.3973602,0.008394193,0.9176033,7
8.78,-24.33257,1.269774,-24.17157,0.3872496698601337,0.0826181905737983,0.3150815092975843,354.1067,51.41533,179.9568,0.4331887,0.04648125,0.8998362,7
8.8,-24.25565,1.433352,-24.07979,0.3809962281253396,0.1231621634748032,0.319953999116545,357.6589,49.72969,180.1042,0.4204082,0.01815219,0.9071047,7
8.82,-24.18197,1.593527,-23.98877,0.3691917052972595,0.0899742390570021,0.3007204035696622,1.212941,48.05589,180.1471,0.4071467,-0.01019022,0.9133008,7
8.84,-24.10717,1.246156,-24.04112,0.3547886553406325,0.0576519734209563,0.2781894551578499,1.411204,52.0722,181.5439,0.4387152,-0.01697732,0.8984408,7
8.86,-24.02747,1.411627,-23.95073,0.338508204908325,0.1005585647083006,0.2755349684070509,5.033385,50.41019,181.6871,0.424818,-0.04598895,0.9040938,7
8.88,-23.95092,1.573637,-23.861,0.318297505368931,0.1412281406036397,0.2696787065958008,8.657772,48.74629,181.7248,0.4104188,-0.07493999,0.9086446,7
8.9,-23.87767,1.732376,-23.77215,0.2784084616387168,0.0823314643569149,0.2269951943839672,12.28069,47.06695,181.6553,0.395536,-0.103792,0.9120888,7
8.92,-23.90759,1.226351,-23.91334,0.2375509909687441,0.0242305732283951,0.1815143658898748,10.35318,51.75857,183.1102,0.4323332,-0.09294447,0.896785,7
8.94,-23.82665,1.397095,-23.82583,0.2058136741759533,0.0624438765690108,0.1647376356754644,13.98969,50.11894,183.2229,0.4171378,-0.1220954,0.9002215,7
8.96,-23.80768,1.199736,-23.87269,0.1585056535394771,0.0224217608794287,0.1188926828192245,14.76944,52.6754,183.6177,0.4361258,-0.1290196,0.8901183,7
8.98,-23.72604,1.376774,-23.79067,0.1107265523854987,-0.0147552413153666,0.0705380783696352,18.35896,51.04773,183.7313,0.4204567,-0.1577305,0.8926147,7
9.0,-23.6468,1.550583,-23.70874,0.074632362155476,0.0261968424709679,0.0479625683914326,21.94908,49.39153,183.7376,0.4043005,-0.1862448,0.894043,7
9.02,-23.57012,1.721293,-23.62709,0.0247610692009363,-0.0135584186348128,0.002012986283018,25.53665,47.69089,183.6286,0.3876764,-0.2145254,0.8944034,7
9.04,-23.59955,1.16083,-23.75619,-0.0246704887464228,-0.049986394984704,-0.0454219259689403,21.59542,50.20274,184.0536,0.4104495,-0.1842808,0.89178,7
9.06,-23.5176,1.34807,-23.68081,-0.0610166176483177,-0.0040307852032788,-0.0691816771582409,25.13631,48.52013,183.98,0.3939028,-0.2121908,0.892412,7
9.08,-23.4374,1.532296,-23.60505,-0.0972639534041697,0.0412573853042351,-0.0931006781388585,28.67255,46.78045,183.7858,0.376912,-0.2398451,0.8920024,7
9.1,-23.47976,1.139186,-23.68683,-0.1544175091366728,-0.0251259579415689,-0.1452113960638974,26.30559,47.34948,183.9102,0.3836729,-0.2216166,0.8944125,7
9.12,-23.39915,1.332298,-23.61499,-0.209475150537628,-0.0891506689506503,-0.197547422642017,29.78187,45.58588,183.6653,0.3666238,-0.2487646,0.8936784,7
9.14,-23.31991,1.522565,-23.54254,-0.239463717355461,-0.0423690686889678,-0.2171206038321917,33.24828,43.73964,183.2839,0.3491752,-0.2756212,0.8919314,7
9.16,-23.31339,1.121914,-23.5904,-0.274480583119741,-0.0797818733903415,-0.250222181551365,34.73535,44.32131,183.2039,0.3521388,-0.2864081,0.8867089,7
9.18,-23.2332,1.320243,-23.52229,-0.3061735182613825,-0.1142382120853192,-0.2819809288138906,38.14573,42.38028,182.7032,0.3343396,-0.3126492,0.8837424,7
9.2,-23.15403,1.515865,-23.45334,-0.3214376628939983,-0.061156695167207,-0.291966724937776,41.53897,40.30269,182.0233,0.3161857,-0.3385372,0.8797986,7
9.22,-23.0909,1.115177,-23.46914,-0.3338252788686433,-0.0928453197121288,-0.3091145353784501,43.2871,43.36143,181.667,0.3383655,-0.3476979,0.8656318,7
9.24,-23.01134,1.315859,-23.40306,-0.3424562887429072,-0.1222151287946949,-0.3239884276791684,46.63857,41.26493,181.0192,0.3202801,-0.3733279,0.8606192,7
9.26,-22.93266,1.513922,-23.33605,-0.3439031598720632,-0.0636244616468809,-0.3230087491859028,49.9691,38.96964,180.1378,0.3018642,-0.3985479,0.8546798,7
9.28,-22.85498,1.709377,-23.26824,-0.3419204070565147,-0.0059156812885478,-0.3188775587967605,53.27095,36.41684,178.9679,0.2831381,-0.4233309,0.8478209,7
9.3,-22.81915,1.110134,-23.2952,-0.3359123165273332,-0.0652210853583677,-0.319850962533486,50.69737,41.04969,178.6258,0.3216414,-0.3971201,0.8444903,7
9.32,-22.74204,1.309991,-23.22943,-0.3265267851700884,-0.1244258707426765,-0.3184078833312345,53.97733,38.69088,177.708,0.3036918,-0.4222019,0.8376089,7
9.34,-22.66583,1.507338,-23.1628,-0.3048273379552615,-0.0686571594340787,-0.297285392441359,57.2288,36.03241,176.4626,0.2854382,-0.4468337,0.8298508,7
9.36,-22.48109,1.104603,-23.05709,-0.2608749609928447,-0.0945033279172892,-0.2664743064783952,61.22338,35.34814,171.0941,0.2981723,-0.46343,0.8055368,7
9.38,-22.40799,1.296154,-22.99025,-0.2145951796737826,-0.1205260557468978,-0.2330254564534812,64.3689,31.92561,169.0762,0.2804419,-0.4876285,0.7960658,7
9.4,-22.33617,1.485339,-22.92296,-0.1793377355970093,-0.0591591910193051,-0.200053197491441,67.44581,27.77676,166.3131,0.2624387,-0.511318,0.7857853,7
9.42,-22.12081,1.1445,-22.79697,-0.122736352443292,-0.0690404612137151,-0.1604115936965762,58.36005,29.59331,167.7191,0.2721214,-0.4448316,0.825977,7
9.44,-22.05153,1.326866,-22.72528,-0.0653487990106458,-0.0796355273736726,-0.118784062011378,61.36982,25.94408,165.3762,0.2547669,-0.4686799,0.8166455,7
9.46,-21.98405,1.506856,-22.65358,-0.0290899589632851,-0.0119030893668774,-0.0848560232908952,64.29015,21.62998,162.3497,0.2371724,-0.4920529,0.806502,7
9.48,-21.91847,1.684549,-22.582,0.006769802626795,0.0539266715361148,-0.050816587080003,67.08556,16.42696,158.4183,0.2193576,-0.5149279,0.7955579,7
9.5,-21.77062,1.212207,-22.5554,0.0522901644859294,0.024697194162334,-0.0301924381431373,43.02951,36.58353,173.8878,0.3101365,-0.3321475,0.8759215,7
9.52,-21.70086,1.386811,-22.47578,0.0992717607037878,-0.00677918297281,-0.0080328355466812,46.23875,34.2607,172.8818,0.2936622,-0.357689,0.870014,7
9.54,-21.6334,1.558738,-22.39648,0.134870860305329,0.0550134297264962,0.0193908611348203,49.41378,31.70625,171.6135,0.2769016,-0.3828562,0.8632166,7
9.56,-21.46888,1.257347,-22.39536,0.1790612899136898,0.0467597391090043,0.0301666306020935,20.01587,43.8064,176.5345,0.3720708,-0.1500581,0.9113196,7
9.58,-21.39018,1.425897,-22.30776,0.2248704910507819,0.0374578199108028,0.0414128431730791,23.53491,42.04802,176.1373,0.3574354,-0.1784187,0.9108278,7
9.6,-21.31434,1.59111,-22.22067,0.2538585272044793,0.0943211929985402,0.0620452365094919,27.04159,40.21197,175.6068,0.3424,-0.2065784,0.9092813,7
9.62,-21.18048,1.275833,-22.22093,0.2836205062578805,0.0811140673459405,0.0667321669386691,358.3861,49.10007,178.1367,0.4151833,0.01956391,0.9094834,7
9.64,-21.09992,1.441859,-22.13198,0.3121954828303215,0.0671134809937595,0.0703676841168903,1.951221,47.49372,178.0626,0.4028442,-0.008775866,0.9149542,7
9.66,-21.02242,1.604444,-22.04362,0.3306302960432399,0.1208010588606266,0.0862058567405439,5.511884,45.87783,177.888,0.3900487,-0.03709744,0.9193542,7
9.68,-20.94811,1.763765,-21.95607,0.3107308583553125,0.1045456179253291,0.0805673942649365,9.065108,44.23971,177.6107,0.3768125,-0.06536705,0.92268,7
9.7,-20.86411,1.293963,-22.01021,0.2906473554304667,0.0872168201683397,0.0739419787250925,352.8335,50.51444,179.2023,0.4254448,0.05948754,0.9027972,7
9.72,-20.78486,1.455795,-21.91685,0.270262432871946,0.0659578089445446,0.0655848323308374,356.4242,48.9064,179.291,0.4135647,0.03096043,0.9099191,7
9.74,-20.70893,1.614059,-21.82432,0.2056460746056125,0.0594909745969174,0.0459752988474924,0.01498375,47.30866,179.2789,0.4012106,0.002404928,0.9159643,7
9.76,-20.64182,1.262125,-21.89059,0.1428637615370482,0.0541640106897891,0.024606076545484,355.7565,51.83247,180.5364,0.4369081,0.03125516,0.8987318,7
9.78,-20.56355,1.426243,-21.80013,0.0817818355260588,0.0471895296894329,0.0007565819443708,359.3147,50.231,180.6886,0.4244617,0.002864391,0.9054062,7
9.8,-20.48841,1.586953,-21.71041,0.0216376060830971,0.1106939367549276,-0.0050463847029491,2.874805,48.63868,180.7413,0.4115359,-0.02552185,0.9110253,7
9.82,-20.42382,1.240679,-21.76465,-0.0991986525856325,0.0771830056218359,-0.0454957845829895,4.005575,52.59483,182.0238,0.4421378,-0.03914529,0.8960925,7
9.84,-20.34249,1.407276,-21.67565,-0.2138812556260836,0.0445177012558758,-0.0874041870166277,7.638392,51.02042,182.1789,0.4284948,-0.06827383,0.9008868,7
9.86,-20.26417,1.570394,-21.58725,-0.3232433286123717,0.0854756339137919,-0.1100750940273704,11.2737,49.44083,182.2335,0.4143506,-0.09731589,0.9045957,7
9.88,-20.18901,1.730217,-21.49969,-0.4895181716877737,0.050627831543605,-0.1569594794962006,14.90807,47.84294,182.1854,0.3997229,-0.1262329,0.9072155,7
9.9,-20.2285,1.217448,-21.64555,-0.6474456617526196,0.0178247840201198,-0.2050950997401228,11.90771,52.55305,183.3061,0.4374497,-0.1056721,0.8927847,7
9.92,-20.14611,1.390206,-21.56052,-0.7972017130288083,-0.0158620878937996,-0.2551000002873049,15.53464,50.99891,183.4311,0.4227096,-0.1347005,0.8956494,7
9.94,-20.06635,1.55959,-21.4758,-0.9719027839354656,-0.0314801889386278,-0.2918208137164511,19.16252,49.42367,183.4545,0.4074783,-0.1635596,0.8974404,7
9.96,-20.08157,1.183201,-21.57847,-1.1363747448380177,-0.0433760124730075,-0.3289157093853458,17.42114,52.98444,183.8803,0.4360898,-0.1503911,0.8864521,7
9.98,-19.99833,1.364203,-21.50009,-1.2819678618310637,0.0001601594765688,-0.3468809927783565,20.99952,51.43353,183.9657,0.4207208,-0.1788457,0.88807,7
10.0,-19.91718,1.542037,-21.42162,-1.418188010687754,0.0427421493146164,-0.3645430556722608,24.57774,49.84881,183.947,0.4048748,-0.2070833,0.888649,7
10.02,-19.92718,1.153134,-21.49867,-1.5939357699297323,-0.0238097708688364,-0.4090532459831348,23.08104,50.55045,184.009,0.4117512,-0.1954306,0.8884319,7
10.04,-19.84405,1.342374,-21.42608,-1.7574264356725045,-0.0879628913779197,-0.4529219615240216,26.60091,48.92987,183.8989,0.3956712,-0.2229908,0.8885287,7
10.06,-19.76248,1.528647,-21.35304,-1.89328820888583,-0.043644804829115,-0.4651051090221272,30.11513,47.24836,183.67,0.3791565,-0.2502869,0.8876166,7
10.08,-19.6826,1.712017,-21.27971,-2.0432512928584017,-0.0830435171161064,-0.4918248438168371,33.62063,45.48637,183.3087,0.3622264,-0.2772907,0.8856969,7
10.1,-19.75275,1.128869,-21.40083,-2.1806567718415164,-0.1193105902540326,-0.5160035463815786,30.05574,46.63404,183.6526,0.3744984,-0.2501749,0.8897423,7
10.12,-19.67092,1.325025,-21.3321,-2.287623739240747,-0.0695689369053726,-0.5144847348773514,33.50528,44.87319,183.2867,0.3576718,-0.2767923,0.8878642,7
10.14,-19.59019,1.518389,-21.26265,-2.3929252197028874,-0.1043411682975591,-0.5239010008900147,36.94227,43.01018,182.7727,0.3404653,-0.3030968,0.8850065,7
10.16,-19.56347,1.117249,-21.29997,-2.4851832350532645,-0.1362814771485485,-0.5297101154965325,39.63696,45.11861,182.6345,0.3536242,-0.3213131,0.8715472,7
10.18,-19.4818,1.316976,-21.23479,-2.553935986684812,-0.0805370483081767,-0.5142832075858772,43.01949,43.17264,182.0552,0.3361105,-0.3470273,0.8673846,7
10.2,-19.401,1.514029,-21.16873,-2.6100540465205126,-0.025517171277639,-0.4944008387093417,46.38355,41.06221,181.2755,0.3182503,-0.3723615,0.8622909,7
10.22,-19.32563,1.113865,-21.17137,-2.666134877619039,-0.0860182428867999,-0.4885367505872544,46.38621,44.60613,180.3014,0.3478755,-0.3652848,0.8508085,7
10.24,-19.2449,1.314726,-21.10789,-2.7068789443158514,-0.0565207152642472,-0.4658119769676978,49.70864,42.52587,179.6003,0.3304242,-0.39055,0.8450737,7
10.26,-19.16495,1.513003,-21.0435,-2.7350435171980387,-0.0258389373491633,-0.4381423713435159,53.00985,40.22396,178.647,0.3126419,-0.4153996,0.838457,7
10.28,-19.08594,1.708704,-20.97832,-2.740391230724421,-0.0829695175688081,-0.403723240395581,56.28176,37.63144,177.376,0.2945474,-0.4398082,0.8309668,7
10.3,-19.00321,1.103861,-20.96815,-2.7343963956612347,-0.1403870691183678,-0.3658805640662823,56.51097,41.65195,176.1101,0.3280046,-0.4315903,0.8171085,7
10.32,-18.92554,1.300295,-20.90479,-2.711204874910087,-0.0826575337433539,-0.3107921006225633,59.74836,39.04929,174.8738,0.3105065,-0.456026,0.808998,7
10.34,-18.84887,1.494286,-20.84076,-2.658031618977988,-0.10390391834755,-0.2429597265799206,62.94853,36.0138,173.1826,0.2927073,-0.4799876,0.800069,7
10.36,-18.64094,1.118138,-20.73086,-2.5950931926396463,-0.1255781067543971,-0.1723363692699053,61.80771,32.95374,167.1291,0.2970304,-0.4621274,0.8012831,7
10.38,-18.56687,1.30491,-20.66488,-2.5391046460408564,-0.0613330456406324,-0.1052109359955641,64.84763,29.09263,164.5412,0.2798829,-0.4857614,0.791512,7
10.4,-18.4943,1.489319,-20.59866,-2.474709642577084,0.0013293482972212,-0.0365398170275925,67.79197,24.38701,161.0925,0.2624717,-0.5089058,0.7809592,7
10.42,-18.28358,1.178334,-20.49918,-2.38649712486613,-0.0335891228759963,0.0258657998904698,52.06307,35.59423,171.1351,0.3061128,-0.3953889,0.842627,7
10.44,-18.21164,1.356777,-20.4279,-2.311866440210007,0.0086496857564381,0.080939791298741,55.13457,32.7814,169.5581,0.2895117,-0.4193774,0.8350301,7
10.46,-18.14169,1.532767,-20.35671,-2.2306417506365683,0.0506624515104545,0.1358095798195568,58.15192,29.57516,167.5658,0.2726438,-0.4429517,0.8266266,7
10.48,-18.07382,1.706398,-20.28575,-2.121785298457937,0.0233018894690995,0.17467745318597,61.09694,25.85943,165.0448,0.2555278,-0.4660898,0.8174256,7
10.5,-17.93751,1.240006,-20.30746,-2.0049540179569587,-0.0064039820032557,0.2142939493872719,31.96236,42.73113,175.2966,0.3604631,-0.2418128,0.8904135,7
10.52,-17.85803,1.410689,-20.22607,-1.893133158829364,0.0555452819122859,0.2607630691719018,35.37471,40.82911,174.6384,0.3452756,-0.2688858,0.8869572,7
10.54,-17.78116,1.578269,-20.14505,-1.7644606193881085,0.0471959298725689,0.2851401522256789,38.76567,38.79139,173.8054,0.3297248,-0.29566,0.8825316,7
10.56,-17.64637,1.268184,-20.18042,-1.6293463415411436,0.0379033173446126,0.3085384914885183,8.11891,51.0776,177.5466,0.4313096,-0.05465386,0.8991703,7
10.58,-17.56028,1.435558,-20.09799,-1.5030901625251891,0.0952327980082718,0.3420014914150169,11.66641,49.51579,177.3753,0.4186209,-0.08272526,0.9021718,7
10.6,-17.47711,1.599526,-20.01593,-1.3744066799564971,0.1494759355716002,0.3725393153287415,15.20691,47.92127,177.1013,0.4054679,-0.1106935,0.9041412,7
10.62,-17.37606,1.285501,-20.03364,-1.240287743505461,0.1092581812147824,0.3726425909332929,353.3118,53.25832,178.6514,0.4468063,0.05740708,0.8926501,7
10.64,-17.29032,1.449357,-19.94776,-1.1115451485149526,0.1386723090638889,0.3833496782039747,356.8928,51.72926,178.6665,0.4357727,0.02946947,0.8995734,7
10.66,-17.20773,1.609694,-19.86244,-0.9815888679068798,0.1663611003302249,0.3912701173066986,0.4718077,50.20486,178.5862,0.4242481,0.001505823,0.9054528,7
10.68,-17.37514,1.296105,-19.91489,-0.8509628966861276,0.1191642668547577,0.3700920831697591,353.4652,54.57358,179.4647,0.4574578,0.05279081,0.8873907,7
10.7,-17.29029,1.457279,-19.8262,-0.7184387464984316,0.0706329117489425,0.3458038482354708,357.0493,53.03814,179.6127,0.4462672,0.02454623,0.8945228,7
10.72,-17.20876,1.614863,-19.73822,-0.5863529031339607,0.1118073637743859,0.3389213767215997,0.6349913,51.51543,179.6646,0.4345726,-0.003718661,0.900615,7
10.74,-17.42718,1.254707,-19.85874,-0.456831300202676,0.0789968669908404,0.3035626129754138,357.4277,56.60119,181.1261,0.4741493,0.01510418,0.8801036,7
10.76,-17.34144,1.419359,-19.77547,-0.3261898554185733,0.0467315824669558,0.2641741652785536,0.9902902,55.08018,181.2988,0.4622354,-0.01290227,0.8866428,7
10.78,-17.25878,1.580601,-19.6927,-0.1940266716530496,0.0882184060779299,0.2438569071106928,4.555204,53.56687,181.3771,0.4498047,-0.04088589,0.8921617,7
10.8,-17.17933,1.738612,-19.61065,-0.0628567756799998,0.127270494781946,0.2197477220631127,8.119931,52.04951,181.3609,0.4368719,-0.06881487,0.8966553,7
10.82,-17.53486,1.237845,-19.75421,0.0464948296689828,0.0677968427622604,0.1597921208490778,6.172048,56.93695,182.5462,0.474815,-0.05788929,0.8781583,7
10.84,-17.44616,1.405336,-19.67222,0.1585212050649447,0.0843451875167807,0.1175400187113742,9.814985,55.44703,182.7091,0.4615805,-0.08666221,0.8826521,7
10.86,-17.36039,1.56933,-19.59061,0.2699061819406949,0.101036596292155,0.0721371500407173,13.45986,53.94963,182.7768,0.4478106,-0.1153241,0.8860934,7
10.88,-17.70801,1.208875,-19.6685,0.3612660837789603,0.039162033164795,-0.0024093942767788,13.45679,54.66463,183.4505,0.452648,-0.117764,0.8834597,7
10.9,-17.62138,1.383775,-19.58908,0.4534734667102766,-0.0210069255357596,-0.0808917924880412,17.07554,53.17941,183.5372,0.4383301,-0.146357,0.8859546,7
10.92,-17.53718,1.55534,-19.50979,0.5628976575588232,0.0179774182441374,-0.1288108265388134,20.6942,51.66912,183.5255,0.4235117,-0.1747703,0.8874078,7
10.94,-17.79478,1.175954,-19.5623,0.6536442499222213,-0.0229428091583868,-0.1993888049534344,18.74902,51.84964,183.9566,0.4260384,-0.1612989,0.8892866,7
10.96,-17.71092,1.359139,-19.48586,0.7449763908461848,-0.0606544277217309,-0.273018856136741,22.31409,50.34277,183.947,0.4110106,-0.1893906,0.8902423,7
10.98,-17.62896,1.539196,-19.40927,0.8503697291520087,-0.0168344674846998,-0.3219775995267988,25.87661,48.79427,183.8331,0.3955272,-0.2172579,0.8901797,7
11.0,-17.54905,1.716219,-19.33268,0.95511119787341,0.0262050433481654,-0.3721903149731318,29.43361,47.1883,183.606,0.379608,-0.2448696,0.8890999,7
11.02,-17.81521,1.145809,-19.44395,1.0311948801993798,-0.0417384150467894,-0.4468676533523217,24.60236,45.13804,183.9153,0.3680451,-0.2094296,0.904484,7
11.04,-17.73627,1.337311,-19.36802,1.1214623164232729,-0.0227090787607911,-0.500027835447062,28.09925,43.52862,183.6633,0.3523076,-0.236839,0.9033519,7
11.06,-17.65874,1.525881,-19.29165,1.2120471564606723,-0.0021297765130333,-0.55301960664017,31.58694,41.84611,183.2886,0.3361962,-0.2639796,0.901218,7
11.08,-17.76247,1.12517,-19.3339,1.2900951905616265,-0.0665480952723805,-0.6194208435657171,32.08035,39.02947,183.4086,0.3131562,-0.269872,0.9082047,7
11.1,-17.68778,1.322833,-19.25818,1.3686144696740037,-0.1290040938419702,-0.686551757399541,35.5022,37.25479,182.9024,0.2967909,-0.296523,0.9046767,7
11.12,-17.61415,1.517726,-19.18183,1.4694867173784742,-0.0782688458168822,-0.7254177091003786,38.90786,35.36086,182.2371,0.2801199,-0.3228472,0.9001751,7
11.14,-17.61876,1.115849,-19.20739,1.566811328765944,-0.1120440695414242,-0.7739248327995996,41.85596,36.24036,182.2415,0.2837981,-0.3450967,0.8897114,7
11.16,-17.54669,1.316324,-19.13194,1.664346527459993,-0.1433370864501976,-0.8216069648049387,45.21665,34.28521,181.5644,0.2670606,-0.3710312,0.8836073,7
11.18,-17.47552,1.51413,-19.05575,1.7696185480943616,-0.0867811670090225,-0.8525497572566527,48.55676,32.1459,180.6712,0.2500566,-0.3965692,0.8765776,7
11.2,-17.40539,1.709278,-18.97896,1.8742671111802536,-0.031061853044501,-0.8813165842534696,51.8693,29.7698,179.5127,0.2328041,-0.421684,0.8686311,7
11.22,-17.42332,1.113093,-19.0286,1.971489478476944,-0.0918546214132875,-0.9183612081904552,48.0717,35.23835,179.4618,0.2782633,-0.3868984,0.8698592,7
11.24,-17.35324,1.313919,-18.95392,2.0683027623181767,-0.0629658753999091,-0.9433862532420968,51.37332,33.154,178.6733,0.2619019,-0.4124293,0.8622329,7
11.26,-17.28403,1.512175,-18.87851,2.1633873858576047,-0.0331370499702491,-0.9657932383723652,54.65203,30.8279,177.6158,0.2452868,-0.4375327,0.8537296,7
11.28,-17.14117,1.102268,-18.78617,2.2772597185505994,-0.0886743155471793,-0.9866166373884556,59.67209,32.40055,174.0012,0.2666835,-0.4644462,0.824604,7
11.3,-17.074,1.296283,-18.71227,2.3871984120201795,-0.1453066280074373,-1.005396953741049,62.8802,29.59078,172.4832,0.2504651,-0.4889461,0.8143924,7
11.32,-17.00797,1.487881,-18.63801,2.4920700613781284,-0.086677029696377,-1.0140110755758736,66.04329,26.22725,170.3928,0.2340099,-0.5129501,0.8033774,7
11.34,-16.8085,1.128849,-18.49994,2.6144787368544664,-0.101334857986345,-1.0220049886165192,60.95676,25.61795,166.7087,0.2470213,-0.4691558,0.8217137,7
11.36,-16.74326,1.313282,-18.42462,2.730698704939228,-0.1167296687695349,-1.027250929258562,63.97954,21.89406,164.172,0.2311441,-0.4929976,0.8109267,7
11.38,-16.67961,1.495328,-18.34937,2.820437276169269,-0.0509419013577276,-1.0368145698030964,66.90997,17.387,160.8366,0.2150557,-0.5163548,0.7993583,7
11.4,-16.61763,1.675063,-18.27432,2.902012916029073,0.0130344451918328,-1.0447202652841363,69.70655,11.79568,156.4035,0.1987702,-0.5392016,0.787023,7
11.42,-16.44674,1.19546,-18.25108,2.9828003328632664,-0.0181616387226681,-1.064710716071084,48.30797,34.73223,173.1842,0.295078,-0.3736585,0.8620569,7
11.44,-16.38037,1.372068,-18.17321,3.035474339555762,0.0223987884508304,-1.0872596380106878,51.42807,32.41832,172.0779,0.2796806,-0.3982642,0.8547233,7
11.46,-16.31601,1.546166,-18.09567,3.0789128067605347,0.0621171504069596,-1.10873100759195,54.51397,29.83064,170.6738,0.2640316,-0.4224851,0.8465831,7
11.48,-16.10351,1.250146,-18.12635,3.11737338896953,0.0311087508519829,-1.1457164951184478,26.20517,44.78444,176.0344,0.3780571,-0.1966392,0.8969995,7
11.5,-16.02207,1.419056,-18.04164,3.147725733170224,-0.002093473825083,-1.1814897474865211,29.7171,43.1187,175.6032,0.3640647,-0.2246926,0.8946624,7
11.52,-15.94333,1.584642,-17.95742,3.1588907440174143,0.0550394906992396,-1.2025247713201557,33.21617,41.35853,175.0321,0.3496755,-0.2524911,0.8913253,7
11.54,-15.786,1.271879,-18.02048,3.1611658864374044,0.0415473304609445,-1.2371597482387404,2.374316,53.63581,177.9746,0.451316,-0.01051489,0.8919489,7
11.56,-15.69802,1.43858,-17.93891,3.1521790540019943,0.0272771611538924,-1.2719777734450366,5.933807,52.17321,177.9254,0.4399094,-0.0385289,0.8963676,7
11.58,-15.61295,1.601824,-17.85774,3.122310790476604,0.0804891089620378,-1.2899986446355536,9.489838,50.69661,177.7838,0.4280187,-0.06649073,0.8997716,7
11.6,-15.53094,1.761781,-17.77715,3.077423413103789,0.1304293559564714,-1.308375717922547,13.03999,49.19413,177.5466,0.4156577,-0.09436917,0.9021578,7
11.62,-15.42795,1.291511,-17.8869,3.0192692393197538,0.0843939883134811,-1.344366046538505,352.2163,58.66759,179.0569,0.4882636,0.06319124,0.8700145,7
11.64,-15.33606,1.453828,-17.80568,2.9434985031941814,0.1077958453466999,-1.3655954995808952,355.8059,57.19946,179.1997,0.4781312,0.03546737,0.8774984,7
11.66,-15.24738,1.612547,-17.72491,2.851247715294097,0.1297854788902941,-1.3872751218549677,359.397,55.74557,179.2502,0.4674632,0.007710735,0.8839729,7
11.68,-15.16253,1.269747,-17.82585,2.741960189739709,0.1476515896875524,-1.4099207747697715,354.0972,62.26447,180.0274,0.5163398,0.04394972,0.8548347,7
11.7,-15.06954,1.433161,-17.74969,2.6322174401934744,0.1359185759521433,-1.43563389691009,357.6437,60.79891,180.259,0.5059574,0.01659052,0.8623106,7
11.72,-14.97968,1.593121,-17.67384,2.508376367336888,0.1257036251880752,-1.462041007638292,1.193952,59.35007,180.3997,0.4950188,-0.01077949,0.868813,7
11.74,-14.90639,1.246095,-17.76996,2.3699815484146427,0.1142246917150592,-1.4896360058588631,1.388402,64.90495,181.6032,0.536365,-0.01772909,0.8437835,7
11.76,-14.80835,1.41143,-17.69922,2.24693687701432,0.1047834253725492,-1.5041084653835215,5.004496,63.47262,181.8219,0.5248525,-0.04548067,0.8499249,7
11.78,-14.71333,1.573259,-17.62859,2.111877781727272,0.0974023690201976,-1.5181442664507858,8.624563,62.04466,181.9494,0.5127427,-0.07317023,0.8550762,7
11.8,-14.62152,1.731766,-17.55827,1.964380848424562,0.0892089032144516,-1.5321852756345322,12.24565,60.60967,181.9861,0.5000507,-0.1007672,0.859232,7
11.82,-14.67714,1.226283,-17.71079,1.7851950040833906,0.0025797402981567,-1.5622240679203614,10.3353,66.28858,183.1627,0.5422385,-0.09041362,0.8349345,7
11.84,-14.57654,1.396873,-17.64596,1.6596862296194097,0.0149324897364365,-1.5594723935524757,13.96767,64.88836,183.3457,0.5292749,-0.1181123,0.8392004,7
11.86,-14.47861,1.564014,-17.58099,1.5243123684182966,0.0283772478044768,-1.5562591561807628,17.60228,63.47639,183.4389,0.5157062,-0.1456648,0.8424834,7
11.88,-14.51713,1.190911,-17.69607,1.378758986638069,0.0400624524185986,-1.553003606182619,16.08697,68.53448,183.7793,0.553398,-0.1339577,0.8204431,7
11.9,-14.41588,1.369762,-17.64007,1.2551620973374786,0.0236859068828342,-1.5445314639940992,19.67514,67.15302,183.9518,0.539686,-0.1610515,0.8236674,7
11.92,-14.3167,1.545367,-17.58362,1.126484329389342,0.0110183313874206,-1.535195737446025,23.26521,65.75023,184.0343,0.5253705,-0.1879535,0.8259483,7
11.94,-14.34561,1.160763,-17.66904,0.9925246371608056,-0.0009988785288885,-1.5253753365024112,21.57667,67.91548,184.1145,0.5427816,-0.1748549,0.8180179,7
11.96,-14.2448,1.347835,-17.62083,0.8815178016685457,-0.0145110529616384,-1.5084690382198391,25.11118,66.48788,184.1209,0.5282121,-0.2009312,0.8201004,7
11.98,-14.14546,1.531862,-17.5719,0.7688332052534512,-0.0239214776420277,-1.4905412971304743,28.64371,65.01684,184.0272,0.5130697,-0.2267768,0.8212702,7
12.0,-14.04776,1.712923,-17.52238,0.6543614114149887,-0.0324316371959608,-1.471954427306998,32.17141,63.48554,183.8218,0.4973704,-0.252355,0.8215297,7
12.02,-14.14653,1.132785,-17.63395,0.5241118615028202,-0.1262274229995585,-1.462281514841583,28.03197,65.70618,183.9357,0.5190392,-0.2214111,0.8190851,7
12.04,-14.04704,1.327436,-17.5919,0.4444775020360021,-0.1067576598896087,-1.424783424941222,31.50307,64.16694,183.7045,0.5035068,-0.2464098,0.8196929,7
12.06,-13.94846,1.519233,-17.54895,0.3664512954176175,-0.0854607853420734,-1.386230906925296,34.96624,62.54966,183.3502,0.4874448,-0.2711338,0.8194159,7
12.08,-13.93849,1.11875,-17.5992,0.2900044246311466,-0.0656024801226303,-1.3470207551848086,37.39651,64.29408,183.0067,0.4967155,-0.2845632,0.8061966,7
12.1,-13.83975,1.317729,-17.5626,0.224054427946712,-0.0731469086374411,-1.301974250534348,40.79765,62.56061,182.51,0.4800233,-0.3084738,0.8048141,7
12.12,-13.74158,1.51399,-17.52502,0.1624991015402621,-0.0770520728546067,-1.255916889801131,44.18407,60.69099,181.8427,0.4628412,-0.3320539,0.8025865,7
12.14,-13.67092,1.114559,-17.56393,0.1053754944908085,-0.0807268855671727,-1.209258473531202,44.69337,65.23351,181.1014,0.4954358,-0.3250258,0.7809725,7
12.16,-13.57278,1.315367,-17.53078,0.062934182312732,-0.0830763919912586,-1.1537276320404142,48.03831,63.39725,180.5208,0.4783731,-0.348499,0.7781146,7
12.18,-13.47506,1.513542,-17.4966,0.0255890751577945,-0.0822094838270007,-1.0974412324124403,51.36699,61.37781,179.728,0.4608358,-0.3716094,0.7744623,7
12.2,-13.37793,1.709095,-17.46147,-0.0065866542655346,-0.0815511181046461,-1.0408390790503397,54.67332,59.11914,178.6698,0.4428424,-0.3943337,0.7700206,7
12.22,-13.3263,1.107238,-17.49779,-0.0135903241927972,-0.1688774315755161,-0.9860745640494426,53.30849,63.542,177.6357,0.4783398,-0.3715965,0.7547781,7
12.24,-13.23005,1.305943,-17.46606,-0.0035645154440346,-0.1398336663480512,-0.912900831770453,56.57668,61.34253,176.6719,0.4608383,-0.3943971,0.7500495,7
12.26,-13.13433,1.502138,-17.43338,0.0110090870903893,-0.1107918526007132,-0.839259151211742,59.81799,58.82412,175.3668,0.4428929,-0.4167947,0.7445797,7
12.28,-12.89091,1.109135,-17.40562,0.0302113136522723,-0.0850469087745196,-0.7656477032594218,62.64473,55.95678,167.8201,0.4472081,-0.4139867,0.7242835,7
12.3,-12.79703,1.298105,-17.37254,0.055446597317684,-0.0756191112260603,-0.6995219396265355,65.72958,52.33298,165.3574,0.4294498,-0.435872,0.7172309,7
12.32,-12.70426,1.484686,-17.33873,0.0846000612077455,-0.0646555208350389,-0.6335972629212696,68.73029,47.86056,162.0314,0.4112895,-0.4573258,0.7094886,7
12.34,-12.45385,1.161722,-17.31771,0.1177713884489721,-0.055388713457557,-0.5683942072073531,55.77422,54.78002,168.7234,0.4454553,-0.3733371,0.7598475,7
12.36,-12.3601,1.341813,-17.28011,0.1520233852934216,-0.03549537866434,-0.5211626213988878,58.80397,51.67618,166.7012,0.4283032,-0.3949167,0.7540525,7
12.38,-12.26804,1.519451,-17.24191,0.1894336286878111,-0.0145269526669702,-0.4755308200690993,61.76381,48.05286,164.1425,0.4107603,-0.4161166,0.7475477,7
12.4,-12.17781,1.694726,-17.20321,0.2300786505286365,0.0043949984087756,-0.4320573387975144,64.62822,43.74456,160.8842,0.3928449,-0.4369164,0.7403407,7
12.42,-12.03469,1.228743,-17.25926,0.284817338018164,-0.0482610507769526,-0.4045913509080332,37.82083,63.62449,174.6923,0.5109029,-0.2520193,0.7951422,7
12.44,-11.93289,1.400984,-17.21605,0.3283326440033421,-0.0062422340466214,-0.371796208172741,41.14317,61.73181,173.9117,0.495656,-0.2756791,0.7929284,7
12.46,-11.83339,1.570284,-17.17229,0.3750669103768456,0.03426226349051,-0.3420260926689171,44.44191,59.67353,172.9354,0.4799167,-0.2990504,0.7899053,7
12.48,-11.70312,1.263641,-17.2429,0.4249854267002037,0.0702547293276144,-0.315890582772977,13.91008,71.1694,177.1456,0.5798976,-0.08406052,0.8052667,7
12.5,-11.59275,1.431628,-17.19917,0.4465180552628689,0.0790808043680141,-0.2947248539784945,17.44157,69.70765,176.8877,0.5680484,-0.1090348,0.8084736,7
12.52,-11.48507,1.596213,-17.15482,0.4692069619319341,0.0885742386629004,-0.2779366126186797,20.9656,68.1984,176.5272,0.5555824,-0.1338857,0.8107829,7
12.54,-11.35774,1.279324,-17.20396,0.4929373278297262,0.0958459145455081,-0.2661791290462267,354.4589,76.12212,178.3772,0.6151797,0.04677448,0.7867771,7
12.56,-11.24518,1.444453,-17.16027,0.5054214016511428,0.1693499387343373,-0.2381078087788406,358.0273,74.73348,178.3891,0.6065725,0.02221033,0.7947178,7
12.58,-11.13553,1.606081,-17.11596,0.5171524104458903,0.1500094032244736,-0.2319861240804015,1.593978,73.34727,178.3146,0.5972979,-0.002371711,0.8017642,7
12.6,-11.02902,1.764382,-17.07115,0.5285906176303781,0.1297675443441271,-0.2302872757261211,5.156773,71.9527,178.1534,0.587367,-0.02694395,0.8079095,7
12.62,-10.90934,1.282814,-17.14469,0.5395866459596453,0.1057735558247728,-0.2336817271072861,353.7895,77.53233,179.7068,0.6251142,0.04383682,0.7786474,7
12.64,-10.797,1.445074,-17.09805,0.5347731105798249,0.0966257997870323,-0.2308098513988898,357.3632,76.13795,179.8632,0.6164245,0.01884999,0.7870771,7
12.66,-10.68778,1.603792,-17.05087,0.5284711984925313,0.0887809645610752,-0.2326987664468651,0.9386073,74.756,179.9324,0.6070542,-0.006150723,0.7946181,7
12.68,-10.58191,1.759154,-17.0033,0.5205515804884511,0.079457451855721,-0.2400194488292237,4.513631,73.37566,179.9155,0.5970146,-0.03113758,0.8012632,7
12.7,-10.62054,1.250508,-17.11213,0.5110033998851085,0.1406549168335186,-0.2262762018603226,359.4025,77.8759,181.3215,0.6284749,-0.003192114,0.7777271,7
12.72,-10.50878,1.415535,-17.06766,0.4743435998102794,0.1049974268697853,-0.2356992078388269,2.996393,76.50238,181.4785,0.6185824,-0.02851557,0.7851793,7
12.74,-10.39995,1.57709,-17.02263,0.4376314119438542,0.0703481805345278,-0.2499467690883858,6.592198,75.13291,181.5496,0.6080008,-0.05380041,0.7917373,7
12.76,-10.39449,1.23215,-17.09278,0.4027494635548216,0.1093980872099483,-0.2439088083534111,8.249307,78.76958,182.8449,0.6313068,-0.07128586,0.7717957,7
12.78,-10.28139,1.401169,-17.05143,0.3430401655547577,0.07279800946945,-0.256913654240638,11.88865,77.42654,183.0145,0.6197199,-0.09714215,0.7775252,7
12.8,-10.17094,1.566695,-17.00941,0.2831132869445376,0.0383785509901911,-0.2746323218812545,15.52988,76.07507,183.0981,0.6074279,-0.1228785,0.782351,7
12.82,-10.19685,1.199701,-17.0769,0.2228803688211978,0.003216007123011,-0.2976097204206303,14.77218,79.21407,183.6284,0.6287763,-0.1190091,0.7662539,7
12.84,-10.08567,1.376524,-17.04086,0.1622864715102581,-0.0137533223913237,-0.3056854289052499,18.3765,77.88682,183.7732,0.6160627,-0.1445527,0.7706757,7
12.86,-9.976554,1.550036,-17.00403,0.1021423480459136,-0.0268710174275322,-0.3177569750090447,21.98201,76.53968,183.8313,0.6026616,-0.1699244,0.7742182,7
12.88,-9.869717,1.720363,-16.96653,0.04235169342361,-0.0391336003962797,-0.3343337569019602,25.58653,75.1599,183.7967,0.5885886,-0.1950918,0.776879,7
12.9,-9.992757,1.168357,-17.05758,0.0028956147489145,0.0270627160371921,-0.328916774312785,20.14989,77.36723,184.0235,0.6102086,-0.158075,0.7719365,7
12.92,-9.884391,1.353419,-17.02599,-0.070443170443168,-0.0148179663485795,-0.3398812131324562,23.70045,76.00483,184.0252,0.5965182,-0.1828782,0.7751557,7
12.94,-9.777468,1.535376,-16.99353,-0.1413089702441884,-0.0533748916870324,-0.3540826047165155,27.24899,74.60312,183.9323,0.5821818,-0.2074721,0.7775156,7
12.96,-9.83124,1.139145,-17.05045,-0.1908701761934609,-0.0081978063028767,-0.3506254948707381,26.30098,74.92342,183.9424,0.5857188,-0.2008537,0.7772468,7
12.98,-9.725601,1.33208,-17.02317,-0.2576624505665439,-0.0464562561055968,-0.3574038743077898,29.78947,73.4747,183.7516,0.5709974,-0.2248023,0.7790769,7
13.0,-9.620832,1.522104,-16.99493,-0.3207941633951907,-0.0814243938959624,-0.3664470484709672,33.27103,71.95836,183.4482,0.5556771,-0.2484995,0.7800698,7
13.02,-9.615485,1.1219,-17.03092,-0.3803168499299989,-0.1163902113800533,-0.3781405807596938,34.71794,71.77511,183.2207,0.5524838,-0.2573476,0.7778788,7
13.04,-9.512123,1.320129,-17.00668,-0.4156688008018677,-0.1246718738409869,-0.3767117628350838,38.13461,70.14539,182.7581,0.5364976,-0.2803543,0.777815,7
13.06,-9.409244,1.515595,-16.98144,-0.4460202376303092,-0.1289806215918341,-0.3763163229484121,41.53784,68.39736,182.1425,0.5199652,-0.3030616,0.7769387,7
13.08,-9.307029,1.708319,-16.95524,-0.4714622175507541,-0.1326894989330236,-0.3773007829021311,44.92339,66.49924,181.3458,0.5029045,-0.3254464,0.7752519,7
13.1,-9.333207,1.115138,-17.01484,-0.4789438578907065,-0.05069818798011,-0.3659188774357305,43.27674,71.12365,181.6929,0.5361066,-0.3079249,0.7592474,7
13.12,-9.23138,1.315725,-16.99243,-0.4961459319530797,-0.0827614144626666,-0.3630485352901624,46.6332,69.34958,181.0922,0.5193291,-0.330478,0.757343,7
13.14,-9.129861,1.513644,-16.96899,-0.5074492064267493,-0.1125400708834222,-0.3606684063577892,49.97315,67.40215,180.2899,0.5020382,-0.3526892,0.75467,7
13.16,-9.038421,1.110059,-16.99176,-0.5089209748200494,-0.0545093069275269,-0.3474864896509753,50.67889,70.24539,178.6876,0.5239508,-0.3440763,0.7363597,7
13.18,-8.938505,1.309778,-16.9704,-0.4921270394013902,-0.0828282879118634,-0.3373454078672075,53.96826,68.24401,177.8592,0.506817,-0.3662253,0.7328357,7
13.2,-8.838933,1.506941,-16.94806,-0.4707290525153371,-0.1099955439292995,-0.3271512939383734,57.23561,65.98206,176.7472,0.489197,-0.3880064,0.7285899,7
13.22,-8.598982,1.104537,-16.93684,-0.4448437229201507,-0.1393950576099651,-0.3172215816639072,61.21449,64.33871,171.1436,0.4901535,-0.3943168,0.7054397,7
13.24,-8.501776,1.296021,-16.91365,-0.4078613612059717,-0.055132799516649,-0.297037056358155,64.36941,61.26356,169.1949,0.4724607,-0.4156872,0.6994498,7
13.26,-8.40543,1.485088,-16.88963,-0.3403203671008757,-0.0756570994623495,-0.2801793206131417,67.46474,57.51284,166.5554,0.4543279,-0.4366484,0.6927921,7
13.28,-8.310094,1.671778,-16.86482,-0.269503307011094,-0.0966784845248993,-0.2626790288934901,70.47179,52.78511,162.9259,0.4357727,-0.4571843,0.6854717,7
13.3,-8.12747,1.144342,-16.87109,-0.2178169413442814,-0.0334602189519112,-0.2440219270325445,58.38398,58.34269,167.721,0.4686221,-0.3779246,0.732468,7
13.32,-8.031132,1.32666,-16.84245,-0.145538524896146,-0.0384183441190807,-0.2321513145001223,61.40195,55.01475,165.4193,0.4513835,-0.3987842,0.7265509,7
13.34,-7.936251,1.506545,-16.8131,-0.0714219163763615,-0.0440222954336874,-0.219677106199807,64.33996,51.05672,162.4728,0.4337359,-0.419264,0.719956,7
13.36,-7.721686,1.211987,-16.83393,-0.0194594523401333,0.0226376543991051,-0.2049732269026827,43.0815,66.37765,173.9139,0.5247616,-0.2798048,0.766654,7
13.38,-7.620541,1.386485,-16.80038,0.0321101512792509,0.0870982733621999,-0.1907212371691531,46.29938,64.37827,172.9653,0.5093112,-0.3020301,0.763837,7
13.4,-7.521415,1.55825,-16.76616,0.0817141761020499,0.0564262237186302,-0.1939608886614285,49.48952,62.17122,171.7845,0.4933838,-0.323958,0.7602848,7
13.42,-7.348382,1.257275,-16.82534,0.1336275514772741,0.0237215929757144,-0.1975953700421908,20.06799,73.14431,176.5362,0.5906821,-0.1221309,0.7873245,7
13.44,-7.235716,1.425767,-16.78935,0.1793983293260341,0.0816813291549306,-0.1877768590648734,23.5896,71.6777,176.1637,0.5783703,-0.1464293,0.7891001,7
13.46,-7.12561,1.590869,-16.75263,0.2238245177472552,0.0693464804216271,-0.192256476643998,27.10191,70.14323,175.6787,0.565437,-0.1705711,0.7900094,7
13.48,-7.018298,1.752753,-16.71528,0.2685312111750059,0.0563745632984465,-0.1978292914925936,30.59988,68.52311,175.0683,0.5518987,-0.1945192,0.7900547,7
13.5,-6.977868,1.2758,-16.79686,0.3082534233162502,0.1107456323014067,-0.1877439183064901,358.4178,78.11687,178.137,0.629795,0.02096266,0.7764686,7
13.52,-6.863117,1.441787,-16.76028,0.3497146977703472,0.0957448411029265,-0.1896678696964913,1.983038,76.7939,178.0825,0.6211531,-0.003168882,0.7833197,7
13.54,-6.751136,1.604281,-16.72297,0.3890709684059663,0.0798109045053827,-0.1922305354433762,5.545096,75.46342,177.9452,0.6118361,-0.02728985,0.7893015,7
13.56,-6.642146,1.763451,-16.68502,0.4226000456140646,0.1318109026205591,-0.1818556110291704,9.101972,74.11497,177.7232,0.6018555,-0.05137356,0.7944082,7
13.58,-6.527303,1.29612,-16.76742,0.4515640633464921,0.1803794224651203,-0.1721157529771075,353.4627,80.78947,179.4473,0.6467789,0.04654435,0.7605284,7
13.6,-6.410993,1.457301,-16.72773,0.4542656703147021,0.1299083800724732,-0.1814131078982255,357.0472,79.46001,179.5921,0.638884,0.02208918,0.7688636,7
13.62,-6.297814,1.614861,-16.68737,0.454446095695892,0.0785707974849733,-0.1918890367018324,0.6330032,78.14257,179.6537,0.6302874,-0.00238367,0.7763367,7
13.64,-6.270324,1.254796,-16.76256,0.4493910227128457,0.1190199148124691,-0.1862533877571484,357.4168,81.65263,181.1005,0.6537358,0.01077859,0.7563264,7
13.66,-6.156418,1.419452,-16.72578,0.4265040492067999,0.0858543354332861,-0.1964815613454993,0.9803265,80.33675,181.2653,0.644901,-0.01365886,0.7641386,7
13.68,-6.045363,1.580669,-16.68831,0.4006070092743494,0.0536432871154315,-0.2084756805175769,4.54568,79.02855,181.3485,0.6353659,-0.03807449,0.7711029,7
13.7,-5.937377,1.738619,-16.65026,0.3714295841074878,0.019542149331749,-0.2227510181027301,8.110967,77.7178,181.3502,0.6251414,-0.06244098,0.7772126,7
13.72,-6.000399,1.237862,-16.74243,0.3598959550449628,0.0798997093595989,-0.2163313595749221,6.157765,82.0972,182.5434,0.6546906,-0.05504945,0.7536616,7
13.74,-5.884483,1.405315,-16.70738,0.3193858952154303,0.040541222340135,-0.2280835784861135,9.800186,80.81342,182.72,0.6441142,-0.08035348,0.7597799,7
13.76,-5.771262,1.569236,-16.67158,0.2770695436487891,0.003372277261732,-0.241932064705387,13.44458,79.52557,182.8152,0.6328113,-0.1055582,0.7650232,7
13.78,-5.820009,1.208779,-16.74194,0.2477818742479116,0.0409522514499004,-0.2409895129973307,13.44371,83.01173,183.5146,0.655144,-0.1077984,0.7457692,7
13.8,-5.705748,1.38348,-16.71219,0.2156022414359504,0.0772764891278081,-0.2413789060200235,17.05995,81.75139,183.682,0.6432442,-0.1328877,0.7504997,7
13.82,-5.593627,1.554803,-16.68159,0.145220821483542,0.008974408348628,-0.2579257808674224,20.67782,80.4761,183.7679,0.6306291,-0.1578192,0.7543783,7
13.84,-5.636809,1.175852,-16.73974,0.0943685902010105,0.0223156618914582,-0.2605004401037596,18.73754,82.30057,184.0201,0.64456,-0.1452746,0.7462423,7
13.86,-5.525479,1.358828,-16.71499,0.0430911269606609,0.0368895998392216,-0.2639971664183083,22.30245,81.0252,184.0917,0.6316954,-0.1696938,0.7499193,7
13.88,-5.415662,1.538635,-16.68934,-0.0339233894453127,-0.0308347138828445,-0.2785091061902367,25.86695,79.72012,184.0772,0.6181481,-0.1939189,0.7527677,7
13.9,-5.307569,1.715369,-16.66284,-0.1101562725880129,-0.0959722132124466,-0.295117643114748,29.42877,78.37189,183.9688,0.6039337,-0.2179192,0.7547871,7
13.92,-5.44159,1.145625,-16.73293,-0.1515771022352534,-0.0537771289410252,-0.2947961141029136,24.59577,79.1274,184.0089,0.6161962,-0.1858676,0.7575115,7
13.94,-5.33351,1.336834,-16.71152,-0.2090105487181198,-0.094747122856467,-0.3019408736959348,28.10022,77.77054,183.8702,0.6022543,-0.2094296,0.7598334,7
13.96,-5.226347,1.525074,-16.68914,-0.2639508371958736,-0.1321600234269354,-0.3103783145273944,31.59924,76.35666,183.6294,0.5876827,-0.232759,0.7613423,7
13.98,-5.26039,1.124958,-16.72732,-0.2926406118958033,-0.0829961420188052,-0.3068855651953592,32.07719,75.89737,183.503,0.5840836,-0.2358303,0.7627067,7
14.0,-5.155008,1.322342,-16.70882,-0.3179484609702827,-0.0342244395772864,-0.3035066216471027,35.51183,74.38761,183.1106,0.568911,-0.2584683,0.7633732,7
14.02,-5.050097,1.51692,-16.68934,-0.3613667947140045,-0.0995993000787571,-0.3097286124926905,38.93536,72.77884,182.584,0.5531613,-0.2808315,0.7632464,7
14.04,-5.006732,1.115684,-16.72602,-0.3856856039564579,-0.0750312352482869,-0.3071608234464955,41.85186,74.96013,182.3223,0.5624911,-0.2948896,0.7454758,7
14.06,-4.903052,1.315952,-16.70999,-0.4050142136164159,-0.0489144747429967,-0.3044119497584381,45.22381,73.2769,181.7481,0.5461202,-0.3168865,0.7441496,7
14.08,-4.799629,1.513518,-16.69297,-0.4256394915554206,-0.1087671668654362,-0.3079046896663664,48.58044,71.43513,180.9876,0.5292112,-0.3385574,0.7420716,7
14.1,-4.696642,1.708393,-16.67498,-0.4414126446959924,-0.1674869900756282,-0.3119139403915429,51.91662,69.38882,179.9977,0.5117818,-0.3598803,0.7392451,7
14.12,-4.699554,1.113051,-16.71561,-0.4333017625512588,-0.1110178206001415,-0.3036878776367819,48.06482,73.62309,179.49,0.5486906,-0.3236126,0.7301167,7
14.14,-4.597793,1.313798,-16.69973,-0.4196282882158343,-0.05531822345596,-0.2949068142077609,51.37135,71.77337,178.7466,0.53207,-0.3453592,0.7272978,7
14.16,-4.496251,1.51194,-16.68287,-0.3824026208255826,-0.1161927390343043,-0.2910598923939465,54.65858,69.70429,177.7604,0.5149416,-0.3667608,0.7237666,7
14.18,-4.306463,1.102251,-16.68988,-0.3398288043325854,-0.0877033879575623,-0.2800478445872083,59.65074,70.68112,174.0326,0.5222566,-0.3790387,0.6917474,7
14.2,-4.207371,1.296229,-16.67333,-0.2933263092704087,-0.0588333618630062,-0.2682076248713518,62.86361,68.1089,172.5576,0.5048433,-0.4001307,0.6864893,7
14.22,-4.108917,1.487754,-16.65591,-0.2199062909122226,-0.1073960840689785,-0.2598694749512873,66.03634,65.01693,170.547,0.4869615,-0.4208305,0.6805806,7
14.24,-4.011254,1.676859,-16.63766,-0.1650839476110842,-0.0683536360777476,-0.2489090893638943,69.15033,61.17598,167.7736,0.4686288,-0.4411232,0.6740248,7
14.26,-3.73072,1.144262,-16.64542,-0.1089563528921828,-0.029202968155445,-0.2371860766856897,58.39666,62.3605,167.7265,0.4939744,-0.3666572,0.7155548,7
14.28,-3.632197,1.326507,-16.62362,-0.0516804471211482,0.0069051725272706,-0.2250077646226231,61.42458,59.10629,165.438,0.4769385,-0.3869561,0.7099329,7
14.3,-3.535067,1.506297,-16.60105,0.0139955216133455,-0.0545697225350507,-0.2227540389645175,64.37477,55.22828,162.5118,0.459474,-0.40689,0.7036549,7
14.32,-3.306125,1.211954,-16.62692,0.0684724573937132,-0.0127617529602518,-0.2150954998381791,43.09241,69.90303,173.9054,0.5480995,-0.2722608,0.7501,7
14.34,-3.20277,1.386444,-16.6002,0.1235534833078264,0.0285612362775647,-0.207230107930632,46.31162,67.96376,172.9537,0.5329692,-0.293878,0.7474648,7
14.36,-3.10136,1.558186,-16.57274,0.1854205721788861,-8.171311160606876e-05,-0.2142573794756113,49.50383,65.8201,171.7746,0.517345,-0.3152089,0.7441188,7
14.38,-3.00206,1.727283,-16.54459,0.2315132501411297,0.0398449134459666,-0.213643507979945,52.6619,63.41811,170.3164,0.5012417,-0.3362378,0.7400641,7
14.4,-2.915205,1.25727,-16.63321,0.2772462235995114,0.0786210376888895,-0.2133788724358729,20.08222,76.31272,176.5285,0.6122202,-0.1186102,0.7706653,7
14.42,-2.800436,1.425764,-16.60418,0.3235975901067913,0.0459001702851863,-0.2261802830737962,23.60393,74.90856,176.1534,0.6003864,-0.142294,0.7724453,7
14.44,-2.688147,1.590858,-16.57432,0.3589152405342976,0.0817714632397258,-0.2258199849080577,27.1168,73.43823,175.6702,0.587914,-0.1658282,0.7733863,7
14.46,-2.581461,1.275756,-16.63787,0.3909631515081304,0.1165110363403839,-0.2260702897786206,358.4286,82.09483,178.1506,0.6563694,0.0209367,0.7541429,7
14.48,-2.464293,1.4417,-16.60937,0.4193464239153147,0.1473207421824697,-0.2273794041280816,1.994402,80.83394,178.1138,0.6483776,-0.002578333,0.7609423,7
14.5,-2.34981,1.604138,-16.58,0.4437210229811409,0.1563812928120617,-0.2302103345655122,5.557487,79.56681,177.998,0.6396881,-0.02608357,0.7669063,7
14.52,-2.205238,1.293893,-16.62834,0.4625276353785141,0.1577679408429413,-0.2350289714834645,352.8257,83.97187,179.2206,0.6673058,0.05104686,0.7421203,7
14.54,-2.086487,1.455635,-16.59656,0.478357795275129,0.1593962905425624,-0.2400649433844841,356.4157,82.70267,179.3508,0.6602078,0.02721692,0.7504104,7
14.56,-1.970746,1.613745,-16.56397,0.4907742582897738,0.158447731209185,-0.2458020268015812,0.006688169,81.44537,179.4014,0.6523898,0.003363919,0.7578655,7
14.58,-1.85825,1.768412,-16.53067,0.4827982853435166,0.0794870365103596,-0.2675958044089177,3.59691,80.19,179.3732,0.6438614,-0.02048615,0.7644788,7
14.6,-1.899932,1.262211,-16.62294,0.4713006654570126,0.0923165532427287,-0.2728697749812845,355.7388,84.42336,180.5279,0.671527,0.02444291,0.7400328,7
14.62,-1.784034,1.426284,-16.59188,0.4552523042873537,0.1048014546740493,-0.279260052501336,359.2959,83.16397,180.6993,0.6636944,0.0005454356,0.747954,7
14.64,-1.670953,1.586896,-16.56004,0.4207941397718511,0.0434849843633972,-0.2989579620410088,2.854972,81.91502,180.7926,0.65515,-0.02334554,0.7550566,7
14.66,-1.651719,1.240675,-16.63012,0.3957748358174562,0.0596703683786689,-0.3034315798767988,3.98559,85.58019,182.0335,0.678344,-0.03756162,0.7337072,7
14.68,-1.533977,1.407188,-16.6019,0.367183496845733,0.0758323976883962,-0.3088352144721287,7.616506,84.35133,182.2249,0.6688416,-0.06221847,0.7401799,7
14.7,-1.418905,1.570163,-16.57284,0.3346419780462042,0.0891898501954967,-0.3156217329297854,11.2503,83.12299,182.3385,0.6585947,-0.08679985,0.7458129,7
14.72,-1.306742,1.729775,-16.54305,0.2632538739016785,0.0011834177132982,-0.3370154091335253,14.88463,81.8851,182.3732,0.6476161,-0.1112763,0.7506008,7
14.74,-1.371565,1.208751,-16.63105,0.2158071939384034,0.0119811222695912,-0.3414610218844021,13.44455,86.28451,183.5224,0.6761654,-0.1062426,0.7267599,7
14.76,-1.255497,1.383386,-16.60793,0.1662844444024383,0.0237077108907598,-0.347223061252234,17.0644,85.08852,183.7019,0.6647969,-0.1308498,0.7314615,7
14.78,-1.141501,1.554624,-16.58391,0.0882763893387761,-0.0437943596760934,-0.3641570484830359,20.68602,83.87977,183.8046,0.6526948,-0.1553026,0.7353395,7
14.8,-1.029803,1.722598,-16.55906,0.0334219046852627,-0.0306409960244787,-0.3677589437953754,24.30786,82.6471,183.8257,0.6398727,-0.1795716,0.7383911,7
14.82,-1.168154,1.175856,-16.63492,-0.0219152924896408,-0.0160029397288428,-0.3723780667584977,18.73698,85.36504,184.0197,0.6642846,-0.1430512,0.7287405,7
14.84,-1.055441,1.358815,-16.61638,-0.0780270933396497,-0.0028515981526521,-0.378357628735269,22.30278,84.15329,184.0953,0.6519228,-0.1669527,0.7324009,7
14.86,-0.9441719,1.538593,-16.59689,-0.1426755527395732,-0.0180148382916306,-0.3814653801157659,25.86823,82.9138,184.0892,0.6388631,-0.1906653,0.7352609,7
14.88,-1.011614,1.145588,-16.6451,-0.2056804797120133,-0.0288477601332138,-0.3853636394448307,24.59451,83.04457,184.0271,0.6416988,-0.1821195,0.736029,7
14.9,-0.902196,1.336738,-16.63064,-0.2672573744477656,-0.0385495767454875,-0.3903232030768229,28.1002,81.75887,183.9119,0.6282555,-0.2051183,0.7384648,7
14.92,-0.793626,1.524907,-16.61523,-0.3422092281825634,-0.1332434981650444,-0.4016398858587351,31.60118,80.42015,183.7001,0.6141614,-0.2278899,0.7401193,7
14.94,-0.8110571,1.12497,-16.64742,-0.3792638574159191,-0.1145630445114547,-0.4003977248065382,32.07089,79.48771,183.5038,0.6076993,-0.2310841,0.7440469,7
14.96,-0.7045406,1.322338,-16.63551,-0.4129562786991857,-0.0938132829847595,-0.3996251364112,35.50615,78.04137,183.1164,0.5929555,-0.2531122,0.7448682,7
14.98,-0.5984275,1.516888,-16.62263,-0.4434841496050848,-0.0742560436514599,-0.3995756777246204,38.93088,76.49925,182.6,0.577616,-0.2748742,0.7449241,7
15.0,-0.4929062,1.708643,-16.60881,-0.4693942916061622,-0.081935774988386,-0.3985270300271955,42.34182,74.83582,181.9322,0.5616972,-0.296348,0.7442153,7
15.02,-0.5386119,1.115697,-16.65907,-0.4901612155173034,-0.0857296778509727,-0.3976298794897435,41.84291,78.32492,182.3203,0.5841591,-0.2887576,0.728657,7
15.04,-0.4339937,1.31596,-16.64915,-0.5059616211044291,-0.0890431757056121,-0.3971023544357073,45.21487,76.70455,181.7477,0.5681518,-0.3101635,0.7275057,7
15.06,-0.3295686,1.513509,-16.63827,-0.5098175237329714,-0.0908895221335165,-0.3941149783137314,48.57213,74.92981,180.9946,0.5515906,-0.3312538,0.7256282,7
15.08,-0.2685409,1.113011,-16.67006,-0.508602747935589,-0.0892827376686629,-0.3908339608915878,48.0598,77.83051,179.5153,0.5750638,-0.3144133,0.7095543,7
15.1,-0.1657676,1.313706,-16.66111,-0.5024911054966648,-0.0876453158739405,-0.3874605184645463,51.36926,76.064,178.8021,0.5587651,-0.3355657,0.7070099,7
15.12,-0.06314656,1.511787,-16.65121,-0.4721276006938856,-0.1737247434626184,-0.3894382447922973,54.66105,74.08741,177.8565,0.541938,-0.3563868,0.7037808,7
15.14,0.03915112,1.707263,-16.64039,-0.4227622087246662,-0.1433462553568104,-0.3826135911675896,57.92868,71.83319,176.6136,0.5245994,-0.3768565,0.6998711,7
15.16,0.269639,1.104471,-16.6657,-0.3694002535365849,-0.112755171576816,-0.3750561849415272,61.21758,71.7266,171.1778,0.5344668,-0.3726395,0.6724877,7
15.18,0.3695843,1.295882,-16.65494,-0.3122337826896294,-0.0852447876429343,-0.3670039862322269,64.38502,68.81244,169.2707,0.5171881,-0.3929266,0.6670073,7
15.2,0.4687945,1.484843,-16.64332,-0.2647392979744697,0.011655551334428,-0.3549866777052686,67.49704,65.24531,166.697,0.4994364,-0.4128342,0.6609041,7
15.22,0.7310498,1.144216,-16.65967,-0.2005840884786622,-0.0036494598348816,-0.3497493284420474,58.40204,66.1734,167.7394,0.5174569,-0.3555382,0.6987426,7
15.24,0.8308489,1.326464,-16.64448,-0.1336895500254,-0.0188951137263698,-0.3435100888698996,61.43014,63.00038,165.4759,0.5006513,-0.3752252,0.6934132,7
15.26,0.9293261,1.506251,-16.62848,-0.0642294090678614,-0.0373135439474618,-0.3365565320064942,64.38329,59.21465,162.5865,0.4834014,-0.3945632,0.6874523,7
15.28,1.026327,1.683656,-16.61172,-0.0081682814279879,-0.0200458832579196,-0.3354657233253859,67.23161,54.60126,158.8582,0.4657252,-0.4135347,0.6808665,7
15.3,1.173958,1.211947,-16.66539,0.0493315170909687,-0.0017448688617916,-0.3335591483161124,43.09698,73.50026,173.905,0.5713663,-0.2642885,0.7325135,7
15.32,1.278952,1.386443,-16.64561,0.1080096134785516,0.0144812777677213,-0.3311852375955166,46.31529,71.62547,172.9586,0.5565597,-0.2852705,0.7300559,7
15.34,1.382078,1.558183,-16.625,0.1500277489231437,0.0295160654840703,-0.3332407823846979,49.50765,69.55079,171.7907,0.541243,-0.3059781,0.7269131,7
15.36,1.528189,1.257222,-16.7077,0.1920939186674592,0.045294421874823,-0.335171520004426,20.09631,80.79717,176.5444,0.6418763,-0.1135711,0.7461228,7
15.38,1.644996,1.425673,-16.68764,0.2338543792846079,0.058785834865351,-0.3373634139511008,23.61957,79.46027,176.191,0.6305282,-0.1365194,0.7480211,7
15.4,1.759415,1.590711,-16.66662,0.2749859824403392,0.0670195967052695,-0.3402228832218648,27.13495,78.06037,175.7342,0.6185149,-0.159324,0.7491155,7
15.42,1.880436,1.275751,-16.73167,0.3030452236471382,0.0726401419408331,-0.3371504586178964,358.4345,86.25584,178.1505,0.6833159,0.02100145,0.729817,7
15.44,1.99954,1.441687,-16.71223,0.3295886508499244,0.0789983124809025,-0.3341672471042667,2.000304,85.05407,178.1174,0.6759553,-0.001759053,0.736553,7
15.46,2.116056,1.604108,-16.69179,0.3541894244201208,0.0832197039518603,-0.331711510097096,5.563601,83.84648,178.0091,0.6678738,-0.02451089,0.7424884,7
15.48,2.229755,1.763177,-16.67041,0.3769013618754201,0.1540398197726946,-0.3161143278774476,9.122792,82.62358,177.8241,0.6590811,-0.04722942,0.7476175,7
15.5,2.340415,1.812411,-16.64818,0.3871293529337897,0.1303152418323199,-0.3122799744249751,12.67618,81.37543,177.5591,0.6495871,-0.0698901,0.7519357,7
15.52,2.371067,1.296123,-16.75189,0.3948894360922852,0.1062610877875602,-0.3083457234898783,353.4601,88.3193,179.442,0.6953184,0.04430729,0.7164185,7
15.54,2.491941,1.457303,-16.72908,0.3948290233222626,0.1494440378929649,-0.2930320430641586,357.044,87.11139,179.5903,0.688759,0.02115474,0.7245229,7
15.56,2.609866,1.614845,-16.70532,0.3745053600398738,0.1180491739062821,-0.2868927626598134,0.6292868,85.91545,179.6629,0.6814573,-0.002014085,0.7318317,7
15.58,2.607235,1.254805,-16.78579,0.3506760666387819,0.0875178271965101,-0.2814251742105149,357.4094,89.70283,181.1093,0.7052127,0.009199491,0.7085696,7
15.6,2.725459,1.419424,-16.76601,0.3229920152022146,0.0550406084009559,-0.2771552040952851,0.9718834,88.50817,181.2924,0.6977037,-0.0139446,0.7162478,7
15.62,2.841011,1.580583,-16.74526,0.2971615260196352,0.0454055291020494,-0.261208468073872,4.536386,87.32255,181.4016,0.689451,-0.03706713,0.7231473,7
15.64,2.858179,1.237845,-16.80632,0.2689026038726948,0.0380697084840083,-0.2458096826213625,6.147105,90.63201,182.5557,0.7089559,-0.05352753,0.7028602,7
15.66,2.978296,1.405244,-16.78929,0.2378413791642571,0.0301665287314243,-0.2314879089248593,9.788453,89.47115,182.755,0.6996102,-0.07744643,0.7090116,7
15.68,3.095904,1.569091,-16.77124,0.2172727994644675,0.0944253979935663,-0.2033917346586662,13.43202,88.30922,182.8811,0.6894889,-0.1012715,0.7143624,7
15.7,3.210768,1.729541,-16.75225,0.1559779089257055,0.057876867498026,-0.185002157265739,17.07702,87.13641,182.9317,0.6786036,-0.1249779,0.7189071,7
15.72,3.078126,1.208821,-16.82266,0.0932731024656036,0.0239621692320816,-0.1676598465069654,13.43821,90.951,183.5097,0.7052095,-0.1036877,0.6986259,7
15.74,3.195736,1.383506,-16.80981,0.0288843457703795,-0.0102614843725711,-0.1518680885761671,17.05427,89.81222,183.6806,0.6944107,-0.1273858,0.7034355,7
15.76,3.311383,1.554794,-16.79593,-0.0113383239860467,0.0539413730919305,-0.1203755164177584,20.67183,88.66132,183.7785,0.6828539,-0.1509357,0.7074623,7
15.78,3.240378,1.17585,-16.84787,-0.0898023595421046,0.0121614666032811,-0.0988916358766434,18.73214,90.79311,184.0318,0.6980377,-0.1389171,0.6964819,7
15.8,3.354447,1.358771,-16.8399,-0.1680136851624067,-0.026244442120088,-0.0783321261849687,22.29656,89.64535,184.1243,0.6862308,-0.1619385,0.7003614,7
15.82,3.467176,1.538502,-16.8309,-0.2462049538952424,-0.0643636589818101,-0.0591547250067998,25.86096,88.47279,184.1401,0.6736957,-0.1847782,0.7034829,7
15.84,3.578345,1.715136,-16.82091,-0.3117985492982054,-0.0804992820529687,-0.0322871341928991,29.42349,87.26344,184.0722,0.6604467,-0.2074069,0.7058452,7
15.86,3.472346,1.139136,-16.87251,-0.3750127211802843,-0.0919845230956349,-0.0057039396084515,26.30187,87.40607,183.9516,0.6667299,-0.1875778,0.7089723,7
15.88,3.582159,1.331981,-16.8686,-0.4360796844620129,-0.1020279949756619,0.0201772807237636,29.79944,86.15144,183.7833,0.6534417,-0.2095038,0.7113042,7
15.9,3.691339,1.521869,-16.86371,-0.4686483829726571,-0.0283294074127363,0.0552132800404181,33.29134,84.83778,183.517,0.6394849,-0.2312013,0.7128935,7
15.92,3.696339,1.121907,-16.8933,-0.5277951487314956,-0.0666974009796547,0.0830491290165285,34.70451,84.12473,183.2269,0.6329619,-0.2393387,0.7139729,7
15.94,3.803115,1.320081,-16.89149,-0.5823192620948698,-0.1017976228236539,0.1106045090548373,38.12521,82.6894,182.7833,0.6182233,-0.2602869,0.7146102,7
15.96,3.909636,1.515455,-16.88873,-0.6136747173685684,-0.0491844657626597,0.1447691431081676,41.53452,81.14687,182.2032,0.602873,-0.2809659,0.7145248,7
15.98,4.015718,1.708051,-16.88504,-0.6535415338651991,-0.0808932830464443,0.1726776521201167,44.92901,79.46841,181.4606,0.5869269,-0.3013555,0.7137177,7
16.0,3.984081,1.115127,-16.9316,-0.6876329402948389,-0.1098839326825098,0.2005034061404123,43.26819,83.46446,181.7037,0.6146013,-0.2842996,0.6972669,7
16.02,4.088895,1.315667,-16.93109,-0.7161598065423043,-0.139572962807682,0.2278735557767373,46.62743,81.88883,181.1259,0.5988542,-0.3048381,0.6961877,7
16.04,4.193621,1.513505,-16.92965,-0.7167533763630345,-0.0560297721950728,0.264152077689471,49.97256,80.15501,180.3658,0.5825325,-0.3250717,0.6944255,7
16.06,4.284024,1.110063,-16.96622,-0.7118635657709107,-0.0879261922768309,0.2974410362255226,50.66327,82.57575,178.701,0.6000024,-0.3147124,0.6759099,7
16.08,4.386735,1.309744,-16.96637,-0.7009915104334776,-0.1180481887426124,0.3304586732262473,53.95543,80.77762,177.8997,0.5836966,-0.334883,0.6732815,7
16.1,4.489317,1.506836,-16.96561,-0.6779028216776954,-0.0604827652385236,0.3693828489105222,57.22846,78.73908,176.8384,0.566848,-0.3547289,0.6700127,7
16.12,4.729705,1.104509,-17.00091,-0.6304738785321056,-0.0841141657857751,0.4088780668503742,61.20617,76.53378,171.1675,0.5622578,-0.3574686,0.6494923,7
16.14,4.830166,1.295968,-16.99896,-0.5784134994662313,-0.1075151422626342,0.4482207406951355,64.36526,73.66847,169.2509,0.5450901,-0.3768951,0.6445137,7
16.16,4.929979,1.484978,-16.99615,-0.5219698209921788,-0.1340066976431866,0.4870124782355423,67.46971,70.15789,166.6762,0.5274308,-0.3959635,0.6389414,7
16.18,5.028991,1.671577,-16.99248,-0.4806800668026101,-0.0474982818101702,0.5303952419830744,70.49355,65.71117,163.1544,0.5092961,-0.4146594,0.6327795,7
16.2,5.127048,1.749156,-16.98796,-0.4363118833909107,-0.0587803542207224,0.5689324380784817,73.39232,59.86261,158.2214,0.4907033,-0.4329662,0.6260343,7
16.22,5.321321,1.161628,-17.03424,-0.3884375532109083,-0.0700018096044112,0.6071099194473888,55.79228,70.57236,168.6599,0.5457699,-0.3296025,0.6911911,7
16.24,5.422844,1.341735,-17.02593,-0.3618839903332123,-0.0052763359433935,0.648788758661996,58.8217,67.68023,166.5959,0.5293946,-0.3484767,0.6866891,7
16.26,5.522986,1.519335,-17.01675,-0.3340938683541572,0.058102463844069,0.6891388659171311,61.78479,64.2836,164.0143,0.5125558,-0.3670313,0.6815704,7
16.28,5.70481,1.228583,-17.07956,-0.3137327984379239,0.0286704423152431,0.7209504619825209,37.86767,79.37997,174.6795,0.6150175,-0.2213814,0.7174738,7
16.3,5.815309,1.400794,-17.06755,-0.2898016029768777,-0.0025406449842352,0.7526468669171509,41.19315,77.7386,173.9094,0.6011549,-0.2422986,0.716056,7
16.32,5.923831,1.570019,-17.05458,-0.2704569139962853,0.0583375179891157,0.7942692119043455,44.49846,75.94559,172.964,0.5867188,-0.2629734,0.7139401,7
16.34,6.047168,1.263625,-17.12493,-0.2646077945612313,0.0489183101060194,0.8351291645472316,13.96188,85.51045,177.1198,0.6758651,-0.07227838,0.7265135,7
16.36,6.16565,1.431615,-17.11254,-0.256688777216906,0.0390546374166501,0.875975656963464,17.49409,84.29119,176.8555,0.6660565,-0.09451329,0.729743,7
16.38,6.281789,1.59616,-17.09908,-0.2538055214441717,0.096216533589134,0.93162997510803,21.02018,83.02908,176.5049,0.6555523,-0.1166482,0.7321957,7
16.4,6.395346,1.757422,-17.08462,-0.2526020267372084,0.1507645102885782,0.9868954725315372,24.53694,81.71152,176.0602,0.6443648,-0.1386529,0.7338707,7
16.42,6.409309,1.279345,-17.14413,-0.2766606745494639,0.1109099222883714,1.041934246825897,354.4956,89.11718,178.3504,0.7002639,0.0442985,0.7121228,7
16.44,6.529515,1.444502,-17.12983,-0.3028029486569632,0.141119602822388,1.110452748019242,358.0641,87.97399,178.3531,0.6941497,0.02213269,0.7194892,7
16.46,6.647144,1.606118,-17.11446,-0.3315614139666754,0.1700911449509013,1.179679370567281,1.630878,86.83231,178.2848,0.6873006,-5.044229e-05,0.7260798,7
16.48,6.761966,1.764362,-17.0981,-0.3633540979466749,0.1950842784447186,1.248622220591881,5.194592,85.68326,178.145,0.6797247,-0.02222707,0.7318882,7
16.5,6.815195,1.282969,-17.16256,-0.4260597765670995,0.1199751511413552,1.3135842944691336,353.787,89.86436,179.6906,0.7051255,0.04026937,0.707004,7
16.52,6.935611,1.44522,-17.14371,-0.4911090651910119,0.0592880434528571,1.3785265048523718,357.3603,88.7137,179.8488,0.6989174,0.01739168,0.7148305,7
16.54,7.053217,1.603891,-17.1239,-0.5471243524993101,0.0954582615597627,1.461374347317974,0.9349838,87.5751,179.9351,0.6919667,-0.00549846,0.7218834,7
16.56,7.060227,1.250582,-17.16561,-0.6251431723995984,0.058017779647492,1.5374216250897117,359.3874,88.98491,181.299,0.7008036,-0.00413054,0.7132444,7
16.58,7.179198,1.415616,-17.14623,-0.7066633528871034,0.0218515147057489,1.6133901865375275,2.981281,87.85301,181.4506,0.6932076,-0.02751319,0.7201574,7
16.6,7.295532,1.577143,-17.12593,-0.7742260933416378,0.0612627669103541,1.7038895917036352,6.576663,86.72588,181.532,0.6848682,-0.05086284,0.7262837,7
16.62,7.291543,1.232287,-17.14381,-0.8665487547054418,0.0249130266821888,1.7797922476459624,8.234435,87.59119,182.8001,0.6888294,-0.06867483,0.7209499,7
16.64,7.410552,1.401354,-17.1234,-0.9650169983887678,-0.0080986645497551,1.8503431950879352,11.87484,86.48436,182.9422,0.6792495,-0.09282247,0.7261372,7
16.66,7.527161,1.566892,-17.10211,-1.055070914088758,0.0346262208742529,1.92697099750268,15.51622,85.37074,183.0135,0.668925,-0.1168601,0.7305142,7
16.68,7.641138,1.729052,-17.08001,-1.1510789990491863,0.0781914071473063,1.99787543546218,19.15767,84.24094,183.0121,0.6578681,-0.1407673,0.7340754,7
16.7,7.494218,1.19988,-17.12209,-1.2523369058507283,0.1063767490110192,2.0626450523439184,14.76263,86.10873,183.5839,0.6737681,-0.1150005,0.7270393,7
16.72,7.609861,1.376753,-17.10224,-1.372704845357442,0.0097422396149048,2.093422016962116,18.36768,85.01466,183.6997,0.6628775,-0.1391282,0.7308431,7
16.74,7.723657,1.550277,-17.08154,-1.4587722572671225,0.0182423288871087,2.1313717042780937,21.97315,83.90399,183.7441,0.6512749,-0.1630974,0.7338469,7
16.76,7.835383,1.72057,-17.06006,-1.546344372759668,0.0302457773473177,2.1644874070534006,25.5775,82.76656,183.713,0.6389742,-0.1868834,0.7360479,7
16.78,7.689311,1.161016,-17.10608,-1.643440575640969,-0.039656142399197,2.176992449390858,21.57304,82.38206,184.0309,0.6415824,-0.1634988,0.7430995,7
16.8,7.80067,1.348159,-17.08768,-1.7150389094892171,-0.0236674817684276,2.19712222393315,25.11858,81.23588,183.9714,0.6293334,-0.1869779,0.7453645,7
16.82,7.9109,1.532186,-17.06843,-1.787599314558859,-0.0046913298699722,2.216052656382449,28.66124,80.05013,183.8294,0.6164305,-0.2102524,0.7468398,7
16.84,7.847497,1.13301,-17.08856,-1.8612240840318264,0.014293313511556,2.233259948499436,28.01403,77.90343,183.8719,0.6032656,-0.2087281,0.7592624,7
16.86,7.954964,1.327736,-17.07025,-1.9404489614025024,-0.082701246795418,2.235053398832466,31.48628,76.64706,183.5957,0.5898681,-0.2314803,0.7599994,7
16.88,8.061812,1.519545,-17.05108,-1.98922819912069,-0.0649386625415622,2.24674646762534,34.95115,75.32095,183.2162,0.5758805,-0.2539911,0.7599583,7
16.9,8.167853,1.708474,-17.03111,-2.038265593294168,-0.0447697770921939,2.2600304596453467,38.40643,73.90582,182.7173,0.5613169,-0.2762361,0.7591408,7
16.92,8.063204,1.118983,-17.06159,-2.082971491753817,-0.1103462401068567,2.268485775479595,37.36239,73.28942,182.9268,0.5586585,-0.2713509,0.7647148,7
16.94,8.167795,1.318089,-17.04257,-2.113153181167778,-0.0856225833322718,2.2835898504216257,40.75861,71.82166,182.3669,0.5438711,-0.2933404,0.763292,7
16.96,8.272053,1.514418,-17.0227,-2.1433309180162894,-0.0588979209174284,2.300445427184341,44.14106,70.22739,181.6551,0.5285564,-0.3150328,0.7611125,7
16.98,8.278045,1.114694,-17.04734,-2.173603308761944,-0.0334771668774322,2.318429884396481,44.67519,72.39786,181.0459,0.5434512,-0.3116729,0.7484342,7
17.0,8.380673,1.31557,-17.02756,-2.198888849594735,-0.125385636393717,2.326128173642873,48.01719,70.83653,180.4243,0.5281705,-0.3335366,0.7453058,7
17.02,8.483075,1.51376,-17.00693,-2.2041164430851063,-0.0997527040827822,2.3420219503420805,51.34456,69.10767,179.6133,0.5123934,-0.3550727,0.7414607,7
17.04,8.585078,1.709271,-16.98547,-2.208648573111378,-0.0724962636757466,2.359023158172728,54.65249,67.16087,178.5649,0.4961353,-0.3762609,0.7369032,7
17.06,8.680182,1.103864,-16.98568,-2.212546326536074,-0.0469423711077363,2.376537827686512,56.47948,69.0465,176.1444,0.5121163,-0.3728197,0.7164007,7
17.08,8.779788,1.300211,-16.96464,-2.2035843284802032,-0.0482620073260691,2.4199553150663187,59.73162,66.94576,174.9743,0.4960459,-0.3940111,0.7106304,7
17.1,8.87889,1.494025,-16.94283,-2.195142639594021,-0.0471910435477949,2.4621591690896514,62.95527,64.47237,173.4165,0.4795267,-0.4148272,0.7042005,7
17.12,9.10677,1.118025,-16.91581,-2.1871757389348048,-0.0470016977142971,2.502513877890037,61.81836,58.93985,167.1113,0.4696266,-0.3970145,0.713888,7
17.14,9.204068,1.304777,-16.89039,-2.1889531521415906,-0.0335836819835399,2.5664889704307114,64.8652,55.54507,164.5486,0.4535044,-0.4173504,0.7064226,7
17.16,9.300272,1.489079,-16.86436,-2.1937725885683887,-0.0182018434284678,2.627114970780584,67.82907,51.36316,161.1881,0.4369837,-0.4373026,0.6983208,7
17.18,9.395231,1.67099,-16.83777,-2.2014385125280227,-0.0039931794152936,2.683669597402568,70.67137,46.06997,156.7072,0.4200824,-0.4568537,0.6895908,7
17.2,9.489493,1.178129,-16.83937,-2.211709709150839,0.0059550989933596,2.735423543499647,52.11353,60.43515,171.0836,0.4802678,-0.3432815,0.7567576,7
17.22,9.586834,1.356561,-16.80754,-2.204378487679185,-0.0664924745761056,2.785063033719358,55.18757,58.07594,169.5198,0.4653664,-0.3639944,0.7510781,7
17.24,9.682553,1.532455,-16.77522,-2.2154616276036965,-0.0274555606905419,2.838581062849497,58.21683,55.36079,167.5858,0.4500667,-0.3843805,0.7447387,7
17.26,9.776505,1.705898,-16.74248,-2.231757541061407,0.0111798762112312,2.8874710649279427,61.18695,52.18399,165.178,0.4343858,-0.4044251,0.7377449,7
17.28,9.80877,1.251021,-16.75683,-2.252945396426065,0.0464630197168992,2.930822439471462,26.18637,62.98862,175.8427,0.5155043,-0.1745817,0.8256855,7
17.3,9.914517,1.421049,-16.71053,-2.2611274012913127,0.0552535361471848,2.975201716633883,29.60764,61.61356,175.244,0.5038238,-0.1987241,0.8242447,7
17.32,10.01793,1.587843,-16.66396,-2.2776523429345663,0.065164226245321,3.016077303907057,33.01463,60.14678,174.5266,0.4916473,-0.2226678,0.8219715,7
17.34,10.01772,1.272548,-16.61549,-2.302259451418124,0.0732782976181927,3.0523962082132554,2.425211,61.95734,177.7522,0.5148606,-0.00804675,0.8567885,7
17.36,10.12146,1.43999,-16.5567,-2.316676726412328,0.0800059134694392,3.091261862625622,5.952423,60.84812,177.511,0.506566,-0.03377751,0.860364,7
17.38,10.22262,1.603987,-16.49792,-2.341950728427049,0.0875174244434959,3.1267939086914422,9.473315,59.71583,177.1997,0.4977524,-0.05947064,0.8630383,7
17.4,10.32102,1.764693,-16.43931,-2.377828583145706,0.093012021076205,3.157894681247269,12.98631,58.55118,176.8136,0.4884288,-0.08509397,0.8648099,7
17.42,10.25272,1.292198,-16.37402,-2.423970025959337,0.0937586591037993,3.183480438852153,352.2147,56.04127,178.7998,0.4680524,0.06483545,0.8810276,7
17.44,10.34792,1.45531,-16.29818,-2.4385728296720366,0.089930584434537,3.1976962622048952,355.7845,54.9622,178.7217,0.4607511,0.03777114,0.8866971,7
17.46,10.44029,1.614846,-16.22289,-2.464918050601906,0.0872586389704318,3.208401462936277,359.3512,53.88221,178.5767,0.4529695,0.01067437,0.8914215,7
17.48,10.52967,1.77098,-16.14835,-2.5026969918883903,0.0829879276902798,3.214548640760845,2.913497,52.79295,178.3643,0.4447162,-0.01642568,0.8951972,7
17.5,10.42125,1.26287,-16.09381,-2.551515355677939,0.0744334505692382,3.215105996610651,355.7169,48.25278,180.321,0.4085594,0.03295942,0.9119624,7
17.52,10.5021,1.427592,-16.0064,-2.569959275940925,0.060834536108974,3.191282277002812,359.2586,47.17062,180.3044,0.4001201,0.0048666,0.9164362,7
17.54,10.58036,1.588889,-15.9199,-2.600947874629469,0.0492705883378393,3.1649505670185456,2.798251,46.08735,180.2226,0.3912717,-0.0232286,0.9199494,7
17.56,10.53152,1.241141,-15.87597,-2.644167672480185,0.0369893302577206,3.1351015407110028,3.962854,43.49339,181.8689,0.3697093,-0.03814921,0.928361,7
17.58,10.6051,1.408113,-15.78043,-2.664229227122236,0.0257314634659008,3.079521883944625,7.586038,42.41783,181.9097,0.3598994,-0.06767855,0.9304951,7
17.6,10.67628,1.57156,-15.68597,-2.696597274492377,0.0172900234623914,3.022598647074962,11.20902,41.33482,181.8826,0.3497071,-0.09713425,0.9316129,7
17.62,10.59624,1.208789,-15.69165,-2.740963658418048,0.0088436494988944,2.9634377004263013,11.7463,37.05328,184.0637,0.312439,-0.108169,0.9437588,7
17.64,10.63784,1.390022,-15.63134,-2.7793247397289287,0.0730980811099609,2.907014296235495,14.35615,33.443,183.497,0.2816807,-0.1283243,0.9508633,7
17.66,10.6782,1.569853,-15.57339,-2.805866890945776,0.0337437757479567,2.8034080332676825,16.89919,29.81026,182.7717,0.2509188,-0.148107,0.9564985,7
17.68,10.72021,1.750854,-15.51773,-2.844427716245896,-0.0022682886795034,2.69943235728773,19.30315,26.18318,181.6151,0.2209786,-0.1664297,0.9606625,7
17.7,10.76508,1.834251,-15.46099,-2.894704037881495,-0.0378731531922252,2.594407498148459,21.63339,22.75535,180.1737,0.1934912,-0.1842731,0.962985,7
17.72,10.70964,1.154673,-15.59733,-2.899450416231504,-0.0529102935995859,2.467306116108478,18.82946,24.24672,185.2059,0.1997114,-0.1691756,0.9650933,7
17.74,10.76392,1.347856,-15.54592,-2.9145409640355875,-0.0631820437614673,2.341299452906451,21.21527,19.80023,183.623,0.1631761,-0.1865925,0.9687909,7
17.76,10.81637,1.53985,-15.4938,-2.939808497927753,-0.0717445771421603,2.2158789431227244,23.47647,15.21306,181.8173,0.1263871,-0.2036804,0.9707769,7
17.78,10.81118,1.14631,-15.54981,-2.975026466983375,-0.0816067886631412,2.090537954997627,23.8093,14.69307,183.561,0.1187029,-0.208379,0.9708109,7
17.8,10.85333,1.342743,-15.48002,-2.9815718113521985,-0.0017849811254477,1.975009117419397,26.4258,11.00406,182.4412,0.08847515,-0.2294537,0.9692894,7
17.82,10.89371,1.5376,-15.40964,-2.963839295553515,-0.0451255030988341,1.8172666906924144,28.97121,7.172827,181.1058,0.05815352,-0.2502197,0.9664205,7
17.84,10.93226,1.730906,-15.33881,-2.9555035914519734,-0.0846054445253012,1.6625870048483111,31.43203,3.177481,179.5393,0.02777709,-0.270656,0.9622082,7
17.86,10.93728,1.123025,-15.3607,-2.9306054955030385,-0.0364335119122787,1.516671062597322,34.40026,4.409436,182.8169,0.02947538,-0.2963054,0.9545618,7
17.88,10.96502,1.322998,-15.27138,-2.8964114628787674,-0.0727352553933099,1.3573281077421313,37.49554,0.6160756,181.8081,1.93303e-05,-0.3214383,0.9468385,7
17.9,10.99071,1.520864,-15.18156,-2.870023732015458,-0.1057541032232678,1.2023043220968648,40.52789,356.5885,180.4903,-0.02940504,-0.3460693,0.9376388,7
17.92,11.04751,1.115691,-15.13242,-2.8514348848383464,-0.1388304902451809,1.0513317459700002,43.15986,359.852,181.4311,-0.005794606,-0.3677549,0.9298263,7
17.94,11.0671,1.317229,-15.03747,-2.793809607062125,-0.1434562134400023,0.9048636379941586,46.38477,355.9283,180.3919,-0.03399938,-0.3934572,0.9185545,7
17.96,11.08455,1.516502,-14.94209,-2.742289287097535,-0.1440789950214152,0.7635012224835944,49.54801,351.6684,178.9495,-0.06212319,-0.4185202,0.90581,7
17.98,11.09981,1.713515,-14.84652,-2.6969500520318257,-0.1440742974357239,0.6270261363684617,52.62561,346.9852,177.0247,-0.09012125,-0.4429046,0.8916163,7
18.0,11.14929,1.110591,-14.82717,-2.643163238084875,-0.0577717824612073,0.5020114004573981,50.5976,354.2703,178.4304,-0.03933669,-0.4273838,0.9031696,7
18.02,11.16011,1.311155,-14.73149,-2.586747650266816,-0.0867560399674844,0.3965839904976473,53.8019,350.0629,177.129,-0.0659205,-0.4525429,0.889142,7
18.04,11.16879,1.50949,-14.63566,-2.5361926536192363,-0.1144582756964839,0.2947429920060049,56.93435,345.3779,175.295,-0.09236914,-0.4769734,0.8736983,7
18.06,11.17531,1.70561,-14.53993,-2.49147283837672,-0.1441892630727774,0.1963021482071592,59.96356,340.0702,172.7902,-0.1186454,-0.5006363,0.8568664,7
18.08,11.25146,1.109466,-14.30188,-2.451577961024908,-0.0594628169273047,0.1044485222391777,62.58683,343.0981,167.5936,-0.06933106,-0.5243425,0.8485398,7
18.1,11.24777,1.299193,-14.2079,-2.4027167209602944,-0.0783555885002933,0.0296462164803303,65.5783,337.2329,164.5937,-0.09326884,-0.5483458,0.8310219,7
18.12,11.24201,1.486874,-14.11505,-2.361082609433778,-0.0968113522377179,-0.0426654067436886,68.40398,330.2126,160.4043,-0.1170335,-0.5714788,0.8122038,7
18.14,11.31466,1.161838,-13.87802,-2.3459112267615305,-0.0329316320555341,-0.1133180448230353,55.7706,339.6793,168.5269,-0.1091236,-0.473648,0.8739143,7
18.16,11.29741,1.342654,-13.78368,-2.338663475572938,0.0303401514334976,-0.1821507242074973,58.71449,334.4974,166.1192,-0.1331855,-0.4979048,0.8569311,7
18.18,11.27811,1.521411,-13.69154,-2.316580558571937,0.0002242779101076,-0.2252252581029319,61.51836,328.5926,162.9468,-0.1570177,-0.5213848,0.8386303,7
18.2,11.2569,1.698238,-13.60184,-2.305359565141927,-0.0313582501313898,-0.2668523425703906,64.13017,321.7796,158.8308,-0.1805791,-0.544053,0.8190441,7
18.22,11.37484,1.228852,-13.49063,-2.3046831406462616,0.0333436465003074,-0.3029675460382139,37.86805,345.5181,174.5344,-0.1037396,-0.3272096,0.9392321,7
18.24,11.34575,1.401811,-13.38809,-2.286417980349528,0.0286801112147413,-0.3235254681925164,41.1371,341.6898,173.4589,-0.1289341,-0.354786,0.9260097,7
18.26,11.31443,1.57224,-13.28877,-2.281789527498529,0.0236619319839121,-0.3424966711380617,44.34003,337.5748,172.0238,-0.1538944,-0.3817811,0.9112955,7
18.28,11.28107,1.740312,-13.19291,-2.290276618155053,0.0152295559364837,-0.3602314925928223,47.45615,333.106,170.1709,-0.1785765,-0.4081643,0.8951119,7
18.3,11.45811,1.268559,-13.1252,-2.29780889339858,0.0912687755637594,-0.3679377358042308,8.191151,351.8201,177.4102,-0.06951272,-0.07282798,0.9947672,7
18.32,11.42343,1.436719,-13.01464,-2.280718242871504,0.0762044293233097,-0.3723958946412662,11.70315,348.619,177.0071,-0.09595523,-0.1039908,0.9898135,7
18.34,11.38634,1.601868,-12.90792,-2.279027219114651,0.0614940855876212,-0.3759879497919722,15.18693,345.3485,176.3957,-0.1222079,-0.1349747,0.9831831,7
18.36,11.49198,1.285615,-12.83707,-2.272876855077671,0.1132641706772277,-0.3778691343124851,353.3255,354.0611,178.5734,-0.05243536,0.05748688,0.9968489,7
18.38,11.451,1.449997,-12.72518,-2.2730778700392418,0.1650879697904348,-0.3837874836574222,356.8975,350.9524,178.417,-0.0792096,0.02589504,0.9963947,7
18.4,11.40766,1.611233,-12.61763,-2.2507195810978367,0.1206204906610267,-0.3775601595258346,0.4548296,347.8416,178.0677,-0.105821,-0.00573195,0.9942343,7
18.42,11.36223,1.769589,-12.51471,-2.245297183061356,0.0756207940323108,-0.3726778387980416,3.986847,344.7047,177.5249,-0.1322244,-0.0373398,0.9903743,7
18.44,11.50497,1.270246,-12.53006,-2.229009591709413,0.1199765200389494,-0.3686238072669807,354.1102,352.5164,179.8351,-0.0652479,0.0511724,0.9965448,7
18.46,11.4577,1.434232,-12.42166,-2.1878113693743284,0.0899677036804419,-0.365208980318852,357.67,349.4108,179.7795,-0.09229625,0.02006754,0.9955223,7
18.48,11.40837,1.595132,-12.31773,-2.16315976657842,0.061497390972416,-0.3648975348681997,1.22055,346.3068,179.5314,-0.1191607,-0.01106257,0.9928097,7
18.5,11.35726,1.753215,-12.21856,-2.1514317077074248,0.0299860821030918,-0.3669973604704299,4.751403,343.1805,179.0902,-0.145796,-0.04216507,0.9884143,7
18.52,11.53208,1.246503,-12.33693,-2.1190257241050623,0.0955596370028451,-0.3721223213388831,1.372849,350.1203,181.4185,-0.08624475,-0.01086881,0.9961253,7
18.54,11.48283,1.412474,-12.2292,-2.053137714116166,0.0609630374513986,-0.3836002645929468,4.99645,347.0193,181.3502,-0.1134305,-0.04197554,0.9925197,7
18.56,11.43166,1.575307,-12.1258,-2.00281307771192,0.0289160820705362,-0.3996589632955074,8.610659,343.8938,181.0844,-0.140393,-0.07300583,0.987201,7
18.58,11.51223,1.226849,-12.24334,-1.948973766310772,0.072501304042191,-0.4144873329400258,10.31223,345.2179,182.9509,-0.1303729,-0.08579458,0.9870535,7
18.6,11.4607,1.398219,-12.13925,-1.9040751905022968,0.1130575129754792,-0.4346460633761837,13.94477,342.1012,182.814,-0.1573098,-0.1160855,0.9797618,7
18.62,11.40749,1.566522,-12.03902,-1.8258862810916503,0.0508421633137265,-0.47612979141777,17.56343,338.9224,182.4681,-0.1839479,-0.1461674,0.9707798,7
18.64,11.35283,1.731971,-11.9429,-1.740497406396074,0.0699343834723484,-0.507935495860298,21.15711,335.6529,181.902,-0.2102395,-0.1759902,0.9601251,7
18.66,11.46131,1.183993,-12.1608,-1.6608105325116451,0.0880870837509447,-0.5389208461371922,17.39658,336.2819,183.6193,-0.207714,-0.1415147,0.9659362,7
18.68,11.40763,1.365915,-12.06471,-1.5825783714885762,0.105531855698157,-0.5707851758597393,20.96198,333.1136,183.3371,-0.2336572,-0.1701937,0.9547365,7
18.7,11.35245,1.545002,-11.97149,-1.4671883316279395,0.0103247109402745,-0.6129206005101524,24.5058,329.8458,182.832,-0.2591792,-0.1985775,0.9419291,7
18.72,11.42446,1.154167,-12.09426,-1.3631724326079913,-0.0704894625387533,-0.6522845194263136,23.02253,327.2103,183.6778,-0.2825788,-0.1824724,0.9377512,7
18.74,11.3705,1.344549,-12.00358,-1.255461458483725,-0.0251993083377249,-0.6600941121788717,26.49232,323.9101,183.1196,-0.30734,-0.2095768,0.9232423,7
18.76,11.31498,1.532277,-11.91501,-1.1265320232786484,-0.065031821343452,-0.6721326590090093,29.92547,320.4662,182.3145,-0.3315682,-0.236329,0.9072192,7
18.78,11.25808,1.717426,-11.82877,-1.0105368061098647,-0.1023557934322653,-0.6778323382288047,33.30797,316.8414,181.2379,-0.3552193,-0.2626818,0.889712,7
18.8,11.20003,1.793436,-11.74506,-0.8973853156324287,-0.0538071066675303,-0.659796659675236,36.62308,312.9915,179.8552,-0.3782572,-0.2885944,0.870752,7
18.82,11.36733,1.125801,-11.96521,-0.7897999514420877,-0.0056839388681655,-0.6382718055907688,32.01332,314.8865,183.1897,-0.3756703,-0.2442935,0.8844081,7
18.84,11.30795,1.324282,-11.88273,-0.6591238292896189,-0.0722302175965557,-0.6163872024245767,35.37819,311.3622,182.3367,-0.3979084,-0.2688327,0.8654502,7
18.86,11.24694,1.52027,-11.80177,-0.5398017891472668,-0.1374267956781229,-0.5894041322729142,38.69082,307.6203,181.1849,-0.4194795,-0.292932,0.8451148,7
18.88,11.30412,1.115984,-11.83968,-0.4268974087606227,-0.0848300010472024,-0.5435976398875311,41.81051,314.9761,182.1972,-0.3639261,-0.3227156,0.8602099,7
18.9,11.24568,1.316825,-11.75868,-0.3212479251943285,-0.0334691118172159,-0.4937045092552274,45.1466,311.3422,181.3369,-0.3844673,-0.3453142,0.8394861,7
18.92,11.18554,1.51526,-11.67901,-0.199407834846061,-0.0969280574833437,-0.4490645001086863,48.43332,307.4059,180.106,-0.4043792,-0.3673638,0.817449,7
18.94,11.23228,1.11324,-11.65006,-0.0924472432986094,-0.0690529736300121,-0.3953272529688132,48.03658,313.7884,179.4082,-0.3565134,-0.3762236,0.840957,7
18.96,11.17435,1.314459,-11.57098,0.0049572624289428,-0.039325509078873,-0.3393404185629367,51.31286,309.9885,178.4021,-0.3755246,-0.397664,0.8193862,7
18.98,11.11474,1.513362,-11.49317,0.1033065216838353,-0.0973649248137086,-0.2671583934786439,54.535,305.7972,176.9467,-0.3939334,-0.4184857,0.7965599,7
19.0,11.05362,1.709956,-11.41682,0.1917776572040095,-0.1552694798037606,-0.1938062153139637,57.67876,301.0964,174.9306,-0.4117126,-0.4386579,0.7725154,7
19.02,11.04715,1.104741,-11.2395,0.2672093328673,-0.0976865000037801,-0.1074577912082823,61.18064,305.2679,171.0052,-0.3590433,-0.481581,0.7804801,7
19.04,10.98304,1.296793,-11.16942,0.3389915136553323,-0.0408463505405167,-0.0217039995812635,64.28156,300.1452,168.6411,-0.3747407,-0.5006061,0.7565013,7
19.06,10.918,1.486732,-11.1013,0.4126679461186793,-0.0893455489754957,0.0893321769090171,67.26151,294.0605,165.279,-0.3898501,-0.5188676,0.7313933,7
19.08,10.85222,1.674619,-11.03528,0.4776697212819389,-0.1392183657260481,0.1981083534130087,70.05886,286.6416,160.5521,-0.4043516,-0.5363428,0.7051934,7
19.1,10.88794,1.144405,-10.87587,0.5238625684364451,-0.0752092903753342,0.2828261797358939,58.38815,297.2943,167.5442,-0.4063445,-0.4633615,0.7686331,7
19.12,10.8143,1.327353,-10.81498,0.5757970671404387,-0.0801405108531796,0.3848092165604059,61.32842,291.9753,164.8733,-0.4213253,-0.4824054,0.7443572,7
19.14,10.74046,1.508225,-10.75681,0.6188650358448096,-0.0850480929591926,0.4819054355483709,64.11947,285.8112,161.3206,-0.435663,-0.5007318,0.7189925,7
19.16,10.66664,1.687134,-10.70145,0.6418590396997979,-0.0164731501422359,0.55194109379723,66.70189,278.5654,156.6557,-0.4493327,-0.5183113,0.6925819,7
19.18,10.75232,1.229035,-10.47866,0.66190955388884,0.0485995270283947,0.616466442220124,37.84348,304.9298,174.5603,-0.4231732,-0.3079725,0.8449803,7
19.2,10.66427,1.402207,-10.41976,0.683122768299949,0.0968631190643562,0.6729188821528661,41.08909,301.2765,173.5272,-0.4411381,-0.3312879,0.824524,7
19.22,10.57661,1.572859,-10.36457,0.7353322365340442,0.0384006810729819,0.7343947447305452,44.27411,297.3513,172.1535,-0.4584061,-0.3540911,0.8028179,7
19.24,10.69032,1.26388,-10.20741,0.7587231375887404,0.0740697284460254,0.786281715237979,13.98692,310.082,177.0269,-0.4158257,-0.1212135,0.9008951,7
19.26,10.593,1.432514,-10.14499,0.7748759099190996,0.1097717093808415,0.8290414502348842,17.48787,306.9659,176.5531,-0.4369848,-0.1492368,0.8860431,7
19.28,10.49629,1.598114,-10.08684,0.7887324392042245,0.1403569827568377,0.8638938651165687,20.95882,303.7551,175.8664,-0.4574088,-0.177021,0.8697597,7
19.3,10.43261,1.739525,-10.01897,0.8330741569282636,0.074910551049131,0.9002883724427758,25.26778,301.3488,175.3762,-0.4698326,-0.2098149,0.8543698,7
