t,pX,pY,pZ,aX,aY,aZ,reX,reY,reZ,rtX,rtY,rtZ,ID
5.84,-44.25684,1.11675,-36.93176,1.644381999030399,-0.0276346826289733,1.003709065659197,11.42716,357.6586,162.4646,-0.004920145,-0.1014705,0.9835094,12
5.86,-44.21175,1.329063,-37.04342,1.70575856872619,-0.069274716620951,0.9632891838652284,7.946245,358.9796,161.3115,0.002484172,-0.06980872,0.9844204,12
5.88,-44.16922,1.538137,-37.16588,1.7652339642954624,-0.0832420295429921,0.9177177972005676,4.153991,0.2759248,160.1152,0.008627724,-0.03528259,0.9843168,12
5.9,-44.18431,1.156589,-37.08619,1.8224921664149063,-0.071282206918811,0.8671726678732252,14.63274,7.028897,163.4935,0.0784177,-0.1170642,0.9786192,12
5.92,-44.17613,1.357836,-37.08687,1.8898570522467304,-0.1052492092729601,0.8141616397572617,14.47488,8.077667,163.3446,0.08733585,-0.1142237,0.9778497,12
5.94,-44.0845,1.159762,-36.98533,1.9559443748567755,-0.1127460206616966,0.7559572173733171,18.54772,14.26486,166.3494,0.1406755,-0.1442104,0.9699744,12
5.96,-44.08369,1.353727,-36.94948,2.020313398566669,-0.0955364293998857,0.6927635607717573,19.45693,15.48879,166.779,0.1512085,-0.151035,0.9675157,12
5.98,-44.08255,1.547369,-36.9138,2.0825345158811714,-0.0553314949429896,0.6247979997953026,20.35868,16.72677,167.2342,0.1617124,-0.1578509,0.9648983,12
6.0,-44.08106,1.740693,-36.87829,2.134940898723884,-0.0905913497120207,0.5634339119302298,21.25302,17.97931,167.7146,0.1721846,-0.1646618,0.9621205,12
6.02,-43.86734,1.188431,-36.8502,2.186520299667974,-0.0997088490690394,0.4971784996956696,12.55901,28.79323,169.9692,0.2554567,-0.08393249,0.9567229,12
6.04,-43.83771,1.379031,-36.8047,2.236793269569172,-0.0844607515008585,0.4262552160480535,14.06603,29.8944,170.0622,0.2652725,-0.09568135,0.9525554,12
6.06,-43.62453,1.210964,-36.75073,2.3149086819099383,-0.1255564605577742,0.3694287041564461,3.672849,40.13973,173.0931,0.3441798,-0.009384632,0.9364253,12
6.08,-43.5603,1.389432,-36.6786,2.4158308569372684,-0.1509858970479697,0.3112472398078392,6.438662,41.23448,173.286,0.3540422,-0.03188451,0.9317151,12
6.1,-43.49611,1.565612,-36.608,2.519522370577497,-0.1561703005254399,0.2613497571983538,9.20252,42.34484,173.5335,0.3636578,-0.05438175,0.9263788,12
6.12,-43.15379,1.266769,-36.59659,2.6282891941473405,-0.1913583844680443,0.2247793588678188,356.7833,53.67736,178.3699,0.4509002,0.03146109,0.8920197,12
6.14,-43.03994,1.422045,-36.50672,2.724565207528217,-0.1993309338646183,0.1974159963179529,0.9157862,54.74184,178.8818,0.4597819,-0.002610626,0.8879424,12
6.16,-42.92789,1.572229,-36.42029,2.8066395226124987,-0.1813129494562402,0.1788477665652337,5.039798,55.84626,179.4725,0.4680076,-0.03669359,0.8826181,12
6.18,-42.93943,1.239975,-36.40139,2.866199300120828,-0.2155062580503799,0.1451532543384335,356.3048,62.12076,185.7811,0.5164096,0.001578498,0.8542506,12
6.2,-42.8945,1.368222,-36.16607,2.913318275296429,-0.2210778990808463,0.11315376855321,0.539838,63.12943,191.6812,0.5203297,-0.0572604,0.8478679,12
6.22,-42.84415,1.479647,-35.93477,2.948429818432512,-0.1996815283472554,0.0827431609590103,4.929589,64.32264,197.6905,0.5198897,-0.1177482,0.8392311,12
6.24,-42.90366,1.287895,-36.15001,2.968284776800953,-0.2365006330447066,0.0565569552453624,358.4903,66.46874,180.1206,0.5480289,0.01044258,0.8363551,12
6.26,-42.97615,1.498076,-36.20675,2.978081102521493,-0.2443923892962901,0.0314382643357147,357.048,62.29139,179.84,0.5170132,0.02276691,0.8555887,12
6.28,-43.05452,1.702967,-36.25836,2.9782011976263494,-0.2250202035340233,0.0073245916891702,356.0813,58.10488,180.4444,0.4854382,0.02800584,0.8735936,12
6.3,-43.35417,1.279416,-36.57613,2.969033477599037,-0.180010415290779,-0.0158465463840844,1.405859,62.72575,183.7767,0.5197896,-0.02761877,0.8535708,12
6.32,-43.43367,1.490302,-36.62094,2.935025410887164,-0.2230591862729622,-0.037105257063807,358.827,63.74973,183.928,0.528026,-0.009409191,0.8484751,12
6.34,-43.44308,1.688223,-36.60074,2.894058296471539,-0.2363502953952956,-0.0577734098300073,358.9283,62.82705,184.4902,0.5211009,-0.01244246,0.8525447,12
6.36,-43.15896,1.134374,-36.27919,2.846487953486368,-0.2215732176018523,-0.0778643621005512,20.3239,72.54243,192.3637,0.5636243,-0.2041236,0.8002039,12
6.38,-43.09609,1.250479,-35.97007,2.778392428628337,-0.2663469975498083,-0.0929632871844123,23.73922,79.20344,202.543,0.5808091,-0.2773529,0.7651035,12
6.4,-43.06623,1.393843,-35.78998,2.705212340202544,-0.2805602352642149,-0.107186785205223,24.89051,83.00022,208.7222,0.5867989,-0.3168506,0.7439213,12
6.42,-43.13143,1.159445,-36.05244,2.627326764380572,-0.2659310388494279,-0.1205494944059051,18.78691,79.39679,187.2197,0.6210243,-0.1650076,0.7641582,12
6.44,-43.1376,1.354938,-36.01041,2.5317946437783965,-0.3107677175772679,-0.1300103177012666,18.66644,80.53736,188.5944,0.6267511,-0.1711873,0.7586589,12
6.46,-43.14894,1.551741,-35.98094,2.43317825415544,-0.3242672742148285,-0.1383844686515116,18.32423,81.67455,189.6404,0.6331643,-0.1742883,0.7530251,12
6.48,-43.13718,1.142491,-36.06962,2.331873205032611,-0.3081789256598137,-0.1456798275420405,23.08862,79.1501,184.1943,0.6181375,-0.1769937,0.7593578,12
6.5,-43.12139,1.34127,-36.05593,2.228279050357222,-0.2642124298954444,-0.151894883085272,23.38246,81.13575,184.5612,0.6302264,-0.1791514,0.7485316,12
6.52,-43.10573,1.539914,-36.04343,2.110724342002345,-0.3070939860693397,-0.1588410480044686,23.68938,83.1498,184.9547,0.6422248,-0.1814818,0.7373637,12
6.54,-43.09283,1.121822,-36.04362,1.9934670540233888,-0.3179008630448734,-0.1651409515527806,31.90775,81.4028,183.2525,0.6208333,-0.2260891,0.7337115,12
6.56,-43.05925,1.321698,-36.03354,1.876853354389529,-0.2984249737369239,-0.170737875894007,32.68624,83.84888,183.3754,0.6347085,-0.228153,0.7191908,12
6.58,-43.02577,1.521319,-36.02565,1.7585883948267815,-0.3351816920700959,-0.1770312930712423,33.48328,86.28288,183.5386,0.648016,-0.2303031,0.7044883,12
6.6,-42.99231,1.720655,-36.01867,1.6434513457135314,-0.3393945709822012,-0.1834431158640272,34.27512,88.7631,183.751,0.661128,-0.2323594,0.6893448,12
6.62,-42.94969,1.112603,-36.0056,1.5317101958703176,-0.3129162633570364,-0.1898423754359264,41.39934,87.34998,182.385,0.6405276,-0.2690419,0.6815124,12
6.64,-42.89335,1.31304,-35.99648,1.4274274809054912,-0.3427889444857999,-0.192726430546168,42.9025,89.44402,182.5635,0.6489477,-0.2744321,0.6669012,12
6.66,-42.8379,1.512764,-35.98988,1.3256619277082624,-0.3402816692294343,-0.1934608392240253,44.3904,91.62745,182.8116,0.6572843,-0.2795082,0.6517994,12
6.68,-42.74538,1.109542,-35.99657,1.2258246370117174,-0.3072372916905957,-0.1915376271998186,49.01948,88.22421,178.8104,0.6364005,-0.2912616,0.6502501,12
6.7,-42.66605,1.307111,-35.96563,1.128390103438413,-0.2454085449095774,-0.1869218369514538,51.2217,91.28963,180.1365,0.6444091,-0.3029604,0.6307857,12
6.72,-42.47382,1.1042,-35.98148,1.0492881107149046,-0.2685012510105724,-0.1789269189559501,58.33006,87.10916,174.41,0.6181939,-0.3234146,0.6157115,12
6.74,-42.40467,1.301002,-35.98745,0.972458846977541,-0.2595834014871844,-0.1679596965912413,60.2887,88.54469,174.0118,0.6216229,-0.3275535,0.60004,12
6.76,-42.33717,1.497097,-35.99863,0.8984149231676355,-0.2204153150326212,-0.1540126314107164,62.22981,89.56012,173.3822,0.6232149,-0.331383,0.5856742,12
6.78,-42.26949,1.691893,-36.0096,0.8513844851152772,-0.2285360249334233,-0.1328648521553352,64.19884,90.72796,172.8934,0.6247833,-0.3352773,0.5706127,12
6.8,-42.06496,1.134238,-35.99633,0.8064613448857987,-0.2055596564513437,-0.1083488445865636,59.79684,79.94012,167.4806,0.5952249,-0.3190145,0.6255084,12
6.82,-41.99578,1.32506,-36.01181,0.7641631133492828,-0.1531908408433392,-0.0804434798068172,61.7437,80.45045,166.281,0.59712,-0.3227661,0.6110672,12
6.84,-41.92733,1.514742,-36.02819,0.74539869378909,-0.1432364985216139,-0.0462125692799952,63.68344,80.89435,165.03,0.5987204,-0.3262734,0.5963861,12
6.86,-41.71826,1.203258,-36.0057,0.7300463778607709,-0.1032477237732091,-0.0082687848958569,47.15694,85.78422,173.5617,0.6392696,-0.2575663,0.6551234,12
6.88,-41.64555,1.388628,-36.02295,0.7117562927129031,-0.0667314256842326,0.0500288806788038,49.21333,86.991,173.0976,0.6428403,-0.2638392,0.6411019,12
6.9,-41.57379,1.572667,-36.0411,0.6910177913927624,-0.0367165874785365,0.1312809207885772,51.27597,88.22279,172.6822,0.6460723,-0.269982,0.6267601,12
6.92,-41.41371,1.259121,-36.0437,0.6821613606325583,-0.0258506586526448,0.2012596445319001,25.04308,92.88387,176.1426,0.7120671,-0.1255054,0.6670304,12
6.94,-41.32781,1.438349,-36.06683,0.6783899954891615,-0.0163293089734177,0.277569052742824,27.4971,94.36869,175.9996,0.7177304,-0.1365569,0.6536818,12
6.96,-41.24332,1.615681,-36.09098,0.6674616982048196,0.0482635683040308,0.3449662444894326,29.95504,95.88026,175.9267,0.7229222,-0.1475323,0.6399204,12
6.98,-41.16035,1.791159,-36.11609,0.6650591235670671,0.0354901486148334,0.4107677812393477,32.41647,97.4264,175.9288,0.727637,-0.1584313,0.6257529,12
7.0,-41.13029,1.28005,-36.06327,0.6694715085519674,0.0205315704897451,0.4763433539307939,1.372078,99.19422,177.9732,0.7614694,0.005708004,0.6478493,12
7.02,-41.0386,1.45623,-36.08957,0.6810708381022526,-2.993171987189513e-05,0.54145321785838,4.001002,100.7413,178.0823,0.7699824,-0.00938141,0.6368905,12
7.04,-40.94859,1.630214,-36.11692,0.6750534536681796,0.0091281118686106,0.6083296073819673,6.628433,102.2986,178.2635,0.777941,-0.02447924,0.62549,12
7.06,-40.65088,1.243284,-36.01419,0.6711641712505179,0.017375869482751,0.6731289968011858,356.4504,98.30141,180.4329,0.756141,0.01740075,0.6536647,12
7.08,-40.37494,1.341918,-36.01559,0.6419106479541536,0.0751458450811121,0.7342426581387658,4.441198,98.18826,181.5299,0.7548129,-0.03545266,0.6546592,12
7.1,-40.22856,1.478707,-35.95,0.6080853913564992,0.1302574506734229,0.7884968856746193,8.13803,99.76705,184.8728,0.7601753,-0.07810707,0.6444452,12
7.12,-40.06179,1.267969,-35.84591,0.555271824448667,0.076122880791535,0.8305194879919293,353.3478,97.33381,182.9671,0.7503588,0.01889763,0.6579742,12
7.14,-40.01416,1.448919,-35.76591,0.457118858666651,0.0917189925157847,0.8743935975616646,354.2719,97.80187,185.682,0.7533359,-0.004498318,0.6538687,12
7.16,-39.98086,1.631877,-35.68534,0.3450788131429476,0.1098205750326893,0.9081840876900856,354.7464,98.43807,188.4264,0.7565717,-0.02571827,0.6481699,12
7.18,-40.00951,1.272207,-35.77057,0.2079455269988193,0.0503539724329648,0.9278236567297108,356.6548,97.60956,182.2209,0.7523805,0.0046443,0.6577968,12
7.2,-39.9738,1.462148,-35.74343,0.0753003555712865,0.0661628698561173,0.9460062733923484,357.4515,98.4474,183.3707,0.7571777,-0.007748757,0.6521682,12
7.22,-39.93803,1.651599,-35.71682,-0.0609737232929381,0.0892932497701796,0.9302524630027182,358.235,99.29985,184.5289,0.7618114,-0.02014467,0.64641,12
7.24,-39.92829,1.249407,-35.67141,-0.2162596059645789,0.0398664816793195,0.87724884653601,5.681759,96.30204,183.6332,0.7425684,-0.05663496,0.6671852,12
7.26,-39.88643,1.438887,-35.64708,-0.3583533159066725,0.0460926032063795,0.8541171090332735,6.696344,97.31016,184.6892,0.7472593,-0.06920876,0.6607047,12
7.28,-39.8446,1.627808,-35.62326,-0.4845454973750032,0.0475694239609847,0.838860063340146,7.693724,98.33824,185.7646,0.7517774,-0.08177142,0.6540828,12
7.3,-39.80281,1.816169,-35.60001,-0.5929779999628177,0.0414527215425977,0.8314707630166254,8.675534,99.38641,186.858,0.7561195,-0.0943212,0.6473225,12
7.32,-39.87388,1.210921,-35.57009,-0.6761693099561805,0.0109541105735628,0.8650574632057566,12.3884,95.12806,184.2981,0.7304769,-0.1002691,0.6733408,12
7.34,-39.82812,1.401947,-35.54934,-0.7352527088729088,-0.0215377282162576,0.9087073273355272,13.56926,96.22584,185.2201,0.73489,-0.1124584,0.6663065,12
7.36,-39.78241,1.592369,-35.52909,-0.7797401339146681,-0.0577939108305223,0.9535053331212442,14.73389,97.34782,186.1695,0.7391289,-0.1246266,0.6591254,12
7.38,-39.83781,1.17405,-35.47807,-0.874997506882111,-0.0722040944245529,0.9510381817801852,17.86304,91.70999,184.8065,0.7037209,-0.1377604,0.6920981,12
7.4,-39.79273,1.367507,-35.45481,-0.9663699119696014,-0.0721928151984018,0.9036914031274632,19.08773,92.88433,185.7098,0.7080714,-0.1497051,0.6846899,12
7.42,-39.74762,1.560348,-35.43202,-1.04909620458743,-0.0647320064676137,0.828163322906522,20.29568,94.08691,186.6459,0.7122512,-0.1616192,0.6771299,12
7.44,-39.79676,1.139759,-35.38814,-1.126450770997831,-0.0810577376986461,0.7874891781076458,24.16606,87.45908,184.8345,0.6689594,-0.1796376,0.7120758,12
7.46,-39.7513,1.335741,-35.36336,-1.1872967202415587,-0.0941621198673058,0.7401779010062288,25.4795,88.69752,185.6754,0.6731724,-0.1912569,0.7042701,12
7.48,-39.70572,1.53108,-35.33902,-1.2304187988686015,-0.1078822296566941,0.6878130845702772,26.77912,89.96922,186.5545,0.6772134,-0.2028356,0.6963043,12
7.5,-39.66004,1.725779,-35.31511,-1.2589648202326345,-0.0349379975407359,0.6480166877404203,28.06455,91.27588,187.473,0.6810793,-0.2143721,0.6881809,12
7.52,-39.6997,1.12008,-35.30451,-1.2917989094667996,-0.0768855637422457,0.6032459185446566,32.94225,83.33458,184.0146,0.6297125,-0.2340038,0.7225251,12
7.54,-39.64645,1.318565,-35.28549,-1.3088597754620022,-0.1171974337927584,0.5574116278055019,34.54575,84.49786,184.5211,0.6328618,-0.2449447,0.7141719,12
7.56,-39.59308,1.516279,-35.2669,-1.309618397297955,-0.0670802238421785,0.5124603394156635,36.14363,85.69913,185.0747,0.6358245,-0.2558262,0.7056311,12
7.58,-39.55833,1.113598,-35.25909,-1.302303835459135,-0.1019722920324368,0.4653519115540403,41.88494,81.14407,182.0992,0.6023626,-0.2825818,0.7135499,12
7.6,-39.49334,1.31428,-35.24874,-1.2802591129971956,-0.1350977500665331,0.4186860904887819,43.84505,82.03596,182.1179,0.603529,-0.2928995,0.7043541,12
7.62,-39.42825,1.513901,-35.23887,-1.2435159575280288,-0.1701781630764249,0.3726624844159598,45.80741,82.95783,182.1796,0.6044696,-0.3031274,0.6949108,12
7.64,-39.33629,1.10952,-35.20567,-1.185412255952846,-0.1752482761985294,0.32887218619714,49.76812,78.6348,178.9207,0.5778323,-0.32011,0.699281,12
7.66,-39.27962,1.308081,-35.18219,-1.1145653206025583,-0.1773964328474335,0.2849705573134766,51.53632,79.89797,179.6113,0.5793819,-0.3313081,0.6894336,12
7.68,-39.22968,1.505528,-35.1558,-1.0313905122593798,-0.1802783616171245,0.2414928506050921,53.11756,81.51753,180.5645,0.5823064,-0.341547,0.6789642,12
7.7,-39.17942,1.702191,-35.1297,-0.9421503935016392,-0.0971352520177557,0.2005074388143182,54.69242,83.20597,181.6262,0.5848312,-0.3518319,0.6684601,12
7.72,-39.01955,1.105823,-35.09933,-0.8371342242662365,-0.1235347211479911,0.1605328531204399,59.8266,72.87925,173.157,0.5378721,-0.3697454,0.67839,12
7.74,-38.96985,1.300145,-35.0722,-0.7420653827161656,-0.0894004285925241,0.1240055658971659,61.49076,74.37273,174.0647,0.5398473,-0.3798391,0.6677843,12
7.76,-38.91989,1.493687,-35.04561,-0.6398743763510994,-0.0548214799209557,0.089710672387242,63.15068,75.9883,175.0996,0.5416076,-0.3898527,0.6570075,12
7.78,-38.70195,1.150105,-34.98982,-0.5172781924037837,-0.0936917150598336,0.0655894355919297,57.06951,65.56197,169.8777,0.5092362,-0.3580895,0.7129226,12
7.8,-38.65359,1.339956,-34.96008,-0.3880314099299955,-0.1349182063554517,0.0449106635456937,58.74739,66.73376,170.5588,0.5113772,-0.3688182,0.7031257,12
7.82,-38.6054,1.529099,-34.93076,-0.2730638366449609,-0.0692352165830284,0.024276774342951,60.39772,68.05186,171.3964,0.5135342,-0.3794294,0.6931752,12
7.84,-38.4132,1.221355,-34.8813,-0.1443029545602092,-0.0728728122957707,0.009137640783658,41.56923,70.75056,175.283,0.552702,-0.2668227,0.7532138,12
7.86,-38.35866,1.407153,-34.84978,-0.0102700921077723,-0.0780656289503648,-0.0005928419733587,43.31432,71.72572,176.0064,0.5545823,-0.279934,0.7452222,12
7.88,-38.305,1.592252,-34.81963,0.1070213360641769,-0.01309348204978,-0.0103242474383344,45.02106,72.84471,176.7961,0.5568938,-0.2926138,0.7367094,12
7.9,-38.25171,1.776494,-34.79023,0.2264113421692615,0.0484333983938341,-0.0143030402347923,46.71255,74.05117,177.6595,0.5591772,-0.3051537,0.7279181,12
7.92,-38.1595,1.268279,-34.79701,0.3368430024112374,0.0107395491117037,-0.0190682860340567,18.48632,75.72488,177.412,0.6085076,-0.1130985,0.7768106,12
7.94,-38.09326,1.449882,-34.76286,0.438074578452877,0.0441584577358606,-0.0189111369668015,20.51197,76.32314,178.0811,0.6102676,-0.1297921,0.7717581,12
7.96,-38.02788,1.630134,-34.72883,0.537660725531361,0.0293470850223494,-0.0112623072637179,22.53406,76.93761,178.783,0.6116893,-0.1464857,0.7665234,12
7.98,-37.94567,1.287891,-34.70719,0.6372524259920871,0.0129385934878733,0.0054748347542989,356.834,79.2271,178.7177,0.6370848,0.02841172,0.7702175,12
8.0,-37.87757,1.468143,-34.67524,0.7362420625342239,-0.00814832499838,0.0315353705622989,358.8741,79.49816,179.3509,0.6393428,0.01117597,0.7688383,12
8.02,-37.80975,1.646863,-34.64374,0.8418747677236453,0.065728997085629,0.0554643516956705,0.9313805,79.77627,179.9814,0.6412706,-0.006132516,0.7672719,12
8.04,-37.69553,1.307118,-34.60293,0.940327915151478,0.0405847220641791,0.0867713627509116,351.3821,79.76819,179.6462,0.6392431,0.05962779,0.7653195,12
8.06,-37.6244,1.484285,-34.56934,1.0368541494425267,0.0137268103449652,0.1294228132186043,353.5076,79.91975,180.3081,0.6413348,0.04167969,0.7651641,12
8.08,-37.55433,1.659976,-34.53601,1.099367021517799,0.0660082822671458,0.1639053916877619,355.6279,80.08429,180.976,0.6431082,0.02372618,0.7647777,12
8.1,-37.48526,1.834209,-34.5032,1.109719688709144,0.0526974614649048,0.1947105198876295,357.7455,80.27444,181.6481,0.6446453,0.005769367,0.7640935,12
8.12,-37.51742,1.273058,-34.50623,1.105605861849611,0.0449296123784532,0.2225594752571726,354.4797,79.1737,180.9142,0.6367837,0.03203236,0.7694963,12
8.14,-37.44612,1.450686,-34.47086,1.0826087403212945,0.091842894883175,0.2409891711679117,356.6775,79.18402,181.5514,0.6372928,0.0137137,0.7699575,12
8.16,-37.37638,1.627034,-34.43637,1.0423982438290382,0.0612191457007195,0.2455428906746695,358.8492,79.25883,182.1902,0.6378186,-0.004456118,0.769884,12
8.18,-37.38345,1.251585,-34.4292,1.003731044442043,0.0288444897885251,0.2425744990325089,2.631452,78.81582,182.2926,0.6341878,-0.03043476,0.7725793,12
8.2,-37.31271,1.431989,-34.40058,0.9751974492207108,0.0726993133062851,0.2563579793222459,4.767511,79.32609,182.8494,0.6367258,-0.04786432,0.7695676,12
8.22,-37.24266,1.610845,-34.37157,0.9265675291184357,0.0353806810147293,0.2630757487576938,6.909491,79.79998,183.4368,0.6386095,-0.0654092,0.7665858,12
8.24,-37.27549,1.225289,-34.35626,0.8809490740690391,-0.0038656545839937,0.2715268794218382,10.62962,78.91886,183.5949,0.630245,-0.09132917,0.7702239,12
8.26,-37.20277,1.408489,-34.32682,0.8415318305171491,0.0401607856671116,0.2786748063790289,12.84952,79.54947,184.1695,0.6322037,-0.1090715,0.7658377,12
8.28,-37.13076,1.590268,-34.29837,0.8029601001288089,0.0804273924819924,0.2874093120397525,15.0522,80.23922,184.7768,0.6341054,-0.1266942,0.760972,12
8.3,-37.05896,1.770194,-34.26857,0.7324192836256813,0.0103773058057055,0.2829507522488921,17.28588,80.83209,185.442,0.6348167,-0.1447133,0.7564875,12
8.32,-37.17673,1.187922,-34.29076,0.6655400360207206,-0.0615907892333826,0.280838574440577,16.29469,78.87334,184.0537,0.624549,-0.1316251,0.7672377,12
8.34,-37.10193,1.375843,-34.26554,0.6189450055867622,-0.0201281516218214,0.2799334339550903,18.58961,79.58906,184.4921,0.6262842,-0.1487573,0.7617254,12
8.36,-37.028,1.562027,-34.23845,0.5500886545033037,-0.0628180577626364,0.2710117076876619,20.89551,80.1738,185.0098,0.626604,-0.1662812,0.7567691,12
8.38,-37.1088,1.155257,-34.23401,0.4862161667405562,-0.1045461832879233,0.2650163028930015,21.97017,76.11109,184.2641,0.5991293,-0.1724532,0.7768204,12
8.4,-37.03265,1.348102,-34.20841,0.4422318214185043,-0.0577339491233306,0.2572477858928081,24.36923,76.7313,184.5518,0.5996453,-0.189449,0.7710004,12
8.42,-36.95669,1.539348,-34.18326,0.3847619053806363,-0.0956640174585477,0.2444603478114677,26.77013,77.37614,184.8722,0.5998705,-0.2063797,0.7648221,12
8.44,-37.0057,1.129049,-34.17122,0.3341567143646964,-0.1317676720844341,0.234253822304562,29.09196,72.48638,183.8752,0.5650872,-0.2217948,0.7852374,12
8.46,-36.9277,1.326584,-34.14717,0.3043410897410892,-0.077843424091387,0.2233651063627268,31.57633,72.99797,183.8873,0.5646214,-0.2380045,0.7785848,12
8.48,-36.84972,1.522458,-34.12346,0.2817319287678828,-0.0247668853409956,0.2143658794839913,34.06277,73.52595,183.9297,0.5638767,-0.2541267,0.7715449,12
8.5,-36.77305,1.716676,-34.09947,0.2434635910831533,-0.0865902133334181,0.1955306590116539,36.52411,74.04476,184.0339,0.5626401,-0.2701592,0.7643586,12
8.52,-36.82785,1.116467,-34.09729,0.2135954260827341,-0.1477977688976571,0.1790231418978418,38.84791,70.50179,182.9281,0.5371919,-0.285394,0.7748055,12
8.54,-36.75089,1.316135,-34.07011,0.2047549135334661,-0.0922065930182174,0.1667472438340116,41.36219,70.86076,182.9381,0.5348011,-0.3015771,0.7673124,12
8.56,-36.67515,1.514096,-34.04259,0.1943493846881701,-0.1212574906836554,0.1523478418720936,43.85036,71.21046,183.0087,0.5319319,-0.3176627,0.759689,12
8.58,-36.63803,1.112844,-34.02643,0.1918472963867863,-0.1482608704333952,0.1411292796960763,45.83647,68.71185,180.6856,0.517852,-0.3245864,0.7616816,12
8.6,-36.55738,1.313104,-33.99503,0.1998437153890737,-0.0870207544172243,0.1346731754904917,48.53712,68.76839,180.6874,0.5127889,-0.3422795,0.7537183,12
8.62,-36.47783,1.511465,-33.96324,0.2238816463094748,-0.1119620625685991,0.1359505176736606,51.21639,68.8142,180.7285,0.5072857,-0.3598282,0.7455378,12
8.64,-36.34241,1.103737,-33.91385,0.2527517309193161,-0.1359720858153554,0.1413312876181631,56.29376,64.7001,176.3474,0.4842724,-0.3832789,0.7364674,12
8.66,-36.2505,1.300196,-33.88395,0.2821267877853577,-0.0722543087549532,0.1473661992189718,59.30698,64.08538,175.5975,0.4768345,-0.4013603,0.7260131,12
8.68,-36.16145,1.494348,-33.85311,0.3167541088841084,-0.0097164095338466,0.1553537518291312,62.26479,63.33134,174.8225,0.468771,-0.4193018,0.7155399,12
8.7,-36.07661,1.686514,-33.82204,0.3635348829066744,-0.0553646031082026,0.166836841600162,65.11441,62.51643,174.0189,0.4607583,-0.4365796,0.7049541,12
8.72,-35.9343,1.119175,-33.76266,0.4159882107637278,-0.1028394346004911,0.1798413525024127,61.51626,54.32521,167.5037,0.4394919,-0.4096144,0.7346106,12
8.74,-35.84874,1.307562,-33.73284,0.4574694696834198,-0.0369055873608236,0.1936052366006588,64.21801,52.88077,165.7153,0.433406,-0.4253456,0.7231249,12
8.76,-35.76407,1.493921,-33.703,0.5145163357064089,-0.0404814321526136,0.2115334840227918,66.89525,51.06438,163.5875,0.426945,-0.4409224,0.7112876,12
8.78,-35.58582,1.180022,-33.62382,0.5756497071817277,-0.0453315645102244,0.2308453349680297,51.77652,55.83103,171.413,0.4488893,-0.3531969,0.777429,12
8.8,-35.49782,1.360832,-33.59075,0.6154249271366012,0.0255125250100945,0.2469940266504267,54.53641,55.24423,170.364,0.4447537,-0.3698896,0.7669382,12
8.82,-35.41133,1.539475,-33.55757,0.6665965682869892,0.0272288997600778,0.2595122464906865,57.2864,54.50355,169.2187,0.4401217,-0.3865087,0.756137,12
8.84,-35.26014,1.242061,-33.51646,0.7218866087130609,0.0264587845989326,0.2734189926764436,31.65098,62.72676,175.4484,0.5095888,-0.2127932,0.8152346,12
8.86,-35.16468,1.416388,-33.47837,0.7592664986152551,0.0941275758926819,0.2854249288497605,34.65088,62.78448,175.1685,0.5075334,-0.233022,0.807629,12
8.88,-35.07388,1.588624,-33.43906,0.797693304745323,0.1570104740625681,0.2977706819858472,37.5922,62.74105,174.9559,0.5044372,-0.2531496,0.8001221,12
8.9,-34.98421,1.758415,-33.40055,0.8225826603284982,0.1223626052779752,0.2989963422446093,40.53783,62.68578,174.7261,0.5010445,-0.2731101,0.7920445,12
8.92,-34.9719,1.270566,-33.41113,0.8501767401247964,0.0833294135807357,0.3014268037374066,7.792815,68.31304,177.5943,0.5612148,-0.04445996,0.8246114,12
8.94,-34.87043,1.441389,-33.36977,0.8741209686424662,0.1401802314152321,0.3102114320574287,10.97389,68.31962,177.6237,0.5604507,-0.06751548,0.8223929,12
8.96,-34.78616,1.281955,-33.33289,0.8952320888920848,0.1256477015488818,0.3153351648761795,354.1101,70.82355,178.4413,0.5780603,0.04973982,0.8142621,12
8.98,-34.68922,1.451795,-33.28827,0.9165230506553268,0.1077420772628661,0.3213382349147089,357.1916,70.58665,178.6717,0.5773184,0.02669481,0.8160691,12
9.0,-34.59503,1.61932,-33.24515,0.934813002151892,0.1613180771244192,0.329727341101182,0.230902,70.40031,178.8862,0.5764221,0.003956348,0.8170919,12
9.02,-34.50285,1.784311,-33.20274,0.9417450788546882,0.1388320553354871,0.3319030495344028,3.262878,70.22777,179.0907,0.5751371,-0.01872564,0.8175231,12
9.04,-34.4436,1.2846,-33.17466,0.947603574184484,0.1133874322895167,0.3352425008410309,353.583,70.73766,179.764,0.5778351,0.04683057,0.8142297,12
9.06,-34.34773,1.451323,-33.12306,0.944799399706504,0.1592537746633327,0.3380243469867903,356.7198,70.2731,180.1153,0.5753146,0.02282768,0.8174309,12
9.08,-34.25505,1.615827,-33.0736,0.9387600030769008,0.2000042494252583,0.3409201694074157,359.8031,69.88863,180.4313,0.5727805,-0.0007470949,0.8196985,12
9.1,-34.2977,1.257713,-33.09712,0.9057805389397622,0.1398451247178134,0.3289338388497329,357.0926,69.8437,181.1885,0.5724593,0.01486436,0.8194751,12
9.12,-34.20428,1.427522,-33.04951,0.8716258002220219,0.0761969134946327,0.3177757641616008,0.1624672,69.47079,181.441,0.569727,-0.008329904,0.8217367,12
9.14,-34.11309,1.594966,-33.00335,0.8508280356939713,0.1158481403534707,0.312494576419775,3.206373,69.1483,181.6631,0.5668562,-0.031266,0.823214,12
9.16,-34.12794,1.239711,-33.00853,0.8074156741836882,0.0796559691660485,0.2968900493765218,5.960667,69.62428,182.5439,0.5690275,-0.05533264,0.8203748,12
9.18,-34.03044,1.412285,-32.96692,0.7639222343199616,0.0423172516563757,0.2819376643607443,9.078203,69.65975,182.7017,0.5676608,-0.07836593,0.8191153,12
9.2,-33.93712,1.582681,-32.92536,0.7312638716818514,0.0830549612640014,0.2714312210836063,12.13306,69.62147,182.8797,0.5653111,-0.1010071,0.8177027,12
9.22,-33.99275,1.210894,-32.93916,0.6746468256254592,0.0441007946594472,0.2508678920494134,13.10984,69.99136,183.5215,0.5666233,-0.1109779,0.8154677,12
9.24,-33.89332,1.388348,-32.89386,0.6187113377305717,0.0052339051720976,0.2316703009596237,16.36682,70.00222,183.7746,0.5636039,-0.1352331,0.8130493,12
9.26,-33.798,1.563433,-32.84911,0.578376244826619,0.0475026768807932,0.2156994657264785,19.54976,69.95883,184.044,0.5596996,-0.1589554,0.8103945,12
9.28,-33.70748,1.736453,-32.80419,0.5381954317709878,0.0869873493914484,0.2007577291199425,22.65226,69.8152,184.3395,0.5546103,-0.1821859,0.8077839,12
9.3,-33.84851,1.176921,-32.86357,0.4625888879641358,0.0179944455036864,0.1714953291506207,18.46214,68.96824,184.0464,0.5538289,-0.1518756,0.8163075,12
9.32,-33.75087,1.361472,-32.81915,0.3888872039750461,-0.0510227229464557,0.1436798097345963,21.73006,68.79888,184.2154,0.5487359,-0.1758322,0.8136963,12
9.34,-33.65421,1.543195,-32.77494,0.3450937495296213,-0.0094292737957144,0.1249555866555125,24.99778,68.63624,184.3783,0.543196,-0.1996412,0.8104182,12
9.36,-33.74051,1.145894,-32.80456,0.2790652351989884,-0.0515751399528621,0.0987732062815442,24.39014,65.88743,184.0503,0.5249467,-0.1959474,0.823815,12
9.38,-33.64399,1.337738,-32.76117,0.2164692465881637,-0.091579842164947,0.0749596424580074,27.66797,65.65145,184.0294,0.518972,-0.2193098,0.8200004,12
9.4,-33.54807,1.526821,-32.71783,0.1801727237319674,-0.0442587412655917,0.0568241455844811,30.94591,65.40657,183.992,0.5125718,-0.2424929,0.8155102,12
9.42,-33.58675,1.12486,-32.72448,0.1331735849260069,-0.081205919707023,0.0354487479076235,32.03118,62.05006,183.5337,0.4878824,-0.2515916,0.8276744,12
9.44,-33.48857,1.322167,-32.68016,0.0904458444192224,-0.1158155780172296,0.0168571120450184,35.39768,61.66919,183.255,0.4806896,-0.2748049,0.8221044,12
9.46,-33.39072,1.516606,-32.63577,0.0704502437740939,-0.0616748095428943,0.0029776350053678,38.76155,61.2503,182.9351,0.4730815,-0.2977721,0.8158196,12
9.48,-33.29335,1.7082,-32.59139,0.0549302802985134,-0.0084588249518578,-0.007921604261794,42.12242,60.78494,182.5658,0.4650651,-0.3204737,0.808826,12
9.5,-33.35669,1.115575,-32.62955,0.0249881033281123,-0.0701479350964539,-0.026110436565947,41.86391,60.99815,182.3558,0.4676026,-0.3175073,0.8083314,12
9.52,-33.25851,1.315618,-32.58625,0.0002312647087761,-0.1311380523548971,-0.0409071049820362,45.22427,60.46757,181.9128,0.4592133,-0.339904,0.8006836,12
9.54,-33.16052,1.512812,-32.5428,0.0001320988812643,-0.0761394468689926,-0.0490515804804729,48.58037,59.8638,181.3943,0.4504274,-0.3619981,0.7923396,12
9.56,-33.12811,1.112934,-32.53541,0.004719988566876,-0.1068982310569483,-0.0556722522563823,48.08531,59.97939,179.5313,0.4579184,-0.3509999,0.7901339,12
9.58,-33.03125,1.313405,-32.49267,0.0149139765550212,-0.136008720146977,-0.0593719965883128,51.39888,59.30707,178.9448,0.4492648,-0.3727354,0.7810607,12
9.6,-32.93455,1.511103,-32.44979,0.0362984359603908,-0.0774295304747247,-0.0584789832436065,54.70646,58.52275,178.2444,0.4402326,-0.3941474,0.7713252,12
9.62,-32.76653,1.102179,-32.3835,0.0812944307054897,-0.1026629270868018,-0.047313423226706,59.70143,56.4737,174.0377,0.4325971,-0.4165759,0.7508318,12
9.64,-32.67159,1.295878,-32.34218,0.1297329407472327,-0.1276771747422938,-0.0344050195936684,62.93032,55.11052,172.7396,0.4230909,-0.436857,0.7393962,12
9.66,-32.57714,1.486945,-32.30088,0.1729742740181681,-0.0653037808923416,-0.0224755696526566,66.14009,53.39639,171.0894,0.4132388,-0.4567675,0.727354,12
9.68,-32.48334,1.67541,-32.25967,0.2216378159862699,-0.0785162464278735,-0.0066259595631965,69.32288,51.17169,168.9277,0.4030489,-0.4762945,0.7147138,12
9.7,-32.34689,1.128972,-32.20404,0.2708950652406225,-0.0920168926661132,0.0110194603186002,60.94699,47.29039,166.6939,0.3971643,-0.4213873,0.7606257,12
9.72,-32.25288,1.313187,-32.16124,0.3209946285949843,-0.1091626192604743,0.0303116808027716,63.99307,44.93858,164.2942,0.3879868,-0.4407654,0.7486796,12
9.74,-32.15986,1.494793,-32.11868,0.3759636000780917,-0.0861464610769793,0.0498831862114519,66.98383,41.97589,161.284,0.3785013,-0.459783,0.7361351,12
9.76,-31.98886,1.195657,-32.05462,0.4308156703793573,-0.0627171080331659,0.0713531987181461,48.27399,53.7456,173.1674,0.4334953,-0.3395328,0.8015631,12
9.78,-31.89374,1.372104,-32.00888,0.4852443599644354,-0.0421086291098863,0.0945549120933497,51.40527,52.73616,172.1379,0.4258899,-0.3602283,0.7922058,12
9.8,-31.79999,1.545822,-31.96357,0.5247730121443119,0.0472399109982672,0.1119171874413718,54.52246,51.55483,170.9367,0.417954,-0.3806353,0.7822299,12
9.82,-31.64378,1.250272,-31.94669,0.5561937150369594,0.0423679062649549,0.1199527105825115,26.16157,60.45327,176.0039,0.4968787,-0.1783384,0.8371366,12
9.84,-31.53521,1.419032,-31.89555,0.5875107859216615,0.0361438698693108,0.1297383896073007,29.68147,60.05339,175.6235,0.4918254,-0.2031268,0.8314068,12
9.86,-31.42862,1.58426,-31.84506,0.6083993210915781,0.0964571943199755,0.1398224879657119,33.19909,59.61036,175.1988,0.4863027,-0.2277218,0.8248808,12
9.88,-31.32419,1.746082,-31.79532,0.6211565419878138,0.0860079481389317,0.1441390064250942,36.71418,59.1156,174.7216,0.4803161,-0.2521025,0.817564,12
9.9,-31.32266,1.271949,-31.82683,0.6321502795683105,0.0741858650739715,0.1490931246238993,2.340688,66.20343,177.9399,0.5462325,-0.007291606,0.8371919,12
9.92,-31.21171,1.438517,-31.77566,0.6408398158548785,0.0578887876506388,0.1544797735115102,5.903884,65.98213,177.9325,0.5444767,-0.03337701,0.8370005,12
9.94,-31.10289,1.601434,-31.72518,0.6578989615181232,0.0661871226811721,0.1645276866409171,9.465959,65.75873,177.9112,0.5421941,-0.05942208,0.8359964,12
9.96,-31.0121,1.291598,-31.70316,0.671278657283247,0.0737895549975041,0.1753045827199812,352.211,68.66122,179.0302,0.5621703,0.06084734,0.8241851,12
9.98,-30.89988,1.453778,-31.64942,0.6827355822447201,0.1268313345609562,0.1871027211289111,355.8004,68.42094,179.2232,0.5616388,0.03410826,0.8265434,12
10.0,-30.79007,1.61218,-31.59653,0.6896927622574163,0.1754770112931079,0.1984136097848541,359.3896,68.1936,179.4006,0.5605541,0.007343285,0.8280843,12
10.02,-30.75127,1.269684,-31.59274,0.6673257594234658,0.1241049635514957,0.1942179129450494,354.1046,69.30405,179.9946,0.5678366,0.04233007,0.8215335,12
10.04,-30.64211,1.433008,-31.53879,0.6422282522426959,0.0705523548068975,0.1903746596876896,357.6494,69.06483,180.2693,0.5667913,0.01556528,0.8236029,12
10.06,-30.53525,1.592713,-31.48567,0.6186274192867391,0.1111177630610295,0.1886508305371874,1.194372,68.84296,180.529,0.5652,-0.01120708,0.8248752,12
10.08,-30.43087,1.748958,-31.43349,0.5742427703706796,0.0772975832417919,0.1749373089851382,4.73926,68.63674,180.7757,0.5630648,-0.03796091,0.8253503,12
10.1,-30.49328,1.246076,-31.48622,0.5274380059421837,0.0433091994233979,0.160301402504718,1.408414,69.89674,181.5864,0.5726004,-0.01800239,0.8196256,12
10.12,-30.38258,1.411277,-31.43325,0.4977873412754565,0.0841333856112918,0.1552571373700062,5.022676,69.69374,181.8641,0.5701759,-0.04524082,0.8201926,12
10.14,-30.27411,1.572796,-31.38107,0.444955303074491,0.0495313282896252,0.1392337369146266,8.637489,69.50711,182.1307,0.5671806,-0.07242935,0.8199353,12
10.16,-30.31442,1.226227,-31.40352,0.3910612460502691,0.0155725309250221,0.1227932262159199,10.35184,70.09338,183.1656,0.569644,-0.08962533,0.816466,12
10.18,-30.20373,1.396639,-31.35219,0.3513577060217758,0.0571849738940486,0.1132773248827518,13.98121,69.93102,183.429,0.5655843,-0.1167126,0.8151279,12
10.2,-30.09498,1.563409,-31.3015,0.3092644998422149,0.0963637904907283,0.1037557990579984,17.61023,69.78341,183.6864,0.5609546,-0.1436739,0.812965,12
10.22,-30.1524,1.190846,-31.33089,0.2285732716674049,0.0307253831034436,0.0770685552336534,16.10018,70.4976,183.7735,0.567366,-0.1331154,0.810829,12
10.24,-30.04411,1.369531,-31.28283,0.1700754041764187,0.0467498261245593,0.0590258611869929,19.68627,70.35606,184.0199,0.5623882,-0.1595525,0.8082927,12
10.26,-29.93727,1.544773,-31.23517,0.1112266497978402,0.0632421032220586,0.0409845816164047,23.27175,70.22795,184.2626,0.5568583,-0.1858235,0.804959,12
10.28,-29.83205,1.716673,-31.18799,0.0251784561720826,-0.0024154993171801,0.0115418449384008,26.85644,70.11305,184.5031,0.5507818,-0.2119,0.8008327,12
10.3,-29.97732,1.160748,-31.24956,-0.0592996689676912,-0.0665705656519138,-0.0178911728922472,21.5887,68.09422,184.0959,0.5440711,-0.1747341,0.8171437,12
10.32,-29.87189,1.347678,-31.20388,-0.1079505500466568,-0.0229815672603542,-0.0319203882067014,25.12391,67.90519,184.1649,0.5382211,-0.2001019,0.8135222,12
10.34,-29.7674,1.531358,-31.15839,-0.1764065229997644,-0.0626251855056744,-0.0536950553935851,28.65817,67.71518,184.2227,0.5318601,-0.2252703,0.8091244,12
10.36,-29.83721,1.132722,-31.18203,-0.2423824703946495,-0.0991914649777128,-0.0747694780842862,28.04719,64.94696,183.9403,0.5135711,-0.2222196,0.8224854,12
10.38,-29.73487,1.327161,-31.13781,-0.2788609252075762,-0.0495510407411126,-0.0842705595459452,31.52289,64.6615,183.8,0.5068048,-0.2464617,0.8175743,12
10.4,-29.63302,1.518533,-31.09361,-0.3121035110309789,-0.0006759169637424,-0.092714778039781,34.9968,64.3543,183.633,0.4995734,-0.2704682,0.8119087,12
10.42,-29.63414,1.118735,-31.09087,-0.3673345641191847,-0.0655935738922003,-0.1117497369325741,37.41769,61.87018,183.0016,0.4795309,-0.2877894,0.8164675,12
10.44,-29.53391,1.317503,-31.04804,-0.3983242236219984,-0.0406734417590558,-0.1221058430743267,40.82702,61.39931,182.5964,0.4715582,-0.310675,0.8096839,12
10.46,-29.43392,1.513335,-31.00512,-0.4247915185525448,-0.0144406609709826,-0.1311600374714587,44.23246,60.86869,182.1295,0.4631666,-0.3332751,0.8021767,12
10.48,-29.33435,1.706248,-30.96218,-0.4570287160015649,-0.0740554089963278,-0.1450130635508251,47.63337,60.2637,181.5865,0.4543639,-0.3555703,0.7939526,12
10.5,-29.36682,1.114537,-30.99201,-0.4849101880437354,-0.1326002045381341,-0.1577252456770819,44.70678,61.77989,181.1047,0.4716442,-0.3309338,0.7955151,12
10.52,-29.26826,1.315121,-30.95015,-0.4846760558355618,-0.0762887368122624,-0.15708464563766,48.06054,61.22881,180.6396,0.4631575,-0.3530492,0.7871704,12
10.54,-29.16984,1.512867,-30.90816,-0.4740736423675198,-0.1062093152207608,-0.1534401832474112,51.4099,60.59513,180.0898,0.4542726,-0.3748523,0.7781444,12
10.56,-29.07948,1.107176,-30.87708,-0.45937427294457,-0.1347398539399668,-0.1485877942391931,53.33213,59.35998,177.649,0.4503952,-0.3807508,0.771674,12
10.58,-28.98297,1.305627,-30.83606,-0.4310766998977042,-0.0761280111166194,-0.1372700645222186,56.61425,58.4792,176.8346,0.4413162,-0.4017417,0.761549,12
10.6,-28.88672,1.501364,-30.79496,-0.3986258368788373,-0.0189577277262005,-0.1246315670916868,59.88672,57.42076,175.8412,0.4318711,-0.4223864,0.750788,12
10.62,-28.65764,1.109168,-30.69792,-0.3554418871303362,-0.0730898810043515,-0.1084446562818106,62.65703,50.2608,167.7979,0.410737,-0.4295068,0.7454965,12
10.64,-28.56302,1.297899,-30.65694,-0.3197666602701292,-0.0380552552973485,-0.0948135950031905,65.76575,47.97269,165.4941,0.4012805,-0.4489689,0.733257,12
10.66,-28.46916,1.484028,-30.61609,-0.2816327732092776,-0.002665277807308,-0.080371889838974,68.82472,45.02794,162.5338,0.3915016,-0.4680571,0.720424,12
10.68,-28.34186,1.144421,-30.55974,-0.2292871914209642,-0.0395757127685663,-0.0598923618747706,58.3637,47.87716,167.8113,0.3995671,-0.405513,0.7724616,12
10.7,-28.24792,1.326451,-30.51617,-0.1753571916248635,-0.0784052934136687,-0.0385661161719346,61.4128,45.86361,165.7298,0.3908257,-0.42503,0.761,12
10.72,-28.15508,1.505857,-30.4729,-0.1266386230232896,-0.012516226208831,-0.0187784332346083,64.41792,43.37685,163.1759,0.3817777,-0.4442038,0.748937,12
10.74,-27.97149,1.212123,-30.40877,-0.0699862579010481,-0.0143212417475054,0.0011902109741557,43.02506,55.18126,173.9549,0.4474244,-0.3018306,0.8144364,12
10.76,-27.8731,1.38637,-30.36106,-0.011721025895254,-0.0171419033110916,0.0221507430639289,46.25932,54.39369,173.1357,0.4404732,-0.3235953,0.8057317,12
10.78,-27.77623,1.557689,-30.31385,0.0359127132067977,0.0476082847002853,0.0405491140261,49.4837,53.48482,172.1957,0.4331614,-0.3450863,0.7963635,12
10.8,-27.68103,1.72617,-30.26723,0.0830584503390108,0.1093364882745002,0.0586096967833853,52.69653,52.42407,171.1045,0.4254954,-0.3662915,0.7863381,12
10.82,-27.6264,1.257289,-30.29058,0.1149037839300644,0.0755391151048568,0.0657068533865334,20.00618,61.62609,176.5708,0.5086894,-0.1340219,0.8427466,12
10.84,-27.51756,1.425556,-30.23886,0.1385513031651122,0.1096632312286348,0.0774852893683242,23.53525,61.31647,176.3046,0.5045961,-0.1592497,0.8383539,12
10.86,-27.41071,1.590251,-30.18782,0.1599472214548196,0.1426859604290264,0.0886561885827248,27.06388,60.97934,176.0087,0.5000202,-0.1843311,0.8331566,12
10.88,-27.34047,1.275752,-30.18129,0.1728176861140538,0.1048390976445168,0.0947746579396753,358.3806,66.84377,178.1765,0.5504872,0.02055677,0.8345725,12
10.9,-27.22947,1.44149,-30.12942,0.1839079233502247,0.0653178101645415,0.1005514966172538,1.946018,66.63372,178.229,0.5493433,-0.005701202,0.8352815,12
10.92,-27.12065,1.603555,-30.07828,0.2078571466563277,0.1161306146602968,0.1176963770104801,5.510664,66.42629,178.2685,0.5476673,-0.03194667,0.8351783,12
10.94,-27.0158,1.293871,-30.04786,0.2210095135777448,0.0952490545454058,0.1290488123682407,352.8321,68.55621,179.2511,0.5617594,0.05532628,0.8249101,12
10.96,-26.90404,1.455419,-29.993,0.2314026796790544,0.0735876181847485,0.1402906058793886,356.4175,68.32568,179.4747,0.561148,0.02843711,0.8271125,12
10.98,-26.79471,1.613185,-29.93903,0.2409229872209293,0.1187034997614858,0.1551802690318822,0.002667376,68.1098,179.6834,0.559985,0.001527977,0.8284984,12
11.0,-26.688,1.767339,-29.88607,0.2456889089872609,0.1606510161864572,0.1686970875898032,3.587548,67.90676,179.8789,0.5582716,-0.025375,0.829067,12
11.02,-26.75705,1.262055,-29.9391,0.2184263117966507,0.1036379888700198,0.1636059408394663,355.7569,69.18111,180.5691,0.5674633,0.02765743,0.8225511,12
11.04,-26.64807,1.425944,-29.88531,0.1986920953709918,0.1208421969835772,0.1650921594213472,359.3081,68.96075,180.8389,0.5661349,0.0008323342,0.824258,12
11.06,-26.54134,1.586229,-29.83236,0.1757249597082233,0.1374310357646578,0.1655401936593872,2.85927,68.75707,181.0953,0.5642595,-0.02598591,0.8251652,12
11.08,-26.55278,1.240598,-29.85335,0.1283675969016879,0.0796915772100056,0.1532651386267458,4.005234,69.8998,182.0642,0.5719013,-0.03895049,0.8193805,12
11.1,-26.44198,1.406933,-29.80041,0.0792209475136975,0.0222290371810168,0.1402111921698257,7.63049,69.72045,182.3478,0.5690715,-0.06627128,0.8193379,12
11.12,-26.33334,1.569581,-29.74824,0.05252295161474,0.0605308315523447,0.1416166819478381,11.25614,69.55763,182.6225,0.5656683,-0.09352042,0.818467,12
11.14,-26.37125,1.217329,-29.76841,-0.0011592526993813,0.0222043140919163,0.1292234089254758,11.90683,70.16483,183.3554,0.5689243,-0.1015766,0.815309,12
11.16,-26.26115,1.389773,-29.7177,-0.0560724556130467,-0.0137285415580127,0.116213594808725,15.52704,70.02041,183.6212,0.5646841,-0.1285467,0.8135861,12
11.18,-26.15288,1.55862,-29.66759,-0.0906333777246959,0.02549884288803,0.1133485533073894,19.14676,69.89102,183.8825,0.559878,-0.1553793,0.8110448,12
11.2,-26.04662,1.723999,-29.61815,-0.1269345937971908,0.0634092873590888,0.1097742895417801,22.76599,69.77642,184.1409,0.5545112,-0.1820462,0.8076884,12
11.22,-26.19814,1.18311,-29.68864,-0.2018700128102759,-0.0041804240106783,0.0865840307672036,17.42193,69.89619,183.9133,0.5616577,-0.1433997,0.8127061,12
11.24,-26.09063,1.363823,-29.64099,-0.2520019806044411,0.0108670404445048,0.0750679454065177,20.99574,69.75907,184.1246,0.5565382,-0.1696054,0.8098518,12
11.26,-25.98445,1.541139,-29.59369,-0.3013966773556804,0.0270422157290238,0.0639422426020908,24.56894,69.63297,184.332,0.5508765,-0.1956373,0.8062052,12
11.28,-26.06956,1.153031,-29.62597,-0.3777227345759568,-0.0397796710570296,0.0401843770953589,23.08268,67.27657,184.0475,0.5365268,-0.1856352,0.8191228,12
11.3,-25.96499,1.34195,-29.58049,-0.4524836512729857,-0.1041228990405936,0.0170350087604256,26.60406,67.08076,184.0718,0.5305483,-0.2107557,0.8151389,12
11.32,-25.86125,1.527666,-29.53517,-0.4886573811531347,-0.0604638701165692,0.0105070250083332,30.12413,66.88023,184.083,0.5240707,-0.2356665,0.8103842,12
11.34,-25.90974,1.128728,-29.54835,-0.5420462645874773,-0.1002879746572353,-0.0032564941191455,30.06094,63.78572,183.7064,0.50287,-0.2365692,0.8239924,12
11.36,-25.80812,1.324508,-29.50406,-0.5920957369818938,-0.1368444381276841,-0.0156157520323785,33.52028,63.46966,183.4965,0.4959284,-0.2605036,0.8186113,12
11.38,-25.70691,1.517254,-29.45975,-0.613129163854008,-0.0865359195545233,-0.0164465875431214,36.97755,63.1242,183.2536,0.4885353,-0.2841923,0.8124809,12
11.4,-25.60629,1.706993,-29.41551,-0.6299215184178446,-0.0369221400726344,-0.0155760927266652,40.43252,62.74266,182.9714,0.4806979,-0.3076138,0.8056074,12
11.42,-25.68242,1.117151,-29.45241,-0.6659868639587159,-0.10162438231285,-0.0265970000715407,39.64453,61.67763,182.6748,0.4753243,-0.3023348,0.8115764,12
11.44,-25.58268,1.316542,-29.40961,-0.6816209322199236,-0.0765875057811068,-0.0294352667651165,43.03999,61.19282,182.2507,0.467213,-0.324993,0.8042816,12
11.46,-25.48316,1.513021,-29.36671,-0.6915871826999007,-0.0502688824853105,-0.0298600893730549,46.43142,60.64255,181.7596,0.45869,-0.3473552,0.7962741,12
11.48,-25.4544,1.113755,-29.36557,-0.7030355411280347,-0.1105054176750957,-0.0318121709318455,46.39393,61.15856,180.3529,0.4665558,-0.3405515,0.791939,12
11.5,-25.35639,1.314278,-29.3236,-0.7091613356035489,-0.1700140657700606,-0.0320126915550549,49.73122,60.5679,179.8333,0.4580644,-0.3624439,0.7831749,12
11.52,-25.25851,1.511987,-29.28151,-0.6905607348239009,-0.1149474392330481,-0.0197359084798272,53.06353,59.88259,179.2174,0.4491823,-0.3840185,0.7737389,12
11.54,-25.12247,1.103724,-29.23,-0.6513579673170091,-0.1450578057237244,-0.0032985968446093,56.52902,58.53746,176.1817,0.4441373,-0.3985135,0.7601889,12
11.56,-25.02652,1.299791,-29.1893,-0.6076898058120705,-0.1745980408437534,0.0144846963333549,59.78991,57.48957,175.188,0.434897,-0.4191049,0.7493759,12
11.58,-24.93094,1.493184,-29.14859,-0.5587227991742809,-0.1168224439236946,0.0350817166293246,63.03814,56.20223,173.9539,0.425298,-0.4393375,0.7379426,12
11.6,-24.83588,1.683928,-29.10792,-0.5057100472994378,-0.0607800269464157,0.0569051845272419,66.26952,54.57874,172.3827,0.4153487,-0.4591983,0.7258977,12
11.62,-24.69263,1.118067,-29.05034,-0.4281170272892982,-0.1072582498400938,0.0845779515183648,61.81517,49.11797,167.1844,0.4065214,-0.4244687,0.7516757,12
11.64,-24.59804,1.304519,-29.00907,-0.3674784722859048,-0.0683858170799685,0.104560386655081,64.89333,46.81083,164.8306,0.3972784,-0.443814,0.7395476,12
11.66,-24.50432,1.488363,-28.96799,-0.305261536714573,-0.0298217177517051,0.1246143303704023,67.91939,43.87125,161.8449,0.3877176,-0.4627942,0.7268244,12
11.68,-24.32633,1.178321,-28.889,-0.2418284481173125,0.0053178350956434,0.1445775831205917,52.05989,50.56314,171.1633,0.4131766,-0.366066,0.7956477,12
11.7,-24.23168,1.356489,-28.8436,-0.178947020625626,0.022877080740368,0.152164345508976,55.15728,49.21547,169.7406,0.4052468,-0.3862324,0.7854112,12
11.72,-24.13831,1.531958,-28.79861,-0.1142332100098535,0.0411854430443324,0.1594004720342137,58.23106,47.60775,168.0589,0.3970014,-0.4060885,0.7745588,12
11.74,-23.99287,1.239954,-28.75304,-0.0481397274462969,0.057129680472072,0.1661282893048126,31.95957,57.14127,175.3265,0.4692377,-0.2228278,0.8382224,12
11.76,-23.88855,1.410358,-28.70071,0.0074710015306642,0.0718533561805923,0.1554926789133879,35.38766,56.64648,174.7975,0.4636781,-0.2467558,0.8312339,12
11.78,-23.78604,1.577426,-28.64904,0.0635567717295555,0.0870639835825684,0.1434754774787787,38.81108,56.0888,174.2067,0.4576986,-0.2704564,0.8234869,12
11.8,-23.6855,1.741265,-28.59812,0.1195565193342411,0.0997390650541625,0.1299012428422847,42.23008,55.45441,173.5399,0.4513019,-0.2939143,0.8149859,12
11.82,-23.68917,1.268216,-28.62104,0.1764982257835798,0.039682283733541,0.1056315794396463,8.108446,62.5463,177.5329,0.5190005,-0.04926619,0.8515756,12
11.84,-23.58063,1.435419,-28.56614,0.2393865517378017,0.0715744985975173,0.0901038033610461,11.65941,62.32844,177.4321,0.5166346,-0.07535652,0.8498707,12
11.86,-23.47415,1.599002,-28.512,0.2996517732913557,0.1019702122122848,0.0724876196981205,15.20898,62.10109,177.3159,0.5137728,-0.1013671,0.8473465,12
11.88,-23.41076,1.285419,-28.48765,0.3566826739827808,0.1280762448029795,0.0526333912712866,353.3091,65.61978,178.694,0.5403358,0.05520806,0.8393468,12
11.9,-23.30126,1.448992,-28.43026,0.4049214755899535,0.1308023025886557,0.0218097755002064,356.8877,65.40788,178.8339,0.5398385,0.02834639,0.8412693,12
11.92,-23.19403,1.608832,-28.37378,0.4504111062206068,0.1335207305136865,-0.0109719001544945,0.4657613,65.20519,178.9603,0.5388135,0.00146455,0.8423666,12
11.94,-23.14122,1.282749,-28.35361,0.492447014551582,0.1334297749018484,-0.0458565385326661,353.7847,66.15088,179.7355,0.5448341,0.046685,0.8367867,12
11.96,-23.03357,1.444868,-28.29376,0.5156110245562386,0.1256121635861758,-0.095819203559897,357.3481,65.93159,179.9934,0.5439916,0.01944623,0.8387718,12
11.98,-22.92824,1.603284,-28.23493,0.5349779578229241,0.1190514003139628,-0.1486073964283054,0.9113704,65.72874,180.2372,0.5426202,-0.007803698,0.8399382,12
12.0,-22.82542,1.758164,-28.17721,0.5499064132612501,0.1109750853437998,-0.2042821537955457,4.474482,65.5407,180.4691,0.5407217,-0.03503847,0.8402855,12
12.02,-22.91472,1.250436,-28.2397,0.5470598370559361,0.0284962570783328,-0.2737343985631577,359.4104,66.33224,181.3541,0.5470738,-0.002157768,0.8369852,12
12.04,-22.80784,1.415271,-28.18079,0.5666455634755132,0.043720281736652,-0.3305620593417946,2.9971,66.13921,181.6165,0.5451074,-0.02960775,0.8378397,12
12.06,-22.70313,1.576468,-28.12282,0.5826440628114207,0.0586513314664122,-0.3898718618240311,6.583802,65.96186,181.868,0.5426043,-0.05702186,0.8378659,12
12.08,-22.74706,1.232067,-28.14568,0.5944205625630601,0.0705172259370708,-0.4516880774262111,8.26009,66.5771,182.8708,0.5457507,-0.07389743,0.834475,12
12.1,-22.63933,1.400886,-28.08724,0.584393372236915,0.0566833670800248,-0.5156481873149814,11.89334,66.42647,183.1411,0.5422286,-0.1015775,0.8333787,12
12.12,-22.5336,1.566033,-28.02962,0.5718315246758019,0.0457057116902722,-0.5819543159290159,15.52622,66.29142,183.4056,0.5381591,-0.1291468,0.8314376,12
12.14,-22.60085,1.199584,-28.06362,0.5562673740288497,0.0346504001054291,-0.6505503734216647,14.77708,66.87835,183.6604,0.54277,-0.1247092,0.8293837,12
12.16,-22.49506,1.37617,-28.00813,0.5335596743610918,0.0203950941065251,-0.7175618775418262,18.37577,66.75367,183.9151,0.5382133,-0.1518111,0.8268761,12
12.18,-22.39079,1.549255,-27.95321,0.5090164079270667,0.0096964924074055,-0.7868838414343498,21.97394,66.64349,184.1672,0.5331243,-0.1787546,0.8235471,12
12.2,-22.28825,1.718953,-27.89897,0.482255960037611,-0.0004878394466835,-0.8584544402418239,25.57125,66.54778,184.4183,0.5275086,-0.2055094,0.8194017,12
12.22,-22.4453,1.168218,-27.97688,0.4305484132120942,-0.0932303064403856,-0.9352308440387048,20.15673,65.24189,184.0643,0.5252001,-0.1661187,0.8320826,12
12.24,-22.34216,1.353003,-27.92412,0.4157875162200097,-0.0785251966946876,-0.996837094326804,23.70548,65.09129,184.1873,0.5198242,-0.1922613,0.8284763,12
12.26,-22.24008,1.534487,-27.87169,0.4007671703819064,-0.0620562772156459,-1.0598912661060678,27.25348,64.9449,184.3035,0.5139505,-0.2182112,0.8240732,12
12.28,-22.33185,1.139062,-27.90979,0.3849884648699913,-0.0469334055909618,-1.1243374108918625,26.31169,61.68161,183.96,0.4921499,-0.2125475,0.8395932,12
12.3,-22.23205,1.331763,-27.85818,0.3648164119707826,-0.0594279359977442,-1.1781388004540494,29.80325,61.44308,183.8696,0.4859399,-0.2376121,0.8347108,12
12.32,-22.13284,1.52135,-27.80669,0.3465879306417689,-0.0679058772813077,-1.232671634377056,33.29303,61.18924,183.7587,0.4792812,-0.2624462,0.8290524,12
12.34,-22.17466,1.121827,-27.81494,0.3299404806311936,-0.0757015861497389,-1.2878074849124466,34.73508,57.92552,183.2416,0.4545926,-0.2741355,0.8388004,12
12.36,-22.07751,1.319794,-27.76409,0.3229002312035836,-0.0819252657992573,-1.337042161663954,38.16043,57.5219,182.8912,0.4473483,-0.2979451,0.8321785,12
12.38,-21.98067,1.514789,-27.7132,0.3186804171604942,-0.084449507658052,-1.3866972907976876,41.58255,57.0699,182.4908,0.4397038,-0.3214784,0.8248076,12
12.4,-21.88427,1.706833,-27.66235,0.3169790422828464,-0.0867103382528193,-1.4366185025076557,45.00103,56.55826,182.0293,0.431666,-0.3447154,0.8166946,12
12.42,-21.95208,1.115058,-27.70607,0.3114285429153662,-0.1755354558016984,-1.4885366589149562,43.28786,57.09813,181.7249,0.4392886,-0.3306393,0.8190359,12
12.44,-21.85552,1.3154,-27.65586,0.3336456686827693,-0.1477841410071673,-1.528930008358406,46.7024,56.39337,181.2329,0.4300149,-0.3539768,0.8111116,12
12.46,-21.75943,1.512749,-27.60484,0.3584141726604715,-0.11887898989811,-1.568896921954404,50.11432,55.67627,180.6797,0.4207975,-0.3770108,0.802207,12
12.48,-21.71158,1.109631,-27.58003,0.3854751251863488,-0.0922288697747324,-1.608081122213405,50.74376,58.70304,178.8988,0.4464563,-0.3692125,0.785502,12
12.5,-21.61635,1.30866,-27.53201,0.4251506669837952,-0.0942311999335046,-1.6432337434149535,54.10512,58.10859,178.4363,0.4378892,-0.391636,0.7754316,12
12.52,-21.52141,1.504871,-27.48393,0.4666246633268693,-0.0938548391106733,-1.6775765294925398,57.45975,57.42161,177.8703,0.4290131,-0.4136824,0.7646622,12
12.54,-21.32228,1.104137,-27.42174,0.5095320894206932,-0.0944818390179715,-1.71100467813269,61.24532,53.73896,171.4356,0.4217726,-0.4240787,0.7483022,12
12.56,-21.22886,1.294974,-27.37723,0.547747089104544,-0.0089596390252698,-1.7448115156982085,64.45228,52.45492,170.0197,0.4140487,-0.4440283,0.7354811,12
12.58,-21.13598,1.483129,-27.3329,0.6058675107983431,-0.0272951979095433,-1.783317830635836,67.64864,50.79992,168.2387,0.4059809,-0.4636848,0.7220322,12
12.6,-21.04385,1.668699,-27.28893,0.6633570547270167,-0.04574089290737,-1.820611450346178,70.81435,48.58293,165.8938,0.3976026,-0.4829204,0.7080063,12
12.62,-20.80481,1.161481,-27.21127,0.719865897216045,-0.0675657426396313,-1.856537025770633,55.80212,49.71167,168.8382,0.4110072,-0.3864606,0.7789634,12
12.64,-20.7079,1.340696,-27.1671,0.7801241954616178,-0.0491485791071721,-1.8991033780655115,58.9403,47.98426,167.0265,0.402512,-0.4065942,0.7677011,12
12.66,-20.61226,1.517125,-27.12315,0.8386238029894582,-0.0299415512941665,-1.940449890786456,62.0439,45.904,164.8477,0.3938351,-0.4263633,0.7557398,12
12.68,-20.51798,1.690835,-27.07957,0.8949843105421973,-0.0130890946892829,-1.9803988728348525,65.10273,43.29053,162.1472,0.3847496,-0.4458144,0.743188,12
12.7,-20.39884,1.228265,-27.10557,0.9360535893718356,0.0720241581551346,-2.024489344132128,37.84937,61.97635,174.818,0.4991016,-0.2557344,0.8025567,12
12.72,-20.29278,1.399721,-27.06239,0.9631264257245626,0.0636636911261353,-2.070751642834861,41.23111,61.4085,174.2682,0.4924482,-0.2784637,0.79476,12
12.74,-20.18849,1.567918,-27.01952,0.988722604702812,0.0545504031554191,-2.1171546249377933,44.61185,60.79141,173.6572,0.4855025,-0.3009847,0.7861609,12
12.76,-20.0694,1.263305,-27.07266,1.0043685833497906,0.1113031520453876,-2.163633134582007,13.90753,71.08553,177.2522,0.5792304,-0.0846476,0.8057769,12
12.78,-19.95426,1.43071,-27.03354,1.0098329718788466,0.0981243202844264,-2.2116500579191123,17.46519,70.86581,177.1796,0.5758994,-0.1095651,0.8029395,12
12.8,-19.84123,1.594486,-26.99491,1.011276230139563,0.0844942691867969,-2.261118499337824,21.02267,70.63665,177.0908,0.5720126,-0.134377,0.7993242,12
12.82,-19.71947,1.279146,-27.02032,1.0082146398571656,0.0674645493387412,-2.3118183445936222,354.4461,76.93428,178.4516,0.620766,0.0463247,0.7823815,12
12.84,-19.60173,1.443941,-26.98512,1.016199645382248,0.0731664045042713,-2.353052630500798,358.0083,76.77357,178.6257,0.6206652,0.02106815,0.7837914,12
12.86,-19.48626,1.605008,-26.95015,1.0191162351565497,0.0788392927239893,-2.3955757654527945,1.567033,76.68314,178.817,0.6203679,-0.004321448,0.7841238,12
12.88,-19.37323,1.762467,-26.91564,1.0164169392418176,0.0816405416952592,-2.4392045049686466,5.128996,76.60658,179.0107,0.6194835,-0.02976519,0.7836863,12
12.9,-19.33465,1.295865,-26.98886,1.0137208698061877,0.1498549226422076,-2.479400822430214,353.4547,82.51344,179.6013,0.6582054,0.04520639,0.750663,12
12.92,-19.21311,1.456396,-26.95817,0.9793310770290664,0.1203148130344453,-2.510470211779203,357.0451,82.33103,179.969,0.6580124,0.01958829,0.7525656,12
12.94,-19.09435,1.613163,-26.92807,0.9396995750438896,0.090948635068846,-2.543513220249099,0.6235117,82.25729,180.3535,0.6577265,-0.006127469,0.753231,12
12.96,-19.08467,1.254024,-27.01059,0.9021806072704504,0.1313006343464455,-2.5730733747225667,357.4723,86.00447,181.2283,0.6819948,0.00882113,0.7309461,12
12.98,-18.96362,1.41762,-26.98737,0.8429777215335676,0.0981958292914099,-2.5966495310246467,1.084242,85.76945,181.591,0.6803333,-0.01637967,0.7327105,12
13.0,-18.84506,1.577539,-26.96439,0.7789920414121196,0.0660325634502628,-2.6232359777903715,4.694102,85.55821,181.9369,0.6779991,-0.0415236,0.7337273,12
13.02,-18.81931,1.237509,-27.01842,0.7098133919652045,0.0319655686868214,-2.652692682741314,6.17721,88.87357,182.6545,0.6980262,-0.05465466,0.7136687,12
13.04,-18.69708,1.40442,-27.0017,0.6457522588387434,0.0199277274669475,-2.655625890682307,9.813107,88.80431,183.0556,0.6952491,-0.07967211,0.7131709,12
13.06,-18.5765,1.567354,-26.98427,0.5779407044108682,0.0105402032490789,-2.661569871431047,13.46966,88.72636,183.468,0.6915241,-0.1048154,0.712145,12
13.08,-18.45853,1.726687,-26.96706,0.5059892311367491,0.0009048672711617,-2.6704380266646064,17.12037,88.7205,183.8988,0.6873586,-0.1298773,0.7101243,12
13.1,-18.58638,1.208412,-27.02493,0.4514886363028256,0.0635089363017094,-2.670152575789454,13.4307,91.65207,183.6888,0.7093151,-0.1043694,0.6943994,12
13.12,-18.46638,1.382605,-27.01403,0.3589800813353818,0.0233325736625903,-2.65308691805291,16.99357,92.03526,184.1988,0.7074194,-0.1286072,0.6902488,12
13.14,-18.34752,1.553005,-27.00302,0.2641470597693494,-0.0140412508700647,-2.6396492750310308,20.57854,92.39259,184.748,0.7043784,-0.1529461,0.6858138,12
13.16,-18.40923,1.175306,-27.04083,0.1923258879319842,0.0276134911889509,-2.6161971102828723,18.73162,94.02315,184.2402,0.7171414,-0.1375865,0.6767045,12
13.18,-18.29207,1.357587,-27.03783,0.0952841126522097,-0.0112718430326504,-2.5799443942059868,22.23834,94.68879,184.708,0.7156582,-0.1602033,0.6701349,12
13.2,-18.1753,1.536281,-27.03499,-0.002474009533506,-0.0469256557868553,-2.54710889477942,25.77532,95.29756,185.2256,0.712814,-0.1829408,0.6635346,12
13.22,-18.21735,1.144938,-27.05373,-0.1011897243374548,-0.082476052688341,-2.5177301350873607,24.59169,94.42155,184.2787,0.7111236,-0.1713297,0.6690922,12
13.24,-18.10068,1.335073,-27.05683,-0.1624257631326799,-0.0134145166375324,-2.4721227748082124,28.15397,94.8867,184.5288,0.7074313,-0.1925996,0.6625757,12
13.26,-17.98427,1.521715,-27.05981,-0.2470258939053444,-0.0551603871983193,-2.411911601492113,31.73413,95.39134,184.8434,0.7029904,-0.2139165,0.6553895,12
13.28,-17.86892,1.705048,-27.06316,-0.3299414076155014,-0.093349804226829,-2.354733493332908,35.30639,95.94029,185.205,0.6978683,-0.2349649,0.6475601,12
13.3,-17.97856,1.124379,-27.06619,-0.3824660924084011,-0.0451943604128871,-2.2872041324585024,32.16361,93.08856,183.7063,0.6909735,-0.2129814,0.6670355,12
13.32,-17.86381,1.320572,-27.07244,-0.4405909160272401,-0.0810218503577711,-2.21656381942664,35.70272,93.53777,183.7365,0.6863045,-0.2324667,0.6589014,12
13.34,-17.7489,1.513378,-27.07859,-0.4955719161261336,-0.1138430656317824,-2.1487748075157147,39.26172,94.03121,183.8327,0.6809749,-0.2519694,0.6500301,12
13.36,-17.73521,1.115224,-27.10139,-0.5265327489313083,-0.0591151125680582,-2.075100956407039,41.93692,94.06896,182.5292,0.6777557,-0.2589192,0.642048,12
13.38,-17.62227,1.314466,-27.11309,-0.553380614186153,-0.005074948900062,-2.004112852742276,45.45126,94.35786,182.3916,0.6709095,-0.2766463,0.6327189,12
13.4,-17.50869,1.510374,-27.12458,-0.5910349295891675,-0.0658021578859536,-1.9271516640477329,49.00082,94.68037,182.3117,0.6633697,-0.2944601,0.6226541,12
13.42,-17.43757,1.112667,-27.14921,-0.624062657261998,-0.1253545815749255,-1.853515646533952,48.12579,94.68055,179.6815,0.6722499,-0.2744341,0.6179188,12
13.44,-17.32975,1.312675,-27.16584,-0.6280590560452466,-0.0700222957763854,-1.769293190307721,51.50201,94.77749,179.3166,0.6646186,-0.2901804,0.6078683,12
13.46,-17.22186,1.509623,-27.18245,-0.6163731333125049,-0.1007710107106994,-1.6892162979811407,54.89634,94.90124,178.9764,0.6565219,-0.3058513,0.5970443,12
13.48,-17.11346,1.703393,-27.19753,-0.5999976628128678,-0.1303003162397679,-1.6120722383438726,58.28876,95.33369,178.7542,0.6491777,-0.3209348,0.584231,12
13.5,-17.00455,1.101872,-27.23487,-0.5719123314356491,-0.0723427913039502,-1.534229944976918,59.70382,93.11539,174.2478,0.6461095,-0.3102432,0.5775012,12
13.52,-16.90048,1.295124,-27.25647,-0.5342941267254118,-0.0928778557470026,-1.443242679202894,62.97189,92.85363,173.2818,0.6378585,-0.3231848,0.5646153,12
13.54,-16.79701,1.485592,-27.27846,-0.4918679292227581,-0.1135302216403586,-1.3558245701732767,66.23538,92.4188,172.1527,0.6290604,-0.3358372,0.5512589,12
13.56,-16.69431,1.673309,-27.3008,-0.4605338923353617,-0.0484613567013225,-1.2743974674401386,69.49305,91.73379,170.7821,0.6197239,-0.3481981,0.5374392,12
13.58,-16.45575,1.144041,-27.36573,-0.4256330838650437,0.0151699759921978,-1.1967401808662674,58.41495,86.5413,167.916,0.6323721,-0.290356,0.5968122,12
13.6,-16.35277,1.325643,-27.39252,-0.4003939345931915,-0.0181783884844534,-1.0926461318268812,61.51761,85.50864,166.0494,0.6246465,-0.3019016,0.5841473,12
13.62,-16.25106,1.504466,-27.41953,-0.3699168397677992,-0.0531779375827124,-0.9940899855211898,64.59911,84.12525,163.8442,0.6164058,-0.3131959,0.5710067,12
13.64,-16.06311,1.211788,-27.48646,-0.3566088462043211,0.0105139312615119,-0.9064481348141048,43.08085,95.54142,174.0341,0.7006547,-0.2105903,0.6101643,12
13.66,-15.95595,1.385721,-27.51756,-0.3509423657927268,0.0065750159822066,-0.8021741877163557,46.33767,95.65807,173.3727,0.6954996,-0.2243092,0.5993141,12
13.68,-15.85053,1.556604,-27.54879,-0.3397793494339769,0.0020263033439518,-0.7065694756175631,49.59436,95.72385,172.6786,0.6897525,-0.2378347,0.58796,12
13.7,-15.74702,1.724536,-27.58009,-0.3235548217842252,-0.0062427887851351,-0.6198745142881408,52.85078,95.72804,171.9391,0.6834164,-0.2511545,0.5761124,12
13.72,-15.71596,1.257085,-27.63177,-0.3066343753135361,0.0737733162805413,-0.5319515332407412,20.05132,104.1693,176.6447,0.7796715,-0.08418728,0.6008329,12
13.74,-15.60032,1.425094,-27.67137,-0.3044115556586677,0.0603601119960924,-0.4226608351817686,23.58693,104.6998,176.5121,0.778483,-0.1012009,0.5927416,12
13.76,-15.48692,1.589434,-27.71093,-0.2981506337355379,0.046433670922516,-0.3244129290091209,27.12451,105.2357,176.4109,0.7765266,-0.1181132,0.5840744,12
13.78,-15.41326,1.275611,-27.75456,-0.2908535408052317,0.0994800009695708,-0.2230926376424293,358.4026,110.655,178.2367,0.822118,0.0205824,0.5689387,12
13.8,-15.29732,1.441139,-27.79889,-0.2828483393713423,0.1494722652159839,-0.1319827905069708,1.963998,111.2336,178.3985,0.8252127,0.001854293,0.5643892,12
13.82,-15.18381,1.602907,-27.84304,-0.295199829231936,0.1057022412118701,-0.0159107803933169,5.522572,111.8241,178.597,0.8274853,-0.01687057,0.5592839,12
13.84,-15.06808,1.293754,-27.89038,-0.3064904774287036,0.1315631029405332,0.0971737285144795,352.8232,113.5611,179.3065,0.8347157,0.0393411,0.54708,12
13.86,-14.95086,1.455124,-27.9364,-0.3171360062877244,0.1558432249847194,0.1984833637612526,356.4005,114.1066,179.6348,0.8387044,0.01975328,0.5436713,12
13.88,-14.83634,1.612632,-27.98215,-0.3468532695617379,0.104473755941871,0.3133670511591355,359.9736,114.671,179.9964,0.8418453,0.0001509991,0.539719,12
13.9,-14.72474,1.766453,-28.02754,-0.3751970165578124,0.0523187344145873,0.4147359024931698,3.5418,115.2584,180.3937,0.8441356,-0.01944564,0.5352274,12
13.92,-14.78825,1.262021,-27.99943,-0.3919182943395158,0.0896390846392168,0.5185153398315503,355.7398,115.2829,180.6184,0.844227,0.01533754,0.5346688,12
13.94,-14.67455,1.425739,-28.0461,-0.4249006748163155,0.0536087816089143,0.6350401853486596,359.2816,115.8409,180.9891,0.8472922,-0.003984196,0.5310205,12
13.96,-14.56338,1.585776,-28.0925,-0.4573454395669329,0.0186674530671483,0.7372505137487071,2.818627,116.4218,181.3945,0.8495153,-0.02329624,0.5268504,12
13.98,-14.56271,1.240542,-28.08102,-0.4738595227285422,0.058845412582119,0.8418675342743085,3.988645,116.3877,182.1011,0.8488426,-0.03391006,0.5271812,12
14.0,-14.44858,1.406714,-28.13014,-0.4911686759739988,0.0969707511011231,0.9338512809070884,7.605435,116.9978,182.4747,0.8498065,-0.05301698,0.5224638,12
14.02,-14.33686,1.569113,-28.17898,-0.5416311488346484,0.0362209967710346,1.0415759225888863,11.21765,117.6377,182.8908,0.8498912,-0.07206339,0.5172122,12
14.04,-14.35324,1.217297,-28.14691,-0.5773358423765418,0.0511085497753348,1.1461853404124691,11.89542,117.1171,183.3926,0.8466091,-0.07914712,0.521209,12
14.06,-14.24101,1.389552,-28.19691,-0.612858268976737,0.0665401912547316,1.2376415954040052,15.50798,117.772,183.7485,0.8455789,-0.09742641,0.5155214,12
14.08,-14.13081,1.55811,-28.24673,-0.6730826232225666,0.0033857691020644,1.3404021627228948,19.11519,118.4631,184.1549,0.8436788,-0.1156004,0.5093091,12
14.1,-14.02285,1.723106,-28.29624,-0.7324649872156916,-0.0575056037588088,1.4284516044460616,22.71633,119.1979,184.6176,0.8409109,-0.1336472,0.5025794,12
14.12,-14.15292,1.183063,-28.20977,-0.754957148482096,-0.0179811627081927,1.5129929612087922,17.41188,117.3949,183.9521,0.841377,-0.1077185,0.5177255,12
14.14,-14.04434,1.363562,-28.25952,-0.7764159479885666,0.0206064752674837,1.5843138797084206,20.97945,118.0633,184.2564,0.8390612,-0.1249267,0.5114132,12
14.16,-13.93727,1.540554,-28.30923,-0.8249061091120649,-0.0490828135071982,1.6677892817889344,24.54228,118.7696,184.6143,0.8359056,-0.1420053,0.5045944,12
14.18,-13.99583,1.153016,-28.24909,-0.8446101357683093,-0.0340772872835294,1.744154407164939,23.07109,114.7278,184.0768,0.8207448,-0.1371275,0.534064,12
14.2,-13.89007,1.341724,-28.29691,-0.8614805632451044,-0.0172020493885236,1.8076812701310945,26.59112,115.34,184.1853,0.8172944,-0.152935,0.5272096,12
14.22,-13.7853,1.527107,-28.34488,-0.8891249995905357,-0.0839382054712958,1.875924387989436,30.1085,115.9798,184.3406,0.8130524,-0.1685877,0.5198503,12
14.24,-13.68172,1.709223,-28.39291,-0.8905897515483268,-0.0627462229378051,1.9339741381386588,33.62303,116.6554,184.549,0.8080233,-0.1840733,0.511993,12
14.26,-13.74633,1.124777,-28.32097,-0.8888881606868013,-0.0395874034007963,1.979690302559197,32.0985,110.4651,183.5649,0.7841701,-0.1821322,0.5548204,12
14.28,-13.64293,1.321655,-28.36603,-0.8845813588472937,-0.017668448855426,2.013132212141342,35.55483,110.9246,183.3767,0.7789785,-0.1961366,0.5470523,12
14.3,-13.54002,1.515377,-28.41143,-0.8976959300417184,-0.1101630908953039,2.045920552368876,39.01131,111.3905,183.2152,0.7730577,-0.2099545,0.5387776,12
14.32,-13.49839,1.115517,-28.41735,-0.8743232214116401,-0.087309877532848,2.066000133142502,41.86678,109.5994,182.3949,0.7587368,-0.2218553,0.5443736,12
14.34,-13.39746,1.315299,-28.4621,-0.8466885684261041,-0.0627477245442759,2.073920041067035,45.2583,109.9293,182.0573,0.7516752,-0.2344187,0.5354565,12
14.36,-13.29685,1.512054,-28.50724,-0.8218382035495131,-0.1235737499794875,2.073362673222851,48.65019,110.25,181.7272,0.7439339,-0.2467678,0.5260606,12
14.38,-13.19675,1.705796,-28.55272,-0.7783474203478644,-0.0946855627312927,2.063295986371455,52.0423,110.5622,181.4035,0.7355208,-0.2588912,0.5161946,12
14.4,-13.20121,1.11289,-28.53562,-0.7307101164404315,-0.0643669281265413,2.042281752166736,48.07592,108.2717,179.568,0.7410207,-0.2358554,0.5338086,12
14.42,-13.10195,1.313162,-28.57918,-0.6660445432297957,-0.1211380982761106,2.0070943482179304,51.40341,108.4643,179.0862,0.7331142,-0.2476523,0.5238517,12
14.44,-13.00298,1.510516,-28.62313,-0.5930562472271685,-0.0890992873133459,1.963257541921632,54.73093,108.6235,178.5853,0.7245674,-0.259231,0.513442,12
14.46,-12.83295,1.102212,-28.67587,-0.5173595023385209,-0.0565088106186171,1.9098372110250328,59.66753,102.8891,174.045,0.6935585,-0.274413,0.5197333,12
14.48,-12.7358,1.295827,-28.71809,-0.4394084562344929,-0.0266448105692687,1.847036173068605,62.90518,102.3761,172.8235,0.6838852,-0.2847991,0.5081825,12
14.5,-12.63929,1.486673,-28.76055,-0.3597397869404013,-0.0177913176528725,1.7748347102038546,66.13503,101.6289,171.3781,0.6736354,-0.2949431,0.4962063,12
14.52,-12.51006,1.128929,-28.68998,-0.2669354036751168,-0.0101860029237971,1.6955381571904908,60.94674,91.18662,166.6436,0.6527997,-0.2808576,0.556863,12
14.54,-12.41186,1.313127,-28.72892,-0.172860254212718,-0.0008074461931969,1.6083305266615815,63.99709,89.64086,164.2732,0.6435897,-0.2905481,0.5447886,12
14.56,-12.31479,1.494583,-28.76795,-0.0778990417865361,0.0071308537761503,1.513544564912932,67.01089,87.58347,161.4019,0.6338511,-0.2999986,0.5322717,12
14.58,-12.21899,1.673361,-28.80698,0.0282675387778461,-0.055879254373443,1.408244207635594,69.97162,84.80102,157.815,0.6235971,-0.3092078,0.5193189,12
14.6,-12.21668,1.19559,-28.63045,0.1147156849059878,-0.0154200391772223,1.3022566300086145,48.3047,94.99494,173.097,0.688132,-0.2354397,0.5972004,12
14.62,-12.11475,1.372054,-28.6654,0.2000268895272821,0.0245526073735559,1.190538493032192,51.4344,94.76742,172.0742,0.681731,-0.2472836,0.5864901,12
14.64,-12.01437,1.545671,-28.70041,0.286551972018392,-0.0050970113004775,1.0692162877105558,54.55992,94.42628,170.9534,0.6747832,-0.2589272,0.5753148,12
14.66,-11.9873,1.250283,-28.57168,0.3599171768141365,0.033495366412451,0.9481909073312936,26.20722,100.4583,175.9551,0.7532479,-0.1185234,0.616524,12
14.68,-11.87162,1.419046,-28.60988,0.4307662429600267,0.0709275138819124,0.8228574242399609,29.72615,100.8369,175.5829,0.7506765,-0.1346134,0.6077813,12
14.7,-11.75812,1.584168,-28.64802,0.4985722619114194,0.1042679357025061,0.6937051794894971,33.24754,101.2027,175.2254,0.7473717,-0.150582,0.5984476,12
14.72,-11.64702,1.745783,-28.68605,0.5478553862261198,0.0412503919150017,0.5670812435379458,36.77127,101.5566,174.8802,0.7433346,-0.1664074,0.5885335,12
14.74,-11.65521,1.275729,-28.5102,0.606093344459398,0.0703019647764583,0.439594220992153,358.4108,107.0152,178.1765,0.8036255,0.02103743,0.5947614,12
14.76,-11.53722,1.441381,-28.54879,0.6604480855588509,0.0982067015665293,0.3101178136141107,1.974175,107.5665,178.278,0.8067298,0.001944223,0.5904785,12
14.78,-11.42164,1.603269,-28.5873,0.7080527922602272,0.0561063150572894,0.1807595042823369,5.535354,108.1259,178.4143,0.8090325,-0.01714563,0.5856147,12
14.8,-11.30869,1.761547,-28.62564,0.7577523207795991,0.0834627871122623,0.0507861968431067,9.094015,108.6977,178.5868,0.8105318,-0.03621349,0.5801756,12
14.82,-11.34351,1.293835,-28.41371,0.8026370948652212,0.1091705120538022,-0.0790630539300711,352.8248,108.5265,179.263,0.8098665,0.04175702,0.5832322,12
14.84,-11.22307,1.455289,-28.4504,0.8421307313504883,0.1305065460855331,-0.2081598796605988,356.405,109.0485,179.5477,0.8138826,0.02141634,0.5801689,12
14.86,-11.10531,1.612881,-28.487,0.8577150927277977,0.1212971367094153,-0.3277850383501204,359.9815,109.5868,179.8644,0.8170778,0.001059758,0.5765264,12
14.88,-11.12532,1.26208,-28.34279,0.8676468103712917,0.113644184892246,-0.445921055264185,355.7408,109.2651,180.587,0.8149931,0.01733436,0.5782554,12
14.9,-11.00758,1.425843,-28.37804,0.8714253258584534,0.1047845298804844,-0.5619376300798868,359.286,109.7975,180.9263,0.8181238,-0.003030371,0.5749518,12
14.92,-10.89236,1.585925,-28.41323,0.8569669964446741,0.0214937139342401,-0.6682783623826829,2.826944,110.351,181.2987,0.820443,-0.02338655,0.5710838,12
14.94,-10.88717,1.240576,-28.26995,0.8631853954975974,0.0359856515917408,-0.7833041296652881,3.98307,110.0768,182.0847,0.8185436,-0.03481029,0.5731046,12
14.96,-10.76843,1.40677,-28.30648,0.8641827726767616,0.050437905183747,-0.8957476384365162,7.601752,110.6584,182.442,0.8196353,-0.05518724,0.5686423,12
14.98,-10.65211,1.569191,-28.34296,0.8594820491777803,0.0620843156271914,-1.0049397378291929,11.21621,111.2684,182.84,0.8198807,-0.07550334,0.5635988,12
15.0,-10.53843,1.728004,-28.37929,0.8347509057036349,0.0480458166031025,-1.1009514652155232,14.82515,111.9128,183.2834,0.8192807,-0.09573596,0.5579798,12
15.02,-10.65214,1.217348,-28.21427,0.8059807201185163,0.03708226133838,-1.1939646840131477,11.89015,110.6262,183.3837,0.815755,-0.08306421,0.5682986,12
15.04,-10.53505,1.389615,-28.25134,0.7727551784324174,0.0262939038047412,-1.283304558034799,15.50366,111.2514,183.7294,0.8149133,-0.1027252,0.5627635,12
15.06,-10.41998,1.558188,-28.28842,0.7317863350317828,0.0123995295300766,-1.3655819451110522,19.11213,111.9115,184.1234,0.8132348,-0.1222755,0.556656,12
15.08,-10.4782,1.18312,-28.15142,0.6875288353526083,0.0023063959163148,-1.444243803587014,17.4078,110.3973,183.9388,0.808232,-0.114211,0.5680971,12
15.1,-10.36449,1.363641,-28.18782,0.639622118295954,-0.0069949756543077,-1.518624825070071,20.97694,111.0342,184.2283,0.806169,-0.1328926,0.561857,12
15.12,-10.25227,1.540656,-28.22434,0.5692802832843507,-0.0986933671953483,-1.5740056832587004,24.54169,111.7072,184.5688,0.8033007,-0.1514368,0.555061,12
15.14,-10.14174,1.714262,-28.26091,0.5313605646991024,-0.0828006543089835,-1.6448074324798836,28.10111,112.4244,184.9669,0.7996306,-0.1698214,0.547717,12
15.16,-10.22693,1.145402,-28.11792,0.4916023659208997,-0.0648224204490467,-1.7111362912366754,24.6101,107.2781,184.0834,0.7817971,-0.1543012,0.5849966,12
15.18,-10.11667,1.336086,-28.15224,0.4496893470347569,-0.0478446523981116,-1.772347827296064,28.12667,107.8475,184.1505,0.7783136,-0.1713871,0.5779493,12
15.2,-10.00726,1.523477,-28.18684,0.4299219828625711,0.0341991046046606,-1.8442560875110297,31.64104,108.4415,184.261,0.7740799,-0.1883007,0.5703505,12
15.22,-9.990698,1.124792,-28.09797,0.3785237632861735,-0.0062116024569098,-1.8891547952572565,32.08623,103.7623,183.5655,0.750419,-0.1940351,0.5997303,12
15.24,-9.883025,1.321687,-28.13057,0.3274373973108958,-0.0432140304552799,-1.9292755860342383,35.53571,104.1944,183.3754,0.7455696,-0.2095168,0.5918587,12
15.26,-9.775799,1.515443,-28.16355,0.2764143678234562,-0.0801081592742153,-1.964025164647136,38.98532,104.6315,183.2099,0.7400267,-0.2248004,0.5834419,12
15.28,-9.669204,1.706088,-28.19685,0.2390368085940893,-0.0891005034543788,-2.0038860559333003,42.43486,105.0779,183.0713,0.7337959,-0.2398715,0.5744877,12
15.3,-9.701831,1.115497,-28.14918,0.2029694313823361,-0.0942035544219546,-2.038902918270613,41.86256,103.344,182.4051,0.7278944,-0.2368805,0.5849921,12
15.32,-9.596704,1.315265,-28.18242,0.167921817169142,-0.0988028317111905,-2.0684959629548585,45.25222,103.6528,182.0759,0.7212099,-0.2508782,0.5758637,12
15.34,-9.491851,1.512015,-28.21606,0.1414381243395328,-0.1019578124576947,-2.095581560435232,48.64218,103.9518,181.7529,0.7138757,-0.264647,0.5662216,12
15.36,-9.433379,1.112863,-28.2246,0.116009573631796,-0.1016541330035146,-2.1165347168587787,48.0728,102.4907,179.5841,0.7131328,-0.2523885,0.570549,12
15.38,-9.33023,1.313113,-28.25762,0.091361102131288,-0.1012979229393312,-2.130779824407794,51.40073,102.6676,179.1161,0.705627,-0.2655112,0.5603469,12
15.4,-9.227322,1.51045,-28.29105,0.0672295873807282,-0.1042441580254326,-2.1377278870039174,54.72853,102.8111,178.6284,0.6975064,-0.2783999,0.5496616,12
15.42,-9.029572,1.102091,-28.34841,0.0637730309883375,-0.1072749031330684,-2.146763466175733,59.66983,99.47355,174.1293,0.6775432,-0.2872166,0.5404648,12
15.44,-8.929685,1.295593,-28.38337,0.0607658017388467,-0.1080208918381627,-2.148226431147277,62.91526,99.0173,173.0024,0.668201,-0.2986442,0.5286453,12
15.46,-8.830412,1.486333,-28.4186,0.0579293610987645,-0.1098202160595623,-2.1415213859996776,66.15388,98.3447,171.6687,0.6582948,-0.3098133,0.516387,12
15.48,-8.731903,1.674344,-28.45403,0.0442703492238314,-0.025537750919843,-2.1247787411469923,69.38309,97.35854,170.0299,0.6478338,-0.3207192,0.5036982,12
15.5,-8.634306,1.753005,-28.48962,0.0487223560749872,-0.0414555195670686,-2.104657631663115,72.59756,95.88899,167.9149,0.6368271,-0.3313526,0.4905897,12
15.52,-8.453064,1.144109,-28.53406,0.0516191654589309,-0.0572938142760366,-2.0746329070318725,58.4109,91.67193,167.8373,0.6586471,-0.2717088,0.5676417,12
15.54,-8.353496,1.325866,-28.571,0.0476688120283733,0.0056179006533109,-2.0511013645572134,61.49607,90.50388,165.8766,0.6499892,-0.2821567,0.5557975,12
15.56,-8.255181,1.504854,-28.60799,0.0508956595560526,0.0016877564110154,-2.0232951690319085,64.55647,88.96126,163.5526,0.6407998,-0.2923721,0.5435036,12
15.58,-8.082686,1.211811,-28.66812,0.0520975630416542,-0.0025623797676497,-1.9857752597022893,43.09601,99.57059,173.9884,0.7217178,-0.1995662,0.5849962,12
15.6,-7.978364,1.385845,-28.70732,0.0509443191621361,-0.0102631215151544,-1.937982062621311,46.34634,99.59638,173.2746,0.715844,-0.2123814,0.5747531,12
15.62,-7.875762,1.556837,-28.74647,0.0626391407573592,0.0070535885967471,-1.91351453448642,49.59572,99.56101,172.5168,0.7093651,-0.2250146,0.5640296,12
15.64,-7.755569,1.257114,-28.81565,0.0723837101885861,0.0248979837158717,-1.880967643875024,20.07847,106.9043,176.6079,0.7937854,-0.08034924,0.5819741,12
15.66,-7.642252,1.425185,-28.86135,0.0797735670497539,0.0402090789316182,-1.8397932380278204,23.6137,107.3669,176.4355,0.792097,-0.09659307,0.574308,12
15.68,-7.531142,1.589589,-28.90683,0.0951736795053075,0.1199332073410341,-1.8140042696392524,27.15108,107.8304,176.2894,0.7896318,-0.1127443,0.5660852,12
15.7,-7.422457,1.750482,-28.95199,0.094613225601533,0.1056899997821299,-1.7704909508601947,30.68849,108.299,176.1714,0.7863955,-0.1287821,0.5573152,12
15.72,-7.422414,1.275622,-28.9553,0.0905043427257953,0.0912845157442906,-1.718879794027755,358.4178,113.1758,178.2214,0.8344337,0.02055588,0.550717,12
15.74,-7.308629,1.441183,-29.00468,0.082432579524332,0.0738310244214289,-1.6586201952523585,1.980374,113.7009,178.3656,0.8371709,0.002490676,0.5464823,12
15.76,-7.197228,1.602986,-29.05373,0.0875310481375933,0.1447625924782921,-1.6212240350195186,5.54045,114.2367,178.543,0.8390781,-0.01557214,0.5417114,12
15.78,-7.104772,1.293762,-29.09158,0.0822777301158874,0.1214661829686944,-1.567626630733109,352.8217,115.8303,179.2957,0.8453804,0.0384485,0.5304488,12
15.8,-6.989479,1.455155,-29.142,0.0730867936607194,0.0978756404764091,-1.5061955904275215,356.4004,116.3237,179.6109,0.8490617,0.01945103,0.5273488,12
15.82,-6.876841,1.612689,-29.19201,0.0595306387876444,0.0711683494731795,-1.4364386764151351,359.9751,116.8354,179.9562,0.8518887,0.000439649,0.5237232,12
15.84,-6.767074,1.766538,-29.24147,0.051492984165518,0.0603004309565988,-1.3858078791834734,3.545561,117.369,180.3339,0.8538589,-0.01856685,0.5195766,12
15.86,-6.782484,1.254607,-29.23667,0.0393153927912805,0.051087260496206,-1.329146154187451,357.4153,117.8856,181.1895,0.8565094,0.002745307,0.5155345,12
15.88,-6.671067,1.418878,-29.28791,0.0225761333427641,0.0407541735610125,-1.2660165105549033,0.9662936,118.4013,181.5552,0.8587977,-0.01597438,0.5120658,12
15.9,-6.562097,1.579481,-29.33872,0.0211327687607178,0.1023029012778741,-1.2230874937811298,4.512792,118.9408,181.954,0.8602332,-0.03467286,0.5080938,12
15.92,-6.538055,1.237691,-29.33996,-0.0097406991115001,0.0671594751991159,-1.1554331621000853,6.150634,119.4403,182.6305,0.8614814,-0.04683758,0.5044284,12
15.94,-6.426186,1.404738,-29.39435,-0.0429724417889293,0.0334894980072212,-1.0834619632669145,9.778159,120.0128,183.0134,0.8615116,-0.06528038,0.4998529,12
15.96,-6.316637,1.568009,-29.44831,-0.0628243580485347,0.0737078639043485,-1.0335431324346342,13.40055,120.6171,183.4383,0.8606504,-0.08365014,0.4947653,12
15.98,-6.209613,1.727649,-29.50171,-0.1076054994408133,0.0376407868939636,-0.9623691712349663,17.01796,121.2592,183.9096,0.8588979,-0.1019271,0.4891714,12
16.0,-6.31801,1.208638,-29.42785,-0.1543543933479277,0.0042279060284906,-0.8881827554489212,13.43569,120.6339,183.587,0.8605776,-0.08490413,0.4947414,12
16.02,-6.209466,1.382922,-29.48347,-0.2033765893139731,-0.0294630192890553,-0.810653120417967,17.03831,121.2465,183.9492,0.8587824,-0.1023214,0.4892977,12
16.04,-6.102781,1.553558,-29.53879,-0.2212533665119798,0.0336057629746656,-0.7596252186558141,20.63582,121.896,184.3602,0.8561122,-0.1196297,0.4833605,12
16.06,-6.151908,1.175696,-29.489,-0.2675669962187665,-0.0087214938515325,-0.6842813330393329,18.73376,120.1379,184.0879,0.8516311,-0.1116533,0.4970216,12
16.08,-6.046991,1.358232,-29.54405,-0.314185835601294,-0.047400368021076,-0.6073881874140792,22.29053,120.7464,184.3522,0.8486263,-0.1278716,0.4910557,12
16.1,-5.943419,1.537311,-29.599,-0.3356940116330798,-0.0044646291873383,-0.554791527976584,25.84335,121.3896,184.6658,0.8447825,-0.1439592,0.4846091,12
16.12,-5.971955,1.145434,-29.55427,-0.3735780659722852,-0.0437117373076321,-0.4869874074731215,24.5971,117.5755,184.0845,0.8311619,-0.1400902,0.5124879,12
16.14,-5.869926,1.336157,-29.6075,-0.4103462913385329,-0.079057713195914,-0.4189578652270724,28.10349,118.1193,184.1511,0.8269709,-0.1548858,0.5059756,12
16.16,-5.768756,1.523609,-29.66083,-0.4462159143373918,-0.1136917347648328,-0.3505113403918467,31.60775,118.6867,184.2588,0.8219894,-0.1695263,0.4989847,12
16.18,-5.668618,1.707838,-29.71417,-0.4523026250644532,-0.0398678474075066,-0.3083859602352903,35.10986,119.2849,184.4133,0.8162224,-0.1840014,0.4915217,12
16.2,-5.569685,1.782246,-29.76741,-0.4782058647887792,-0.0777049157802493,-0.2510902937754338,38.60938,119.9226,184.6217,0.8096762,-0.1982975,0.4835941,12
16.22,-5.684533,1.121716,-29.66622,-0.5012380918835764,-0.1122366622444444,-0.1954253580642815,34.72402,113.7088,183.2971,0.7941113,-0.1860825,0.5288287,12
16.24,-5.58497,1.319401,-29.71753,-0.5078654088700025,-0.0593513604932537,-0.1597998854656097,38.16293,114.0788,183.0586,0.787914,-0.1989598,0.5213062,12
16.26,-5.48586,1.513975,-29.76912,-0.5113531236609204,-0.0070008876675571,-0.1269552883273919,41.60199,114.4481,182.8376,0.7809897,-0.2116505,0.5133073,12
16.28,-5.466682,1.114971,-29.77198,-0.5237104306937561,-0.0688400834089475,-0.0884212587394248,43.28135,113.088,181.7726,0.7722654,-0.2152809,0.5171366,12
16.3,-5.369287,1.315065,-29.82259,-0.5327726170094884,-0.1290898890577038,-0.0525391970895245,46.65777,113.3475,181.4183,0.7644953,-0.2270482,0.5085463,12
16.32,-5.272204,1.512168,-29.87355,-0.518000199362261,-0.0744198877914418,-0.0313966910627678,50.03429,113.592,181.0635,0.7560436,-0.2386104,0.4995072,12
16.34,-5.184564,1.109935,-29.90737,-0.4923340942023517,-0.1054786883602479,-0.0149336515549434,50.67779,111.6447,178.7605,0.7502638,-0.2323158,0.5038558,12
16.36,-5.089276,1.309208,-29.95738,-0.4635603839072953,-0.1347061554816047,-0.0013488293376822,53.98868,111.7052,178.1947,0.7413531,-0.2431375,0.4941885,12
16.38,-4.994333,1.505608,-30.00772,-0.4250328220905864,-0.0765373069576875,0.005645346379139,57.29884,111.7103,177.5856,0.7318035,-0.2537474,0.4840997,12
16.4,-4.899886,1.699151,-30.05828,-0.3833733879118983,-0.0194351154706919,0.0095642976689234,60.60787,111.6438,176.9159,0.7216238,-0.2641366,0.4735987,12
16.42,-4.771949,1.104372,-30.11287,-0.3300160605486718,-0.0730965543158898,0.0090663583832597,61.22183,105.8756,171.258,0.7081707,-0.2536541,0.4862182,12
16.44,-4.679679,1.295393,-30.16388,-0.2887048800702791,-0.0372996126000172,0.0093561692033192,64.41916,104.9724,169.674,0.6976216,-0.2628705,0.4750998,12
16.46,-4.588172,1.483677,-30.21496,-0.245935354354162,-0.0007611365365303,0.0073596597294107,67.60114,103.717,167.7468,0.6864907,-0.2718628,0.4635909,12
16.48,-4.497563,1.669265,-30.26603,-0.2019569626229347,0.0333265169461207,0.0032164098818805,70.76064,101.9409,165.3067,0.6747872,-0.2806267,0.4516996,12
16.5,-4.273767,1.16153,-30.35747,-0.1407528202641122,-0.0303011112079006,-0.0066383308748783,55.79943,100.4248,168.7578,0.7051718,-0.2314879,0.5276229,12
16.52,-4.180381,1.341174,-30.4092,-0.0787049063439433,-0.0810143570613277,-0.0182911843383868,58.88081,99.42616,166.9731,0.6960765,-0.2404144,0.51695,12
16.54,-4.088337,1.518021,-30.46074,-0.0287527888466603,-0.0183438657403491,-0.0302986737795087,61.94148,98.12525,164.8982,0.6864167,-0.2491442,0.5058622,12
16.56,-3.926677,1.228516,-30.54901,0.0255540990025853,-0.0232916597487625,-0.0483877191203792,37.85592,109.1038,174.7449,0.7784054,-0.1526045,0.5359143,12
16.58,-3.825691,1.400336,-30.60448,0.0806935261800132,-0.0289282062989061,-0.0684686252692241,41.20544,109.2417,174.1717,0.772563,-0.1646724,0.526667,12
16.6,-3.726555,1.568907,-30.65955,0.1249432561444295,0.0320223038292064,-0.0868613023439,44.55494,109.34,173.5779,0.7660345,-0.1765916,0.5169569,12
16.62,-3.617445,1.263513,-30.72706,0.1666233157186215,0.0232535170419042,-0.1045278562637443,13.94236,115.7971,177.1852,0.8421769,-0.04382698,0.5248071,12
16.64,-3.510904,1.431138,-30.78762,0.2071465206473235,0.0140056534491494,-0.1236599762147188,17.48255,116.2737,177.0932,0.8412113,-0.05890778,0.518319,12
16.66,-3.406537,1.595079,-30.84764,0.2431993338800899,0.0714239887435608,-0.1394978644010018,21.0236,116.754,177.0304,0.8394235,-0.07393101,0.5113298,12
16.68,-3.304546,1.75549,-30.90698,0.2749757209328283,0.1260695966795693,-0.1550371524817269,24.564,117.2422,176.9985,0.8368173,-0.08887844,0.5038472,12
16.7,-3.280716,1.2792,-30.90217,0.3020218849181431,0.1601564030186846,-0.1699758879315203,354.4781,120.5408,178.4267,0.8669576,0.03579373,0.4958596,12
16.72,-3.173269,1.443972,-30.96466,0.3139608654243998,0.0926426670934054,-0.1734109178993499,358.0422,121.0286,178.6061,0.8701849,0.01899532,0.4922792,12
16.74,-3.068182,1.604972,-31.02649,0.3390923698923662,0.1175507463650671,-0.1831085601364162,1.603579,121.5269,178.8157,0.8725495,0.002183196,0.4882159,12
16.76,-2.965652,1.762357,-31.08754,0.3605015585228058,0.1410059098711383,-0.1921996174432152,5.161985,122.0397,179.0571,0.8740503,-0.01462647,0.4836743,12
16.78,-2.900372,1.28282,-31.08966,0.3651016652433416,0.0889198739974194,-0.1897147830088421,353.7833,121.6263,179.7556,0.8716912,0.02830205,0.4870422,12
16.8,-2.791526,1.444759,-31.1503,0.3691550621792576,0.1062834718934749,-0.188258178467751,357.3458,122.0987,180.0793,0.8748102,0.01060563,0.483912,12
16.82,-2.685219,1.602914,-31.21024,0.3686095360566722,0.1232586621880609,-0.1857165062537191,0.9045072,122.5904,180.4318,0.8770581,-0.00709625,0.4803049,12
16.84,-2.662841,1.250419,-31.20167,0.3630309957223231,0.1371679831315775,-0.1818014942499335,359.3876,122.1456,181.3798,0.8751904,-0.007953985,0.4835994,12
16.86,-2.555307,1.415106,-31.2621,0.3357066776668571,0.0523706222989766,-0.1621886237681193,2.969579,122.6485,181.7138,0.876771,-0.02554914,0.4799771,12
16.88,-2.450152,1.576079,-31.32188,0.3235916959625047,0.0666903936250523,-0.1501027384234463,6.547606,123.1746,182.0809,0.8774695,-0.04311353,0.4758767,12
16.9,-2.347573,1.733501,-31.3809,0.3079781980992828,0.0811644944046335,-0.1372780518999405,10.12103,123.7282,182.4846,0.877286,-0.06062979,0.4713028,12
16.92,-2.420791,1.232077,-31.30366,0.2715622375774562,0.019554678197426,-0.1090744494151998,8.235463,122.5143,182.8939,0.8733729,-0.05660208,0.4810751,12
16.94,-2.312859,1.40074,-31.36461,0.2449509433566404,0.0344050449588321,-0.0879725228319054,11.86298,123.068,183.2358,0.8726548,-0.07392305,0.4764612,12
16.96,-2.2071,1.565647,-31.42501,0.215016786578866,0.0503419086908949,-0.0661102429431146,15.48594,123.6523,183.6191,0.8710376,-0.09116323,0.471361,12
16.98,-2.25557,1.199635,-31.36097,0.1813821812845116,0.0645374314413408,-0.0431931888162457,14.76244,122.5283,183.6774,0.86715,-0.08963448,0.4801571,12
17.0,-2.150195,1.376061,-31.42054,0.1135970091322118,-0.0260174134777609,0.0026141360624603,18.35664,123.1119,183.9966,0.864848,-0.1061951,0.4748068,12
17.02,-2.046518,1.548891,-31.47976,0.075954287887483,-0.0133803732745986,0.0296604469185606,21.94639,123.7301,184.3624,0.8616727,-0.1226437,0.4689817,12
17.04,-1.944733,1.718239,-31.53852,0.0371979112715085,0.0008933149166093,0.0565647789851171,25.53088,124.3903,184.781,0.8576283,-0.1389619,0.4626885,12
17.06,-2.030792,1.160756,-31.44172,-0.0029985851439975,0.013844299078417,0.0836117521005066,21.58051,119.9403,184.1193,0.8465406,-0.1241965,0.4971107,12
17.08,-1.928399,1.347435,-31.49846,-0.0490213865794959,-0.0012291291096335,0.1172068449050183,25.1245,120.4876,184.2623,0.8427617,-0.1393837,0.4911158,12
17.1,-1.827092,1.530733,-31.55515,-0.0938805525218072,-0.0117865788580363,0.1496970922164484,28.66597,121.0619,184.4483,0.8381602,-0.1544308,0.4846461,12
17.12,-1.844657,1.132759,-31.50736,-0.1378381187404678,-0.0210167876299124,0.1813182540471212,28.02587,116.5318,183.9592,0.8202964,-0.1557901,0.5171348,12
17.14,-1.744508,1.326995,-31.56096,-0.1752985751133613,-0.0296114824791807,0.2093046389220365,31.50641,116.9866,183.8902,0.815268,-0.1696519,0.510536,12
17.16,-1.645002,1.518037,-31.61473,-0.2104647327554168,-0.0337711542144871,0.2354661911138151,34.98615,117.4544,183.8521,0.809473,-0.18335,0.5034615,12
17.18,-1.54631,1.705923,-31.66856,-0.243582036428119,-0.0368068075799377,0.2600090163272446,38.46502,117.9403,183.8484,0.8029175,-0.1968724,0.4959184,12
17.2,-1.600768,1.118717,-31.60728,-0.2748829237955688,-0.0419773738655788,0.283140620178659,37.3812,113.4891,183.0304,0.7872096,-0.1966144,0.5263578,12
17.22,-1.502542,1.317284,-31.65931,-0.3244920831975317,-0.1466689935700978,0.3168168273196672,40.79655,113.7736,182.7091,0.7803491,-0.2089132,0.5187964,12
17.24,-1.404707,1.512785,-31.71163,-0.3395231092316214,-0.1244618763135391,0.3258688044762445,44.21212,114.047,182.3935,0.7727781,-0.2210189,0.5107673,12
17.26,-1.307428,1.70524,-31.76415,-0.3505912727053213,-0.100505509860218,0.3320012429628534,47.62775,114.3094,182.0822,0.7645044,-0.2329212,0.5022778,12
17.28,-1.293426,1.113733,-31.75796,-0.3579545038091419,-0.0781360686613861,0.3354175231973899,46.38283,112.5466,180.3792,0.7637621,-0.2211812,0.5114475,12
17.3,-1.196901,1.31409,-31.8084,-0.3545452433599828,-0.083805753362581,0.3342068198883217,49.73359,112.7062,179.9416,0.7554067,-0.2326085,0.5025257,12
17.32,-1.100659,1.511503,-31.85917,-0.3468827820361965,-0.0860057790476178,0.3300629274865638,53.08418,112.8349,179.4863,0.7463881,-0.2438292,0.4931671,12
17.34,-0.956307,1.103711,-31.92033,-0.3351949056660508,-0.0881382221605737,0.3231753575188012,56.48897,109.832,176.234,0.7294275,-0.2481707,0.4933442,12
17.36,-0.8625269,1.299643,-31.97042,-0.3002456986534169,-0.086710699282643,0.3047303114151267,59.7613,109.5679,175.3537,0.7194409,-0.2583394,0.4830937,12
17.38,-0.7692521,1.492781,-32.02071,-0.2627205061176137,-0.0830366325327366,0.2839630185236697,63.02952,109.1636,174.3432,0.7088462,-0.2682852,0.4724392,12
17.4,-0.6766229,1.68315,-32.07111,-0.222850582566166,-0.0804276413652003,0.2610847686769757,66.29253,108.5642,173.1463,0.6976514,-0.2780018,0.461389,12
17.42,-0.5221583,1.117889,-32.13192,-0.1808536413180868,-0.0821443695200276,0.2363035412680707,61.83187,100.5329,167.2309,0.6921922,-0.2530144,0.5010619,12
17.44,-0.4298099,1.304189,-32.18242,-0.1207697732185549,-0.0681677126595946,0.2046769160127883,64.93118,99.03046,165.0123,0.6816826,-0.2618421,0.4898523,12
17.46,-0.33845,1.487767,-32.23285,-0.0595066457904647,-0.0527537238592286,0.1719090638420954,67.99786,97.01176,162.2865,0.6706132,-0.270453,0.4782445,12
17.48,-0.2482135,1.66868,-32.28314,0.0027166312482481,-0.0390722754459697,0.1382082725750768,71.01572,94.24015,158.8156,0.6589952,-0.2788398,0.466249,12
17.5,-0.04428607,1.195321,-32.35941,0.0657004599823354,-0.0302420064967449,0.103781434402987,48.34387,105.0458,173.131,0.73764,-0.2053225,0.5346321,12
17.52,0.05076909,1.371631,-32.41027,0.1077512017161184,-0.0152853528645051,0.0749786534966823,51.48919,104.7746,172.1498,0.7299979,-0.2156346,0.524897,12
17.54,0.1443196,1.545091,-32.46085,0.1507105813702293,0.00072947463195,0.0454299416295063,54.62994,104.3898,171.0689,0.7217721,-0.2257725,0.5147463,12
17.56,0.2739682,1.250046,-32.54504,0.1942500835688689,0.0147216788209603,0.0153892259645553,26.26501,111.7367,176.0081,0.8100536,-0.09933021,0.5395405,12
17.58,0.380944,1.418682,-32.60295,0.2240146511615321,0.0264780047676606,-0.0072796822740324,29.79062,112.0666,175.692,0.8063253,-0.1133928,0.5315424,12
17.6,0.4858152,1.583688,-32.66035,0.2529939460498902,0.0392197257987023,-0.029711452007274,33.31805,112.3854,175.3879,0.8018117,-0.127347,0.5230319,12
17.62,0.5837887,1.271837,-32.7047,0.2807921485548786,0.0499842590481436,-0.0515989003181012,2.436123,117.6523,177.9561,0.8554674,0.004254424,0.5171133,12
17.64,0.6919358,1.438268,-32.76477,0.3052476974889646,0.1265035398740009,-0.0707011432093649,5.999457,118.1336,178.014,0.8569294,-0.01205105,0.5124792,12
17.66,0.7978259,1.600957,-32.82424,0.3256179099602265,0.1106062209873444,-0.0831910341173767,9.561176,118.6222,178.1026,0.8575462,-0.02834031,0.5073448,12
17.68,0.9012625,1.760056,-32.883,0.3436367028783391,0.0943093898764771,-0.093804794236938,13.12098,119.122,178.2235,0.857318,-0.04459724,0.5017155,12
17.7,1.002059,1.809065,-32.94091,0.3588941028073564,0.0747535826681141,-0.1022086731742595,16.67859,119.6376,178.3787,0.8562459,-0.06080607,0.4955973,12
17.72,1.029503,1.293853,-32.92279,0.3760680490431892,0.0739050767438497,-0.1103662250801926,352.818,120.3485,179.2572,0.8656184,0.03676402,0.4967295,12
17.74,1.139936,1.455359,-32.98278,0.3901885938486579,0.0741272280566387,-0.1158492682446228,356.3963,120.7972,179.5326,0.8689827,0.01907625,0.493826,12
17.76,1.247801,1.613015,-33.04206,0.4008482781454552,0.0726246173158408,-0.118331543599476,359.9714,121.2618,179.8354,0.8714776,0.001374461,0.4904333,12
17.78,1.263756,1.262156,-33.02515,0.40768303540129,0.0666656084223737,-0.1175013018088764,355.7292,120.7051,180.5731,0.8685633,0.01408763,0.4941502,12
17.8,1.372187,1.425949,-33.08267,0.4155522254813346,0.1335323060001851,-0.1217642689393638,359.2749,121.1642,180.8982,0.8710404,-0.003719952,0.491108,12
17.82,1.478209,1.586067,-33.13958,0.3908526087640784,0.0960110787489617,-0.1047703913677082,2.816883,121.6434,181.252,0.8726601,-0.02151904,0.487587,12
17.84,1.581626,1.742671,-33.19574,0.3634973090005081,0.0598581432955082,-0.0855900138782317,6.354673,122.1465,181.6372,0.8734213,-0.03929165,0.4835911,12
17.86,1.566742,1.237869,-33.15163,0.3453178751936027,0.0983087552898874,-0.0740772989288034,6.131196,121.1984,182.5952,0.8691428,-0.04594745,0.4911428,12
17.88,1.676147,1.405105,-33.20982,0.3041136726882376,0.0627110184174005,-0.0451339374310499,9.749807,121.7176,182.9414,0.8689142,-0.06370486,0.486947,12
17.9,1.783303,1.568586,-33.26746,0.2609542986782945,0.0293511567601872,-0.0144235842712623,13.36454,122.2655,183.3256,0.8677954,-0.08139355,0.4822571,12
17.92,1.768585,1.208743,-33.22292,0.2155272439002683,-0.0046740225424384,0.0183466727658867,13.431,121.3823,183.5568,0.8638172,-0.08409198,0.4890894,12
17.94,1.875928,1.383111,-33.28048,0.173037571578936,-0.0202641464320402,0.0482381916151188,17.0339,121.9386,183.8853,0.8617839,-0.1011426,0.4840409,12
17.96,1.981453,1.553842,-33.33765,0.1293671484560841,-0.0317968854283857,0.079234495128956,20.63237,122.5285,184.2581,0.8588775,-0.118086,0.4785062,12
17.98,2.084961,1.721057,-33.39433,0.0842230418403785,-0.0422304020524629,0.1116256965563646,24.22583,123.1588,184.6809,0.8551013,-0.134903,0.4724921,12
18.0,1.973242,1.175773,-33.29794,0.060127194445801,0.024637578920392,0.1271256783078556,18.72775,120.5053,184.07,0.8532457,-0.1110984,0.4942724,12
18.02,2.077521,1.358351,-33.35391,0.0100936216658868,-0.0157967539189456,0.1624449104023915,22.28498,121.0586,184.3133,0.8500134,-0.1271519,0.4886937,12
18.04,2.180485,1.537481,-33.40972,-0.0395384455459913,-0.0522422450128863,0.1981696379293955,25.83873,121.6438,184.6014,0.8459445,-0.143076,0.4826383,12
18.06,2.281944,1.713251,-33.46526,-0.0889609550253931,-0.087822662991866,0.2345313594813296,29.38815,122.268,184.9402,0.8410442,-0.1588516,0.4761135,12
18.08,2.189603,1.13907,-33.36597,-0.1104710741532598,-0.0170796027920682,0.2485038021282468,26.29792,116.1935,183.9844,0.8220051,-0.1488876,0.5210332,12
18.1,2.291412,1.33155,-33.41825,-0.1575470146856484,-0.0567829831243925,0.2799909022945437,29.79836,116.6512,183.9665,0.8172687,-0.163392,0.5147063,12
18.12,2.392487,1.520792,-33.47063,-0.2022271620430639,-0.092777227123321,0.3106363052129177,33.29732,117.1248,183.9815,0.8117578,-0.177737,0.507895,12
18.14,2.395373,1.121801,-33.43867,-0.2270628648783494,-0.0416300361906344,0.3249988356978637,34.70449,112.5234,183.2711,0.7886859,-0.1882327,0.5369868,12
18.16,2.495373,1.319568,-33.48846,-0.249068436216204,0.0092128523529323,0.337615434879206,38.13681,112.8272,183.0,0.7823415,-0.2012753,0.529785,12
18.18,2.594952,1.514242,-33.5385,-0.2836017601888186,-0.0535898680675973,0.3584991380410844,41.56926,113.1245,182.7395,0.7752802,-0.2141304,0.5221018,12
18.2,2.693942,1.705844,-33.58871,-0.314844728914607,-0.1142855547122188,0.3778538756279301,45.0017,113.4165,182.4889,0.7675092,-0.2267861,0.5139447,12
18.22,2.651343,1.114997,-33.55588,-0.3201384081391968,-0.0604458310482479,0.3785931128869055,43.27229,111.8706,181.7645,0.7667685,-0.2183577,0.5253056,12
18.24,2.749481,1.315124,-33.60461,-0.3228454805043621,-0.0912447627975055,0.3798127614080142,46.64622,112.0717,181.3941,0.7588685,-0.2304369,0.5169796,12
18.26,2.847335,1.51227,-33.65365,-0.3217617877587432,-0.1194476912856725,0.3789227158072421,50.02005,112.2522,181.0168,0.7502952,-0.2423087,0.5081994,12
18.28,2.944747,1.706449,-33.70292,-0.3170750011537738,-0.1484538583501219,0.3761026059835641,53.39365,112.4091,180.6281,0.7410569,-0.2539631,0.4989728,12
18.3,3.009141,1.107155,-33.7154,-0.2965781118960469,-0.064459585650436,0.3627088262857834,53.30116,109.1792,177.703,0.7334965,-0.2452492,0.5104384,12
18.32,3.105264,1.305427,-33.76273,-0.2673053795223069,-0.0941936997814381,0.3473112985261632,56.60108,109.0657,177.0015,0.7240517,-0.2562314,0.5006047,12
18.34,3.201018,1.500855,-33.81031,-0.2347870977244105,-0.1227124932941415,0.3297424642584019,59.89893,108.8604,176.2187,0.7139874,-0.266992,0.4903466,12
18.36,3.42436,1.109007,-33.90331,-0.2065162600050147,-0.063010320621134,0.3117237126402168,62.64352,100.2074,167.8988,0.6868894,-0.2624871,0.5028319,12
18.38,3.51809,1.297587,-33.95108,-0.1756199294216605,-0.0040706030914143,0.2918619954576771,65.77545,98.72655,165.7444,0.6761921,-0.2718279,0.4915321,12
18.4,3.610955,1.483447,-33.99885,-0.1227843822832912,-0.0467739237090276,0.2669350256047957,68.87642,96.71467,163.0674,0.6649369,-0.2809407,0.479831,12
18.42,3.702819,1.666635,-34.04655,-0.0681503880066689,-0.0908189774719714,0.2408307986772637,71.93094,93.91104,159.6057,0.6531328,-0.2898194,0.4677375,12
18.44,3.944101,1.177962,-34.13467,-0.0213209188079064,-0.026504774863817,0.215301963669261,52.12808,100.9442,171.1596,0.712366,-0.2254101,0.5439095,12
18.46,4.039963,1.355932,-34.1825,0.0367213362559664,-0.0291065823603846,0.1853696700401554,55.24707,100.3271,169.8261,0.7040046,-0.2355251,0.5337746,12
18.48,4.134412,1.531087,-34.23011,0.0963503443560749,-0.0320886295656772,0.1547802652972487,58.35516,99.51838,168.3136,0.6950785,-0.2454492,0.5232156,12
18.5,4.227306,1.703509,-34.27742,0.1572799087830945,-0.0385998852315057,0.1237434697273469,61.44838,98.46035,166.5632,0.6855975,-0.2551771,0.5122402,12
18.52,4.308735,1.239697,-34.32381,0.2020050246450349,0.0460246357014553,0.0963930233749144,32.04934,108.5469,175.3603,0.7861538,-0.1294753,0.5516969,12
18.54,4.414561,1.409922,-34.37675,0.2452010592627567,0.0377814285709205,0.0700477803411807,35.48717,108.7603,174.9239,0.7813298,-0.143033,0.5431851,12
18.56,4.518415,1.576718,-34.42929,0.2888753176051977,0.0291337524669308,0.0434495311387541,38.92567,108.9496,174.4837,0.7757818,-0.1564573,0.5341745,12
18.58,4.596157,1.268071,-34.46674,0.3270201595051289,0.0868778051132023,0.0219319422011219,8.194525,114.5236,177.563,0.8396326,-0.02079014,0.5380191,12
18.6,4.705724,1.435113,-34.5228,0.3621185268432794,0.1421536463752282,0.0021517154634436,11.74736,114.9741,177.5388,0.8398306,-0.0369762,0.5326918,12
18.62,4.813075,1.59845,-34.57834,0.3817099675321731,0.1031343466154398,-0.0065615070866833,15.2993,115.4293,177.5431,0.8392068,-0.05312211,0.5268483,12
18.64,4.918008,1.758229,-34.63325,0.4006333233171846,0.1340552026073786,-0.015692853402343,18.85007,115.8932,177.5772,0.8377627,-0.0692118,0.5204945,12
18.66,5.017717,1.291558,-34.65647,0.4166598402121564,0.1639437082197913,-0.022615027915628,352.2223,118.2304,179.0294,0.8558992,0.04206449,0.5126066,12
18.68,5.129672,1.453774,-34.71306,0.4293299261670464,0.1900539159567276,-0.0269997051040453,355.8003,118.6582,179.2688,0.8593972,0.02417455,0.509954,12
18.7,5.2391,1.612152,-34.76902,0.4247509778381613,0.1181940330523872,-0.0168712525101177,359.3754,119.0995,179.5343,0.8620383,0.00626554,0.5067977,12
18.72,5.30126,1.269933,-34.77317,0.4183747266779094,0.0606982272182316,-0.0041610837205192,354.0944,118.8227,180.0049,0.8597013,0.02617683,0.5081932,12
18.74,5.411859,1.433163,-34.82683,0.4204653888566163,0.0997844195324974,9.497809356506792e-05,357.6323,119.2504,180.3361,0.8625787,0.007917048,0.5054924,12
18.76,5.520012,1.592706,-34.87991,0.403817998046702,0.0655728738776454,0.0193955474994655,1.166592,119.6976,180.6934,0.8646116,-0.01034545,0.5023013,12
18.78,5.625519,1.748725,-34.93232,0.3849320327511301,0.0325014162750035,0.0413742513664283,4.696918,120.168,181.0793,0.8657988,-0.02859257,0.4986233,12
18.8,5.728192,1.794732,-34.98394,0.3767874610409414,0.0734956475085205,0.0549631559450727,8.222848,120.6652,181.4971,0.8661395,-0.04680657,0.4944624,12
18.82,5.639209,1.240707,-34.90983,0.3655047350241831,0.1125347553313532,0.0710266663509662,3.955563,119.4746,182.0737,0.8627532,-0.0330099,0.5041226,12
18.84,5.750135,1.407037,-34.9645,0.3284717097913143,0.0526209006963175,0.110548348958944,7.56414,119.9584,182.4174,0.8630697,-0.051219,0.5003189,12
18.86,5.858764,1.569628,-35.01864,0.2903390853066874,-0.0058481602303355,0.1521674203464149,11.16925,120.4687,182.7955,0.8625076,-0.06937265,0.4960108,12
18.88,5.827663,1.217478,-34.96662,0.2681375651261022,0.0329197920074924,0.1811293576595023,11.87607,119.2819,183.364,0.8563409,-0.07745567,0.5051088,12
18.9,5.937602,1.389803,-35.02074,0.2435364033537075,0.0705692605808501,0.2121991042686977,15.48897,119.8058,183.6848,0.8546696,-0.0951024,0.5003848,12
18.92,6.045596,1.55845,-35.07447,0.1812800047555187,0.0051015898845963,0.2653994759905771,19.0977,120.3609,184.0467,0.8521289,-0.1126478,0.4951561,12
18.94,6.006569,1.18321,-35.02096,0.1367448471849213,0.020150366606927,0.3051116536618199,17.39813,118.7596,183.9245,0.8475267,-0.1061184,0.5076468,12
18.96,6.113563,1.363763,-35.07341,0.0920242727859479,0.0366596737912154,0.3460175360833384,20.9681,119.2949,184.1942,0.8445933,-0.1229371,0.5022967,12
18.98,6.219121,1.540825,-35.12567,0.0216748290751407,-0.0277026477350559,0.4033111403723861,24.5344,119.8622,184.5074,0.8408232,-0.1396294,0.4964534,12
19.0,6.323052,1.71449,-35.17764,-0.0477411444468527,-0.0890826257956841,0.4618939706714071,28.09626,120.4687,184.8701,0.8362213,-0.1561767,0.4901233,12
19.02,6.250861,1.145504,-35.09573,-0.0844861950227402,-0.0442080094648331,0.49901236240777,24.59737,115.1073,184.0662,0.8199539,-0.1434606,0.5302444,12
19.04,6.355041,1.33623,-35.14496,-0.1196345322722367,0.0004453133203302,0.5363966833641678,28.1141,115.5712,184.1093,0.8155537,-0.1588228,0.5241604,12
19.06,6.458395,1.523675,-35.19426,-0.1797625582101985,-0.0661500538977173,0.5893504256258852,31.62893,116.0545,184.1874,0.8103743,-0.174028,0.5175793,12
19.08,6.560749,1.707891,-35.24355,-0.2370413350884825,-0.1295190615009343,0.6427640748148908,35.14206,116.5631,184.305,0.8044204,-0.1890634,0.5105076,12
19.1,6.475367,1.12487,-35.16598,-0.2628312733912898,-0.0808929890136168,0.6735585991559638,32.0672,111.1738,183.5504,0.7876762,-0.180584,0.5499694,12
19.12,6.577489,1.321811,-35.21249,-0.294602949273913,-0.1159098441542992,0.7084361051818595,35.51545,111.4978,183.3366,0.7818654,-0.1945012,0.5431173,12
19.14,6.67916,1.515631,-35.25924,-0.322553034802191,-0.147490867505066,0.7424136539932897,38.96365,111.82,183.1379,0.7753335,-0.2082356,0.5357685,12
19.16,6.780207,1.706356,-35.30614,-0.3323108579003369,-0.0912191433023743,0.7629321413074539,42.41174,112.1428,182.9549,0.7680873,-0.2217751,0.5279298,12
19.18,6.773912,1.115015,-35.284,-0.3379617722207919,-0.0352242395287293,0.7816189411696648,43.27922,109.4065,181.7572,0.7552919,-0.2246858,0.5416401,12
19.2,6.874152,1.315149,-35.32871,-0.3398192692783419,0.0021382184760664,0.7985949908591623,46.66048,109.5787,181.3766,0.7474375,-0.237341,0.5332902,12
19.22,6.974128,1.512294,-35.37373,-0.3552880324882048,-0.0891548716838949,0.8216608082918517,50.04152,109.7274,180.9859,0.7389182,-0.2497822,0.52447,12
19.24,7.063258,1.109992,-35.39835,-0.3452946692170053,-0.0632117540140451,0.8307885563036574,50.66051,107.5232,178.7464,0.7317418,-0.2449232,0.5305048,12
19.26,7.161577,1.309318,-35.44176,-0.3300287410251117,-0.035675056797779,0.8375592859180534,53.97133,107.4922,178.1517,0.7228381,-0.2567166,0.5210063,12
19.28,7.259602,1.50578,-35.48545,-0.30976180385168,-0.0099004099156145,0.8420824412603976,57.28076,107.3947,177.5014,0.7133145,-0.2682875,0.5110648,12
19.3,7.357176,1.699392,-35.52936,-0.2680907686727898,-0.0996277277930343,0.8446558590819286,60.58837,107.2107,176.7742,0.7031797,-0.2796254,0.5006893,12
19.32,7.488908,1.104385,-35.57048,-0.2181353065075111,-0.0723718682550534,0.839793632139652,61.21001,101.329,171.2529,0.6883757,-0.271003,0.5139443,12
19.34,7.584662,1.295467,-35.61418,-0.1646909373133334,-0.0445785715353168,0.8324924208649058,64.40419,100.3252,169.6323,0.6779348,-0.2812845,0.5028794,12
19.36,7.67969,1.483822,-35.65796,-0.0900627809797183,-0.0909146352102183,0.8231470105957008,67.58117,98.95171,167.6505,0.6669327,-0.2913284,0.491402,12
19.38,7.773855,1.669491,-35.70174,-0.0321684894660541,-0.0513112917519427,0.8186126799495943,70.73306,97.03178,165.1292,0.6553772,-0.3011284,0.4795207,12
19.4,8.005146,1.161472,-35.76975,0.0269473758326228,-0.0113583743585463,0.812586788953884,55.8094,95.36989,168.731,0.6812522,-0.2493805,0.5580794,12
19.42,8.102507,1.341177,-35.81307,0.0870366848777344,0.0258457955444526,0.8051732095034438,58.88511,94.27467,166.9126,0.6722676,-0.259452,0.5474699,12
19.44,8.198545,1.518095,-35.85624,0.160698027853827,-0.0309364737447255,0.7942850538689257,61.93784,92.8646,164.7905,0.6627414,-0.2693122,0.5364233,12
19.46,8.367957,1.228418,-35.92554,0.2138438532301747,0.0094069709938089,0.7882549931244283,37.89346,103.681,174.725,0.7521369,-0.166175,0.5720108,12
19.48,8.473584,1.400293,-35.97106,0.2664693560717079,0.0491907547405442,0.7815228313303226,41.24007,103.7369,174.13,0.7463719,-0.1794723,0.5629696,12
19.5,8.577371,1.568928,-36.01629,0.3182175096706079,0.0854312448089686,0.7741985549277999,44.58598,103.7469,173.5066,0.7399482,-0.1926083,0.5534359,12
19.52,8.679156,1.734423,-36.06117,0.3557946958586608,0.0253654320026734,0.7693317221565588,47.93219,103.7032,172.8453,0.7328691,-0.2055801,0.5434145,12
19.54,8.777358,1.268208,-36.10098,0.3961578975128965,0.0576698763534482,0.7635108976412148,8.192518,111.2824,177.5596,0.8240826,-0.02277126,0.5615487,12
19.56,8.889415,1.435437,-36.15047,0.4351154336719849,0.0893105666931854,0.7578842238944894,11.72886,111.7108,177.5312,0.8243369,-0.0396001,0.5563945,12
19.58,8.999267,1.598989,-36.19955,0.4722134780280802,0.1174477104760965,0.7526290081958562,15.26504,112.1434,177.5298,0.8237926,-0.05638998,0.5507058,12
19.6,9.106707,1.759015,-36.24812,0.5064443562558121,0.121918669251014,0.7502943738186758,18.80012,112.5838,177.5566,0.8224513,-0.07312113,0.544489,12
19.62,9.126316,1.285307,-36.23225,0.5388072375753488,0.1270914728249193,0.748975313586004,353.3216,114.5352,178.7153,0.8393714,0.04090814,0.5403133,12
19.64,9.240722,1.448825,-36.28199,0.5687964258716498,0.1301346134039694,0.7488684936521395,356.8923,114.9494,178.9199,0.8426694,0.02252322,0.5376659,12
19.66,9.352665,1.608545,-36.33125,0.5850698220861914,0.0580060777919811,0.7558164799984661,0.4605067,115.3753,179.1499,0.8451326,0.004121502,0.5344904,12
19.68,9.461936,1.764627,-36.37992,0.600045332629809,0.0776499925546755,0.7597224739673853,4.025835,115.8161,179.407,0.8467595,-0.0142794,0.5307904,12
19.7,9.472995,1.269897,-36.34543,0.6111543100895009,0.0968537362300129,0.7655716214178074,354.1041,114.8609,179.9889,0.8416208,0.02776654,0.5376149,12
19.72,9.587177,1.433044,-36.39173,0.6067934417639296,0.0418683752438857,0.7778891107338799,357.6528,115.2682,180.3038,0.8444954,0.008725476,0.5351645,12
19.74,9.698879,1.592488,-36.43761,0.6063028561262662,0.0617026749788278,0.7844569654062443,1.19809,115.6942,180.6436,0.8465403,-0.01031843,0.5321926,12
19.76,9.70421,1.246198,-36.39759,0.602012036924386,0.0815588736483825,0.792541406631635,1.371098,113.1682,181.5552,0.834469,-0.01791582,0.5507581,12
19.78,9.820239,1.411341,-36.44138,0.59345333136792,0.098698566401209,0.8023325559350356,4.985694,113.613,181.8472,0.8355421,-0.03728534,0.547466,12
19.8,9.933867,1.572724,-36.4848,0.5802050318663421,0.0953681665422641,0.8140156351510415,8.597334,114.0794,182.1704,0.8357652,-0.05661875,0.5436209,12
19.82,10.04487,1.730513,-36.52778,0.5242059926991254,0.0003226688171591,0.8407717753566875,12.20515,114.5717,182.5272,0.8351389,-0.07588947,0.5392277,12
19.84,9.996277,1.217551,-36.42365,0.4952214107457675,0.0115306142833224,0.8502000434262422,11.88163,111.1534,183.32,0.8184141,-0.08225207,0.564504,12
19.86,10.11249,1.389926,-36.46296,0.4642365158256512,0.0237365025477627,0.8607937935493863,15.50276,111.6453,183.5946,0.8169639,-0.1014398,0.5598493,12
19.88,10.22674,1.558612,-36.50212,0.4040765420041448,-0.0422235800110365,0.882109568187972,19.12037,112.1649,183.9075,0.8146814,-0.1205194,0.5546283,12
19.9,10.3388,1.723739,-36.54103,0.3637443849734481,-0.0288156777416557,0.8887365164339087,22.73404,112.7186,184.2644,0.8115702,-0.1394776,0.5488458,12
19.92,10.20213,1.183297,-36.43962,0.3226600191410904,-0.0137019679983231,0.8959568729641463,17.39865,109.5497,183.8902,0.8040677,-0.1145966,0.5740206,12
19.94,10.31585,1.363921,-36.47522,0.2804521194247791,0.000192491950244,0.9040025587434376,20.97185,110.0515,184.123,0.801451,-0.1332365,0.5686355,12
19.96,10.42813,1.541053,-36.51082,0.2268658449492104,-0.0134532949585453,0.908847660329588,24.54191,110.582,184.3962,0.7980407,-0.1517397,0.5626915,12
19.98,10.36157,1.153229,-36.44031,0.1746431287883816,-0.0224642293472442,0.9136411194013752,23.05347,105.4597,184.0277,0.7750056,-0.148335,0.5985819,12
20.0,10.473,1.342057,-36.47151,0.1234964078626896,-0.0299968069339577,0.9186039549196724,26.57464,105.9035,184.0749,0.7713483,-0.1660009,0.5925099,12
20.02,10.58353,1.527578,-36.50288,0.0557867329831378,-0.1215748926979909,0.93144588759949,30.09395,106.3653,184.1555,0.7669529,-0.1835034,0.585874,12
20.04,10.69295,1.709852,-36.53435,0.0158563228090355,-0.0997236394687265,0.9247729358954492,33.61153,106.8507,184.2737,0.7618238,-0.2008277,0.5786811,12
20.06,10.61561,1.124962,-36.45889,-0.021614158590907,-0.0756020705157145,0.9173222913449736,32.06632,99.72668,183.5173,0.7289613,-0.2005042,0.6257273,12
20.08,10.72488,1.32197,-36.48513,-0.0569106089669793,-0.0524514882673125,0.9093141033188452,35.51945,100.0095,183.2669,0.723704,-0.2167648,0.6185067,12
20.1,10.83375,1.515848,-36.51167,-0.0903037796090235,-0.0485383106274457,0.9009704051569178,38.97259,100.2859,183.0266,0.7177776,-0.2328209,0.6107181,12
20.12,10.87412,1.115629,-36.5019,-0.1206436796755716,-0.0575564238036989,0.8802070823940484,41.83363,97.93729,182.3578,0.6996675,-0.2488164,0.6186215,12
20.14,10.98136,1.315518,-36.52635,-0.1464967993964685,-0.0623056712013106,0.8578875480419619,45.22191,98.08636,181.9632,0.6927367,-0.2639238,0.6099924,12
20.16,11.0884,1.512404,-36.55114,-0.1681117754857597,-0.0661762968418306,0.8342269738177954,48.60989,98.20954,181.5562,0.6851873,-0.2787917,0.6008226,12
20.18,11.19505,1.7063,-36.57622,-0.1906269718940554,-0.1568170445830824,0.8118795851668708,51.99748,98.30246,181.1312,0.6770265,-0.2934076,0.5911204,12
20.2,11.30114,1.790571,-36.60155,-0.1932638723631021,-0.1301382052828192,0.7783048501948189,55.38442,98.35863,180.6803,0.6682624,-0.3077582,0.5808953,12
20.22,11.28552,1.110014,-36.57278,-0.191350418938955,-0.1018513741154061,0.7431195975176204,50.66183,95.64766,178.7377,0.6729538,-0.2798649,0.603328,12
20.24,11.39074,1.309353,-36.59526,-0.1851363159181662,-0.0753093799388323,0.7065515749243865,53.97736,95.58525,178.1299,0.6649387,-0.2940676,0.5930873,12
20.26,11.49573,1.505822,-36.61805,-0.1537524894715742,-0.074777960406246,0.6648450287700447,57.29133,95.45204,177.4619,0.6563522,-0.3080142,0.5823408,12
20.28,11.60033,1.699435,-36.64112,-0.119605392266151,-0.0717924963544134,0.6217788814928538,60.60312,95.22649,176.711,0.6472022,-0.3216927,0.5710984,12
20.3,11.82228,1.108991,-36.66312,-0.0829389078278803,-0.0696663602970625,0.5775907710770491,62.64254,85.43146,167.8873,0.6165639,-0.3186654,0.5869447,12
20.32,11.92517,1.297581,-36.68566,-0.0233170920483924,-0.1430810413425507,0.5319297009723059,65.77805,83.87511,165.6963,0.6071278,-0.330921,0.5746069,12
20.34,12.02724,1.483445,-36.70838,0.0324941177133486,-0.1017850718541121,0.4853778544684273,68.88055,81.77184,162.9663,0.5971913,-0.3428986,0.5617978,12
20.36,12.25541,1.161393,-36.72929,0.0892560048386519,-0.0604610829732117,0.4385120422446791,55.81862,83.20604,168.75,0.6182211,-0.290812,0.6271464,12
20.38,12.3596,1.34111,-36.75056,0.146744290303403,-0.0222269720978181,0.3915677013228844,58.89363,82.11008,166.9552,0.6103441,-0.3033502,0.615734,12
20.4,12.46248,1.518052,-36.77196,0.2047541479424812,-0.0052283794629977,0.344778533828177,61.946,80.70185,164.8589,0.601977,-0.3156419,0.6038316,12
20.42,12.56388,1.692297,-36.79344,0.2439761504396744,0.0101625922726691,0.3012689470042735,64.96712,78.87498,162.3537,0.5931304,-0.3276796,0.5914479,12
20.44,12.75438,1.240077,-36.83046,0.283810608499996,0.0268989900415137,0.2583889588341286,32.02753,93.25724,175.356,0.7058119,-0.1609812,0.6514097,12
20.46,12.86862,1.410854,-36.85324,0.3239306837285145,0.0419093012382545,0.2163717257002062,35.41238,93.42657,174.9149,0.7020167,-0.1775631,0.6427053,12
20.48,12.98093,1.578309,-36.87609,0.3494944168865119,0.0547147087350295,0.1795957494161051,38.7973,93.56984,174.4666,0.697592,-0.1939821,0.6334296,12
20.5,13.09112,1.742545,-36.89899,0.3741086251662593,0.0687452980875128,0.1445001056426802,42.18359,93.68453,174.0067,0.6925399,-0.2102327,0.6235878,12
20.52,13.10729,1.26819,-36.90108,0.3973492668774656,0.0810401319683873,0.1113581155441965,8.20191,99.39954,177.5616,0.7615252,-0.03005822,0.6438304,12
20.54,13.22716,1.435407,-36.92617,0.4188246857500091,0.0887031143145948,0.0804417946145914,11.7393,99.80744,177.5344,0.7621937,-0.04947948,0.6388658,12
20.56,13.34478,1.598953,-36.95131,0.4368960150987999,0.0949912483250263,0.0544205060208664,15.27598,100.2193,177.5328,0.7621246,-0.06884833,0.6332877,12
20.58,13.45995,1.758973,-36.97643,0.4522525543221003,0.1019766626859944,0.03175498961195,18.81158,100.6385,177.558,0.7613184,-0.08814602,0.6271018,12
20.6,13.54285,1.2916,-36.96917,0.4644048371117648,0.1068223919191123,0.0127589455187191,352.2198,102.9443,179.0246,0.7801151,0.04890081,0.6218893,12
20.62,13.66558,1.453884,-36.99395,0.4648404850454697,0.0364893904007976,0.0021047944382903,355.7939,103.331,179.2572,0.7837106,0.02784171,0.6200075,12
20.64,13.78574,1.612342,-37.01874,0.4753922793739451,0.0590000124224521,-0.0138026798043187,359.3653,103.7307,179.5133,0.7865282,0.006760962,0.617515,12
20.66,13.82615,1.270003,-37.00349,0.4818605687214186,0.0809527140889652,-0.0253264561110961,354.0921,103.4227,179.9998,0.7838565,0.03193294,0.6188001,12
20.68,13.94696,1.433254,-37.02559,0.4838070499486187,0.099648976633551,-0.0321649315063341,357.6294,103.8091,180.3243,0.7868485,0.01053645,0.6167932,12
20.7,14.06527,1.592827,-37.04774,0.4808405342222115,0.0973754636454734,-0.0340262458501987,1.163238,104.2147,180.6722,0.7890724,-0.01086382,0.6141886,12
20.72,14.10208,1.246153,-37.0392,0.4563139235657063,0.0851701545366052,-0.0346482529395775,1.360481,103.973,181.5979,0.7876315,-0.01829565,0.6158746,12
20.74,14.22375,1.411251,-37.06226,0.4294344849079521,0.0752684052811555,-0.031274443828221,4.968566,104.3999,181.9318,0.7888521,-0.03987047,0.6128219,12
20.76,14.343,1.572602,-37.08535,0.3997781790431856,0.0648425280275258,-0.0236065448281665,8.573606,104.8509,182.2951,0.7892721,-0.06140066,0.6091518,12
20.78,14.45959,1.730368,-37.10844,0.359703607708262,0.0542046793197532,-0.0160159416787193,12.17458,105.33,182.6915,0.7888917,-0.08286277,0.6048684,12
20.8,14.57331,1.778061,-37.13147,0.3178513797669939,0.0468094154072961,-0.0049449536547312,15.77103,105.8421,183.1252,0.7877123,-0.1042351,0.5999765,12
20.82,14.41735,1.217452,-37.06237,0.2738255005085888,0.0397779397583034,0.0098975494419404,11.87515,104.2075,183.3739,0.78268,-0.08661772,0.6130769,12
20.84,14.53773,1.389719,-37.08546,0.2272710634829158,0.0302907675402252,0.0288006202173445,15.4915,104.6918,183.7027,0.7814201,-0.1076357,0.6084506,12
20.86,14.65614,1.558305,-37.10863,0.1692129387098249,0.0153952020556334,0.0408777565431739,19.1039,105.2072,184.0702,0.7793651,-0.1285385,0.6032096,12
20.88,14.58312,1.183232,-37.0658,0.1104486108206943,0.0046922431532329,0.0553688758435617,17.39401,103.6268,183.9249,0.773307,-0.1200336,0.614828,12
20.9,14.70007,1.363773,-37.08828,0.0506321937135338,-0.0048292215003701,0.0725451737132694,20.96531,104.1201,184.1929,0.770882,-0.1401561,0.6094179,12
20.92,14.81561,1.540826,-37.11091,-0.0326230692771041,-0.0963420153554286,0.1007887542106305,24.53318,104.6444,184.5017,0.7676945,-0.1601346,0.6034092,12
20.94,14.9295,1.714487,-37.13365,-0.0790879310688437,-0.0797907588020189,0.1110285563176303,28.09687,105.2064,184.8568,0.7637488,-0.1799468,0.5968087,12
20.96,14.81764,1.145537,-37.07325,-0.1246542989563597,-0.0607544566281112,0.1228661784008249,24.5909,100.0067,184.066,0.7431834,-0.1633413,0.6333919,12
20.98,14.93096,1.336259,-37.09356,-0.1696243482171584,-0.0423205463324565,0.1365428507510735,28.10808,100.4283,184.1063,0.7393938,-0.1820033,0.6270525,12
21.0,15.04352,1.523707,-37.11411,-0.1876923974549891,0.0416414261926119,0.1363933746384349,31.62346,100.8675,184.1785,0.7348994,-0.2004851,0.6201189,12
21.02,15.03223,1.124884,-37.08186,-0.2400290683008528,0.0035076041582075,0.1484170761519223,32.06088,96.10789,183.5506,0.7087916,-0.206643,0.6484935,12
21.04,15.14283,1.321828,-37.10022,-0.2889852920214872,-0.0308178226734528,0.1611278737879482,35.50948,96.38963,183.3336,0.7036989,-0.2238385,0.6411935,12
21.06,15.25306,1.515657,-37.11888,-0.3347892644804173,-0.0646366425051794,0.1747203638193566,38.95794,96.6674,183.1283,0.6979588,-0.2408235,0.6333075,12
21.08,15.36273,1.706397,-37.13782,-0.3627141783310321,-0.0701060797972834,0.1763400212163102,42.40619,96.9428,182.9348,0.6915769,-0.2575829,0.6248431,12
21.1,15.47167,1.787421,-37.157,-0.3859801831154374,-0.0712844722224755,0.1775055084103769,45.85413,97.2177,182.7535,0.6845596,-0.2741013,0.6158085,12
21.12,15.39165,1.114993,-37.12891,-0.4048544443279831,-0.0715598924829491,0.1783831115904401,43.27057,94.89198,181.7731,0.6808036,-0.2599091,0.6327674,12
21.14,15.49982,1.315108,-37.1468,-0.4094073610702646,0.014388688782947,0.173658233620058,46.65221,95.03012,181.4021,0.6738571,-0.275698,0.6237199,12
21.16,15.60781,1.512241,-37.16502,-0.4125563798556642,-0.0137655533688532,0.1707896169468394,50.03346,95.14335,181.0184,0.6663126,-0.2912383,0.6141229,12
21.18,15.6808,1.109994,-37.16629,-0.4114261748877252,-0.0393905083258012,0.167509085295701,50.65137,93.06944,178.754,0.659197,-0.2871141,0.6183876,12
21.2,15.78673,1.309323,-37.1837,-0.4062504808477487,-0.0658928935728918,0.1639720442700927,53.96229,92.99874,178.1604,0.6513451,-0.3018913,0.6080765,12
21.22,15.89246,1.505795,-37.20143,-0.3753323213562134,-0.1632707064826838,0.1586733053728206,57.27159,92.85822,177.5072,0.6429362,-0.3164065,0.597249,12
21.24,15.99782,1.699423,-37.21943,-0.3241063535281387,-0.1321714977325672,0.145324130078321,60.57878,92.62657,176.7719,0.6339775,-0.3306481,0.5859148,12
21.26,16.24093,1.108947,-37.24397,-0.2699434500876037,-0.1006863910265783,0.1312777885510048,62.64154,83.48335,167.9217,0.6064015,-0.3258825,0.5974687,12
21.28,16.3445,1.297517,-37.26249,-0.2131124308920489,-0.0720644068978388,0.1166945603823919,65.77954,81.93567,165.762,0.5971184,-0.3386353,0.5850414,12
21.3,16.44726,1.483367,-37.28121,-0.1538695774233915,-0.064581120248214,0.1017423030207407,68.88514,79.84578,163.0678,0.5873433,-0.351103,0.5721359,12
21.32,16.69526,1.161322,-37.30429,-0.0994346756236836,-0.052949145857171,0.0884673059036709,55.82751,81.62364,168.7642,0.6094469,-0.296079,0.6356375,12
21.34,16.8,1.341022,-37.32224,-0.0435979209031205,-0.0393157389128215,0.075045907510268,58.90511,80.52187,166.9858,0.6016451,-0.3090315,0.6241947,12
21.36,16.90343,1.517951,-37.34034,0.0133850409567175,-0.0268301340987697,0.0616249032167832,61.96014,79.10869,164.9065,0.593361,-0.3217332,0.6122558,12
21.38,17.0054,1.692187,-37.35855,0.0598562177716988,-0.0083721593749703,0.0454367758375324,64.98412,77.27741,162.4185,0.5846044,-0.3341755,0.59983,12
21.4,17.10576,1.757152,-37.37684,0.1070426063134615,0.0113685672390963,0.0292379118049357,67.96432,74.86434,159.3568,0.5753801,-0.3463473,0.5869285,12
21.42,17.21564,1.240051,-37.40051,0.1545644184603882,0.0293085858269084,0.0131715450311897,32.03299,92.00771,175.3648,0.6986462,-0.1635338,0.659074,12
21.44,17.33035,1.410816,-37.42036,0.2020680831615151,0.0424204253089712,-0.0026169024600815,35.41825,92.16179,174.932,0.6948437,-0.1804513,0.6504391,12
