t,pX,pY,pZ,aX,aY,aZ,reX,reY,reZ,rtX,rtY,rtZ,ID
0.34,-42.41587,1.091564,-39.93835,2.241165278157572,-0.2441791015483082,2.9208204578383548,11.70188,357.0495,167.1105,-0.01401097,-0.1041377,0.9884709,2
0.36,-42.52364,1.275863,-40.04488,2.297656843647622,-0.2323393759995112,2.969422914314745,8.690358,357.614,170.5213,-0.01443103,-0.07720488,0.9936314,2
0.38,-42.61358,1.458304,-40.13364,2.355861235189012,-0.2664416380818031,3.017776925044198,6.103232,357.9458,173.3892,-0.01480123,-0.05417055,0.9968156,2
0.4,-42.63241,1.654042,-40.15068,2.410542546266991,-0.2738376200272286,3.0623371763291694,5.617178,357.9194,173.9942,-0.01554204,-0.04987411,0.9973096,2
0.42,-42.6512,1.785616,-40.16771,2.473269088195884,-0.299280883171363,3.10984617508742,5.129163,357.8882,174.6006,-0.01628169,-0.04555529,0.9977592,2
0.44,-42.49164,1.155166,-40.01086,2.532567090811682,-0.2993464666286234,3.153963553130202,15.05163,355.0039,163.8334,-0.02438161,-0.1356242,0.9814063,2
0.46,-42.47823,1.156852,-39.94204,2.588101589721316,-0.2759281590068851,3.1943007895951023,18.18407,355.2814,165.6868,-0.02066262,-0.1617209,0.979723,2
0.48,-42.49411,1.352473,-39.92547,2.638734553645903,-0.2980693817242457,3.221600971926323,18.7383,355.3372,166.1405,-0.02021771,-0.1663143,0.9794405,2
0.5,-42.50998,1.547952,-39.90893,2.6862651704996976,-0.2953910667482602,3.2460598264353973,19.29461,355.3983,166.5968,-0.01976791,-0.1709224,0.9791179,2
0.52,-42.52583,1.743285,-39.89243,2.730321769763293,-0.2698029977471856,3.267264201013333,19.85255,355.4648,167.0567,-0.01931237,-0.1755412,0.978756,2
0.54,-42.54166,1.831823,-39.87599,2.763191428231128,-0.2907206998257892,3.270862880127389,20.41024,355.5364,167.5192,-0.01885482,-0.1801553,0.9783561,2
0.56,-42.35104,1.198804,-39.66578,2.793218887573276,-0.2869833262312074,3.2719670530803784,9.299469,8.501839,171.246,0.0798348,-0.07496685,0.9906095,2
0.58,-42.34868,1.388717,-39.61526,2.8210220853687886,-0.3051251174805782,3.268557628471436,10.81206,8.439065,171.3866,0.08009987,-0.08819159,0.9895296,2
0.6,-42.34634,1.577992,-39.565,2.845681772354033,-0.2990732874260711,3.2627131416812176,12.3273,8.379279,171.5235,0.08035068,-0.1014208,0.9882713,2
0.62,-42.20296,1.219439,-39.42658,2.8668343819039785,-0.2707133173913751,3.254037725310325,2.404403,15.64697,174.3625,0.1369493,-0.01406793,0.9891354,2
0.64,-42.18007,1.392529,-39.32117,2.8768253887145123,-0.2880372760293859,3.2296160198616723,5.611979,15.57156,174.5293,0.1374678,-0.04199044,0.9881497,2
0.66,-41.99656,1.265768,-39.14494,2.883693941646348,-0.2814232683122251,3.20337472411585,356.9641,21.41809,178.3203,0.1853551,0.02874874,0.9822055,2
0.68,-41.95483,1.419482,-39.00331,2.8808029563741933,-0.3024793076111863,3.1624994032885114,1.261473,21.32581,178.6656,0.1851327,-0.008662859,0.9825831,2
0.7,-41.91426,1.567887,-38.86518,2.8749618331413496,-0.2987818541993695,3.1198100181306625,5.5612,21.2592,179.0054,0.1846488,-0.04607826,0.9815685,2
0.72,-41.83682,1.258687,-38.95274,2.856962233067134,-0.3197221772722264,3.060409700314759,356.0874,25.57017,180.6979,0.2213643,0.03194335,0.9745746,2
0.74,-41.76139,1.250641,-38.8855,2.8368324902242,-0.3156425223906893,2.9999356854660864,359.3905,27.77204,181.4135,0.2400333,0.00220287,0.9706718,2
0.76,-41.71589,1.415804,-38.77339,2.8084625038823283,-0.33617077738638,2.927468515276772,2.93311,27.69208,181.7396,0.2388306,-0.02847851,0.9706055,2
0.78,-41.67134,1.57738,-38.66337,2.778440104440774,-0.3311231257337221,2.854350118913982,6.476693,27.63198,182.0611,0.237398,-0.05913461,0.9696029,2
0.8,-41.63644,1.23769,-38.72144,2.746465090548746,-0.3024198048590878,2.780332120883436,6.185932,30.60759,182.6475,0.2622798,-0.05811762,0.963207,2
0.82,-41.58492,1.404901,-38.60978,2.6940487523986274,-0.324061402057072,2.6827149365493552,9.80849,30.57002,182.9977,0.2604086,-0.08930878,0.9613556,2
0.84,-41.54612,1.217305,-38.61287,2.6409978182361016,-0.3190339850378155,2.585325306381293,11.87768,32.87523,183.4501,0.2783375,-0.1076656,0.9544299,2
0.86,-41.49179,1.389902,-38.50562,2.575741834899317,-0.34128412138783,2.4739157667979894,15.45142,32.87622,183.8188,0.2759592,-0.1382075,0.9511599,2
0.88,-41.43839,1.558959,-38.39998,2.510400380708214,-0.3356984100468504,2.3631767394400613,19.02402,32.90157,184.1945,0.2733109,-0.1686045,0.9469564,2
0.9,-41.45001,1.190591,-38.48897,2.4447704522098963,-0.304264149516285,2.253038047101386,16.09437,34.79848,183.8764,0.2913963,-0.1435209,0.9457234,2
0.92,-41.39256,1.369211,-38.38575,2.358932729374226,-0.3263769858998683,2.121352193764463,19.65194,34.82292,184.2357,0.2886231,-0.1736213,0.9414283,2
0.94,-41.37579,1.16786,-38.39082,2.274096166049153,-0.3194431087600122,1.9913776097840576,20.14897,34.6302,184.2073,0.2867098,-0.1776451,0.9412403,2
0.96,-41.31754,1.352424,-38.29108,2.178376668913791,-0.3405004742052949,1.8504544966274912,23.6716,34.64864,184.4863,0.2835621,-0.2070601,0.9360133,2
0.98,-41.25991,1.533705,-38.19223,2.084247084910265,-0.3314111798104083,1.711897527852373,27.19314,34.68689,184.7746,0.2801462,-0.2362701,0.9298983,2
1.0,-41.28865,1.145102,-38.26995,1.991621681878792,-0.2942326599024485,1.5758014408021823,24.62896,33.68416,184.1449,0.2755014,-0.2142324,0.9367087,2
1.02,-41.22831,1.335891,-38.17443,1.8823220223297463,-0.3128711114117919,1.4235449992813771,28.12054,33.63761,184.2325,0.2718987,-0.2427563,0.9305093,2
1.04,-41.21086,1.12854,-38.15959,1.77320594567352,-0.3290377317288789,1.271210348626118,30.06878,31.9324,183.7681,0.2573118,-0.2579913,0.9303587,2
1.06,-41.14943,1.324195,-38.06749,1.666999376986963,-0.313718738064806,1.1223997405521642,33.51578,31.7761,183.6333,0.2532095,-0.2854841,0.9229918,2
1.08,-41.08827,1.516822,-37.97567,1.5636899286805974,-0.2690058543549606,0.9773355108282296,36.96144,31.60297,183.481,0.2488794,-0.3127105,0.9147908,2
1.1,-41.09575,1.11862,-38.00398,1.45211213155192,-0.2804926805361527,0.8226784111947723,37.43063,30.71277,183.0373,0.2425315,-0.315949,0.9152409,2
1.12,-41.03295,1.317306,-37.91487,1.3443055008031894,-0.2600379233813961,0.6727235390656032,40.83154,30.40351,182.6821,0.2378022,-0.3422832,0.9062857,2
1.14,-40.97261,1.114969,-37.86441,1.2395415932301803,-0.2661268456945301,0.524569612022411,43.2926,31.54917,181.7545,0.2472175,-0.3588103,0.8959039,2
1.16,-40.90892,1.315209,-37.77781,1.1386507928423732,-0.2401464317764953,0.3816110471767802,46.64968,31.17274,181.3421,0.2422483,-0.3842469,0.8856919,2
1.18,-40.84535,1.512588,-37.69125,1.04202873914637,-0.1840958019276713,0.2432774439706042,50.0037,30.73327,180.8674,0.2370713,-0.409344,0.8747168,2
1.2,-40.82409,1.112889,-37.68158,0.9454093002179284,-0.1848966267274569,0.1052522899417978,48.09213,31.14115,179.5453,0.2466864,-0.3915412,0.8792628,2
1.22,-40.76015,1.313306,-37.59689,0.853572323259244,-0.1537093560015262,-0.0267442555151724,51.40313,30.63454,178.9926,0.2416969,-0.4161696,0.8680168,2
1.24,-40.64285,1.103673,-37.46106,0.7798969094585289,-0.1487536415265948,-0.142463686681606,56.54583,29.7006,176.1942,0.2407976,-0.4501032,0.8467845,2
1.26,-40.5788,1.299691,-37.37894,0.7098050841709282,-0.1127584683085297,-0.252152358004504,59.79715,28.80994,175.2457,0.2355038,-0.4734344,0.8337891,2
1.28,-40.49083,1.10453,-37.27612,0.6433269789075213,-0.0477090690796284,-0.3553731449604225,61.23074,25.58576,171.1748,0.2282067,-0.4804969,0.828079,2
1.3,-40.42683,1.295714,-37.19531,0.5851655177013777,-0.0322465624634592,-0.4474833736874801,64.39673,23.99716,169.4843,0.2229388,-0.5028971,0.8140874,2
1.32,-40.2762,1.129018,-37.01583,0.5301424774190817,0.013164486265629,-0.5318980667273081,60.93915,19.91281,166.7391,0.2056927,-0.4788967,0.833117,2
1.34,-40.21249,1.313203,-36.93443,0.4899093244635892,0.0417973042019051,-0.5996598231999437,63.98603,17.7662,164.414,0.2007337,-0.5008684,0.8191077,2
1.36,-40.14944,1.494768,-36.85375,0.4521743616468798,0.0991624947757894,-0.658658859025886,66.98409,15.04307,161.5145,0.1956171,-0.5224366,0.8044506,2
1.38,-40.05167,1.178401,-36.74794,0.4347867242537937,0.1103068953095046,-0.6939438772478654,52.02742,24.20202,171.2626,0.2205167,-0.4132435,0.869163,2
1.4,-39.98782,1.35648,-36.6646,0.4354529999047782,0.120306023234862,-0.7042528404685946,55.13034,23.05816,169.9458,0.216228,-0.4361506,0.8571532,2
1.42,-39.84117,1.22855,-36.53243,0.4513165714132094,0.0803992827892586,-0.6975458659447193,37.79183,30.34383,174.738,0.2616986,-0.3008664,0.9082788,2
1.44,-39.76983,1.399813,-36.44115,0.4763582089293399,0.0426518423399001,-0.6739773885944498,41.19826,29.85269,174.0976,0.2582919,-0.3270917,0.8986148,2
1.46,-39.6997,1.567789,-36.35127,0.4840348029736372,0.1182334869978,-0.6592114745387718,44.59915,29.28054,173.3802,0.2546536,-0.3530153,0.8881422,2
1.48,-39.63662,1.257054,-36.32572,0.487543212638128,0.1480005853238534,-0.6503796741685566,19.99706,35.60159,176.5869,0.3058549,-0.1562716,0.9356681,2
1.5,-39.56032,1.424962,-36.23086,0.4996031953354105,0.1742192415698328,-0.6289900846099901,23.55679,35.42749,176.3427,0.3039086,-0.1848451,0.9300745,2
1.52,-39.48544,1.589234,-36.13761,0.5216595394621057,0.1479984197446456,-0.5949616523550079,27.11569,35.23107,176.0785,0.3016677,-0.2132377,0.9235793,2
1.54,-39.46409,1.27191,-36.14478,0.5528643946706469,0.1144287483571746,-0.5474034716368488,2.270928,40.14363,177.9563,0.3434078,-0.01249041,0.9388083,2
1.56,-39.38598,1.438338,-36.05009,0.5934648205041881,0.085855038044967,-0.4863032730961878,5.842091,40.06142,177.9698,0.3428732,-0.04180948,0.9378321,2
1.58,-39.30239,1.285348,-35.9686,0.6077304666576016,0.1013729555420285,-0.4489276163415274,353.2992,42.50306,178.7366,0.3612209,0.05845422,0.9305823,2
1.6,-39.22396,1.448679,-35.87223,0.6280255489927766,0.1126953585133378,-0.402892738153497,356.8871,42.40429,178.9206,0.3612715,0.02872707,0.9320176,2
1.62,-39.14717,1.608237,-35.77769,0.654475757120367,0.1163663960911091,-0.3485544859388074,0.4744199,42.31727,179.0982,0.3609675,-0.001020194,0.9325361,2
1.64,-39.12379,1.295957,-35.77377,0.6545827029948352,0.1206169268837663,-0.3195032361536345,353.4759,43.57296,179.5201,0.3703228,0.05438973,0.9271494,2
1.66,-39.0461,1.456822,-35.67614,0.6579723326488152,0.1235256828935759,-0.2901874347848361,357.0546,43.4664,179.8084,0.3701223,0.02449278,0.9286261,2
1.68,-39.01469,1.262014,-35.66835,0.6373850457648054,0.1181695578179052,-0.2828903641297637,355.7632,44.72211,180.5913,0.3803533,0.03222282,0.9240882,2
1.7,-38.93731,1.425921,-35.57457,0.6168084818262631,0.1143205218292116,-0.2819649352076414,359.3075,44.62684,180.886,0.3796979,0.002655464,0.9250587,2
1.72,-38.92455,1.25006,-35.58572,0.5927711094996413,0.0616436118195349,-0.2963126355402599,359.4719,45.63278,181.3783,0.3877982,-0.0004161492,0.9216543,2
1.74,-38.8443,1.414523,-35.49221,0.5638550008699177,0.077713007422716,-0.284045350273737,3.086181,45.55683,181.6684,0.3866253,-0.03046083,0.9217289,2
1.76,-38.80669,1.237592,-35.47561,0.5298804609258756,0.1180935423637034,-0.2676097726783117,6.207259,46.79328,182.6067,0.3952788,-0.0586965,0.9166838,2
1.78,-38.72455,1.404656,-35.38317,0.4821195603355317,0.0826810969786734,-0.2766439150988171,9.854515,46.75434,182.9167,0.3931814,-0.08887576,0.915092,2
1.8,-38.64398,1.567983,-35.29235,0.4348127982487098,0.0476903017826481,-0.2877655064127511,13.50087,46.73523,183.2282,0.3906839,-0.1189556,0.9125668,2
1.82,-38.69384,1.217247,-35.36218,0.3824723937342167,0.0328160476810519,-0.2903073902413684,11.91748,47.56874,183.3659,0.3981538,-0.1067349,0.9109626,2
1.84,-38.61115,1.389689,-35.27328,0.3301742238829481,0.020128869739957,-0.2947797829403571,15.53455,47.55395,183.6491,0.3953382,-0.1363346,0.9080009,2
1.86,-38.60986,1.190705,-35.28538,0.2796529007626427,0.0593834551356757,-0.2848074179140445,16.10431,48.75403,183.8164,0.4041949,-0.1411238,0.9032943,2
1.88,-38.52737,1.369295,-35.19994,0.2153127868540103,0.0185490763237219,-0.2996940096571583,19.68593,48.76414,184.1155,0.4008897,-0.1702064,0.8993611,2
1.9,-38.44598,1.544422,-35.11551,0.1515401374588316,-0.0206118683544139,-0.315692359920555,23.26639,48.79485,184.4226,0.3971917,-0.1991128,0.8945448,2
1.92,-38.50533,1.168072,-35.18843,0.0913218412146017,-0.0361442205330924,-0.3173049192347239,20.16648,47.93042,184.0954,0.3939363,-0.1741728,0.9016448,2
1.94,-38.42302,1.352864,-35.10704,0.0320131165100079,-0.0486969880314304,-0.3188264046214231,23.70215,47.9094,184.2575,0.3901144,-0.20231,0.8968676,2
1.96,-38.42458,1.145162,-35.11608,-0.0204166107574081,-0.0049039462772248,-0.3046447394531926,24.63917,47.03415,184.1163,0.3825562,-0.2095169,0.8983064,2
1.98,-38.34284,1.335951,-35.03733,-0.083386342339355,-0.0450867282047625,-0.3099631070980999,28.14702,46.97823,184.1737,0.378234,-0.2369472,0.892547,2
2.0,-38.26164,1.523568,-34.95903,-0.1446747390259499,-0.0832424297258008,-0.3144494449380746,31.65332,46.92385,184.2278,0.3735577,-0.2641391,0.885955,2
2.02,-38.3091,1.12859,-35.0137,-0.1914115957499218,-0.0375894313020295,-0.2921707273461447,30.0681,45.40486,183.7505,0.3647049,-0.2513647,0.8937445,2
2.04,-38.24519,1.121727,-34.96392,-0.2463465941041622,-0.0770489312782968,-0.2876072247366199,34.74428,44.59971,183.2693,0.3541175,-0.2864647,0.8858805,2
2.06,-38.16314,1.319652,-34.89164,-0.2916152186251119,-0.0841221232634011,-0.2726922518001511,38.15211,44.33438,182.9594,0.3486561,-0.3117737,0.8781239,2
2.08,-38.08131,1.514619,-34.81948,-0.3339668695526026,-0.0886933478330316,-0.2549387602888577,41.55771,44.03107,182.6127,0.3428867,-0.3367983,0.8695884,2
2.1,-38.07871,1.115515,-34.84347,-0.373445528440766,-0.0941219032528227,-0.2347309256847292,41.88219,45.17611,182.3803,0.351801,-0.3373711,0.8649711,2
2.12,-37.99604,1.315467,-34.77398,-0.4054276318482177,-0.0995701825182142,-0.2077258359695717,45.25407,44.81698,181.9767,0.345678,-0.3616962,0.8557336,2
2.14,-37.91882,1.11366,-34.72702,-0.4339208104064829,-0.1028031729503246,-0.1770813754641302,46.40985,45.50273,180.3781,0.3542459,-0.3645337,0.8480862,2
2.16,-37.83645,1.314104,-34.65949,-0.4546671268999613,-0.1048145637238959,-0.1356881584725657,49.73611,45.07464,179.9114,0.3480466,-0.3881453,0.8378652,2
2.18,-37.75179,1.512406,-34.59826,-0.4723828576392082,-0.1050568083081492,-0.0910917339529149,53.01342,43.66042,179.0085,0.3363408,-0.4114035,0.8292431,2
2.2,-37.69778,1.107449,-34.57029,-0.4871325082182132,-0.106917776358124,-0.0436501811168765,53.42909,43.52803,177.4342,0.3404706,-0.4099816,0.8256451,2
2.22,-37.61237,1.306139,-34.50665,-0.487416746807698,-0.108103940862637,0.0216405566948045,56.77996,41.94969,176.3221,0.3289919,-0.4336305,0.8155539,2
2.24,-37.43291,1.104883,-34.3732,-0.4849193671440099,-0.1085282773568236,0.0896192146405185,61.24511,37.44439,170.8188,0.3139416,-0.4587721,0.7993066,2
2.26,-37.35163,1.296429,-34.31081,-0.4769341217319489,-0.100742337883379,0.1646372370023909,64.41264,34.58003,168.5937,0.3008039,-0.4813766,0.7881596,2
2.28,-37.2713,1.485408,-34.24833,-0.4675846616574937,-0.0926561523373536,0.241070392596665,67.51754,31.00093,165.6532,0.287313,-0.5035497,0.7763303,2
2.3,-37.15902,1.129167,-34.15608,-0.4605547093761366,-0.0292264081921785,0.3153967215744808,60.9357,30.33459,166.5229,0.2813767,-0.4595503,0.8105766,2
2.32,-37.08287,1.313711,-34.08935,-0.4469056368732476,-0.0387627915849452,0.3914407634429562,63.94114,26.89646,163.7652,0.2680287,-0.4819478,0.7994058,2
2.34,-36.9261,1.178735,-33.96226,-0.4455380706477534,0.0035109097143694,0.4534928752789628,51.99972,32.93461,171.0894,0.2866662,-0.3993257,0.8496705,2
2.36,-36.85334,1.357335,-33.89045,-0.4442840077771892,0.0445342096742929,0.5149186038026912,55.05085,30.68828,169.4989,0.2744622,-0.4223242,0.8404153,2
2.38,-36.77097,1.211904,-33.82886,-0.4287995861196894,0.0154246441489214,0.5780721521671843,43.06169,35.69496,173.7831,0.3036219,-0.3333666,0.8780518,2
2.4,-36.69443,1.385824,-33.74977,-0.4182433560250054,0.0572521734181257,0.6377195912114697,46.34441,33.97111,172.7047,0.2919617,-0.3584825,0.8701295,2
2.42,-36.57063,1.250822,-33.65921,-0.3999927125711755,0.0523431566169586,0.6948367877969419,26.11192,38.69971,175.8223,0.3303248,-0.2012357,0.9157842,2
2.44,-36.49029,1.420246,-33.5731,-0.3944079633481197,0.0908191867728031,0.743738646286582,29.59192,37.44382,175.1959,0.3201964,-0.2286459,0.9114435,2
2.46,-36.41215,1.586288,-33.48778,-0.3911788317541935,0.1270005788126354,0.7894316941750383,33.05917,36.09735,174.457,0.3097534,-0.2558324,0.9061718,2
2.48,-36.38857,1.268422,-33.46867,-0.389805624759056,0.0897076261592894,0.8198761052637784,8.026603,40.99023,177.4499,0.3506413,-0.05776966,0.9336285,2
2.5,-36.31121,1.435865,-33.37666,-0.3892833695066864,0.120973242069825,0.8571288816550715,11.57767,39.98973,177.2133,0.3423964,-0.0864826,0.9338161,2
2.52,-36.22735,1.279423,-33.2854,-0.384587251408294,0.1055492421027217,0.8917781806797169,354.4057,42.53743,178.3317,0.3616099,0.05074597,0.9309385,2
2.54,-36.15292,1.444514,-33.18931,-0.3832404533932863,0.088001197206857,0.9228644143745036,357.9806,41.57964,178.3242,0.354607,0.02166223,0.9347354,2
2.56,-36.08086,1.606025,-33.09443,-0.3776169641454583,0.1372059663131214,0.9645550260398807,1.553818,40.62258,178.2571,0.3472419,-0.007435678,0.9375545,2
2.58,-36.04686,1.293955,-33.05895,-0.3778335674734174,0.1130066721975317,0.9854290780367224,352.8472,41.36551,179.2011,0.3520901,0.06081554,0.9338595,2
2.6,-35.97759,1.455639,-32.95682,-0.3827843957943893,0.1342574489599591,1.0044367326570995,356.4414,40.39829,179.3275,0.3449409,0.0311645,0.9380926,2
2.62,-35.91079,1.61364,-32.85621,-0.3899783390608222,0.1035762865261835,1.0085598405703695,0.03633592,39.44181,179.393,0.3374357,0.001489004,0.9413338,2
2.64,-35.92778,1.269719,-32.89856,-0.4011363272183041,0.071918061480375,1.0080063092035343,354.1075,40.60901,179.9444,0.3465274,0.04837287,0.9366307,2
2.66,-35.86293,1.433332,-32.79722,-0.4086460293592946,0.1067322350450767,1.0154995456773777,357.6512,39.64374,180.1214,0.339046,0.01892202,0.940546,2
2.68,-35.82275,1.250326,-32.77361,-0.4252280048041337,0.0676145493473241,0.996942649725082,359.4461,40.33278,181.3145,0.3447729,0.0005828424,0.9386036,2
2.7,-35.75713,1.415148,-32.67152,-0.4382834274223572,0.0809614655923463,0.9870259093359652,3.055195,39.38592,181.4882,0.3365054,-0.02947174,0.9412147,2
2.72,-35.71824,1.237768,-32.62887,-0.4567174472949435,0.0442163118650949,0.9606616475528686,6.203776,39.66426,182.5341,0.3375601,-0.05838101,0.9394888,2
2.74,-35.6529,1.405123,-32.5259,-0.4684593981890863,0.0580959427750727,0.9456507378382616,9.855897,38.7409,182.7158,0.3284353,-0.08884851,0.940318,2
2.76,-35.58972,1.56887,-32.42429,-0.4834710232807717,0.0711200407873873,0.9264135979620538,13.50947,37.81813,182.8395,0.318962,-0.1192114,0.9401236,2
2.78,-35.61904,1.217433,-32.48222,-0.5051704053834873,0.0564795782545536,0.8878407795151375,11.91936,38.50983,183.2887,0.3250416,-0.1073917,0.9395542,2
2.8,-35.55503,1.390173,-32.38127,-0.529438841935927,0.0437981476614663,0.846008713384458,15.54327,37.59894,183.4361,0.3153155,-0.1375266,0.9388421,2
2.82,-35.54085,1.190977,-32.37794,-0.5610443254425581,-0.0227405383030774,0.7861467306127774,16.10802,37.95393,183.705,0.3175292,-0.1428309,0.9373055,2
2.84,-35.47751,1.369947,-32.27988,-0.575485492574713,-0.0115094147052796,0.7466858987500418,19.69892,37.04883,183.8315,0.3074287,-0.1725709,0.9355074,2
2.86,-35.41577,1.545591,-32.18259,-0.5918909352320334,2.657501590846989e-05,0.7046018399729168,23.2902,36.13066,183.8995,0.2970136,-0.2021207,0.9327255,2
2.88,-35.44915,1.168356,-32.24827,-0.6092364176386793,-0.0153102288815009,0.6503129761921902,20.1584,35.25447,184.0002,0.2921466,-0.1770962,0.9396163,2
2.9,-35.38779,1.353497,-32.15271,-0.6274234764930311,-0.0279003239846722,0.594932506963068,23.6976,34.31524,184.0054,0.2816832,-0.2061617,0.9366837,2
2.92,-35.37461,1.145558,-32.14932,-0.6466478629523067,-0.0408444418116473,0.5381251817416666,24.6236,32.59452,183.9839,0.2668875,-0.2140698,0.9392577,2
2.94,-35.31411,1.336795,-32.056,-0.6535502048140778,-0.057346223828798,0.4844094592270846,28.13012,31.59219,183.8421,0.2560664,-0.2425663,0.9350823,2
2.96,-35.2547,1.524996,-31.9628,-0.6602464658165514,-0.0706784963478834,0.4309669036636872,31.63228,30.54521,183.6241,0.2449987,-0.2708083,0.9299679,2
2.98,-35.27725,1.128856,-32.0098,-0.6544726968349117,-0.0256718354590641,0.3910007234362997,30.05945,28.98653,183.6495,0.2335878,-0.258637,0.9366496,2
3.0,-35.21914,1.32494,-31.9183,-0.6559324824479678,-0.0656132513025342,0.3338873496203356,33.50201,27.88038,183.3275,0.2224676,-0.2863043,0.930988,2
3.02,-35.16188,1.518135,-31.82668,-0.656430240104938,-0.1037273217329936,0.2780015551584944,36.93749,26.70319,182.9086,0.2111393,-0.3136847,0.9244196,2
3.04,-35.1767,1.118819,-31.87283,-0.6357994745726696,-0.1127820299165479,0.2371296261608924,37.43453,26.60556,182.9512,0.2098138,-0.3177966,0.9232963,2
3.06,-35.11521,1.115682,-31.81067,-0.6109180849488114,-0.088832513177323,0.2023835970177314,41.86116,27.09332,182.308,0.2117421,-0.3516338,0.9095304,2
3.08,-35.05735,1.315948,-31.72265,-0.5846281170028691,-0.0646278545047159,0.1703978773149459,45.21514,25.7779,181.7526,0.2001667,-0.3778372,0.9011061,2
3.1,-35.00017,1.513482,-31.63431,-0.5608375814673217,-0.1276662188494333,0.1292628309147918,48.55756,24.32973,181.0456,0.1884126,-0.4036798,0.8918406,2
3.12,-34.98326,1.113833,-31.63939,-0.5238927701958085,-0.1021579151635535,0.105371123068978,46.38131,26.10099,180.3071,0.2065355,-0.3841758,0.8956932,2
3.14,-34.92695,1.314587,-31.55196,-0.477497296553647,-0.1342600289443207,0.0928859716411589,49.69337,24.70109,179.6753,0.1952558,-0.4099156,0.8861768,2
3.16,-34.84324,1.107195,-31.45216,-0.4294830882224802,-0.1062349945162624,0.0867681662569705,53.34869,24.53294,177.6093,0.1989573,-0.4346141,0.8709926,2
3.18,-34.78795,1.305825,-31.36596,-0.380863701726442,-0.0787054214276012,0.0839857752251673,56.60986,22.85133,176.6895,0.1877638,-0.4595354,0.8599153,2
3.2,-34.73338,1.50188,-31.27953,-0.3322751749697334,-0.0550854023154654,0.0853412057425186,59.85154,20.90546,175.4917,0.1764102,-0.4840347,0.8480706,2
3.22,-34.64254,1.104629,-31.16574,-0.2703902660334014,-0.0553795405242608,0.1028484610368396,61.22092,18.84137,171.0975,0.1794342,-0.4898827,0.8400123,2
3.24,-34.58969,1.296071,-31.07993,-0.2095126577128665,-0.0552183585294183,0.1239875238294652,64.36827,16.22086,169.1922,0.1685328,-0.5137258,0.8270749,2
3.26,-34.4614,1.129061,-30.90653,-0.1528910709396971,-0.0445340678844781,0.1493939710989744,60.93361,12.87009,166.6727,0.1544154,-0.4892311,0.8441123,2
3.28,-34.41125,1.313491,-30.81893,-0.0987508213922074,-0.0336175329414344,0.1775470431166108,63.95151,9.723951,164.1665,0.1438868,-0.5127234,0.8309825,2
3.3,-34.36226,1.495447,-30.73184,-0.0472765843054734,-0.0256516332103983,0.2082438983532455,66.89259,5.867912,160.9419,0.1332424,-0.5357673,0.8171408,2
3.32,-34.27452,1.178447,-30.63736,0.0026887486070661,-0.0105140554891764,0.23383725866011,52.03186,16.54281,171.1972,0.162215,-0.4228566,0.8818588,2
3.34,-34.22672,1.356773,-30.54652,0.0500207442280666,0.0044661631780365,0.262120747774297,55.11214,14.44474,169.7344,0.1520712,-0.447134,0.8707943,2
3.36,-34.18027,1.532542,-30.45651,0.0932127173374341,0.0203371886586536,0.2834712537558235,58.15495,12.0225,167.936,0.1418071,-0.4710259,0.8589975,2
3.38,-34.03362,1.240021,-30.34797,0.13356048226811,0.035475992630428,0.3070240167990357,31.92472,24.23686,175.3373,0.2126091,-0.2604445,0.9368913,2
3.4,-33.98023,1.41054,-30.24609,0.1692024231041076,0.0950109953882715,0.3338368954027397,35.34556,23.00142,174.7643,0.2033596,-0.288498,0.9299369,2
3.42,-33.87165,1.264134,-30.15632,0.2004899536276152,0.0827705000080654,0.3455381486234117,13.79015,28.96025,177.1479,0.2510517,-0.1100241,0.9601872,2
3.44,-33.81609,1.432562,-30.05224,0.2209528334392247,0.1147039448374148,0.3570153680186618,17.27629,27.98243,176.9175,0.2428641,-0.1392558,0.9580024,2
3.46,-33.76244,1.597589,-29.94953,0.2412509100772926,0.0991976046260073,0.3646216572027017,20.75878,26.96982,176.6186,0.2344427,-0.1683546,0.9548631,2
3.48,-33.70617,1.275945,-29.92947,0.2564786038917512,0.0819975415014779,0.3722897738144306,358.353,32.11345,178.1479,0.276301,0.01827972,0.9608281,2
3.5,-33.6498,1.441981,-29.8227,0.2742810186277928,0.1322992327214292,0.3893040109320611,1.906193,31.20005,178.128,0.2691089,-0.01162657,0.9628278,2
3.52,-33.5438,1.291607,-29.70874,0.2944369579795767,0.1121654234524369,0.4025740235414945,352.2119,33.67311,179.0204,0.2884077,0.06746813,0.9550586,2
3.54,-33.48866,1.453868,-29.5984,0.307666852071188,0.1378915469499953,0.4149174163616385,355.806,32.747,179.16,0.2814441,0.0371716,0.9588519,2
3.56,-33.43569,1.612443,-29.48987,0.3148063829860295,0.1607100855999787,0.4248618825386918,359.4007,31.83298,179.2411,0.274193,0.006845118,0.9616378,2
3.58,-33.39681,1.282776,-29.49738,0.3108971993777549,0.1063542936244345,0.4101088392731746,353.7781,33.76846,179.7284,0.289887,0.05261766,0.9555181,2
3.6,-33.34439,1.445114,-29.38745,0.3070931684892075,0.1204610401357512,0.4021888328236325,357.3354,32.84377,179.9335,0.2826185,0.02246603,0.9589505,2
3.62,-33.27872,1.25463,-29.35008,0.2996632921492237,0.0846007258633171,0.3825832154943347,357.4461,34.19164,181.1145,0.2940909,0.0184414,0.9554683,2
3.64,-33.22535,1.419172,-29.24216,0.2876400644123649,0.0482701151608975,0.3601301420887832,1.013563,33.28203,181.3102,0.2862475,-0.01174798,0.9580469,2
3.66,-33.17402,1.580202,-29.13593,0.2831596132261778,0.0834225038435146,0.3554788100223405,4.58273,32.38276,181.4496,0.2781157,-0.04191697,0.9596323,2
3.68,-33.15768,1.240511,-29.17276,0.2669463628320239,0.0445456155264699,0.3253046246997573,4.029466,34.30921,182.032,0.2941268,-0.03881403,0.9549555,2
3.7,-33.10271,1.406825,-29.06369,0.2510543852847506,0.0571810616810215,0.3046523010436011,7.67675,33.42589,182.2374,0.2856254,-0.06970423,0.955803,2
3.72,-33.06383,1.226402,-29.04169,0.2314820205668146,0.0687906468257175,0.2816707918703884,10.34003,34.39892,183.1337,0.2920323,-0.094102,0.9517678,2
3.74,-33.00814,1.397119,-28.93521,0.2002865055270044,0.0539298553496521,0.2356105713423426,13.95917,33.53567,183.3199,0.282866,-0.1245953,0.9510031,2
3.76,-32.95428,1.564325,-28.8301,0.1665298882890393,0.0407797454214682,0.1880228811055602,17.57968,32.67012,183.4523,0.2734074,-0.1549482,0.9492274,2
3.78,-32.96878,1.199712,-28.90941,0.1231218473135964,-0.0260835850006673,0.1201234543839238,14.77204,34.41262,183.6212,0.2893324,-0.1320078,0.9480481,2
3.8,-32.91255,1.376606,-28.80631,0.0915889887164951,-0.0152533371272211,0.0743112640843284,18.36193,33.56057,183.7884,0.2797989,-0.1620962,0.9461597,2
3.82,-32.89029,1.175776,-28.80542,0.0526920367711261,-0.0581721250368528,0.013749716210496,18.74883,33.56869,184.0255,0.2792608,-0.1658566,0.9456817,2
3.84,-32.8338,1.358731,-28.7054,0.0199875670094753,-0.0436452633558238,-0.0330808146438084,22.3084,32.70657,184.1276,0.2693767,-0.1954516,0.9427692,2
3.86,-32.77866,1.538457,-28.60603,-0.0137760155166959,-0.0287173359257328,-0.0800832853078423,25.86797,31.82811,184.1731,0.2592241,-0.2248371,0.9388883,2
3.88,-32.80129,1.153142,-28.67818,-0.0600667562412513,-0.0974776135811389,-0.1502881495978174,23.07266,30.97145,184.0112,0.2546992,-0.2017662,0.9455188,2
3.9,-32.7454,1.342322,-28.58137,-0.0924206646761276,-0.0824209584581742,-0.1960266372101626,26.58118,30.05056,183.9501,0.2444997,-0.2305939,0.9414394,2
3.92,-32.6906,1.528437,-28.48487,-0.124474992895887,-0.0667112626742044,-0.2405078260486526,30.08699,29.09541,183.8221,0.2340647,-0.2591805,0.936421,2
3.94,-32.68929,1.128787,-28.52035,-0.1553574066655501,-0.0779919757826364,-0.2852310213836175,30.06021,27.61447,183.6809,0.2222847,-0.2591058,0.9393865,2
3.96,-32.63396,1.324763,-28.42673,-0.18515828938092,-0.0863339124034829,-0.3278350085099126,33.51201,26.57093,183.3944,0.2116391,-0.2869752,0.9334683,2
3.98,-32.57947,1.517832,-28.33306,-0.2139158310402882,-0.0950564316856799,-0.368639297962301,36.95763,25.46144,183.017,0.2007959,-0.3145572,0.9266433,2
4.0,-32.57981,1.118819,-28.3659,-0.2352720043503389,-0.1039105326297559,-0.4032165940699852,37.40886,25.3429,182.9669,0.1996054,-0.3181496,0.9256274,2
4.02,-32.52475,1.31781,-28.27451,-0.254383833294566,-0.1100674490923899,-0.4345549360709699,40.80294,24.14015,182.4711,0.1885952,-0.3450363,0.9179112,2
4.04,-32.46218,1.115099,-28.22442,-0.2700594482575553,-0.173393539982463,-0.4661092242810536,43.27941,25.6447,181.701,0.2009276,-0.3625951,0.9074566,2
4.06,-32.40698,1.315597,-28.13487,-0.2728940258329704,-0.1480579960054494,-0.4744260182677338,46.62836,24.37127,181.1558,0.189933,-0.388791,0.8984541,2
4.08,-32.35242,1.513368,-28.045,-0.2738422208809181,-0.0921205188482517,-0.4748139831064986,49.96645,22.96327,180.4586,0.1787709,-0.4146198,0.8886219,2
4.1,-32.32442,1.113021,-28.03788,-0.2725367099757685,-0.038091017211622,-0.4711682972929476,48.07275,24.43978,179.49,0.1950799,-0.3972236,0.8922018,2
4.12,-32.27002,1.313697,-27.94946,-0.2675695727708875,-0.10191757682361,-0.4686959429758328,51.37292,23.02252,178.7932,0.1843027,-0.4228101,0.8820929,2
4.14,-32.1604,1.103791,-27.80754,-0.2544129195841882,-0.0774360287544688,-0.4487369901987978,56.51698,22.67691,176.147,0.1886808,-0.4581259,0.8600123,2
4.16,-32.10727,1.300061,-27.72068,-0.2272398884604163,-0.1076379952103944,-0.4116337207627749,59.75455,20.85176,175.0389,0.1779692,-0.4826692,0.848078,2
4.18,-32.05491,1.493793,-27.63374,-0.2025437352357402,-0.0777464093642016,-0.3732588612894041,62.9687,18.69199,173.5845,0.1671079,-0.506776,0.8353986,2
4.2,-32.00338,1.685011,-27.54687,-0.176426212575409,-0.0488284634576755,-0.3319396768295752,66.15015,16.06353,171.6511,0.1561067,-0.5304278,0.8219848,2
4.22,-31.88873,1.118164,-27.40979,-0.1432787599089837,-0.0982133867015705,-0.2853102354731134,61.80347,13.25982,167.1465,0.1555449,-0.4958381,0.8403181,2
4.24,-31.83866,1.304806,-27.322,-0.1145308462826619,-0.0618904511812904,-0.2400844838859632,64.85712,10.16148,164.6651,0.1453479,-0.5193916,0.8268912,2
4.26,-31.71047,1.161829,-27.15507,-0.0849227075704504,-0.0266284965449363,-0.192623807778415,55.75818,13.42202,168.7462,0.1483353,-0.4520372,0.8682919,2
4.28,-31.66202,1.34176,-27.06467,-0.0521305719891311,-0.0088132287531645,-0.148791885751268,58.80437,10.90246,166.7962,0.1384011,-0.4759609,0.8561423,2
4.3,-31.61484,1.519135,-26.97504,-0.0190912903339639,0.0090742509999522,-0.1036697584614514,61.79591,7.922949,164.3772,0.1283571,-0.4994729,0.8432682,2
4.32,-31.52462,1.211906,-26.90742,0.0261378093892616,-0.019574693591825,-0.0551912781176753,43.05671,20.51565,173.9443,0.1844969,-0.351842,0.9106379,2
4.34,-31.47513,1.386006,-26.81075,0.0663318222228563,0.0227701365793722,-0.0059332860706491,46.31108,19.01651,173.0581,0.1750834,-0.3779197,0.9012133,2
4.36,-31.34985,1.250308,-26.71692,0.1069265695901888,0.0626397569223326,0.0440270717583626,26.17422,25.91499,175.9817,0.2260064,-0.2128739,0.9468615,2
4.38,-31.29405,1.419244,-26.61239,0.1485593085351455,0.0293163766688294,0.0815109783443364,29.68478,24.83096,175.5335,0.2174162,-0.2418821,0.9411656,2
4.4,-31.24009,1.584753,-26.50925,0.1763318582058635,0.0626296177587881,0.117496072284907,33.18749,23.67352,174.9887,0.2086131,-0.2706497,0.9345176,2
4.42,-31.18819,1.268135,-26.51629,0.2031292701000651,0.0937334499009959,0.1521938147604538,8.108395,30.37583,177.53,0.2627399,-0.06258235,0.962034,2
4.44,-31.13072,1.435324,-26.4102,0.2275556267848859,0.0998513115729451,0.1829423502079175,11.66852,29.47914,177.3828,0.255287,-0.09250021,0.9612414,2
4.46,-31.03946,1.279241,-26.33138,0.2500441717558876,0.1051946950546381,0.2119209468111389,354.4405,33.83812,178.3909,0.2899979,0.05047477,0.9556952,2
4.48,-30.98134,1.444166,-26.22426,0.2705469721786815,0.1068873359920624,0.2385359615393367,358.0171,32.96472,178.4476,0.2834269,0.02043385,0.9587422,2
4.5,-30.92528,1.605485,-26.11875,0.2880027049021416,0.1082759304483101,0.2616433136794627,1.593007,32.09592,178.4499,0.2765706,-0.00961931,0.9607979,2
4.52,-30.81546,1.296055,-26.02976,0.3030303304516986,0.1086977568685306,0.2827929743336903,353.473,34.73272,179.4692,0.2977415,0.05571326,0.9529364,2
4.54,-30.75959,1.457071,-25.91946,0.3078537976641708,0.152268326118489,0.300038010944712,357.0602,33.84974,179.6619,0.2909481,0.02539975,0.9563904,2
4.56,-30.70589,1.614383,-25.81104,0.3086230062241153,0.1189757808445437,0.2942430950738943,0.6489259,32.98081,179.7991,0.2838593,-0.004932417,0.9588478,2
4.58,-30.68854,1.262059,-25.85807,0.3070859804483645,0.0851750265543797,0.2849656010766246,355.7759,34.87497,180.5453,0.2996254,0.0337346,0.9533333,2
4.6,-30.63374,1.426143,-25.75093,0.3050650410615052,0.120783979682702,0.288766684782908,359.3275,34.00204,180.7435,0.292414,0.003715473,0.956252,2
4.62,-30.56903,1.245986,-25.70419,0.2934966903371796,0.0827041075321507,0.2660314520934497,1.435069,35.44054,181.5644,0.304155,-0.01608255,0.9524425,2
4.64,-30.51214,1.411186,-25.59622,0.2786076466069866,0.0969059135208591,0.251183594377895,5.065517,34.5899,181.7777,0.2963101,-0.04679488,0.9539434,2
4.66,-30.45729,1.57277,-25.48992,0.2576215220093591,0.0613572187027766,0.2190428897306109,8.69836,33.74725,181.938,0.2881572,-0.07745394,0.9544276,2
4.68,-30.45626,1.232067,-25.54268,0.2356926649317849,0.0263193455265372,0.1843267068044856,8.279027,35.23142,182.8419,0.3000429,-0.07626422,0.9508708,2
4.7,-30.39866,1.401018,-25.43584,0.2177822625265646,0.0635082772123959,0.1677186804964181,11.92007,34.40563,183.0377,0.2914239,-0.1069517,0.9505806,2
4.72,-30.34296,1.566388,-25.33046,0.1904132874794415,0.0221581236933321,0.1262215950368546,15.56245,33.58066,183.1821,0.2825011,-0.1375158,0.9492735,2
4.74,-30.37095,1.208642,-25.43114,0.164776998550681,0.034096594496437,0.0949890020459744,13.47214,35.61965,183.5121,0.3001825,-0.1209303,0.9461602,2
4.76,-30.31258,1.383366,-25.32763,0.1382107716824214,0.0462131140867169,0.0614112787681828,17.08307,34.81224,183.7023,0.2910922,-0.1512073,0.9445677,2
4.78,-30.30556,1.183156,-25.35453,0.0987982324844654,-0.0220393646734393,0.0012952171905897,17.42002,35.58477,183.8985,0.2969655,-0.1543807,0.9422185,2
4.8,-30.24653,1.364039,-25.2548,0.0697486267814433,-0.0096827999193054,-0.0332766060683056,20.99166,34.779,184.0506,0.2875382,-0.1841151,0.9396661,2
4.82,-30.22925,1.160737,-25.25325,0.040816243537415,0.0031795650436333,-0.0686513000197233,21.59492,33.55857,184.0936,0.2769877,-0.1893754,0.941805,2
4.84,-30.17043,1.347735,-25.15619,0.0071183446212703,-0.0115727928306467,-0.11039167194384,25.13821,32.7136,184.1167,0.2671917,-0.2185471,0.9381279,2
4.86,-30.11278,1.531575,-25.05956,-0.0256754059131183,-0.0230920056314242,-0.1517351809378215,28.68034,31.84415,184.081,0.2571333,-0.2474887,0.933502,2
4.88,-30.13705,1.139047,-25.1235,-0.0575656351987707,-0.0345745732199944,-0.193044862448529,26.32158,30.79855,183.9428,0.2508651,-0.2282754,0.940301,2
4.9,-30.07916,1.331952,-25.02969,-0.088120301744841,-0.0474000143591974,-0.2294889080524034,29.80242,29.87423,183.7882,0.2407421,-0.2565612,0.9353971,2
4.92,-30.02221,1.521871,-24.93598,-0.1166404958544435,-0.0569880623701664,-0.2639465220034611,33.27917,28.90458,183.561,0.230392,-0.2845848,0.9295785,2
4.94,-30.00948,1.121852,-24.94785,-0.1442648022599915,-0.1231059421193076,-0.3035052928434352,34.73955,27.45399,183.2275,0.2182177,-0.2962732,0.9287653,2
4.96,-29.95209,1.319978,-24.85683,-0.1616715106635529,-0.1005875714929814,-0.3219405849734378,38.15759,26.3585,182.8128,0.2075981,-0.3234516,0.9217303,2
4.98,-29.89541,1.515255,-24.76564,-0.1766320552616878,-0.0774163042234786,-0.3378013378106033,41.56738,25.17501,182.2899,0.1967885,-0.3503141,0.9138183,2
5.0,-29.88012,1.115669,-24.78935,-0.1891651378104333,-0.0569146087369675,-0.3514198727080533,41.86406,26.79837,182.3195,0.2093623,-0.3518448,0.9100701,2
5.02,-29.8227,1.315877,-24.7003,-0.1973238437438498,-0.0649533745495861,-0.3613880705558587,45.23147,25.58167,181.7823,0.1985112,-0.3781394,0.901413,2
5.04,-29.75722,1.113791,-24.63326,-0.2022878435704553,-0.0703349685913437,-0.3675324836836435,46.39288,26.40306,180.3244,0.2088285,-0.3840683,0.8951203,2
5.06,-29.70074,1.314484,-24.54552,-0.2013329128403693,-0.0739339558744226,-0.3626213198088464,49.71122,25.11021,179.7222,0.1982369,-0.4098023,0.8854485,2
5.08,-29.64486,1.512495,-24.45747,-0.1976794564039643,-0.0753120474814139,-0.35418818751788,53.01807,23.66349,178.9508,0.1874736,-0.4351577,0.8749772,2
5.1,-29.58968,1.707831,-24.36925,-0.1913444017105829,-0.0778827150850101,-0.3425228145271575,56.30983,22.0153,177.9642,0.1765485,-0.460112,0.8637168,2
5.12,-29.52497,1.103787,-24.31565,-0.1626589709174162,-0.0785342954343645,-0.2976722409489483,56.51973,23.67068,176.1489,0.1961226,-0.4570741,0.8583345,2
5.14,-29.47014,1.300032,-24.22937,-0.1322641821523826,-0.0783671453955462,-0.2503267208458517,59.76653,21.89006,175.0435,0.1856206,-0.4815956,0.8463842,2
5.16,-29.33457,1.109227,-24.05135,-0.1085460564849154,-0.019514361173661,-0.208778644850383,62.65815,16.16306,167.7793,0.1741983,-0.4990821,0.833127,2
5.18,-29.28163,1.298088,-23.96533,-0.0768517659821861,-0.0370560242206046,-0.1605699396280591,65.74747,13.17656,165.3958,0.1641134,-0.5225844,0.8196408,2
5.2,-29.22965,1.484467,-23.87961,-0.0443215269502954,-0.055571876976641,-0.1107366156332014,68.76994,9.434383,162.249,0.1538941,-0.5456269,0.8054524,2
5.22,-29.13893,1.144434,-23.77546,-0.0109218100511263,-0.0783226368613109,-0.0595947513040053,58.36277,13.98604,167.7943,0.157144,-0.4699055,0.8553637,2
5.24,-29.08846,1.326616,-23.6872,0.0286644158472713,-0.0618090259342559,-0.0052416312404397,61.39436,11.27278,165.6262,0.1473476,-0.4934755,0.8427243,2
5.26,-29.03918,1.506286,-23.59959,0.0683713494189683,-0.0453644641451245,0.0497957714147228,64.36456,8.006033,162.8965,0.1374343,-0.516622,0.8293774,2
5.28,-28.89388,1.212111,-23.45896,0.0963611441151601,0.0169489949849135,0.0932035373769117,43.03431,21.81585,173.9441,0.1948219,-0.350351,0.9085581,2
5.3,-28.84228,1.386487,-23.36439,0.1298003798148692,0.0087373813906596,0.1270765700256819,46.25967,20.36209,173.0635,0.1856424,-0.3760891,0.8992789,2
5.32,-28.70795,1.250401,-23.25363,0.1639591837592116,-0.0011522701101844,0.1616206486482903,26.12819,26.92263,175.9855,0.2343244,-0.2117535,0.9449319,2
5.34,-28.64998,1.419335,-23.15021,0.1921788698054438,0.0564743826464682,0.1995273867806619,29.63828,25.88093,175.5395,0.2260264,-0.2406595,0.9392436,2
5.36,-28.59384,1.584837,-23.04816,0.2261856291335862,0.0432169276890928,0.2281985245968822,33.14088,24.7677,175.0002,0.2175078,-0.2693274,0.9326103,2
5.38,-28.53509,1.268135,-23.0375,0.2489507791494434,0.0744070074909064,0.2564494473476255,8.122087,31.11539,177.525,0.2689462,-0.06243069,0.9603079,2
5.4,-28.4758,1.435332,-22.93235,0.2699740519507347,0.1036040157411301,0.2820038183186915,11.68183,30.25924,177.3761,0.2618298,-0.09226871,0.9594664,2
5.42,-28.41846,1.598985,-22.82868,0.2974019226646804,0.0616123973045864,0.3030157633167181,15.2379,29.38156,177.1701,0.2544536,-0.1220039,0.9576465,2
5.44,-28.31239,1.285418,-22.7531,0.3233504972479979,0.0887182740544559,0.3377251642967938,353.3095,34.76309,178.6891,0.2975679,0.05909612,0.9528477,2
5.46,-28.25312,1.449048,-22.64577,0.3466898294679126,0.1131874034345563,0.3693175525476087,356.8926,33.92696,178.7837,0.2913631,0.02902819,0.9561696,2
5.48,-28.19593,1.609028,-22.54013,0.3591573363556879,0.1117252357443425,0.3853036522997715,0.4757183,33.09876,178.8259,0.284865,-0.00106094,0.9585041,2
5.5,-28.14343,1.296102,-22.52652,0.3686855413178089,0.1099087398171951,0.3983128966850526,353.4722,35.21967,179.4775,0.3017922,0.05564366,0.9516614,2
5.52,-28.08653,1.457152,-22.41684,0.375257809909558,0.104937440488517,0.4077418732777658,357.0543,34.37739,179.6797,0.2953522,0.02538077,0.9550387,2
5.54,-28.03178,1.614502,-22.30903,0.3705929070971621,0.0922694564999411,0.3991831087776387,0.6379678,33.54963,179.829,0.2886142,-0.004899788,0.9574283,2
5.56,-27.98434,1.254691,-22.33582,0.3630366129183615,0.0803323855227119,0.3863082113507117,357.4321,36.05632,181.1239,0.3096009,0.01827158,0.9505521,2
5.58,-27.92723,1.419255,-22.22987,0.3526013252433606,0.066351552059582,0.3685433346345714,0.993317,35.23031,181.3369,0.3024936,-0.01179161,0.9530406,2
5.6,-27.87212,1.580307,-22.12558,0.3444464694950868,0.1235360897880569,0.3683524086316363,4.556182,34.41589,181.499,0.2950847,-0.04183403,0.9545546,2
5.62,-27.8677,1.240514,-22.17991,0.3232412981498287,0.0827878915530412,0.3345125720494457,4.019266,36.46655,182.0409,0.3120514,-0.03887028,0.9492514,2
5.64,-27.80833,1.406808,-22.07306,0.2990099318378783,0.093583773996796,0.3065683130318541,7.663968,35.66846,182.2624,0.3042639,-0.06963971,0.9500374,2
5.66,-27.78063,1.226415,-22.06946,0.2725284270339907,0.1037319065713325,0.2750635409098563,10.33025,36.76438,183.1413,0.3116139,-0.09400933,0.9455438,2
5.68,-27.72027,1.397109,-21.96541,0.2341943971718554,0.0357195627612808,0.2146747887279634,13.94724,35.9876,183.342,0.3031311,-0.1243664,0.9447463,2
5.7,-27.66172,1.564281,-21.86268,0.2029386628034384,0.0434344345340086,0.174734348367501,17.56549,35.21095,183.4949,0.2943375,-0.154584,0.9429557,2
5.72,-27.65959,1.190955,-21.91411,0.1644541398793784,-0.0014675264216544,0.1182033754529379,16.09235,37.00151,183.7492,0.3096831,-0.1429443,0.9399344,2
5.74,-27.59847,1.369812,-21.8144,0.1255257815952251,-0.0440130520764476,0.0590421957712887,19.67727,36.24082,183.931,0.3006907,-0.1728142,0.9376993,2
5.76,-27.53885,1.545327,-21.71555,0.0984577566888043,-0.0092360178910184,0.0275375016125365,23.26314,35.47437,184.0655,0.2913957,-0.2024971,0.9344964,2
5.78,-27.56504,1.168337,-21.78548,0.0707763272094279,0.0241352149204401,-0.0057707635372512,20.14772,34.9526,184.0289,0.2896339,-0.1771342,0.9404023,2
5.8,-27.50443,1.353378,-21.68907,0.0336183070099487,0.0039823322421091,-0.0527030604219844,23.6859,34.15505,184.0732,0.2802611,-0.206271,0.9371117,2
5.82,-27.44504,1.535241,-21.59317,-0.0026445357220974,-0.0127573703118128,-0.099168670146879,27.22328,33.33758,184.0634,0.2706144,-0.2351921,0.9328805,2
5.84,-27.45579,1.139101,-21.64165,-0.0319716134898455,0.0278936391923356,-0.1309044002590211,26.30931,31.8818,183.9444,0.2597497,-0.2279028,0.9379104,2
5.86,-27.39599,1.33196,-21.54869,-0.069693631836738,-0.0155090216334262,-0.1794247854214972,29.79574,30.99953,183.7942,0.2499084,-0.2561603,0.933004,2
5.88,-27.3371,1.521817,-21.45585,-0.1057415144662576,-0.0562947344137288,-0.2268004207577409,33.27828,30.07373,183.5745,0.2398313,-0.2841565,0.9271871,2
5.9,-27.3573,1.12493,-21.50775,-0.1279952692534962,-0.0117432596488896,-0.2493144614250888,32.08543,28.84677,183.5015,0.2310961,-0.2748323,0.9324337,2
5.92,-27.29845,1.322259,-21.417,-0.1496152436438755,-0.0520487727815867,-0.2790001153131571,35.5144,27.83864,183.1441,0.2208873,-0.3022017,0.9260569,2
5.94,-27.24839,1.117223,-21.37392,-0.168840416589497,-0.0900335236838623,-0.3066032936778682,39.63455,27.9002,182.6418,0.2191551,-0.3341632,0.914673,2
5.96,-27.18933,1.316817,-21.28546,-0.179169004274069,-0.0410031235850279,-0.3165764134912687,43.01171,26.75678,182.1334,0.2085956,-0.3605939,0.906555,2
5.98,-27.13089,1.513625,-21.19674,-0.187049506487678,0.0067393799914285,-0.3237384946337243,46.37923,25.50238,181.4972,0.19785,-0.386682,0.8975962,2
6.0,-27.07318,1.707659,-21.10792,-0.1979766634523647,-0.0612884055112799,-0.3427986099542535,49.7344,24.10655,180.7045,0.1869283,-0.4124028,0.8878061,2
6.02,-27.05969,1.113822,-21.14098,-0.1998937609302542,-0.0400284880289537,-0.3418126327157611,46.3845,27.19652,180.3216,0.2150377,-0.3833832,0.8936787,2
6.04,-27.00164,1.314519,-21.05377,-0.1988674072954834,-0.0180839429462336,-0.3369393958203992,49.71131,25.93817,179.7114,0.2046677,-0.4090973,0.8839836,2
6.06,-26.91612,1.107208,-20.95705,-0.1860530093508314,-0.0243609410629489,-0.3162426596704821,53.31617,25.88713,177.6401,0.209143,-0.4330502,0.8687378,2
6.08,-26.85886,1.305799,-20.87157,-0.1710616135807843,-0.0287262568920764,-0.2926221568435156,56.5839,24.35656,176.7514,0.1988125,-0.4578469,0.8575482,2
6.1,-26.80224,1.50179,-20.78589,-0.1539072002525561,-0.0345540188515967,-0.266354526653922,59.83435,22.57897,175.604,0.1883134,-0.4822294,0.8456062,2
6.12,-26.63459,1.10918,-20.57419,-0.1186990735004127,-0.1225312891371646,-0.2203516973589914,62.64561,17.05183,167.7952,0.1805843,-0.4977374,0.8318315,2
6.14,-26.57986,1.298065,-20.48897,-0.0838543951433563,-0.094692546953409,-0.1678031540980558,65.73779,14.08943,165.3945,0.1706402,-0.5211585,0.8183517,2
6.16,-26.52607,1.484453,-20.40405,-0.0480663725946959,-0.0677816831086002,-0.1135989935335359,68.76312,10.37167,162.2313,0.1605563,-0.5441219,0.8041734,2
6.18,-26.4254,1.144417,-20.28452,-0.0168742245392259,-0.057475329771952,-0.0687538122707231,58.36661,14.63844,167.7817,0.1620639,-0.4690486,0.8544217,2
6.2,-26.37353,1.326602,-20.19691,0.0144312760850557,-0.0463261253312347,-0.0230862386601291,61.39824,11.95645,165.6044,0.1524681,-0.4925312,0.8417825,2
6.22,-26.32281,1.506266,-20.10994,0.0459027313402296,-0.0374949091713558,0.0231001289772123,64.36888,8.7231,162.8683,0.1427515,-0.5155928,0.8284404,2
6.24,-26.16812,1.212097,-19.9546,0.0870167002470871,-0.0212944958119154,0.0711365191382005,43.04088,22.30257,173.9382,0.198696,-0.3498908,0.907695,2
6.26,-26.11532,1.386475,-19.86058,0.1285450832396013,-0.0051551668304721,0.1200443199696654,46.2662,20.88614,173.0551,0.1897797,-0.3755556,0.8983886,2
6.28,-26.064,1.558024,-19.7676,0.1704945757330853,0.0078043159253433,0.1694019302023948,49.47311,19.30377,171.9935,0.1807053,-0.4008858,0.8883024,2
6.3,-25.97172,1.25014,-19.73406,0.198305351385172,0.0852354216858345,0.2107337284307728,26.19246,27.24161,175.9807,0.2369515,-0.2120355,0.9441444,2
6.32,-25.91253,1.418849,-19.63044,0.2271890804205636,0.0679229657115097,0.2336745956185546,29.72404,26.23996,175.5362,0.2289589,-0.2410632,0.9383349,2
6.34,-25.85517,1.58408,-19.52821,0.2438288317743064,0.0955991195633312,0.2538198625723971,33.2484,25.16774,175.0007,0.2207411,-0.2698501,0.9315758,2
6.36,-25.75592,1.27191,-19.48282,0.2586978860698097,0.1217682311917988,0.2714753885476018,2.369977,33.46668,177.9289,0.2881672,-0.01459911,0.9571864,2
6.38,-25.69453,1.438526,-19.37827,0.2771821177025715,0.0765859307515888,0.2798223628795249,5.937743,32.67204,177.876,0.2817655,-0.04448771,0.9579061,2
6.4,-25.6351,1.601565,-19.27522,0.2937982256297164,0.1011193332066268,0.2994529070304432,9.503401,31.86812,177.7726,0.2750839,-0.07432228,0.9576504,2
6.42,-25.5198,1.291575,-19.18289,0.3081145196234676,0.1236149267408518,0.316225255024797,352.2199,35.97388,179.0135,0.3075219,0.06717642,0.9490811,2
6.44,-25.45903,1.453847,-19.07537,0.3238353352801328,0.0730725157607458,0.3220195000689481,355.813,35.17057,179.156,0.3016589,0.03704571,0.9526878,2
6.46,-25.40039,1.612417,-18.96961,0.3299767729532843,0.0914754792724023,0.3291398683022044,359.4068,34.37909,179.2478,0.2954911,0.006885441,0.9553093,2
6.48,-25.36418,1.282866,-18.97719,0.3328109564287254,0.108060817931913,0.3322676913643394,353.7753,36.22452,179.7308,0.3102992,0.05233315,0.9490846,2
6.5,-25.3061,1.445174,-18.86995,0.3323116609252028,0.1201253186424055,0.3308109711634506,357.332,35.42163,179.9476,0.3041203,0.02231654,0.9523494,2
6.52,-25.25009,1.603874,-18.76448,0.3215966616697079,0.1021534243084844,0.3103566236156334,0.8902655,34.63375,180.1144,0.2976396,-0.007713858,0.9546465,2
6.54,-25.19563,1.250471,-18.77446,0.3088202343981732,0.0852854680097124,0.2863720658223116,359.4059,36.99339,181.3501,0.3172817,0.001179083,0.9482442,2
6.56,-25.13614,1.41541,-18.66907,0.2939813870068626,0.0667446721539989,0.2583023527973118,2.992675,36.21432,181.5721,0.3103195,-0.02907976,0.9501749,2
6.58,-25.07862,1.576793,-18.56532,0.2720983568991757,0.0498242911381698,0.2262260012443797,6.58142,35.44589,181.7458,0.3030444,-0.05930138,0.9511251,2
6.6,-25.02319,1.734782,-18.46342,0.2488015771926517,0.0345442900655319,0.191648249351505,10.17114,34.68216,181.8722,0.295464,-0.08945341,0.9510946,2
6.62,-25.03888,1.232114,-18.56587,0.2240611579765308,0.0180349789402441,0.1540506817706506,8.256763,37.23356,182.8557,0.3166096,-0.07613765,0.9454951,2
6.64,-24.97753,1.401048,-18.4611,0.1960075490747947,-0.0025963911927719,0.1147414841461296,11.8924,36.49105,183.0734,0.3086546,-0.1067018,0.9451437,2
6.66,-24.91805,1.566397,-18.35775,0.1671922520681703,-0.0203550218530967,0.0732358347233892,15.52944,35.75204,183.2455,0.3003807,-0.1371443,0.9437929,2
6.68,-24.92832,1.199626,-18.43115,0.1420578117252366,0.0133113629464339,0.044344301652297,14.77513,37.87878,183.6491,0.3178382,-0.1318057,0.9388643,2
6.7,-24.86576,1.376322,-18.33091,0.1156728434168621,0.0453847919055499,0.0132118306096324,18.37638,37.15894,183.8538,0.3092645,-0.1618461,0.9369023,2
6.72,-24.84726,1.175744,-18.32915,0.0704829317929021,-0.0284584981059205,-0.0528619323920573,18.74583,36.96782,184.0458,0.3071585,-0.1654035,0.9369902,2
6.74,-24.78485,1.358586,-18.23215,0.0341222597462529,-0.0198076540380765,-0.0971748902440932,22.30971,36.23758,184.1782,0.2982075,-0.1948686,0.934032,2
6.76,-24.72372,1.538171,-18.13579,-0.0020224583806394,-0.0102944873301999,-0.1416104800052493,25.8738,35.49664,184.2639,0.2889611,-0.2241271,0.9301264,2
6.78,-24.664,1.714587,-18.04025,-0.0506191310119357,-0.0841482365829106,-0.208723957486645,29.4371,34.73773,184.2988,0.2794287,-0.2531443,0.9252797,2
6.8,-24.72109,1.145524,-18.16337,-0.0852676084239276,-0.0734401762280468,-0.2505145060446538,24.60737,33.71657,184.0275,0.2760036,-0.2137661,0.9366382,2
6.82,-24.65945,1.336615,-18.07033,-0.1184514253778634,-0.061288782219428,-0.2908962081212354,28.11326,32.9059,183.944,0.2665688,-0.2422518,0.9321513,2
6.84,-24.59877,1.524646,-17.97749,-0.1578846428287335,-0.1337803873765177,-0.3444785749244561,31.61632,32.06108,183.7994,0.25688,-0.2704885,0.9267502,2
6.86,-24.60451,1.124909,-18.00927,-0.1848475955489075,-0.1178683469720207,-0.375205362052071,32.08891,30.1054,183.513,0.2412928,-0.2744246,0.9298356,2
6.88,-24.54376,1.32218,-17.91934,-0.2094779983378965,-0.1005728507462136,-0.4033742743173882,35.52724,29.14331,183.1702,0.231336,-0.3017917,0.9234612,2
6.9,-24.48371,1.516551,-17.82927,-0.2318121597951745,-0.0851737458157322,-0.4292942106856787,38.95914,28.11081,182.7375,0.2211665,-0.3288638,0.9162091,2
6.92,-24.43423,1.115643,-17.80564,-0.2488146441669809,-0.0978634392282486,-0.4512874474165576,41.86881,28.9845,182.3337,0.2266371,-0.3506183,0.9059055,2
6.94,-24.37356,1.315795,-17.71822,-0.2622867246703011,-0.1071441762397001,-0.4692238415699836,45.24578,27.85993,181.8179,0.2162622,-0.3768296,0.8972666,2
6.96,-24.31347,1.513156,-17.63052,-0.2710420842154044,-0.056490389873056,-0.4762045647708131,48.61333,26.61727,181.1686,0.2056949,-0.4026847,0.8878006,2
6.98,-24.25405,1.707737,-17.54269,-0.2759333794557337,-0.0914077899511567,-0.4835795849684459,51.96888,25.22274,180.3538,0.1949449,-0.4281606,0.8775168,2
7.0,-24.23401,1.11301,-17.55665,-0.2774964303924792,-0.1245442057629271,-0.4870002722684956,48.0729,27.59787,179.5055,0.2195379,-0.3946183,0.8865004,2
7.02,-24.17477,1.313632,-17.47058,-0.2757375100687009,-0.1593249225553361,-0.4867046596118745,51.38558,26.31713,178.831,0.2094357,-0.4200477,0.8764188,2
7.04,-24.11609,1.511562,-17.38421,-0.251025835303281,-0.1656449140633394,-0.4516205509725628,54.686,24.86794,177.9752,0.1991534,-0.4450936,0.8655553,2
7.06,-23.9861,1.102223,-17.23489,-0.2237217659472214,-0.1702000873705054,-0.413003481955569,59.67632,24.28966,174.0291,0.2075799,-0.4762512,0.8414176,2
7.08,-23.92868,1.296069,-17.15058,-0.1980562587911167,-0.1155359814967523,-0.3725067935088895,62.89752,22.30147,172.6333,0.1975268,-0.5002303,0.8287911,2
7.1,-23.87202,1.487373,-17.06633,-0.1701436322914542,-0.0626709222609605,-0.3287710952674618,66.08932,19.87357,170.7892,0.1873084,-0.523764,0.8154501,2
7.12,-23.7038,1.128916,-16.85943,-0.1314030669156909,-0.1152697890008621,-0.2760416978274411,60.95001,15.1669,166.67,0.1713184,-0.4861282,0.8407707,2
7.14,-23.64921,1.31328,-16.77361,-0.1075702958601825,-0.0820368735334147,-0.2393202538383916,63.98026,12.19121,164.1737,0.1617272,-0.5093628,0.8275689,2
7.16,-23.59568,1.495126,-16.68831,-0.0827963635840416,-0.0487069585887487,-0.2010382717281531,66.93803,8.522502,160.9778,0.1520061,-0.5321596,0.8136719,2
7.18,-23.49614,1.17824,-16.58221,-0.0438436747686399,-0.0850195032355621,-0.1542441257230564,52.07493,18.86345,171.1792,0.1801039,-0.4204197,0.8782046,2
7.2,-23.44366,1.356523,-16.49338,-0.0111814071141238,-0.0448983278684542,-0.1109431985429572,55.1611,16.93956,169.7328,0.1710027,-0.4444273,0.8670756,2
7.22,-23.39245,1.532215,-16.40537,0.0219520815631129,-0.0056114662868053,-0.0670578502708514,58.21332,14.7063,167.9684,0.1617671,-0.4680606,0.8552339,2
7.24,-23.23385,1.239905,-16.28681,0.0677488025830124,-0.0365378929671688,-0.0241530423714697,31.97905,26.64136,175.3383,0.2322056,-0.2588209,0.9320936,2
7.26,-23.17514,1.410391,-16.18748,0.0992739959361461,0.0006992595030772,0.0100999548871416,35.40194,25.57654,174.7831,0.224145,-0.2866033,0.925,2
7.28,-23.11813,1.577635,-16.08943,0.130672328516427,0.0364419454792719,0.0437426815241457,38.81464,24.4208,174.1208,0.2158771,-0.3141071,0.917026,2
7.3,-23.06289,1.741747,-15.99281,0.161907691344489,0.0677426033006216,0.0762886725595564,42.21616,23.15231,173.3311,0.2074093,-0.341317,0.9081759,2
7.32,-22.99427,1.268193,-16.01292,0.1854424003265404,0.0735196355155519,0.0993887655500138,8.134304,32.82574,177.5358,0.2832431,-0.06195934,0.9561827,2
7.34,-22.93179,1.435474,-15.90988,0.208204239902821,0.0798321527467136,0.1211520792314551,11.68362,32.04935,177.4041,0.2767631,-0.09158178,0.9552698,2
7.36,-22.87121,1.599219,-15.80828,0.2301197275680935,0.0838026592491068,0.1410380506955197,15.22979,31.25368,177.2207,0.2700117,-0.1211034,0.9533973,2
7.38,-22.77422,1.285386,-15.75272,0.2495892296296369,0.0874602157814592,0.1615323694020571,353.3134,36.74856,178.6969,0.3140368,0.05892033,0.9475502,2
7.4,-22.71093,1.44903,-15.64767,0.2670431914735638,0.09103765813449,0.180248109908141,356.8929,35.98777,178.8059,0.3085165,0.02900152,0.9507756,2
7.42,-22.64971,1.609018,-15.54426,0.2823931642206947,0.0917088129141603,0.1965923094337336,0.472576,35.23565,178.8672,0.3026879,-0.0009382828,0.9530296,2
7.44,-22.56404,1.282804,-15.49605,0.2857861085979474,0.0856778158395804,0.1972625869126625,353.7838,37.70925,179.7313,0.3225715,0.05206671,0.9449882,2
7.46,-22.5027,1.444987,-15.3902,0.2864698120339319,0.0806517408163146,0.1946478699869194,357.35,36.94302,179.9513,0.316739,0.02206665,0.9482309,2
7.48,-22.44345,1.603537,-15.2861,0.2844068393174521,0.0738574036727199,0.1881910315560486,0.9177749,36.19195,180.1234,0.3105913,-0.007947442,0.9505094,2
7.5,-22.38638,1.758625,-15.18396,0.2826272784373169,0.1352776464965475,0.1940751810789442,4.486456,35.45015,180.2492,0.304135,-0.03794498,0.9518222,2
7.52,-22.38302,1.250466,-15.27764,0.2685886218589295,0.0994065429670052,0.1691823445651019,359.4037,38.18113,181.3453,0.3270932,0.001077564,0.944905,2
7.54,-22.32087,1.415379,-15.17364,0.2534669143711778,0.0643168697221237,0.1416579442096051,2.993184,37.43952,181.5654,0.3204623,-0.02911605,0.9468029,2
7.56,-22.26071,1.576726,-15.07125,0.2371650257585655,0.1034727643521361,0.1280161368535113,6.584384,36.70858,181.7396,0.3135087,-0.05927236,0.9477267,2
7.58,-22.24351,1.232106,-15.10705,0.2093459628699689,0.0679769630586993,0.0896180254832528,8.252189,38.79614,182.8616,0.3294707,-0.07611777,0.9410925,2
7.6,-22.17922,1.401008,-15.00393,0.1808224043461761,0.0341677638063913,0.0490338451348715,11.88829,38.0918,183.0883,0.3218153,-0.1066005,0.9407443,2
7.62,-22.1168,1.566317,-14.9022,0.1515809070953775,-0.0008652425781988,0.0058151614732429,15.52577,37.39214,183.2721,0.3138279,-0.1369621,0.939405,2
7.64,-22.12118,1.199654,-14.95569,0.1211980792637552,-0.0178829885561101,-0.0317239525181378,14.77249,39.12069,183.6454,0.3280003,-0.1316377,0.9353667,2
7.66,-22.05616,1.376344,-14.85692,0.0906526912012553,-0.0313648800919218,-0.0707747173890263,18.37416,38.43706,183.8492,0.3197031,-0.1615888,0.9333964,2
7.68,-21.99268,1.549618,-14.75911,0.0599170925128484,-0.0442751454188554,-0.1117480877129517,21.97686,37.75199,184.0113,0.3110827,-0.1913643,0.9304619,2
7.7,-21.93086,1.719591,-14.66244,0.0391615300919379,0.0197859907918537,-0.1287628405874377,25.57987,37.05951,184.1298,0.3021478,-0.220931,0.9265679,2
7.72,-21.99468,1.168298,-14.79506,-0.0011944989432879,-0.0231251203078355,-0.1780169353287584,20.15183,37.24094,184.0425,0.3083302,-0.1767796,0.9344283,2
7.74,-21.93008,1.353215,-14.70056,-0.0340274015939274,-0.0068524955010954,-0.2124128649274361,23.70197,36.52599,184.1063,0.2995157,-0.205885,0.9310959,2
7.76,-21.86667,1.534919,-14.60658,-0.0658029323737463,0.010772398199014,-0.2458747990705996,27.25146,35.7948,184.1222,0.2904083,-0.2347751,0.9268311,2
7.78,-21.89379,1.139106,-14.66995,-0.1087172714946906,-0.0556543988496249,-0.2982839397562586,26.30421,34.30994,183.9532,0.2795505,-0.2271912,0.9322083,2
7.8,-21.83007,1.33191,-14.57924,-0.149669422963433,-0.1196853917261843,-0.3496071885860017,29.79476,33.50959,183.8176,0.2702324,-0.2553173,0.9273172,2
7.82,-21.7672,1.521692,-14.48864,-0.1713313398690115,-0.0731927539415583,-0.3674432260446962,33.28183,32.66969,183.6188,0.2606597,-0.2831844,0.9215282,2
7.84,-21.75959,1.121863,-14.49921,-0.1954725712394576,-0.1107764541733765,-0.393964514381423,34.72386,30.85881,183.2331,0.2457134,-0.2947008,0.9219135,2
7.86,-21.69678,1.319948,-14.41131,-0.2168128674621217,-0.1453912649120197,-0.4179145875726464,38.14558,29.88587,182.8316,0.2358266,-0.3216438,0.9149469,2
7.88,-21.63461,1.515159,-14.32325,-0.2255503400100833,-0.0926519209033729,-0.420906764860059,41.56011,28.83207,182.3322,0.225725,-0.3482765,0.9071211,2
7.9,-21.57318,1.707515,-14.23518,-0.2312443260277579,-0.0406924153583003,-0.42043084291038,44.96567,27.6764,181.7155,0.2154184,-0.3745741,0.898444,2
7.92,-21.57383,1.115096,-14.28652,-0.2416920158566995,-0.1036992555625959,-0.4336018576132199,43.28089,30.09102,181.7106,0.2359465,-0.3597012,0.8989816,2
7.94,-21.51162,1.315537,-14.20063,-0.2470488673613968,-0.0767258429157917,-0.433203668451098,46.64362,28.98723,181.1839,0.2258516,-0.3856498,0.8900477,2
7.96,-21.44995,1.513204,-14.11446,-0.2454028729504322,-0.1058375943250856,-0.4272933901017512,49.99713,27.7612,180.521,0.2155578,-0.4112392,0.8803037,2
7.98,-21.38495,1.110025,-14.06131,-0.2406468413792786,-0.1332211530407518,-0.4177370943808136,50.6857,28.78317,178.7003,0.2293162,-0.4120277,0.8741396,2
8.0,-21.32384,1.309611,-13.97721,-0.2328080597855453,-0.1622914106090561,-0.4047899918464728,53.982,27.45881,177.9487,0.2193433,-0.4370268,0.8635509,2
8.02,-21.26327,1.506534,-13.89286,-0.2161085217563698,-0.0784233189455194,-0.3734368094123106,57.26501,25.93958,176.9911,0.2091834,-0.4616322,0.8522012,2
8.04,-21.11056,1.104498,-13.71619,-0.1777771452149474,-0.106263906545112,-0.3192799168526876,61.21814,22.7868,171.1696,0.2079401,-0.4845739,0.8334543,2
8.06,-21.05163,1.295835,-13.6332,-0.137421347499246,-0.1342361851264848,-0.2624690884254823,64.38697,20.4241,169.3314,0.1981303,-0.508121,0.8204595,2
8.08,-20.99353,1.484644,-13.55039,-0.1058578973221182,-0.0749608574794966,-0.2127187995759523,67.51255,17.48862,166.9131,0.1881569,-0.5312214,0.8067657,2
8.1,-20.93632,1.670965,-13.46788,-0.0670413794625055,-0.0891508291608471,-0.157809697015212,70.5748,13.7164,163.652,0.1780287,-0.5538594,0.7923831,2
8.12,-20.81926,1.144316,-13.34314,-0.0271072652629635,-0.1036301402844222,-0.1009333256544899,58.38502,16.97905,167.7576,0.1795822,-0.4659083,0.8508196,2
8.14,-20.76305,1.326463,-13.25767,-0.002913538922912,-0.0395285031075662,-0.0608159299629245,61.42324,14.35582,165.5634,0.1702435,-0.4892008,0.8382321,2
8.16,-20.70797,1.506062,-13.17282,0.0357995902426671,-0.0427748816289155,-0.0151226555526724,64.40142,11.18339,162.8137,0.1607693,-0.5120777,0.8249478,2
8.18,-20.56064,1.211975,-13.03757,0.074991181589108,-0.0467066248032315,0.0314680989825031,43.0748,24.78223,173.9348,0.2182908,-0.3474951,0.9030705,2
8.2,-20.50328,1.386327,-12.94597,0.1075723237695607,0.0199814174161833,0.0753549847584404,46.30315,23.44325,173.0578,0.2097614,-0.3729503,0.8938062,2
8.22,-20.44738,1.557834,-12.85537,0.1499781745773649,0.0171810104480169,0.1156229181480046,49.5142,21.94334,172.0089,0.2010574,-0.3980759,0.8837724,2
8.24,-20.30704,1.257246,-12.77451,0.1931517834859581,0.0133795745362924,0.1562141533137742,20.05935,31.50439,176.5555,0.2722454,-0.1595077,0.9458875,2
8.26,-20.2425,1.425604,-12.67398,0.220742127900166,0.075296545730844,0.1919549759682788,23.586,30.66846,176.2433,0.2651887,-0.1885098,0.9417648,2
8.28,-20.17979,1.590466,-12.5748,0.2465484452537434,0.1341976918420289,0.2248553603527872,27.1089,29.78674,175.8637,0.2578735,-0.2173312,0.9367035,2
8.3,-20.11903,1.751993,-12.47717,0.2694688929238773,0.097500045663934,0.2398392148490189,30.62494,28.84835,175.4082,0.2503086,-0.2459286,0.9307122,2
8.32,-20.06847,1.275761,-12.49885,0.2918452239321798,0.0591380315356203,0.2529776586476724,358.4105,36.57466,178.1579,0.3135001,0.01821236,0.949351,2
8.34,-20.00243,1.44161,-12.39684,0.3113523968082168,0.1113607129985136,0.2810593565090795,1.976276,35.85772,178.1615,0.3080138,-0.01146781,0.9510905,2
8.36,-19.93835,1.603864,-12.29631,0.3344402941187789,0.094196108502655,0.3010675340829603,5.540822,35.13879,178.1203,0.3022231,-0.04112757,0.9518705,2
8.38,-19.84087,1.29387,-12.23487,0.3554788631384484,0.0759215111400057,0.3186854728614046,352.8269,38.60324,179.2383,0.329494,0.06123143,0.9420599,2
8.4,-19.77565,1.455506,-12.12978,0.3686341635342547,0.124819583956999,0.3400093516513214,356.4147,37.87145,179.4194,0.3241944,0.03123276,0.9454597,2
8.42,-19.71256,1.613426,-12.02643,0.3781846428540452,0.0976128046839827,0.3404579691572709,0.003463573,37.15314,179.5543,0.3185695,0.00121042,0.9478916,2
8.44,-19.65956,1.262142,-12.02471,0.3852325352503447,0.0705939108471392,0.3373562660114848,355.7436,39.27123,180.5507,0.3359695,0.03336155,0.9411284,2
8.46,-19.59581,1.426106,-11.92215,0.3857395062786524,0.1133601783933686,0.3382166237205899,359.2982,38.54882,180.7761,0.3301182,0.003545512,0.9438955,2
8.48,-19.53407,1.586527,-11.82121,0.3827704258183715,0.1536485327570752,0.3340954535795699,2.854286,37.84027,180.9568,0.3239413,-0.0262658,0.9457126,2
8.5,-19.47444,1.743567,-11.72208,0.3672544179068717,0.0963332073924435,0.2977733637463706,6.411309,37.14014,181.0941,0.3174452,-0.05604208,0.9465785,2
8.52,-19.4816,1.24066,-11.80931,0.3504412308771387,0.0391508379847413,0.2579703723392663,3.98937,39.67995,182.0392,0.3385524,-0.03877119,0.9401356,2
8.54,-19.41584,1.407094,-11.70665,0.3400200185674351,0.078234727641554,0.2433015916690681,7.618087,38.99347,182.2697,0.3317102,-0.06920555,0.9408328,2
8.56,-19.35203,1.569907,-11.6055,0.3173132921551942,0.041621241935472,0.2019946324465693,11.24894,38.31526,182.4582,0.3245273,-0.09956415,0.9405453,2
8.58,-19.35585,1.217432,-11.65836,0.2939636276627451,0.0070636689879994,0.157926257562242,11.89524,40.09248,183.3391,0.3379526,-0.1072333,0.9349978,2
8.6,-19.28887,1.389964,-11.55858,0.2760488104814227,0.0470329080306937,0.1311691847961253,15.51842,39.43641,183.5568,0.3302,-0.1374073,0.933709,2
8.62,-19.2236,1.558972,-11.45997,0.2461430363517389,0.0083642132914304,0.0808614962317189,19.14272,38.78251,183.735,0.3221102,-0.1674295,0.9314476,2
8.64,-19.23644,1.18321,-11.51562,0.215948486342739,-0.0272807087393225,0.0280708675686118,17.412,39.78936,183.8955,0.3313395,-0.1536813,0.9306991,2
8.66,-19.16938,1.364021,-11.42046,0.1951473659680038,0.016391132116951,-0.0044686618555058,20.98844,39.13675,184.0565,0.3230491,-0.1831647,0.9280605,2
8.68,-19.10368,1.541512,-11.32601,0.1735737600065889,0.0590953996025241,-0.0388018330081711,24.56537,38.47852,184.1769,0.3144377,-0.2124539,0.9244809,2
8.7,-19.03944,1.715782,-11.23246,0.1304268282374434,-0.0069987703227509,-0.1046750538825248,28.14198,37.80868,184.2541,0.3055144,-0.2415159,0.9199659,2
8.72,-19.111,1.153152,-11.35968,0.0881366449072778,-0.0706154400993825,-0.1714175122231803,23.07033,36.82792,184.0242,0.3026478,-0.2004804,0.9312803,2
8.74,-19.04497,1.342195,-11.26834,0.0652763643046681,-0.0271786374528112,-0.2050709921342925,26.59148,36.11082,183.99,0.2938344,-0.2290207,0.9271938,2
8.76,-18.97994,1.528118,-11.17729,0.0307273491518511,-0.0669927523308905,-0.2546862746791228,30.1106,35.36789,183.9039,0.2847398,-0.2573252,0.9221981,2
8.78,-19.00178,1.128801,-11.2246,-0.0020626471521518,-0.1033756993349004,-0.3032500480181956,30.04387,33.47657,183.6915,0.2700198,-0.2570375,0.9268295,2
8.8,-18.93697,1.3247,-11.13644,-0.0197311407291347,-0.0534196969099848,-0.3275005326326341,33.50059,32.63744,183.4285,0.2606636,-0.2845157,0.9210042,2
8.82,-18.87286,1.517651,-11.04824,-0.0390901919968951,-0.0877673331584765,-0.3578743500543665,36.95254,31.74274,183.091,0.2510662,-0.3117155,0.914304,2
8.84,-18.84341,1.117205,-11.03974,-0.0561283209954299,-0.119231821754681,-0.3860826704295322,39.62868,31.34738,182.6579,0.2465263,-0.3321759,0.9076937,2
8.86,-18.7791,1.316724,-10.95413,-0.0627275031866609,-0.0631693922964292,-0.3972172336288772,43.0199,30.32852,182.173,0.2366145,-0.3584466,0.8996162,2
8.88,-18.71534,1.513416,-10.86829,-0.066863087790228,-0.0078527012041319,-0.4054486966666881,46.40277,29.2075,181.5717,0.2264912,-0.3843788,0.8907101,2
8.9,-18.65223,1.707297,-10.78236,-0.0766416061903354,-0.0677552777267763,-0.424157461603733,49.77515,27.95635,180.8275,0.2161657,-0.4099489,0.8809842,2
8.92,-18.64458,1.113817,-10.81524,-0.083587950167999,-0.1266282456060901,-0.4398968141797645,46.37654,30.58536,180.3332,0.2413377,-0.3805147,0.8869658,2
8.94,-18.58144,1.314478,-10.7311,-0.0785225775542139,-0.0705945571715679,-0.4319968366606335,49.70822,29.44824,179.7399,0.2315467,-0.405982,0.8773386,2
8.96,-18.4931,1.10722,-10.63824,-0.0607629320865348,-0.1009578577791854,-0.4114458809939656,53.30053,29.18408,177.6507,0.234021,-0.4293681,0.8624339,2
8.98,-18.43092,1.305792,-10.55583,-0.0407655142979366,-0.1302595424879203,-0.3879195503197857,56.57077,27.77477,176.7775,0.2242071,-0.4538876,0.8513221,2
9.0,-18.36929,1.501744,-10.47325,-0.0191526739733691,-0.0721510499424906,-0.3566950703903674,59.82522,26.13168,175.6608,0.2142046,-0.4780017,0.8394737,2
9.02,-18.3083,1.69509,-10.39061,0.0205225773895683,-0.0928909725069915,-0.3055722035634244,63.05872,24.16983,174.2167,0.2040224,-0.5016928,0.8268982,2
9.04,-18.11759,1.118033,-10.17519,0.0611426722374226,-0.1139815719724217,-0.2522981020813383,61.82044,18.86212,167.1474,0.1964228,-0.4878316,0.8316374,2
9.06,-18.05822,1.304614,-10.09238,0.0887691496195925,-0.0492610601154096,-0.210992408690761,64.88662,15.96708,164.6831,0.1869663,-0.510906,0.8183591,2
9.08,-17.99981,1.488666,-10.00997,0.1165388866161198,0.0138786741892624,-0.1687004548237727,67.88464,12.35387,161.4949,0.1773582,-0.5335413,0.8043929,2
9.1,-17.90063,1.161677,-9.904682,0.1524219206647945,-0.0203913750029797,-0.1221353459142775,55.77905,18.45734,168.7389,0.186364,-0.4455786,0.8608415,2
9.12,-17.84338,1.341653,-9.819212,0.1883813244292693,-0.0565619208125573,-0.0743685462474447,58.82205,16.14365,166.8096,0.1773511,-0.4689401,0.848862,2
9.14,-17.78733,1.519051,-9.73445,0.2153225579586659,0.0087565286508936,-0.0320892264536875,61.81532,13.39183,164.4359,0.1681984,-0.4919077,0.8361862,2
9.16,-17.63125,1.228634,-9.610965,0.2550858855192788,0.0059367318796685,0.0103032868981517,37.84098,27.3337,174.7132,0.2378032,-0.3044313,0.914674,2
9.18,-17.57002,1.40073,-9.516997,0.295425902102306,0.0020325546258497,0.0540805518033877,41.17267,26.2001,174.0122,0.2297764,-0.3309183,0.9063742,2
9.2,-17.51039,1.569761,-9.424151,0.3222691409664451,0.0645842746750702,0.0911391202815784,44.49147,24.94766,173.1805,0.2215483,-0.3570985,0.8972572,2
9.22,-17.38195,1.263615,-9.352604,0.3538206490584206,0.0569339674398914,0.1222485679196578,13.92575,33.89622,177.1488,0.2921511,-0.1087265,0.9483414,2
9.24,-17.3152,1.431488,-9.252878,0.3850346131161577,0.048422204327543,0.1528060776397684,17.46047,33.15464,176.9411,0.2857857,-0.1378951,0.9458379,2
9.26,-17.2503,1.59584,-9.154509,0.4029613295456484,0.1064166301264913,0.1836424396311861,20.99248,32.38382,176.6797,0.2791426,-0.1669279,0.9423957,2
9.28,-17.18736,1.756824,-9.057695,0.4179477528024728,0.161331239805621,0.2112481114490709,24.51975,31.57585,176.3594,0.2722291,-0.1957869,0.9380206,2
9.3,-17.13383,1.279302,-9.065524,0.4291633146784464,0.1219374977186765,0.2231997137480674,354.4699,38.23737,178.3826,0.3264688,0.0501923,0.9438712,2
9.32,-17.0661,1.444321,-8.964174,0.4384219381421657,0.0806710046787374,0.233005608472306,358.0377,37.55066,178.4446,0.3215613,0.02057905,0.9466369,2
9.34,-17.00036,1.605722,-8.864337,0.4469020454332959,0.129826311585786,0.2577943358601565,1.604861,36.86863,178.4639,0.316336,-0.009046472,0.9484493,2
9.36,-16.89455,1.29602,-8.800418,0.4504472803108521,0.10505338889089,0.2668810438456152,353.4622,40.03378,179.4852,0.341496,0.05511273,0.9381412,2
9.38,-16.8276,1.457013,-8.696221,0.4512121631954746,0.0799040936358343,0.2734133801746192,357.0455,39.33476,179.7076,0.3363843,0.02513491,0.9413685,2
9.4,-16.7628,1.614279,-8.593781,0.4438404165976142,0.1218716778014473,0.2824837471484764,0.6301814,38.65121,179.886,0.3309362,-0.004860139,0.9436367,2
9.42,-16.70088,1.254716,-8.611716,0.431409285991672,0.0899227622359903,0.2743206218125206,357.4151,41.72646,181.1409,0.35624,0.01753101,0.9340694,2
9.44,-16.63298,1.419214,-8.51203,0.4162687113973837,0.0585863864510656,0.2626239362958803,0.9746286,41.04447,181.3846,0.3504364,-0.0122005,0.9364701,2
9.46,-16.56709,1.580175,-8.413872,0.3995780294793627,0.1009071664159869,0.2618473506133159,4.535807,40.3763,181.5866,0.3442865,-0.04191166,0.9379286,2
9.48,-16.50333,1.737761,-8.317438,0.3794600899298295,0.1407954471344055,0.2569518854528468,8.098051,39.71685,181.748,0.3377969,-0.07157213,0.9384441,2
9.5,-16.50557,1.237787,-8.411603,0.3416675294059175,0.0823104846175933,0.2202505780005555,6.154222,42.86932,182.5818,0.3636948,-0.05817559,0.9296991,2
9.52,-16.43425,1.405076,-8.312406,0.3025535808894117,0.0243558088530433,0.180790243389121,9.791957,42.22908,182.8385,0.3568372,-0.08848222,0.9299349,2
9.54,-16.36489,1.568732,-8.214596,0.2718207409006488,0.0625335615512161,0.1658052078781386,13.43124,41.59782,183.0566,0.3496118,-0.1186874,0.9291958,2
9.56,-16.36811,1.208709,-8.281554,0.2265856996923507,0.0231067687862729,0.1249374711615646,13.44028,44.2601,183.5494,0.3705856,-0.1199334,0.920891,2
9.58,-16.29469,1.383239,-8.187402,0.1805526574960676,-0.013671134646561,0.0817730901888952,17.05215,43.65068,183.7942,0.362912,-0.1497286,0.9193838,2
9.6,-16.22292,1.554287,-8.094217,0.143563160430977,0.0260330989121469,0.0587804168496035,20.66525,43.0451,184.0032,0.35487,-0.1793602,0.9169271,2
9.62,-16.2263,1.175782,-8.147655,0.0937203077847894,-0.0140576696735649,0.0147959823410185,18.73558,43.87553,184.0513,0.3630497,-0.1639202,0.9167972,2
9.64,-16.15237,1.358585,-8.058804,0.0437478270986499,-0.0508708650993333,-0.0306740981050739,22.29821,43.25507,184.1977,0.3547896,-0.1928732,0.9140536,2
9.66,-16.07972,1.538113,-7.970482,0.0051053814720258,-0.006249539888572,-0.0550082410567924,25.86105,42.62787,184.3054,0.3461803,-0.221624,0.9103937,2
9.68,-16.00848,1.714454,-7.88286,-0.0484031250040046,-0.0434431977752055,-0.1008287493497811,29.42341,41.98795,184.3712,0.3372301,-0.2501402,0.9058232,2
9.7,-16.08501,1.14557,-8.003728,-0.1010732575226938,-0.0774110226844824,-0.1465926195689094,24.59727,40.47042,184.0287,0.3307035,-0.2116153,0.9187708,2
9.72,-16.01259,1.336627,-7.918439,-0.1529016371053915,-0.1113370380444415,-0.1925891554303895,28.10327,39.76822,183.9541,0.3218681,-0.2395683,0.9145496,2
9.74,-15.94107,1.524606,-7.83329,-0.1923052670743332,-0.1212280235736064,-0.219806444834957,31.60678,39.03631,183.8267,0.3127274,-0.2672779,0.909442,2
9.76,-15.96027,1.124968,-7.86545,-0.2296149463575199,-0.1269864720912165,-0.2452819230795376,32.07526,36.05495,183.5002,0.2892666,-0.2716671,0.9160843,2
9.78,-15.89006,1.322246,-7.782278,-0.2648438773031862,-0.1319060567681315,-0.2692945197132873,35.51305,35.19363,183.1512,0.2798129,-0.298509,0.9099898,2
9.8,-15.82046,1.516605,-7.698961,-0.285123862183452,-0.0518971765825668,-0.2714303289538516,38.94495,34.26602,182.7197,0.2701026,-0.3250625,0.9030403,2
9.82,-15.77815,1.11569,-7.674671,-0.3126709524150366,-0.0852795493144162,-0.290321671828869,41.85039,34.30577,182.3202,0.268506,-0.3467704,0.8944518,2
9.84,-15.70921,1.315854,-7.593192,-0.3368212249522972,-0.116152201228379,-0.3062275183529992,45.2267,33.27937,181.7959,0.2585316,-0.3725061,0.8860814,2
9.86,-15.64076,1.513208,-7.511439,-0.3524974653347852,-0.059329505680697,-0.3074569939276425,48.59426,32.14044,181.1464,0.2483279,-0.397894,0.876904,2
9.88,-15.57291,1.707763,-7.429545,-0.3647060922511622,-0.0879088565912308,-0.3097969325474496,51.95081,30.85715,180.3413,0.2379041,-0.4229118,0.8669286,2
9.9,-15.56251,1.113042,-7.440204,-0.3734680161305983,-0.114548786061049,-0.3089408612749987,48.06173,32.45509,179.4967,0.2569463,-0.3898799,0.8764306,2
9.92,-15.49586,1.313673,-7.359335,-0.378793457869536,-0.1426699298144881,-0.3051315427646298,51.37388,31.27382,178.8169,0.2471996,-0.4148813,0.8665701,2
9.94,-15.42968,1.511595,-7.278183,-0.3590520542603059,-0.1422341635651051,-0.2682443989388962,54.67468,29.93146,177.9654,0.2372411,-0.4395089,0.8559461,2
9.96,-15.2954,1.102251,-7.135803,-0.3364553622667388,-0.1398870762293019,-0.2285699051902781,59.65199,28.72171,174.0322,0.2399645,-0.469972,0.8328708,2
9.98,-15.23117,1.29612,-7.056162,-0.3148825950528413,-0.0781893533730625,-0.1876412535587029,62.87289,26.83441,172.6335,0.2301624,-0.493551,0.8204432,2
10.0,-15.16764,1.487427,-6.976559,-0.2907353896412912,-0.0181513856128352,-0.1442086204039108,66.06583,24.52037,170.801,0.2201695,-0.516697,0.8073168,2
10.02,-14.99156,1.128849,-6.778268,-0.2555900490078719,-0.0634261100298805,-0.0927750158784249,60.95437,19.28019,166.6624,0.2014133,-0.47989,0.8340493,2
10.04,-14.9303,1.313228,-6.696696,-0.2182251888782307,-0.1106285560026346,-0.0391812156360442,63.98471,16.40722,164.1661,0.1920931,-0.5027177,0.8210266,2
10.06,-14.87008,1.495071,-6.615602,-0.1982010999473522,-0.0478615324698974,-0.0036343156862084,66.94511,12.85323,160.9837,0.1826191,-0.5251192,0.8073233,2
10.08,-14.81098,1.674443,-6.535109,-0.164025590448964,-0.053124678573198,0.0391525851340685,69.80514,8.3467,156.8444,0.1730015,-0.5470756,0.7929518,2
10.1,-14.69672,1.195467,-6.430152,-0.1287614972206876,-0.0589149131363473,0.0827632702459766,48.32438,25.18678,173.1089,0.2225778,-0.3867959,0.8834671,2
10.12,-14.63734,1.372076,-6.344378,-0.0986711455241875,0.0079082391389058,0.1233623937505504,51.44439,23.68258,172.0,0.2140481,-0.4108418,0.8733773,2
10.14,-14.57928,1.546032,-6.259442,-0.0564295435798827,0.0059868892369246,0.1618335631119017,54.54219,21.96332,170.668,0.2053506,-0.4345462,0.8625801,2
10.16,-14.42814,1.250145,-6.172312,-0.0124991385462431,0.003010861565624,0.2010581195481164,26.2508,32.08563,175.9782,0.2766281,-0.2086613,0.93317,2
10.18,-14.35981,1.419026,-6.074868,0.0178780639369871,0.0656556926106955,0.2346806782917114,29.76514,31.23026,175.5494,0.269553,-0.2370716,0.9273977,2
10.2,-14.29328,1.584445,-5.978708,0.0478130408727091,0.1252120756333503,0.2662260485340325,33.27347,30.3112,175.0412,0.2622174,-0.2652497,0.9207107,2
10.22,-14.18795,1.271926,-5.917817,0.0746212802346031,0.0891847266391696,0.2790360846489881,2.423202,37.89538,177.9216,0.3249415,-0.01410823,0.9453239,2
10.24,-14.11756,1.438587,-5.818992,0.0918473460736164,0.1222089308871216,0.2938619640958607,5.986128,37.2399,177.8735,0.3197171,-0.04355675,0.9458923,2
10.26,-14.04911,1.601661,-5.72156,0.1078239702922865,0.1539091884914111,0.3059948944362833,9.547243,36.57647,177.7837,0.3141787,-0.07295316,0.9455144,2
10.28,-13.98271,1.761297,-5.625716,0.1265505082801641,0.1152419957013131,0.3097726525661678,13.10606,35.89965,177.6505,0.3083321,-0.1022682,0.9441918,2
10.3,-13.9237,1.291539,-5.615711,0.1443864300790773,0.0745805076792941,0.3112362715722596,352.2287,40.1148,179.007,0.3416085,0.06661802,0.9373565,2
10.32,-13.85406,1.453834,-5.513544,0.1623739458494926,0.1243397563911468,0.3253159069201328,355.8198,39.45006,179.1548,0.3370196,0.03681829,0.9407622,2
10.34,-13.78652,1.61241,-5.413033,0.1756717519293451,0.098988709378963,0.3221841464568021,359.4113,38.79697,179.2605,0.3320936,0.006989563,0.9432104,2
10.36,-13.73234,1.269899,-5.40209,0.1874719199529808,0.0734681277662623,0.3161113204706026,354.1004,40.94443,179.9796,0.3492811,0.04827279,0.9356039,2
10.38,-13.66524,1.433276,-5.301275,0.1914036280866624,0.1151020084016123,0.3117308491853131,357.6482,40.27998,180.2165,0.3442783,0.01861654,0.9386414,2
10.4,-13.60016,1.593087,-5.202073,0.1925836866978807,0.1541409322825805,0.3025488029395577,1.197444,39.63126,180.4122,0.3389385,-0.01104992,0.9407437,2
10.42,-13.54516,1.246166,-5.195105,0.1798325272301284,0.0951679837312984,0.2628870828269221,1.378745,41.50618,181.5695,0.3541286,-0.01610257,0.9350193,2
10.44,-13.47599,1.411435,-5.094616,0.1665326838248684,0.113246075578177,0.2376753651388637,4.995726,40.87392,181.8067,0.3481577,-0.04633354,0.9362903,2
10.46,-13.40879,1.573079,-4.995657,0.1514324702055507,0.1309419851462893,0.2095402796714276,8.614661,40.25261,182.0049,0.3418326,-0.07651222,0.9365934,2
10.48,-13.34368,1.731264,-4.898429,0.123478600289719,0.0731572038983159,0.1573249059352892,12.23448,39.63747,182.1653,0.3351606,-0.1066034,0.9359289,2
10.5,-13.38118,1.22635,-4.995063,0.0952145917072424,0.0161902986983739,0.1026885557497202,10.32456,41.35006,183.1413,0.3491955,-0.09378885,0.9323238,2
10.52,-13.31121,1.396845,-4.89615,0.076185190480398,0.055269147217149,0.073550276787597,13.95682,40.75245,183.3564,0.34212,-0.1239656,0.931322,2
10.54,-13.24302,1.563759,-4.798499,0.0431814523567242,0.0162208061466057,0.0211915083293584,17.59002,40.15895,183.5357,0.3346947,-0.1540047,0.9293514,2
10.56,-13.26315,1.191005,-4.863429,0.0099549835076557,-0.0199817524016559,-0.0330081651502867,16.08138,41.83062,183.7576,0.3490043,-0.1421785,0.9260658,2
10.58,-13.19307,1.369757,-4.769098,-0.0129571692153405,0.0217344165596183,-0.0649109578281927,19.66998,41.25216,183.9611,0.3413584,-0.1717622,0.9236737,2
10.6,-13.12441,1.545129,-4.675583,-0.0367709318023594,0.0623576655778372,-0.0978314326569572,23.25929,40.67376,184.1302,0.3333722,-0.2011628,0.9203443,2
10.62,-13.1391,1.160896,-4.717252,-0.08269442535103,-0.0046878326613102,-0.1619435179374591,21.56936,39.31729,184.0788,0.3239934,-0.1878612,0.9267348,2
10.64,-13.06985,1.347901,-4.626911,-0.1168337718956507,0.0125869189143627,-0.2042451795142504,25.10557,38.68761,184.1024,0.3157708,-0.2165109,0.9229803,2
10.66,-13.00165,1.531723,-4.536963,-0.1504463396058704,0.0312022771092343,-0.2452507394077758,28.64076,38.04023,184.0826,0.307244,-0.2449391,0.9183185,2
10.68,-13.03814,1.139182,-4.594845,-0.19722416576086,-0.0342243923709641,-0.3039432808778149,26.28208,36.67162,183.947,0.2987345,-0.2262278,0.9262868,2
10.7,-12.97054,1.332012,-4.507076,-0.2426948921024934,-0.097257836634866,-0.3611216393761602,29.76174,35.97106,183.812,0.290132,-0.2540511,0.9213642,2
10.72,-12.90374,1.521822,-4.41942,-0.264958758466294,-0.0498096229100078,-0.3858495212448773,33.23825,35.23495,183.6213,0.2812597,-0.2816215,0.915564,2
10.74,-12.89853,1.121875,-4.428723,-0.2910845362354053,-0.0864316474768299,-0.4184101709135236,34.70531,33.31357,183.2374,0.2654118,-0.2933516,0.9164861,2
10.76,-12.83198,1.319938,-4.343369,-0.3148945148632061,-0.1200907230074561,-0.4479254551375577,38.12481,32.4464,182.8468,0.2561886,-0.3200555,0.9095143,2
10.78,-12.766,1.515113,-4.257874,-0.3230045168114372,-0.0664257778721645,-0.457048729258245,41.53797,31.50462,182.3673,0.2467338,-0.3464545,0.9016993,2
10.8,-12.70069,1.707421,-4.17238,-0.3282637058942665,-0.0135600211651394,-0.4623195106196578,44.9433,30.46909,181.7813,0.2370564,-0.3725242,0.8930491,2
10.82,-12.70556,1.115085,-4.222621,-0.3397441778992218,-0.0756486534721172,-0.4802581611580572,43.27168,32.6489,181.7207,0.2559308,-0.3577251,0.8935274,2
10.84,-12.63962,1.315496,-4.13923,-0.3439083804988081,-0.0477693601173095,-0.4852724545034531,46.63473,31.65483,181.2094,0.2464319,-0.3834395,0.8846007,2
10.86,-12.57414,1.513117,-4.055587,-0.3446977141152372,-0.0187139546338717,-0.4856376303328709,49.98969,30.54727,180.5729,0.2367172,-0.4088007,0.8748782,2
10.88,-12.50887,1.110035,-4.004616,-0.3366622509458505,-0.0771987241273845,-0.4790213118535151,50.66695,31.37529,178.713,0.2490009,-0.4091768,0.8688109,2
10.9,-12.444,1.3096,-3.923,-0.3257916673712322,-0.1355585382355807,-0.468738991639782,53.96457,30.16327,177.9789,0.2395624,-0.4339297,0.8582364,2
10.92,-12.37962,1.506487,-3.841174,-0.3036376621077807,-0.0792099108257235,-0.4411115120871541,57.25022,28.76795,177.0519,0.2299208,-0.4582961,0.8469145,2
10.94,-12.22088,1.104471,-3.670473,-0.2624056478441117,-0.1043976820585863,-0.3939224808053968,61.21237,25.44426,171.1917,0.2271207,-0.4806132,0.8284678,2
10.96,-12.15798,1.29579,-3.590089,-0.2190766036033236,-0.1297597505041522,-0.343609048388494,64.38414,23.20162,169.378,0.2177528,-0.5038837,0.8155045,2
10.98,-12.09585,1.484565,-3.509882,-0.1840251742456546,-0.06791874156031,-0.2995864790984576,67.51535,20.40446,167.0038,0.2082057,-0.5267166,0.8018544,2
11.0,-12.03457,1.670833,-3.42997,-0.1475072245352164,-0.0077007257267444,-0.253227384042764,70.58721,16.79608,163.8132,0.198488,-0.549096,0.7875281,2
11.02,-11.91448,1.14419,-3.309693,-0.101840807522316,-0.0471296536566583,-0.2010542953743933,58.40427,19.6875,167.7582,0.1996389,-0.4620566,0.846256,2
11.04,-11.85387,1.326322,-3.226936,-0.0718976878819677,-0.0064097539396726,-0.1642693746604641,61.44606,17.17714,165.5819,0.1907555,-0.4850561,0.8337135,2
11.06,-11.79435,1.505889,-3.144776,-0.0416159204705206,0.0342347946385444,-0.1267164565619803,64.43083,14.13035,162.8642,0.1817207,-0.5076483,0.8204867,2
11.08,-11.64378,1.21186,-3.014769,0.00188295163256,0.0059844214001928,-0.0870497997915209,43.10907,27.48376,173.9343,0.2395082,-0.3446813,0.8975631,2
11.1,-11.58156,1.386202,-2.926127,0.0464919845232765,-0.0244860337835328,-0.0455309717308269,46.33852,26.25009,173.0689,0.2315428,-0.3698505,0.8882926,2
11.12,-11.52077,1.557682,-2.838454,0.0836806637281282,0.0380504943124516,-0.0063014190231387,49.55214,24.86292,172.0412,0.2233858,-0.3946967,0.8782668,2
11.14,-11.37986,1.257189,-2.762315,0.1274683773367229,0.0306583828568744,0.0276159262810512,20.10462,34.23458,176.5552,0.2946935,-0.1580294,0.9390638,2
11.16,-11.30994,1.425526,-2.665206,0.172218057730203,0.0222259436677815,0.0623325557506734,23.63205,33.49926,176.2528,0.2883435,-0.1867547,0.9348522,2
11.18,-11.24183,1.590354,-2.569398,0.2036564778143645,0.0797616323308819,0.0969528522397616,27.15646,32.72166,175.8901,0.2817141,-0.2153029,0.9297178,2
11.2,-11.17565,1.751828,-2.475091,0.2330762559429307,0.1342641721336917,0.1293306892538889,30.67497,31.89197,175.4595,0.2748131,-0.2436313,0.9236699,2
11.22,-11.13011,1.275727,-2.496826,0.2574960664562473,0.0938050157954418,0.1449189512791076,358.4381,39.36307,178.1604,0.3365112,0.01823754,0.9414442,2
11.24,-11.05851,1.441559,-2.398413,0.2749451833553622,0.1228372662791989,0.1644107096356862,2.003862,38.74298,178.1738,0.3318619,-0.01120902,0.9430315,2
11.26,-10.98885,1.603782,-2.301432,0.2898966629693347,0.1502752005066605,0.1816993594398316,5.568501,38.12179,178.1485,0.3268867,-0.04063581,0.9436769,2
11.28,-10.89218,1.293849,-2.242331,0.3023693802010638,0.1051621100142869,0.1869063129812588,352.8225,41.38785,179.2401,0.3522867,0.06089384,0.9337734,2
11.3,-10.82116,1.455471,-2.140885,0.3126838538814331,0.0583736596958109,0.190265097267728,356.4098,40.75172,179.4302,0.347856,0.03109522,0.9370116,2
11.32,-10.75227,1.613363,-2.041119,0.3215301882293115,0.100973182269428,0.2039002599624588,-0.002015279,40.12935,179.5801,0.3430784,0.001273722,0.9392998,2
11.34,-10.7028,1.262184,-2.039378,0.3233702073825457,0.068575911788523,0.1991830564091358,355.7327,42.07719,180.5505,0.3589107,0.03302528,0.9326169,2
11.36,-10.6334,1.426125,-1.940377,0.3229170855712122,0.0365728355814171,0.1917195682039371,359.2866,41.45057,180.7852,0.3539124,0.003397622,0.9352329,2
11.38,-10.56599,1.586511,-1.842937,0.3217533401275509,0.0767945939080209,0.194185187386348,2.841856,40.83841,180.9813,0.3485671,-0.02622503,0.9369166,2
11.4,-10.50069,1.743502,-1.747248,0.3176364021915956,0.1144865479121015,0.1931125435471348,6.397969,40.23602,181.1401,0.3428806,-0.05581313,0.9376677,2
11.42,-10.51633,1.240672,-1.831259,0.2956725699431343,0.054130453250666,0.1619098813085956,3.974261,42.53199,182.0396,0.3618476,-0.03876022,0.9314227,2
11.44,-10.44492,1.407079,-1.732248,0.2740758119806434,0.0695278502719204,0.1421832296631238,7.602242,41.9423,182.2803,0.3558081,-0.06899571,0.9319944,2
11.46,-10.37544,1.569852,-1.634692,0.2504029336134119,0.0848983414044142,0.1199789139457015,11.2321,41.3625,182.4852,0.3494054,-0.09915591,0.9315997,2
11.48,-10.38546,1.217472,-1.684685,0.2106767277832177,0.0227742807116507,0.072294460408102,11.88682,42.92973,183.3412,0.3609996,-0.1069341,0.9263509,2
11.5,-10.31308,1.389972,-1.588497,0.1703075197887346,-0.0378297094989074,0.022508219735189,15.50952,42.37143,183.5684,0.3539963,-0.1369016,0.924957,2
11.52,-10.24239,1.558934,-1.49344,0.1443163829251801,-0.0008835277019723,-0.0009379913613744,19.13315,41.81781,183.7627,0.3466336,-0.1667192,0.9226087,2
11.54,-10.26122,1.183246,-1.546153,0.1037134305682486,-0.0431521828941627,-0.0458590498290306,17.40429,42.6458,183.8981,0.3544361,-0.1530843,0.9221607,2
11.56,-10.18912,1.364021,-1.454454,0.0631356393510782,-0.0822968701784267,-0.0921491108742668,20.98043,42.09177,184.0692,0.3468579,-0.1823519,0.9194369,2
11.58,-10.11833,1.541462,-1.363451,0.0354975566678715,-0.0408971875488254,-0.1159630504644146,24.55692,41.53535,184.2068,0.3389372,-0.2114278,0.9157898,2
11.6,-10.04899,1.715666,-1.273318,0.0077036549190294,-0.0004213699499324,-0.1403230121330618,28.13312,40.97163,184.3089,0.330682,-0.2402796,0.9112248,2
11.62,-10.13026,1.153197,-1.394763,-0.0366771197375431,-0.0706638879196066,-0.187908761229693,23.05939,39.72772,184.0285,0.326117,-0.1995694,0.9233422,2
11.64,-10.05948,1.3422,-1.306718,-0.0677585715434926,-0.0547047924098264,-0.2154709321266918,26.58071,39.11022,184.0055,0.3179795,-0.2278778,0.9192113,2
11.66,-9.989642,1.528067,-1.218967,-0.0976611181659745,-0.0369952504105084,-0.2420380293021575,30.10021,38.4709,183.9379,0.3095391,-0.2559536,0.9141878,2
11.68,-10.01669,1.12882,-1.263545,-0.1264916282015582,-0.0207257515017374,-0.2679396135248408,30.02998,36.35966,183.6961,0.2932537,-0.2557296,0.9197739,2
11.7,-9.947414,1.324684,-1.178488,-0.1538657900323763,-0.0324498225096387,-0.2916567763933379,33.48743,35.62085,183.444,0.2845262,-0.2829618,0.9139449,2
11.72,-9.878779,1.517584,-1.093395,-0.178503879312466,-0.0402028114578766,-0.3128958833757223,36.94074,34.83154,183.1252,0.2755369,-0.3099197,0.9072564,2
11.74,-9.851568,1.117209,-1.085057,-0.2004845638743604,-0.0473301675972595,-0.3319382428426924,39.61067,34.23685,182.6644,0.2693334,-0.3301662,0.9012439,2
11.76,-9.78298,1.316697,-1.002467,-0.2137500836588057,-0.0528239762870957,-0.3438220220033137,43.00289,33.32041,182.1916,0.2599795,-0.3561757,0.8931983,2
11.78,-9.714873,1.513342,-0.919668,-0.2238782316820636,-0.0546954120600287,-0.3526814432461398,46.38768,32.30893,181.6119,0.2503943,-0.3818523,0.8843381,2
11.8,-9.647355,1.707158,-0.8367979,-0.2309461404146956,-0.0563549591398068,-0.3587850237426977,49.76325,31.17656,180.9007,0.2405866,-0.4071726,0.8746726,2
11.82,-9.643797,1.113811,-0.8688946,-0.2306615281156775,-0.1461241526211226,-0.3612557275598055,46.36637,33.51809,180.3432,0.2639335,-0.3777435,0.8805428,2
11.84,-9.576443,1.314446,-0.7877346,-0.2172723838043351,-0.1191058454791566,-0.3415368643625298,49.69935,32.48576,179.7644,0.2546415,-0.4029423,0.8709504,2
11.86,-9.509515,1.512336,-0.7063173,-0.2009243223562912,-0.0911591462118537,-0.3187268705507651,53.02337,31.32044,179.0424,0.24513,-0.4277771,0.8605896,2
11.88,-9.403752,1.103789,-0.6064864,-0.1816937678902238,-0.0656356253846157,-0.2930901344137175,56.47603,31.15735,176.1957,0.2515971,-0.4476492,0.8439392,2
11.9,-9.337893,1.299987,-0.5272143,-0.1504486189607282,-0.0659088734689901,-0.2529359162035037,59.7318,29.66385,175.1437,0.2421831,-0.4715427,0.832146,2
11.92,-9.27261,1.493577,-0.4478948,-0.1170635724321005,-0.0643124369549781,-0.2103360462899058,62.96904,27.8765,173.7905,0.232567,-0.495021,0.8196435,2
11.94,-9.095486,1.117945,-0.2600385,-0.0816106169138282,-0.064166690312924,-0.1655613019219943,61.82561,21.87977,167.1761,0.2181315,-0.4830585,0.8262014,2
11.96,-9.031821,1.304522,-0.1803149,-0.0437664400061384,-0.0509131449983698,-0.1194236783198356,64.89357,19.11585,164.7541,0.209068,-0.5058047,0.8130037,2
11.98,-8.969085,1.488559,-0.1009753,-0.0054754186139012,-0.0362147701637421,-0.0723801805500239,67.89756,15.6552,161.6308,0.1998359,-0.5281221,0.7991317,2
12.0,-8.907365,1.670114,-0.02213973,0.033217666199997,-0.0232630417527489,-0.0247146485613742,70.80767,11.19673,157.5058,0.1904439,-0.5499908,0.7845989,2
12.02,-8.792001,1.178052,0.08242986,0.0877812719609061,-0.0809466734797167,0.0303575425392204,52.11711,24.23729,171.1394,0.2212096,-0.4136481,0.8685777,2
12.04,-8.729919,1.356293,0.1656849,0.1339694567416847,-0.036134154706421,0.0804504674659128,55.20971,22.46797,169.6831,0.2128035,-0.4371301,0.8575486,2
12.06,-8.669074,1.531903,0.2481828,0.1799673170359848,0.0075234996655275,0.130414738949874,58.27091,20.39993,167.9224,0.2042304,-0.4602498,0.8458259,2
12.08,-8.518345,1.23976,0.3413183,0.2257157697224699,0.0469924506725636,0.1798764299067937,32.04854,32.10877,175.333,0.2763849,-0.2542363,0.9197857,2
12.1,-8.449236,1.410213,0.434198,0.2590912869143893,0.0601742376690828,0.2081978190259921,35.4742,31.21305,174.7903,0.2693113,-0.2814694,0.9126763,2
12.12,-8.381799,1.577393,0.5259073,0.2922617019855847,0.0738984245937726,0.2359460330087181,38.89143,30.2348,174.1539,0.2619906,-0.3084337,0.904713,2
12.14,-8.26996,1.268126,0.5794818,0.3251067147278548,0.0851404771828117,0.2626631960845206,8.196986,38.40767,177.5379,0.329463,-0.06042989,0.9412169,2
12.16,-8.196636,1.435368,0.6755372,0.3488327136555434,0.0938377522215688,0.2835540179876581,11.74751,37.79533,177.4219,0.324275,-0.08954829,0.9401476,2
12.18,-8.125198,1.599047,0.7702581,0.3703650679760624,0.1030617709683875,0.3020063873071018,15.29557,37.16695,177.2648,0.3187718,-0.1185698,0.9381493,2
12.2,-8.05577,1.75931,0.8634588,0.3895316980599587,0.1099439345702433,0.3175060589575815,18.8407,36.51685,177.0637,0.3129592,-0.1474659,0.9352248,2
12.22,-8.008551,1.285328,0.8556497,0.4119646998695568,0.0456009834847253,0.3276125383470845,353.3251,41.83031,178.6897,0.3557346,0.05845184,0.9327027,2
12.24,-7.934753,1.448975,0.9539204,0.4349515251083249,0.0733996681504531,0.3522502395903526,356.9042,41.23065,178.8047,0.3516807,0.02895262,0.9356723,2
12.26,-7.863006,1.608943,1.050662,0.4543537687878525,0.0992692433432672,0.3736683753870754,0.483316,40.63959,178.882,0.3472787,-0.0005672087,0.9377019,2
12.28,-7.792065,1.282941,1.079688,0.4700085269535536,0.1204810420788229,0.3913018129247047,353.78,42.93213,179.7336,0.3652927,0.05133886,0.9293076,2
12.3,-7.720084,1.445081,1.178918,0.4659177003665925,0.110894111169855,0.3846133232947455,357.3455,42.32583,179.9685,0.3609183,0.02169987,0.9323099,2
12.32,-7.650184,1.603566,1.276517,0.4586277374753772,0.1026796568003742,0.3744159213223842,0.9121653,41.73531,180.1655,0.3561882,-0.007952378,0.9343793,2
12.34,-7.607894,1.250497,1.267631,0.4480235419044613,0.0930671145352981,0.3601966648510377,359.3811,43.55854,181.3507,0.3710598,0.0006417038,0.9285186,2
12.36,-7.535211,1.415369,1.364876,0.43022635207696,0.084493601101715,0.3406471838660898,2.969371,42.97706,181.5885,0.3658227,-0.02918267,0.9302208,2
12.38,-7.464505,1.576652,1.460626,0.4099900619145199,0.0777402111996187,0.3181648738466653,6.559049,42.4081,181.7907,0.3602207,-0.0589702,0.9309813,2
12.4,-7.395905,1.734507,1.554693,0.3871789135809415,0.0699547493581722,0.292250768362719,10.14951,41.84731,181.9584,0.3542599,-0.08868963,0.9307999,2
12.42,-7.4341,1.232176,1.462556,0.3507944177641265,-0.0151695956005956,0.244380980930791,8.229069,43.74575,182.8564,0.3698133,-0.07582632,0.9259997,2
12.44,-7.359974,1.401045,1.559216,0.3250322914372677,-0.0014344482423426,0.2200519454604148,11.86451,43.20279,183.0916,0.3634502,-0.1059368,0.9254784,2
12.46,-7.287687,1.566296,1.654569,0.2971830350952857,0.0131348918441507,0.1927514165808433,15.50091,42.6674,183.2946,0.3567157,-0.1359287,0.9239972,2
12.48,-7.315208,1.199735,1.589385,0.2671278058430432,0.0257115347740064,0.1620393320105774,14.75801,44.23941,183.6505,0.3694454,-0.1308131,0.9198014,2
12.5,-7.240891,1.376365,1.681829,0.2256913195045076,0.0098341812476768,0.1204148648251265,18.35887,43.72014,183.8714,0.3623619,-0.1603877,0.917694,2
12.52,-7.168068,1.549552,1.773377,0.1836475816070047,-0.0024190321661829,0.0774089936791767,21.96044,43.20426,184.0622,0.3549157,-0.1897903,0.9146537,2
12.54,-7.191641,1.168351,1.725682,0.1408900784152115,-0.0140629698894824,0.0326552282400807,20.13728,42.54704,184.0514,0.3512509,-0.1754404,0.9191762,2
12.56,-7.118138,1.353197,1.813986,0.1104954467761408,0.0531357945900509,0.0077750595832805,23.68749,41.99811,184.136,0.3435808,-0.2041435,0.9157702,2
12.58,-7.045754,1.534803,1.901806,0.0594891564269239,0.0112617976815071,-0.0440922165512552,27.23724,41.43921,184.1848,0.3355776,-0.2326368,0.9114615,2
12.6,-6.974614,1.713247,1.988977,0.0092076816775041,-0.0272370732221465,-0.0959954560485493,30.78586,40.86475,184.1949,0.3272496,-0.2608891,0.9062563,2
12.62,-7.020108,1.132862,1.917763,-0.0404071975145954,-0.0655474057688218,-0.1482047966876528,28.02623,38.37223,183.9232,0.3108427,-0.2394747,0.9185363,2
12.64,-6.948619,1.327345,2.002411,-0.0769721189696337,-0.0796343276820304,-0.1824645034147635,31.51099,37.70283,183.7395,0.3024255,-0.2669773,0.913182,2
12.66,-6.877819,1.518805,2.087027,-0.1115457059971166,-0.0894301191401023,-0.2151858806098905,34.99215,36.99331,183.4991,0.293727,-0.2942149,0.90696,2
12.68,-6.807822,1.707277,2.171466,-0.144200781070596,-0.0982288337060188,-0.2466244855534917,38.46946,36.23291,183.1926,0.284755,-0.3211648,0.8998762,2
12.7,-6.845253,1.118841,2.112314,-0.160620538894481,-0.0219622010176198,-0.2572475231328206,37.36857,35.06229,182.9858,0.2772938,-0.3128044,0.905507,2
12.72,-6.775201,1.317704,2.194512,-0.186089204093393,-0.0588907279936772,-0.2840648613535235,40.7769,34.19995,182.5315,0.2681963,-0.3389893,0.8979592,2
12.74,-6.705638,1.51369,2.276881,-0.208307943785766,-0.0931460385332978,-0.3081427819151506,44.17829,33.25242,181.9805,0.2588581,-0.364855,0.8895875,2
12.76,-6.657748,1.114574,2.293747,-0.2212318993738022,-0.0395625130762411,-0.3182118729536223,44.67854,35.13368,181.1044,0.2756614,-0.3650384,0.8828796,2
12.78,-6.588535,1.315239,2.374133,-0.2314972855069418,-0.071202966784662,-0.3294970917733469,48.03041,34.18975,180.5936,0.2664908,-0.390384,0.8736892,2
12.8,-6.51973,1.513126,2.454772,-0.2385223536905306,-0.1007391784012553,-0.3378025408005598,51.37468,33.13135,179.9581,0.2570889,-0.4153747,0.8637232,2
12.82,-6.420593,1.107243,2.543647,-0.2423683067895597,-0.1315907965156658,-0.343349280899193,53.28297,32.96944,177.6613,0.2623549,-0.4247092,0.8543142,2
12.84,-6.352788,1.305791,2.622282,-0.2197704563134875,-0.1337440275440797,-0.3173254490011677,56.56173,31.6927,176.801,0.2530939,-0.4488989,0.843228,2
12.86,-6.285457,1.501684,2.701067,-0.1945996327491367,-0.1338224789643214,-0.2886675363112801,59.82625,30.19577,175.7129,0.2436207,-0.4726913,0.8314191,2
12.88,-6.218699,1.69494,2.779885,-0.166933973864587,-0.1351707348921411,-0.2576196009674988,63.07214,28.39836,174.3176,0.2339433,-0.4960694,0.8188969,2
12.9,-6.087172,1.109083,2.908391,-0.1427447115631498,-0.0505211118487401,-0.2271669269608233,62.62892,24.06801,167.8533,0.2309013,-0.4866147,0.8193986,2
12.92,-6.021661,1.297942,2.986628,-0.1081772720664956,-0.06935293363743,-0.1891974707596454,65.72999,21.37696,165.498,0.2218433,-0.5093191,0.8060747,2
12.94,-5.956983,1.484261,3.064582,-0.0719449886154359,-0.0882437897133276,-0.1491868233468247,68.77129,17.97099,162.4236,0.2126055,-0.5315879,0.7920813,2
12.96,-5.789767,1.161488,3.232517,-0.0509792235637834,-0.0254461725444146,-0.1236818968122089,55.80652,22.46874,168.7288,0.2164159,-0.4398868,0.8536625,2
12.98,-5.725855,1.34143,3.313735,-0.0164336130918423,-0.0304745122715908,-0.0913707646975824,58.85582,20.28192,166.807,0.207898,-0.4628338,0.8417541,2
13.0,-5.663111,1.518766,3.394281,0.0187073720517774,-0.0358328439642695,-0.0581248216352648,61.85833,17.66819,164.4539,0.1992163,-0.4853969,0.8291636,2
13.02,-5.491998,1.228489,3.52398,0.0543953861701381,-0.0446738279770047,-0.0242423314153837,37.88448,31.19096,174.7069,0.2684508,-0.3005889,0.9060225,2
13.04,-5.423697,1.400571,3.613298,0.0933247721127223,-0.025722658159851,0.0041737110997679,41.21777,30.18277,174.0139,0.2611102,-0.3266593,0.897706,2
13.06,-5.356951,1.569568,3.701551,0.1330479996610542,-0.0064037212119019,0.0332368130124578,44.53967,29.063,173.2007,0.2535421,-0.3524307,0.8885903,2
13.08,-5.291859,1.73558,3.788595,0.1734370157185588,0.0101925258771134,0.0625361948067074,47.84887,27.80415,172.2405,0.2457524,-0.3778903,0.8786796,2
13.1,-5.21616,1.263556,3.782376,0.200702689458965,0.0908246459994635,0.0899440332404527,13.9806,37.67233,177.1448,0.3232335,-0.107164,0.9381401,2
13.12,-5.142084,1.431412,3.877091,0.2217281795864919,0.0772057325090295,0.0992920541219161,17.51591,37.05375,176.9456,0.3177808,-0.1359485,0.935497,2
13.14,-5.069839,1.595727,3.970516,0.2422956777697633,0.0631770309809661,0.1076178893439072,21.04912,36.40902,176.7009,0.3120215,-0.1646009,0.9319366,2
13.16,-4.974452,1.279244,4.020611,0.2553325269715292,0.1167956996153934,0.1199994599110089,354.5052,42.48534,178.3922,0.3612399,0.04974927,0.9311351,2
13.18,-4.89871,1.444224,4.116431,0.269016370398689,0.101174222162107,0.1247370144660003,358.0729,41.91736,178.4724,0.3574029,0.02046954,0.9337039,2
13.2,-4.824961,1.605568,4.210822,0.2806069957376231,0.0847087365787107,0.1277095854609484,1.640266,41.35503,178.5173,0.3532152,-0.008822167,0.9353432,2
13.22,-4.712513,1.296017,4.28978,0.2899359673269463,0.0645433556202838,0.1284168065628302,353.4574,43.54665,179.4755,0.3700847,0.05468745,0.9272327,2
13.24,-4.638057,1.457015,4.388945,0.2998828991988778,0.1325422721881279,0.1412835174714896,357.0406,42.96713,179.698,0.3660476,0.02499346,0.9302342,2
13.26,-4.565745,1.614272,4.486436,0.3003412024820765,0.1015949032936122,0.1318850778845138,0.6248807,42.40281,179.8838,0.361647,-0.004717246,0.9322988,2
13.28,-4.495705,1.767964,4.582056,0.2984751710188404,0.0709840326976996,0.1201224124117847,4.209754,41.8492,180.0347,0.3568877,-0.03441471,0.9334251,2
13.3,-4.509492,1.254815,4.495642,0.2939659446250301,0.110269608999476,0.1154452353565463,357.4024,44.04067,181.1147,0.375026,0.01736529,0.9266863,2
13.32,-4.436112,1.419331,4.591558,0.2807896187400019,0.0765619456574712,0.0947013524302595,0.9629081,43.47853,181.3453,0.3702532,-0.01215271,0.9288188,2
13.34,-4.364707,1.580297,4.685983,0.2657959995608163,0.0439725747557893,0.0713486567095024,4.524432,42.92963,181.5415,0.3651174,-0.04165022,0.9300274,2
13.36,-4.340504,1.237829,4.67086,0.2526904649925074,0.0858728070691404,0.0606533689625603,6.136095,44.81447,182.5671,0.3794369,-0.05799508,0.9233983,2
13.38,-4.264724,1.405108,4.766957,0.2367192578489334,0.1257617087519993,0.0469102442503042,9.774426,44.29247,182.8212,0.3735449,-0.08813178,0.9233685,2
13.4,-4.190849,1.568738,4.86168,0.1976186153803328,0.0652819027759697,0.001803630105152,13.41384,43.78075,183.0446,0.3672708,-0.1181686,0.9223806,2
13.42,-4.196096,1.208823,4.827142,0.157758275251508,0.006165382500297,-0.0452222749411024,13.4293,45.10914,183.5269,0.3774289,-0.119653,0.9181258,2
13.44,-4.120042,1.383359,4.919522,0.1327659005714153,0.0440181221717526,-0.0668493724309886,17.04271,44.61439,183.758,0.3706853,-0.1493233,0.9163012,2
13.46,-4.045572,1.554394,5.010908,0.0911549020386598,0.0033850287938811,-0.1107836877928736,20.65685,44.12495,183.9607,0.3635682,-0.1788324,0.9135402,2
13.48,-3.972818,1.722052,5.101118,0.0494773257515994,-0.034067212289736,-0.1559719944876316,24.27133,43.63699,184.1345,0.356085,-0.2081482,0.9098471,2
13.5,-4.048391,1.175877,4.985015,0.0223457977644164,0.0079275537202734,-0.1788598824768978,18.72562,44.08879,184.0344,0.3647875,-0.1637338,0.9161278,2
13.52,-3.973225,1.358681,5.073212,-0.0197912696573661,-0.0312987176504378,-0.220083562212102,22.2888,43.58393,184.1725,0.3574623,-0.1926108,0.9130369,2
13.54,-3.899259,1.53819,5.160828,-0.0610945658407901,-0.0669160541413693,-0.2612586236360175,25.85194,43.07493,184.2797,0.3497882,-0.2212883,0.909041,2
13.56,-3.826622,1.714492,5.247696,-0.0873974841680466,-0.0193840420880774,-0.2819094090172518,29.41444,42.55716,184.3539,0.341773,-0.2497348,0.9041457,2
13.58,-3.895258,1.139149,5.150177,-0.1127165191526504,0.0276835357719351,-0.3016416887843627,26.29148,40.4332,183.9625,0.3289349,-0.2249241,0.9159731,2
13.6,-3.821766,1.331849,5.234211,-0.1591945375084681,-0.0370913826964988,-0.3453326040780786,29.79091,39.82908,183.8497,0.3208686,-0.2526048,0.9110361,2
13.62,-3.749025,1.521483,5.318128,-0.2035424199752065,-0.0993347426692761,-0.3871818469692556,33.28761,39.19425,183.6886,0.3125017,-0.2800323,0.9052294,2
13.64,-3.747452,1.121881,5.309322,-0.2284811198617666,-0.0489452507789101,-0.4037681629109722,34.69061,37.04447,183.2454,0.2951,-0.2911601,0.9074005,2
13.66,-3.675366,1.319896,5.390636,-0.2615462903365669,-0.0829065314872195,-0.4304110524140978,38.11662,36.271,182.868,0.286346,-0.3175748,0.9004952,2
13.68,-3.603788,1.514998,5.472079,-0.291458054279959,-0.114043244587428,-0.4537896422148371,41.53704,35.42855,182.4099,0.2773333,-0.3436884,0.8927593,2
13.7,-3.532833,1.707208,5.553515,-0.3182671182874587,-0.1457313800200463,-0.4741595048436027,44.95063,34.49956,181.8544,0.2680703,-0.369477,0.8842009,2
13.72,-3.543691,1.11508,5.504705,-0.3260341243684325,-0.0651937178586284,-0.4702813476960923,43.2644,36.38144,181.7293,0.284876,-0.3545622,0.8847483,2
13.74,-3.472413,1.315462,5.583989,-0.3414832431009929,-0.0989986490941848,-0.4718060550212102,46.63008,35.48153,181.2302,0.2757657,-0.3799475,0.8759152,2
13.76,-3.401534,1.513037,5.663508,-0.3528130168722178,-0.1306069176023601,-0.4691495423396787,49.98849,34.47546,180.6153,0.2664145,-0.4049853,0.8663001,2
13.78,-3.335504,1.110047,5.71132,-0.3569025165160829,-0.0745855591843935,-0.4527391195441297,50.65161,35.07036,178.7218,0.276867,-0.4048246,0.860397,2
13.8,-3.265444,1.309597,5.78888,-0.3569009279506099,-0.019474966257594,-0.4317991943408852,53.95074,33.95358,178.0001,0.2677482,-0.4292335,0.8499249,2
13.82,-3.195802,1.506453,5.866636,-0.3546441682172545,-0.0799592486093034,-0.4013857335487845,57.23897,32.66304,177.097,0.258403,-0.4532634,0.8387188,2
13.84,-3.028884,1.104438,6.027911,-0.353117338903835,-0.0507352003049873,-0.3686232720656317,61.20199,29.15649,171.2193,0.2537266,-0.474637,0.8207688,2
13.86,-2.960711,1.295753,6.104225,-0.3480258105354225,-0.0209510752334263,-0.3323211226616758,64.37628,27.01656,169.4254,0.2445737,-0.4975441,0.8079239,2
13.88,-2.893266,1.48451,6.180371,-0.3278501603639069,-0.0683709815301691,-0.2797064690489796,67.51223,24.33783,167.0879,0.2352202,-0.5200229,0.7944047,2
13.9,-2.826644,1.670745,6.256237,-0.3049341302783272,-0.1175101587831328,-0.2244373405085005,70.59221,20.87005,163.9572,0.2256746,-0.5420578,0.7802216,2
13.92,-2.701781,1.144063,6.370107,-0.2891335222952103,-0.0551669900002324,-0.1742892678200267,58.42406,23.39725,167.7556,0.2269351,-0.4563051,0.839261,2
13.94,-2.635537,1.326187,6.448755,-0.2576240759730886,-0.0609237485144628,-0.1132435705604208,61.46855,20.98241,165.5924,0.2182895,-0.478921,0.8268371,2
13.96,-2.570373,1.505732,6.52684,-0.224157669600881,-0.0672940802934999,-0.0502853403570484,64.45853,18.04176,162.8996,0.2094709,-0.5011384,0.8137405,2
13.98,-2.414631,1.211756,6.648987,-0.2042957422636671,-0.0014509730244612,0.0006765220770368,43.14057,31.16253,173.9326,0.2681855,-0.3404154,0.8893099,2
14.0,-2.346318,1.386092,6.733271,-0.183626346573112,0.0621741565358971,0.0514376168901022,46.3707,30.01914,173.0761,0.2605927,-0.3652051,0.880097,2
14.02,-2.279431,1.557553,6.816642,-0.1566653582972562,0.0308698695680798,0.0898050825344305,49.58632,28.72856,172.0657,0.2527849,-0.389679,0.8701424,2
14.04,-2.136718,1.257148,6.885789,-0.1435783065332655,0.0673623978614572,0.1222027489144252,20.13678,37.92426,176.555,0.3247642,-0.155645,0.929041,2
14.06,-2.060132,1.425471,6.977951,-0.1302030584002407,0.102881828102598,0.1536872792063874,23.66473,37.27586,176.2607,0.3189687,-0.183987,0.9247917,2
14.08,-1.985361,1.59027,7.068884,-0.1120115674584655,0.067257604715095,0.1743728862308178,27.19024,36.5882,175.9123,0.3128652,-0.2121557,0.9196366,2
14.1,-1.912549,1.751703,7.158402,-0.0927541858705178,0.030038487372178,0.1943167576596349,30.71062,35.85242,175.5028,0.3064613,-0.2401096,0.9135849,2
14.12,-1.871985,1.275699,7.136191,-0.0744150839266435,0.0835053327717396,0.2268605722352539,358.4597,43.09275,178.1625,0.3669734,0.01838868,0.9299964,2
14.14,-1.793551,1.441518,7.229465,-0.057237466101476,0.1339150762589393,0.2570230396813091,2.025366,42.55645,178.1841,0.3630559,-0.01071716,0.9314653,2
14.16,-1.717086,1.603713,7.321389,-0.034427570380331,0.0907047757028972,0.276295532978597,5.590077,42.01981,178.1722,0.3587833,-0.03980405,0.9320106,2
14.18,-1.620061,1.293828,7.376364,-0.0159774238642646,0.1172197065220779,0.3001137992712339,352.8177,45.11008,179.2411,0.3824261,0.06037909,0.9218371,2
14.2,-1.541966,1.455439,7.472634,0.000368258455526,0.1420798754915745,0.3212528683180491,356.4047,44.55671,179.4388,0.3787734,0.03088322,0.9249448,2
14.22,-1.466022,1.613308,7.567318,0.0113237884728213,0.0900256580481274,0.3237802282784772,359.9924,44.01734,179.6016,0.3747445,0.001364669,0.9271217,2
14.24,-1.392365,1.76761,7.660226,0.0147674153489205,0.1074189185620717,0.3257574975359365,3.58037,43.48765,179.7308,0.3703437,-0.0281468,0.9283664,2
14.26,-1.362617,1.254791,7.619147,0.0155719516363436,0.1244439647274544,0.3235856144424263,357.4008,46.00432,181.1237,0.3908513,0.01704502,0.9201224,2
14.28,-1.285993,1.41926,7.712647,0.013560108989477,0.1384171221517059,0.3167603588728804,0.9626514,45.46821,181.3658,0.3863218,-0.01235328,0.9222491,2
14.3,-1.21137,1.580171,7.804704,-0.0040482112468981,0.0542291082903523,0.2812254192566918,4.525542,44.94612,181.5752,0.3814134,-0.04173101,0.9234592,2
14.32,-1.177323,1.237831,7.806743,-0.0101030869417876,0.0691378966848986,0.2694658418140643,6.132469,46.53346,182.5652,0.3932479,-0.057957,0.917604,2
14.34,-1.098469,1.405101,7.900418,-0.0174296962155208,0.08398565853133,0.2550103734802453,9.771365,46.03767,182.82,0.3875662,-0.08794992,0.9175742,2
14.36,-1.021539,1.568716,7.992763,-0.0392634539002695,0.022494266959274,0.217019368811514,13.41125,45.55253,183.0458,0.3814883,-0.1178433,0.9165943,2
14.38,-0.9466696,1.728823,8.083593,-0.0542173018441879,0.0373799094355721,0.1928176556933021,17.05255,45.07438,183.243,0.3750202,-0.1476113,0.9146653,2
14.4,-1.016199,1.20885,7.975899,-0.070071860884909,0.0531552955978318,0.1660672864816079,13.42594,46.64344,183.5233,0.3896937,-0.1193812,0.9129925,2
14.42,-0.937463,1.383385,8.06608,-0.1001883929338999,-0.0101999683694568,0.1180039489656676,17.03946,46.17484,183.7529,0.3831375,-0.1489096,0.911171,2
14.44,-0.8603181,1.554415,8.155294,-0.1185681908960032,0.0069753075818964,0.0866273509974622,20.65359,45.71202,183.9558,0.3761959,-0.1782776,0.9084203,2
14.46,-0.8922982,1.175884,8.099096,-0.1371363743248657,0.0255972080929079,0.0535065292065428,18.72213,45.87711,184.0385,0.3790366,-0.1632502,0.9103289,2
14.48,-0.8143998,1.358666,8.184992,-0.1560958945835902,0.0426997705478976,0.0182814844290581,22.28541,45.4005,184.1833,0.3718759,-0.1919839,0.9072645,2
14.5,-0.7377018,1.538148,8.270328,-0.1756228734819462,0.0402925020940368,-0.0193885552191224,25.84863,44.92097,184.2992,0.3643526,-0.2205191,0.9033027,2
14.52,-0.7669437,1.145637,8.228614,-0.201523227762391,0.0233550635757725,-0.0612526852357964,24.58033,42.81241,184.035,0.3494152,-0.2106103,0.9118506,2
14.54,-0.6908112,1.336628,8.311171,-0.2254473488775423,0.0107344110764822,-0.102566085936242,28.0872,42.26137,183.9781,0.341655,-0.2383457,0.9073727,2
14.56,-0.6154935,1.524518,8.39354,-0.247563051952716,-0.0007635704463978,-0.1436075641845915,31.59198,41.68711,183.8796,0.3335734,-0.2658417,0.9020271,2
14.58,-0.5411145,1.709352,8.475581,-0.2806120981143407,-0.0971369075802273,-0.1992248418175688,35.0947,41.08247,183.7343,0.325178,-0.2930753,0.8958193,2
14.6,-0.6234825,1.125052,8.383479,-0.2902063360972591,-0.0793300402858446,-0.2270198757470118,32.052,37.36423,183.4861,0.2997713,-0.2707708,0.9127632,2
14.62,-0.5508182,1.32233,8.465082,-0.2967132789234758,-0.0596774996177282,-0.2529194175287292,35.48907,36.64363,183.1319,0.2913801,-0.2973972,0.9064232,2
14.64,-0.4786785,1.516663,8.546769,-0.3042185239020152,-0.1251380300796845,-0.2860252935932192,38.92104,35.86278,182.7059,0.2827241,-0.3237402,0.8992441,2
14.66,-0.4834813,1.115729,8.536613,-0.2980204721179777,-0.1007253837893566,-0.3037002530652026,41.82982,35.14542,182.3112,0.2751024,-0.3459409,0.8925135,2
14.68,-0.4129755,1.315888,8.617295,-0.2883203911852828,-0.074731517269638,-0.3188851706717637,45.20598,34.2618,181.7864,0.2661725,-0.3714862,0.8838899,2
14.7,-0.3428671,1.513212,8.698184,-0.2752886274646617,-0.050505557494905,-0.3318223874659844,48.57452,33.27481,181.1491,0.2570088,-0.3966897,0.8744729,2
14.72,-0.2732671,1.707713,8.779149,-0.2667422801988796,-0.1429585863500476,-0.3540121403362082,51.93357,32.15563,180.3715,0.2476195,-0.4215292,0.8642718,2
14.74,-0.2846496,1.110124,8.793619,-0.2424377623793168,-0.1183371883164699,-0.3545062008216433,50.65111,32.5009,178.6845,0.2576396,-0.4077403,0.8663481,2
14.76,-0.2173431,1.30973,8.873987,-0.2141960825488688,-0.0924811523416541,-0.3515838072402053,53.95395,31.37705,177.9217,0.2488652,-0.4322905,0.8556228,2
14.78,-0.1504452,1.506625,8.954525,-0.1693621225400842,-0.1530305594525539,-0.3367256065429327,57.24528,30.07425,176.9727,0.2398802,-0.4564583,0.8441577,2
14.8,-0.08405777,1.700823,9.035106,-0.1210445367363982,-0.1243193932474137,-0.3149013548145172,60.52139,28.5319,175.7778,0.2306926,-0.4802229,0.8319632,2
14.82,-0.03067449,1.104496,9.152709,-0.0700281263477934,-0.0952369555062089,-0.2904959888353287,61.19678,25.63605,171.1772,0.2285741,-0.4801736,0.8281336,2
14.84,0.03339463,1.29587,9.232669,-0.0164731534884415,-0.0690665971511254,-0.2637341083925819,64.36662,23.47651,169.3319,0.2199153,-0.5032265,0.8149874,2
14.86,0.09676141,1.484676,9.312412,0.0444421075607812,-0.0575654530618451,-0.2333459471892718,67.49687,20.77046,166.9358,0.2110787,-0.525848,0.8011617,2
14.88,0.2413257,1.144052,9.484255,0.1059753348520918,-0.0444280434328182,-0.2018211627576662,58.42661,19.95718,167.7449,0.2016851,-0.4617893,0.8456671,2
14.9,0.3030211,1.326186,9.566635,0.167987090683861,-0.0328468403382082,-0.169393360068786,61.47034,17.56031,165.5732,0.1935854,-0.4846095,0.8329474,2
14.92,0.3636876,1.505734,9.648381,0.2461744943396938,-0.0916815310888377,-0.1307926807261585,64.45974,14.63864,162.8732,0.1853331,-0.5070274,0.8195517,2
14.94,0.5197022,1.211696,9.794798,0.316070100188675,-0.0478196024630787,-0.0964891123910394,43.15842,27.84868,173.9315,0.2423563,-0.344634,0.896634,2
14.96,0.5831826,1.38603,9.882853,0.3856368636925419,-0.0049184229390714,-0.0618941144275202,46.38893,26.73259,173.0781,0.2352351,-0.3696579,0.8871475,2
14.98,0.6453127,1.557486,9.969902,0.4547128357323419,0.0339884299963658,-0.027323798258279,49.60529,25.47119,172.0731,0.2279207,-0.3943629,0.8769158,2
15.0,0.7060047,1.726156,10.05581,0.5093649714901635,0.0468272615380004,-0.0127034294252847,52.80455,24.02665,170.8794,0.2204195,-0.4187326,0.8659456,2
15.02,0.8040832,1.257089,10.05681,0.5635483840101627,0.0604036990218415,0.0018042623775731,20.16125,35.53465,176.5701,0.3052953,-0.1576194,0.935584,2
15.04,0.8765177,1.425377,10.15233,0.6170301299808654,0.0716938764404963,0.0158085490712274,23.69012,34.91916,176.2952,0.2998202,-0.1862145,0.9311376,2
15.06,0.947219,1.590139,10.24652,0.6605845556547179,0.0806368229338909,0.0248166132128646,27.21688,34.26649,175.9687,0.2940558,-0.2146339,0.9257819,2
15.08,1.049088,1.275627,10.27284,0.7014273412233832,0.0903034382818919,0.0320630832339274,358.4745,42.03029,178.1907,0.3583421,0.01808641,0.9333621,2
15.1,1.125228,1.441387,10.36807,0.7392677969382762,0.0978259383045935,0.0371060158824068,2.039565,41.51928,178.2421,0.3546059,-0.01120375,0.9347208,2
15.12,1.199455,1.603519,10.46189,0.7791201047430043,0.0343348085519818,0.0371147492228838,5.603909,41.00987,178.2618,0.3505235,-0.04047443,0.9351549,2
15.14,1.27164,1.762176,10.55411,0.8205521025178694,0.0631662570594843,0.0518393902192513,9.167273,40.49808,178.2496,0.3460994,-0.06969676,0.934665,2
15.16,1.39112,1.296015,10.58812,0.8576296746925534,0.0902640652126571,0.0642738539682865,353.4512,45.12418,179.4861,0.3828176,0.05446404,0.9220458,2
15.18,1.468379,1.457023,10.68512,0.8900665240193923,0.1129003034224314,0.0739261594615281,357.0309,44.59535,179.7223,0.3792322,0.02488942,0.9249358,2
15.2,1.543503,1.614288,10.78046,0.914215410560233,0.1836319546001148,0.0856457114281534,0.6115273,44.0825,179.9252,0.3752718,-0.004701654,0.9268993,2
15.22,1.594695,1.254824,10.7652,0.9149676727350408,0.1486712135517079,0.0643479704604328,357.3929,46.34012,181.1296,0.3935468,0.01703567,0.9189703,2
15.24,1.671812,1.419308,10.85823,0.912009742522246,0.114600766986777,0.0405679664748683,0.951277,45.82882,181.3803,0.3892219,-0.01233558,0.921028,2
15.26,1.746947,1.580236,10.94981,0.905137377967105,0.0786219107916192,0.0139009147896829,4.510686,45.33212,181.5999,0.3845165,-0.04168623,0.9221736,2
15.28,1.81997,1.737766,11.03977,0.8892137476537476,0.0665153417109523,-0.0124898730898015,8.07083,44.84628,181.7899,0.3794356,-0.07098737,0.9224072,2
15.3,1.801331,1.237825,10.9611,0.8701687799262349,0.0566846912558439,-0.040606503199436,6.128136,47.28299,182.5747,0.3992381,-0.05795063,0.9150137,2
15.32,1.881307,1.405083,11.05384,0.8477501581194384,0.0462637632978286,-0.070860438244579,9.764956,46.81422,182.8414,0.3937621,-0.08789771,0.9149327,2
15.34,1.959365,1.568686,11.14525,0.812483168457009,0.0327656763960477,-0.1083969517760139,13.40275,46.35721,183.081,0.3878844,-0.1177455,0.9139066,2
15.36,1.943217,1.208831,11.09118,0.774226110932283,0.0226343781434372,-0.1477690694275388,13.4212,48.14358,183.5406,0.4015972,-0.1191556,0.9078196,2
15.38,2.024007,1.383322,11.1796,0.7327467107472462,0.0129489984118588,-0.1893325375961896,17.03314,47.70499,183.7901,0.3952265,-0.1485975,0.9059902,2
15.4,2.103203,1.554304,11.26707,0.6878432196231348,0.0008460511097039,-0.2334206334132067,20.64575,47.27415,184.0154,0.3884588,-0.1778795,0.903239,2
15.42,2.087627,1.175871,11.2237,0.6349750768448218,-0.0163857730435851,-0.2771757820291645,18.71952,47.60843,184.0486,0.3927346,-0.1627722,0.9045045,2
15.44,2.16796,1.358623,11.3074,0.5807166004951774,-0.0296740211716539,-0.3211688405583377,22.28216,47.16089,184.2058,0.3857348,-0.1913742,0.9014581,2
15.46,2.247094,1.538072,11.39056,0.5248572766130324,-0.0420676933486951,-0.3657026837199222,25.84478,46.71209,184.3365,0.3783591,-0.2197787,0.8975219,2
15.48,2.324893,1.714305,11.47302,0.4833221534113781,0.0253718506057015,-0.3894185585626943,29.40688,46.258,184.4389,0.3706148,-0.247954,0.8927014,2
15.5,2.401224,1.780752,11.55463,0.4162580093030648,-0.0169738225110113,-0.4361738629338092,32.96857,45.79456,184.5117,0.3625102,-0.2758765,0.8870013,2
15.52,2.280477,1.139156,11.40762,0.3491543761024931,-0.0557035635890604,-0.481749276271856,26.28457,44.02851,183.9699,0.3574993,-0.2233095,0.9052188,2
15.54,2.359073,1.331824,11.48709,0.297552812462963,-0.0087110400934206,-0.5074147318522599,29.78407,43.48078,183.8687,0.3496988,-0.2506651,0.9003741,2
15.56,2.436945,1.521416,11.56646,0.2352788172593162,-0.0453010753962095,-0.5421128359573704,33.28106,42.90521,183.7235,0.3415709,-0.2777703,0.8946738,2
15.58,2.424885,1.121865,11.54246,0.1738326352361892,-0.0786136817282325,-0.5747275618788612,34.68108,41.01712,183.2581,0.3263528,-0.2885543,0.8966579,2
15.6,2.502298,1.319839,11.61893,0.1130675022882765,-0.1119814258127487,-0.6054633619009075,38.10818,40.30434,182.8973,0.3177869,-0.3146095,0.8899058,2
15.62,2.579241,1.514892,11.69553,0.0736688532354634,-0.1174417347219961,-0.6152527176211893,41.53023,39.52692,182.4613,0.3089341,-0.3403678,0.8823365,2
15.64,2.627935,1.115055,11.70962,0.0362270966360273,-0.1189771148733744,-0.6219880845616739,43.25908,40.68153,181.7451,0.3178265,-0.3504988,0.8734695,2
15.66,2.704808,1.315399,11.7837,0.0006061193383966,-0.1199853665551959,-0.6258881839948014,46.62627,39.84489,181.2646,0.3088027,-0.3755027,0.8648321,2
15.68,2.781327,1.512929,11.85802,-0.0218754595767848,-0.0349552722265152,-0.6133989842181826,49.98688,38.908,180.6752,0.2995092,-0.4001646,0.855426,2
15.7,2.857372,1.707654,11.93245,-0.0470004981668952,-0.0646824910649042,-0.6050988969850335,53.33919,37.84189,179.9489,0.2899543,-0.424463,0.8452602,2
15.72,2.878662,1.110053,11.92723,-0.0696420720376026,-0.0923132849552586,-0.5935705182762394,50.64218,39.2397,178.7276,0.3079725,-0.3994645,0.8497974,2
15.74,2.95421,1.309593,11.99966,-0.0899015230306889,-0.1212623149810493,-0.5790254843039797,53.94182,38.17996,178.0142,0.2988644,-0.423481,0.8395275,2
15.76,3.029383,1.506432,12.07229,-0.0958149725738258,-0.0364926179942155,-0.5517043732094475,57.23118,36.95228,177.126,0.2895039,-0.447125,0.8285364,2
15.78,3.194739,1.104406,12.20687,-0.0791564169672769,-0.0628790696605137,-0.5085422136753852,61.19804,33.65608,171.2442,0.2856531,-0.4667858,0.8102387,2
15.8,3.268683,1.295702,12.27782,-0.0606546512521721,-0.0888418799049882,-0.46318200495321,64.37513,31.58847,169.475,0.2763938,-0.4892927,0.7976259,2
15.82,3.341915,1.484431,12.34863,-0.0403963287994323,-0.1176923725213553,-0.4158692122804792,67.51559,28.99415,167.1749,0.2669078,-0.5113799,0.7843508,2
15.84,3.414332,1.67063,12.41919,-3.743781554355064e-05,-0.1040421638111628,-0.3625412636375262,70.60261,25.6279,164.0992,0.2572038,-0.5330325,0.7704231,2
15.86,3.624772,1.161378,12.5885,0.0415823126737668,-0.0891214425842722,-0.3080157719678702,55.82368,28.62129,168.7136,0.2619685,-0.4299104,0.8407211,2
15.88,3.697761,1.341271,12.66232,0.08440998022064,-0.0761081082982446,-0.2525651837908458,58.88007,26.50485,166.7847,0.2533658,-0.4522728,0.8290828,2
15.9,3.769561,1.518533,12.73555,0.1161103046334195,0.0109116726061754,-0.2103197853789402,61.89098,23.96588,164.4301,0.2445625,-0.4742609,0.8167742,2
15.92,3.951977,1.228366,12.84696,0.1543251058365423,0.0049000422027032,-0.1756606684678354,37.91809,37.45135,174.7044,0.3175116,-0.29334,0.8899145,2
15.94,4.030143,1.400422,12.92811,0.1946576853337711,-0.0015167546454583,-0.1402731831459234,41.25415,36.52403,174.0188,0.3103286,-0.3187841,0.8817855,2
15.96,4.1067,1.569377,13.00833,0.222534508975575,0.0591962552620437,-0.1143244825362916,44.57977,35.48989,173.2196,0.3028753,-0.3439381,0.872876,2
15.98,4.181534,1.735331,13.08749,0.2540022644290075,0.0506069220568784,-0.0983482328839246,47.89389,34.32283,172.2814,0.2951574,-0.3687893,0.8631904,2
16.0,4.254313,1.263499,13.07413,0.2870289281347712,0.0416319703641081,-0.0833229924958276,14.02411,44.06425,177.1453,0.375024,-0.1038538,0.9186141,2
16.02,4.338935,1.43133,13.15979,0.3214677062244444,0.0292317352235178,-0.0696460734047113,17.56046,43.52424,176.9552,0.3700462,-0.1319811,0.9160198,2
16.04,4.421654,1.595609,13.24433,0.3513600745560692,0.105693312277857,-0.0451520600399408,21.09512,42.96024,176.7249,0.3647118,-0.1599808,0.9125324,2
16.06,4.520613,1.279212,13.28448,0.3841368285878288,0.0894242694112613,-0.0306281738991822,354.5302,48.9677,178.3954,0.4133161,0.04921621,0.9092295,2
