t,pX,pY,pZ,aX,aY,aZ,reX,reY,reZ,rtX,rtY,rtZ,ID
0.72,-45.30571,1.101702,-35.82837,3.747195478551025,-0.1032075424563562,0.838750030634956,14.63778,356.356,163.6092,-0.01306318,-0.1305223,0.9818046,3
0.74,-45.29375,1.155064,-35.80761,3.8015621933492776,-0.1061751861653305,0.7914378590979689,14.71809,0.1072711,163.6342,0.01915001,-0.1266505,0.9816482,3
0.76,-45.29457,1.354868,-35.80694,3.859525633039895,-0.1284016814019475,0.7367200218088579,14.73864,0.1138152,163.6599,0.01920286,-0.1268227,0.9816561,3
0.78,-45.29538,1.55467,-35.80626,3.914200962366065,-0.1260400887035576,0.6813538918206126,14.75939,0.1204004,163.6858,0.01925611,-0.1269967,0.9816637,3
0.8,-45.22437,1.160095,-35.70601,3.965018120038408,-0.1010056980000674,0.6254023512068034,18.32932,5.278003,166.2888,0.06412202,-0.1525399,0.9782614,3
0.82,-45.23465,1.354641,-35.67831,3.9986233155094215,-0.1219436909998251,0.5621394855141881,19.1384,5.41016,166.7003,0.06545453,-0.1595471,0.9774518,3
0.84,-45.09924,1.180454,-35.59608,4.029332509501367,-0.1186159675078881,0.4984579828693256,14.98665,13.22736,168.8393,0.1262466,-0.1178248,0.9787344,3
0.86,-45.08931,1.373149,-35.55413,4.0548972564386245,-0.1379318145409077,0.4312653255681802,16.28527,13.22699,168.8379,0.1271527,-0.1289406,0.9770837,3
0.88,-45.0794,1.565376,-35.51233,4.077273620003019,-0.1332418417457979,0.3637994404873961,17.58635,13.22625,168.8354,0.1280428,-0.1400598,0.9753032,3
0.9,-44.91791,1.202385,-35.44828,4.095910017908929,-0.1064466218183233,0.2961755273250732,6.876565,22.78168,171.9349,0.2007914,-0.04478257,0.9752826,3
0.92,-44.88714,1.384646,-35.37084,4.099003589402,-0.1257426267757587,0.2254857050590075,9.367565,22.78861,171.984,0.2020136,-0.06608872,0.9735001,3
0.94,-44.6726,1.22686,-35.28841,4.099274660769563,-0.1214937916409608,0.1551944711954753,0.7416664,31.30371,175.4901,0.2698221,0.004387637,0.9620845,3
0.96,-44.6164,1.393981,-35.17953,4.090121414491162,-0.1421031847904418,0.0831253565170104,4.365694,31.31504,175.7443,0.2708666,-0.02663647,0.9611484,3
0.98,-44.56121,1.557419,-35.0726,4.077898205020013,-0.1389730958249501,0.011906156070423,7.991692,31.34269,176.001,0.2716392,-0.05765118,0.9592451,3
1.0,-44.33724,1.269667,-35.09186,4.062110501178248,-0.1139721826268347,-0.0583634785458189,354.998,38.75098,179.9817,0.331435,0.0412182,0.9424683,3
1.02,-44.24835,1.415942,-34.95343,4.018695874450006,-0.1400496840091845,-0.1311888701655021,359.7708,38.72791,180.4868,0.3315721,0.0004782708,0.9434183,3
1.04,-44.13922,1.254625,-35.06121,3.969431036201459,-0.1661429035538704,-0.2034356742291443,357.4123,44.98964,181.2714,0.3827104,0.01661663,0.923526,3
1.06,-44.06409,1.419177,-34.96665,3.9185221748984063,-0.167613855731897,-0.274499508482342,0.9306507,44.9838,181.675,0.3823898,-0.01309417,0.9238501,3
1.08,-43.99039,1.580166,-34.87393,3.865529572668432,-0.1463696698627112,-0.34424555647381,4.448436,45.00268,182.077,0.3817041,-0.04278077,0.9232923,3
1.1,-43.92743,1.24032,-35.00747,3.783965403687266,-0.1744689658288593,-0.4134083254062979,4.015417,51.44213,182.2134,0.4330333,-0.03993377,0.9004901,3
1.12,-43.84101,1.406396,-34.91972,3.7020001891760894,-0.1771137120567665,-0.4810768892358457,7.624889,51.4869,182.6547,0.4318774,-0.06991436,0.8991823,3
1.14,-43.75775,1.226085,-34.99366,3.6019044151783524,-0.2067177126338673,-0.5471578625530613,10.29441,57.51846,183.4139,0.4766345,-0.09288769,0.8740126,3
1.16,-43.66608,1.396493,-34.91496,3.502015481967467,-0.2097737833751506,-0.6116071164447598,13.84665,57.62907,183.9427,0.4745454,-0.1220125,0.8712795,3
1.18,-43.57592,1.563328,-34.83755,3.399751752167868,-0.1877491539276257,-0.6728193507464004,17.39673,57.77584,184.4874,0.4719912,-0.1510086,0.8676928,3
1.2,-43.5926,1.19908,-34.97428,3.2657893273702543,-0.2192131274523351,-0.7330875528950553,14.72168,63.45589,183.9663,0.5174693,-0.1269546,0.8453716,3
1.22,-43.49595,1.375368,-34.90564,3.130537757096149,-0.222283409352028,-0.791191322152593,18.24452,63.62093,184.5477,0.514689,-0.1552712,0.8417035,3
1.24,-43.46365,1.174965,-34.96492,2.97938971567862,-0.2542458105036231,-0.8460949261623547,18.67071,67.26112,184.461,0.54083,-0.1562299,0.8244727,3
1.26,-43.36571,1.357151,-34.9038,2.8282688500226936,-0.2569152856464557,-0.8981204234008366,22.13607,67.47524,185.0749,0.5374581,-0.1836188,0.8200423,3
1.28,-43.3703,1.159812,-34.94612,2.677349110704351,-0.2322139451240532,-0.9470149884712812,21.49805,68.39109,184.5656,0.545575,-0.1761357,0.8161417,3
1.3,-43.27242,1.346003,-34.88927,2.503503779854864,-0.2647029187215851,-0.9935915561794556,24.92604,68.61761,185.14,0.541824,-0.2027607,0.8111904,3
1.32,-43.24194,1.137703,-34.91659,2.331924758446113,-0.2669393559861004,-1.0367643331944354,26.24272,69.69136,184.5225,0.5486661,-0.2081198,0.8037624,3
1.34,-43.14394,1.329241,-34.86502,2.151758234083774,-0.2975348307248943,-1.0769852193607257,29.6407,69.93488,185.042,0.5442888,-0.2337807,0.7978975,3
1.36,-43.04649,1.517759,-34.81376,1.9754564637011385,-0.297182408389572,-1.1134819347090392,33.03684,70.22216,185.5941,0.5394187,-0.2592193,0.7913227,3
1.38,-43.06825,1.123775,-34.86922,1.792055166975227,-0.3243832099374608,-1.147155815803572,32.08271,69.9536,183.9435,0.5428075,-0.2452427,0.7924635,3
1.4,-42.96707,1.319942,-34.82752,1.6143750688683074,-0.3203623119310401,-1.176732465930053,35.48973,70.05044,184.1176,0.5373119,-0.2690598,0.7857196,3
1.42,-42.88296,1.116708,-34.84166,1.4386575696483614,-0.3436490744736575,-1.204791604225397,39.64467,71.35276,182.8555,0.541617,-0.2890475,0.7688832,3
1.44,-42.779,1.315701,-34.81174,1.2694356180413813,-0.3354471242957736,-1.2282325259874425,43.02217,71.21465,182.6464,0.5346441,-0.3105506,0.7611248,3
1.46,-42.67522,1.511798,-34.78187,1.1069391370968669,-0.2978351203198192,-1.2468158386305743,46.39833,71.05051,182.4132,0.5272082,-0.3317779,0.752706,3
1.48,-42.65268,1.114269,-34.8135,0.939700858443218,-0.3170546202823802,-1.2628529863202012,44.70566,73.49682,181.2231,0.5500616,-0.3106191,0.7434491,3
1.5,-42.54828,1.314589,-34.78949,0.7803325766692488,-0.3046381625315222,-1.273535748200039,48.0503,73.27198,180.9127,0.5424134,-0.3310352,0.7348365,3
1.52,-42.44398,1.512067,-34.7655,0.6396595327800085,-0.320340641660074,-1.279739015014452,51.39296,73.00207,180.559,0.5343034,-0.3511614,0.7255985,3
1.54,-42.41262,1.109757,-34.78721,0.5065584519694672,-0.3049171956604197,-1.2801104696356689,50.74506,73.88777,178.7796,0.546674,-0.3366664,0.7193484,3
1.56,-42.30879,1.309026,-34.76823,0.3813352885908401,-0.2603910999040709,-1.2744346944624496,54.03883,73.44135,178.2163,0.5382571,-0.3558077,0.7097576,3
1.58,-42.12133,1.102083,-34.76104,0.272468864826858,-0.2701138092966562,-1.263885793770025,59.73447,72.40304,174.0782,0.5322546,-0.374859,0.6836407,3
1.6,-42.0185,1.295629,-34.74632,0.171649088103317,-0.2496973160768009,-1.2466679629064243,62.96323,71.36607,172.8971,0.522764,-0.3925516,0.6724989,3
1.62,-41.91615,1.486523,-34.73166,0.0791876717731749,-0.2010922813300363,-1.222593931574094,66.17841,70.03262,171.4212,0.5128458,-0.4099122,0.6608138,3
1.64,-41.77662,1.11815,-34.73432,-0.0013139077965744,-0.2002645856821166,-1.1941316504515926,61.80198,66.16199,167.2909,0.513097,-0.3758278,0.683523,3
1.66,-41.67403,1.304432,-34.72138,-0.0725638788816676,-0.170450662542229,-1.1580022568155055,64.89117,64.20679,165.1041,0.5036165,-0.3924927,0.6718706,3
1.68,-41.47442,1.161804,-34.7194,-0.1235884607801818,-0.1574748875232652,-1.117469376285869,55.75215,67.00404,168.8759,0.5234084,-0.340757,0.7086211,3
1.7,-41.3702,1.341386,-34.70668,-0.1647341890023632,-0.1166883111500362,-1.0686163664846378,58.83554,65.55835,167.1585,0.514818,-0.3576329,0.6980252,3
1.72,-41.28185,1.195662,-34.71361,-0.18454130706428,-0.0933507855356816,-1.0183982655768729,48.23042,73.09174,173.3045,0.5617377,-0.2959413,0.7178076,3
1.74,-41.17642,1.37181,-34.70049,-0.1920053612938188,-0.0435046376142061,-0.9591284753768434,51.38338,72.42379,172.4305,0.5542973,-0.3138832,0.708582,3
1.76,-41.01244,1.23905,-34.73357,-0.1887921504810208,0.0229465865202019,-0.8937918317752658,32.0032,78.95254,175.4131,0.6191511,-0.1881559,0.734373,3
1.78,-40.89233,1.408172,-34.7222,-0.1821878604118172,0.014673055112234,-0.8277623844559354,35.5458,78.7142,174.9846,0.6136346,-0.2093697,0.727132,3
1.8,-40.77425,1.573726,-34.71103,-0.1608876749963679,0.0003504765951018,-0.7521875519869461,39.08665,78.42939,174.515,0.6075234,-0.2303753,0.7191907,3
1.82,-40.7489,1.263243,-34.74811,-0.1336842416318955,0.0203365674371974,-0.6864897431998029,13.85383,84.44599,177.205,0.6690925,-0.07301416,0.7329344,3
1.84,-40.62625,1.430426,-34.74001,-0.0900667553830203,0.0363936571838655,-0.6157185144492763,17.43831,84.41466,177.0888,0.6666894,-0.09538201,0.7293352,3
1.86,-40.51767,1.275606,-34.75461,-0.0516605092758508,0.1002256397824681,-0.5482115847157578,358.356,88.6462,178.2055,0.6983856,0.02120241,0.7154068,3
1.88,-40.39441,1.441098,-34.7485,-0.0077117006314662,0.0899447140314114,-0.4843446143522261,1.934327,88.64643,178.2981,0.6987081,-0.001699082,0.7150538,3
1.9,-40.27346,1.602864,-34.74251,0.0505991098899425,0.0736739647977236,-0.4179386722160565,5.51168,88.65247,178.391,0.6983491,-0.02459234,0.7140034,3
1.92,-40.2347,1.2915,-34.75804,0.098711987996686,0.0845086332731362,-0.3575826671695274,352.2099,90.79409,179.0717,0.7099355,0.0534525,0.7009367,3
1.94,-40.10973,1.453455,-34.75131,0.1574052236823071,0.0924141188531052,-0.3005126948952874,355.8058,90.7686,179.3156,0.7111908,0.02994885,0.7020209,3
1.96,-40.03011,1.282492,-34.76087,0.1989900126580659,0.1449222870885487,-0.2481844149513916,353.7811,91.63246,179.7792,0.7159781,0.03918536,0.6960095,3
1.98,-39.90706,1.444627,-34.75372,0.2269973799282008,0.1215632403614878,-0.2148460379954508,357.3334,91.60857,180.0873,0.7167808,0.01567435,0.6969098,3
2.0,-39.78652,1.603052,-34.74673,0.261886221467944,0.0970520229918911,-0.1914675468053817,0.8848182,91.60381,180.3936,0.7168897,-0.007845102,0.6971354,3
2.02,-39.83551,1.254521,-34.76542,0.2780185999827393,0.1357147857558905,-0.1601225873522826,357.4526,92.28812,181.1552,0.7210246,0.008132776,0.6924797,3
2.04,-39.74008,1.24569,-34.76437,0.2711565925370127,0.1028010010307579,-0.1533885964203385,1.458683,92.84133,181.5994,0.7241689,-0.01888401,0.6893641,3
2.06,-39.6158,1.410434,-34.76027,0.2559190959146686,0.0929599450519434,-0.1299852495179934,5.108613,92.8587,181.9026,0.7231955,-0.04272996,0.6890049,3
2.08,-39.49392,1.571397,-34.75626,0.2444065463158571,0.0838485421640818,-0.1158869493395915,8.757987,92.8957,182.2089,0.7214835,-0.06652786,0.6879422,3
2.1,-39.559,1.231898,-34.7585,0.2363346297581046,0.0726106186287245,-0.1117009970493194,8.293398,93.21008,182.8839,0.7232534,-0.06790061,0.6863304,3
2.12,-39.43575,1.400584,-34.75573,0.2046973286779305,0.0574821994475711,-0.0926568025099507,11.93555,93.26157,183.1769,0.7207472,-0.09140951,0.6848081,3
2.14,-39.43749,1.208456,-34.75343,0.176231292468346,0.0439638731146524,-0.0825993590157398,13.48198,93.7681,183.5594,0.7220846,-0.1027021,0.6810858,3
2.16,-39.31673,1.38295,-34.75198,0.1337710969913619,0.0280277566303593,-0.0634534601311385,17.08881,93.84573,183.8537,0.7185076,-0.1257043,0.6786691,3
2.18,-39.2141,1.557405,-34.74039,0.0938644489879028,0.0142614998790412,-0.052317703494408,20.22844,93.35654,184.2725,0.7112179,-0.1470991,0.6797251,3
2.2,-39.32001,1.186184,-34.74563,0.0562251856326101,-0.0003077136670996,-0.0497016286373144,16.80237,92.79735,183.8345,0.7126132,-0.1246695,0.6853939,3
2.22,-39.22454,1.371376,-34.74387,0.0077904623772369,-0.0179725738138797,-0.0308051804545383,19.7285,92.24728,183.9321,0.705689,-0.1430332,0.6866926,3
2.24,-39.23393,1.162335,-34.73599,-0.0373780239173937,-0.0330625412629385,-0.0187258465931225,21.05359,89.96729,184.1149,0.6899201,-0.1540904,0.6995927,3
2.26,-39.13861,1.352028,-34.73123,-0.0861124627524994,-0.0482146899729561,0.0013436606431875,24.03222,89.18481,184.1566,0.6808479,-0.1730586,0.7013584,3
2.28,-39.0437,1.539432,-34.72572,-0.1312297965875704,-0.0604837062806405,0.0155143501278454,27.01975,88.37874,184.1588,0.6712209,-0.1919909,0.7026486,3
2.3,-39.11417,1.139588,-34.72696,-0.1577708755955607,-0.0166085254444519,0.0387864737423155,25.97378,86.45216,183.9554,0.6613121,-0.1866833,0.7149078,3
2.32,-39.01825,1.333797,-34.72193,-0.2046614792761412,-0.0569526483775913,0.0516610173359914,29.01783,85.49014,183.8361,0.6505656,-0.2058749,0.7162537,3
2.34,-39.00086,1.124992,-34.72113,-0.2367319141894439,-0.0365414075676163,0.0712175023962586,31.82464,82.90249,183.5189,0.6300076,-0.2249421,0.7260322,3
2.36,-38.90196,1.322917,-34.71616,-0.2638848479293996,-0.0156364273779922,0.0858817926402721,34.97474,81.83571,183.1827,0.6181587,-0.2443302,0.7259136,3
2.38,-38.88233,1.11885,-34.71861,-0.2982270634188069,-0.081285108179826,0.0895284679873835,37.33268,81.09855,182.9512,0.6094388,-0.2589734,0.7249975,3
2.4,-38.77859,1.318047,-34.71354,-0.3097514420131997,-0.0593344318443452,0.1032986499741976,40.63473,79.89898,182.4433,0.5963505,-0.27896,0.7235051,3
2.42,-38.703,1.115136,-34.72776,-0.3166126732534309,-0.0934613531030043,0.110581376247965,43.26202,80.63831,181.6744,0.5973071,-0.2898193,0.7121675,3
2.44,-38.59872,1.315716,-34.72225,-0.3163012049278357,-0.0668060092705062,0.1219332144586395,46.58305,79.35945,181.1072,0.5834936,-0.3099694,0.7093111,3
2.46,-38.49456,1.51361,-34.71605,-0.311954728018625,-0.0400324888287975,0.1308907789757736,49.89286,77.94499,180.3873,0.5691565,-0.3298304,0.7058067,3
2.48,-38.4734,1.113042,-34.72717,-0.3082348828759214,-0.1013911595331062,0.1340673059374344,48.09194,78.82948,179.4564,0.5813162,-0.3120447,0.7042905,3
2.5,-38.37001,1.313763,-34.72044,-0.2888476448945694,-0.074717818869513,0.1435500574679018,51.38234,77.40406,178.7361,0.5671559,-0.3320873,0.7002276,3
2.52,-38.19212,1.103805,-34.72083,-0.2463486091543565,-0.1044711202704701,0.1516629929761572,56.54226,76.58493,176.1092,0.5580636,-0.3530025,0.680875,3
2.54,-38.09065,1.300093,-34.71302,-0.2017370666180253,-0.1347483882599762,0.1577882288578305,59.77504,74.74725,174.975,0.5431345,-0.3725438,0.6750822,3
2.56,-37.98955,1.493843,-34.70456,-0.1444219693173156,-0.0793265644956448,0.1685655593036088,62.98389,72.57108,173.4909,0.5277358,-0.3917491,0.6686939,3
2.58,-37.83115,1.109346,-34.70525,-0.0761518770311111,-0.1035457452372487,0.1767546357783533,62.65296,68.17223,167.723,0.5220358,-0.3769296,0.6722466,3
2.6,-37.7309,1.298268,-34.69464,-0.0189181665098674,-0.0687732246956463,0.1856118358901337,65.73083,65.10861,165.2886,0.5068162,-0.3957745,0.6647648,3
2.62,-37.63149,1.484717,-34.68343,0.0558864687223117,-0.0800198597246536,0.1926886629332243,68.73891,61.27626,162.0775,0.4911676,-0.4142699,0.6567082,3
2.64,-37.50982,1.144729,-34.69038,0.1304126809094841,-0.0931200540673332,0.1993937380666661,58.31707,66.02914,167.8003,0.5165256,-0.3556832,0.6999142,3
2.66,-37.40931,1.326906,-34.67594,0.1986536877628308,-0.0277577790619908,0.2081266519062916,61.34477,63.27536,165.6205,0.5019706,-0.3744339,0.6930249,3
2.68,-37.23459,1.195798,-34.6851,0.2693431296368134,-0.0331866411943484,0.209092814484868,48.25175,72.15916,173.1482,0.5562474,-0.2976377,0.7219009,3
2.7,-37.13215,1.372399,-34.6685,0.3254226413572416,0.0081338906589513,0.2119163409837581,51.37059,70.43996,172.0328,0.543074,-0.3171245,0.7170762,3
2.72,-36.95228,1.239312,-34.70149,0.3851357057533002,0.0032807443791623,0.2075205913002449,32.00153,77.02009,175.2879,0.6068901,-0.1909087,0.7444919,3
2.74,-36.83516,1.40887,-34.68349,0.4457032499434481,0.044716940111812,0.2062548073831758,35.51952,75.80614,174.6605,0.5956268,-0.2131692,0.7419043,3
2.76,-36.72023,1.575005,-34.66486,0.5040242093952019,0.0835158315943371,0.2050766618701782,39.02531,74.48585,173.9078,0.5837618,-0.2352134,0.7385544,3
2.78,-36.67303,1.263402,-34.70454,0.5417658462087607,0.094499725757598,0.2020681003058619,13.85945,81.15169,177.1268,0.6477969,-0.07542373,0.7517926,3
2.8,-36.55346,1.430879,-34.68531,0.5750900861141721,0.1051023914496385,0.1997452323822921,17.43694,80.22118,176.875,0.6397449,-0.09852045,0.7530211,3
2.82,-36.4232,1.27572,-34.69795,0.6082470819965291,0.0676660980487402,0.1931010842438905,358.3663,84.42882,178.1471,0.6715801,0.0214199,0.7406185,3
2.84,-36.3032,1.441458,-34.67768,0.6501053540601687,0.098280182015674,0.1944834189365156,1.945755,83.56797,178.1287,0.666346,-0.001779624,0.7452706,3
2.86,-36.18568,1.603596,-34.6568,0.6859764837202134,0.1260732868258699,0.1973248350027532,5.523466,82.70332,178.0562,0.66043,-0.02497051,0.7491492,3
2.88,-36.12057,1.291584,-34.67615,0.7085591628904497,0.129731268472121,0.1967863102764742,352.2159,85.23853,179.0088,0.6751046,0.05579071,0.7345425,3
2.9,-35.99937,1.453776,-34.65163,0.7250414713154427,0.1322314501007917,0.198577228088979,355.8171,84.36671,179.1394,0.6708361,0.03208125,0.7406694,3
2.92,-35.89403,1.282711,-34.66124,0.7347945145809218,0.1307864595994584,0.2025206846847789,353.7813,85.46857,179.7293,0.6775045,0.04144178,0.7335123,3
2.94,-35.77503,1.44502,-34.63471,0.7361558925805234,0.1205126186516847,0.1999502654498126,357.3406,84.59593,179.9378,0.6727957,0.01752915,0.7394643,3
2.96,-35.65876,1.603728,-34.60771,0.7306735947790264,0.1103293171119366,0.1994002381455741,0.9016588,83.73793,180.0918,0.6674039,-0.006394216,0.7446543,3
2.98,-35.67622,1.254622,-34.64756,0.7242140464826532,0.14685112343306,0.2031413998116606,357.4524,85.24972,181.1058,0.6771543,0.009823268,0.7354421,3
3.0,-35.55849,1.419174,-34.62202,0.6899991509782559,0.1094488474544625,0.1993294372333585,1.02075,84.39326,181.2946,0.6715331,-0.01418657,0.7408351,3
3.02,-35.44334,1.580208,-34.59602,0.6498593962831727,0.0717196163931481,0.1973742285771456,4.590468,83.54684,181.4304,0.6652275,-0.03817451,0.7454618,3
3.04,-35.49154,1.240473,-34.63332,0.6162231363122164,0.0578607831654515,0.194783651129911,4.056207,85.5738,182.0405,0.678278,-0.03805495,0.7337373,3
3.06,-35.42297,1.232241,-34.63408,0.5813152246187316,0.0711169320241981,0.1947464489516974,8.255501,85.97773,182.8476,0.6785693,-0.06953493,0.7305831,3
3.08,-35.30457,1.401418,-34.61102,0.5401734588144604,0.0835768946395335,0.1967310377589237,11.87213,85.16261,183.05,0.6707427,-0.09403318,0.7339728,3
3.1,-35.18847,1.567059,-34.58744,0.4647936389935143,0.0177914540452149,0.19166916064035,15.49018,84.34892,183.2022,0.6622154,-0.1184248,0.7365847,3
3.12,-35.27386,1.208739,-34.62197,0.4121581872701156,0.0270757763380964,0.1893249085109341,13.45852,85.96152,183.5054,0.6741174,-0.1063931,0.7286462,3
3.14,-35.15708,1.383523,-34.6011,0.339371755857119,-0.0167640341135368,0.1836030433489766,17.06282,85.16225,183.6903,0.6652822,-0.130723,0.7310271,3
3.16,-35.16317,1.183116,-34.61769,0.280980429003109,-0.0051144294043536,0.1797132871546365,17.43155,85.5763,183.8879,0.6672868,-0.1339183,0.7284703,3
3.18,-35.04897,1.364097,-34.59925,0.2189648142491638,0.0066726017259464,0.1777520042187657,20.99696,84.77599,184.0275,0.657724,-0.1577887,0.7301003,3
3.2,-34.93624,1.541805,-34.58022,0.1553239810053295,0.0151188575451315,0.1761669213815366,24.5628,83.96487,184.1161,0.6474949,-0.18149,0.7309794,3
3.22,-35.02735,1.160819,-34.60741,0.0857832359542358,-0.0063698458369154,0.1682911689291044,21.58648,83.24912,184.0627,0.6471239,-0.1630242,0.7382374,3
3.24,-34.9157,1.347999,-34.59053,0.0189215857686138,-0.0256248787930957,0.1621144344652405,25.11132,82.40184,184.0538,0.6367617,-0.1862015,0.739016,3
3.26,-34.91832,1.139057,-34.5998,-0.0437925488658659,-0.0431634921061693,0.1532153792256085,26.323,80.96026,183.9408,0.625803,-0.1948253,0.7452955,3
3.28,-34.80901,1.331945,-34.58419,-0.1029313299627179,-0.0581194969299531,0.1453493987383565,29.80886,80.04474,183.7847,0.6146077,-0.2173816,0.7450877,3
3.3,-34.70037,1.521837,-34.56793,-0.1587382607414924,-0.0739026556855773,0.1383933590452892,33.29044,79.08401,183.5563,0.6028183,-0.2397149,0.7441471,3
3.32,-34.76249,1.124904,-34.58642,-0.2068348265374568,-0.0894040017082448,0.1283221563225378,32.10225,77.84769,183.4969,0.5969489,-0.2334308,0.752605,3
3.34,-34.65547,1.322257,-34.57143,-0.249713509037317,-0.1023050022594701,0.11910451668302,35.5306,76.80563,183.1332,0.5848066,-0.2551936,0.7511963,3
3.36,-34.54884,1.516736,-34.55577,-0.281136577386452,-0.1123290098001455,0.106995207236971,38.95169,75.68813,182.6726,0.5721132,-0.2767054,0.7490674,3
3.38,-34.52633,1.115635,-34.58003,-0.3074012903797514,-0.1199428192679002,0.0956791575851534,41.8876,76.87769,182.3272,0.5748002,-0.2917151,0.7358845,3
3.4,-34.42104,1.315816,-34.56662,-0.3168639805094138,-0.0686775474237522,0.0862806791879293,45.26131,75.67831,181.8017,0.5613667,-0.3127465,0.7325511,3
3.42,-34.31908,1.1138,-34.57055,-0.3345737149323469,-0.1034429990974185,0.0734905843589315,46.39174,76.17146,180.3216,0.5661045,-0.3116052,0.7241425,3
3.44,-34.21553,1.314498,-34.55706,-0.3430490330524041,-0.0772630118525496,0.0644151282696192,49.71122,74.88549,179.7159,0.5524779,-0.3323595,0.719781,3
3.46,-34.11213,1.512509,-34.54292,-0.3372281382844697,-0.1086467412306269,0.0549735978801431,53.01914,73.44573,178.9414,0.5383593,-0.3528055,0.7147673,3
3.48,-34.03971,1.107223,-34.55042,-0.3275640536578743,-0.1397370541168566,0.0462507293054583,53.33182,74.09643,177.6115,0.5457541,-0.3468908,0.7074484,3
3.5,-33.93792,1.305852,-34.53659,-0.30189094122955,-0.0845635187164841,0.0408396753502291,56.5946,72.51379,176.6961,0.5315369,-0.3670881,0.7016345,3
3.52,-33.69955,1.104612,-34.51944,-0.2482637292793796,-0.1119411791267293,0.0359734842765639,61.22513,68.73952,171.1065,0.5169795,-0.3813897,0.6859472,3
3.54,-33.59958,1.296012,-34.50449,-0.2033621077637164,-0.0793154728953414,0.0330905686291824,64.3765,66.23671,169.2277,0.5022331,-0.400788,0.6783653,3
3.56,-33.50031,1.484921,-34.489,-0.1566874691405364,-0.0477463475933191,0.0309890186683574,67.48128,63.1415,166.748,0.4870609,-0.4198304,0.6701981,3
3.58,-33.33931,1.129093,-34.48229,-0.1002475658698389,-0.092328640631303,0.0273415594050137,60.93077,62.26943,166.6639,0.4930438,-0.3792989,0.7023462,3
3.6,-33.23979,1.313516,-34.46383,-0.0511511299555436,-0.0535916931787039,0.0260854857679699,63.94878,59.21964,164.1594,0.478571,-0.3982417,0.6944195,3
3.62,-33.02091,1.178457,-34.45349,0.0127279084337126,-0.05957175840396,0.0216859947051828,52.0302,66.29275,171.1821,0.5181563,-0.328375,0.7317797,3
3.64,-32.92002,1.356735,-34.43207,0.0773116215165994,-0.0674351922344942,0.0182384255051024,55.11623,64.27827,169.7069,0.5048604,-0.3478657,0.7255831,3
3.66,-32.82063,1.532426,-34.41021,0.1388219821471525,-0.0017537884573346,0.0183351976037942,58.16597,61.94458,167.9026,0.4911508,-0.3670585,0.7187801,3
3.68,-32.69489,1.228601,-34.4403,0.1982807072886756,-0.0069414926932074,0.0093537352085277,37.79893,71.84579,174.6974,0.5666057,-0.2363468,0.7565388,3
3.7,-32.58377,1.400116,-34.41533,0.2480016588241262,0.0323202780869554,0.0047306669622164,41.18808,70.54962,173.9561,0.5549813,-0.2582627,0.7524498,3
3.72,-32.43658,1.257702,-34.44189,0.2975616770760547,0.0690896591941139,0.0006346131535766,19.94571,77.00623,176.554,0.6169481,-0.11703,0.7671593,3
3.74,-32.32133,1.426533,-34.41726,0.3211030789032572,0.0789303002542222,-0.005475787435305,23.42918,76.06297,176.2284,0.608198,-0.1399877,0.7667319,3
3.76,-32.20829,1.591964,-34.39215,0.3423835456135542,0.0885803968172781,-0.0109151806036544,26.90841,75.07089,175.8288,0.5988539,-0.1628142,0.7655447,3
3.78,-32.1603,1.272112,-34.42767,0.3597217397413419,0.0499826595164192,-0.0222089798864884,2.318004,81.04744,177.9166,0.6498021,-0.003562342,0.7596171,3
3.8,-32.04229,1.438943,-34.40279,0.3845755877760259,0.0800175951059248,-0.0243627600846041,5.868971,80.22211,177.8481,0.6440483,-0.027064,0.7630404,3
3.82,-31.89252,1.285382,-34.41171,0.4105623326526686,0.0635626522958231,-0.030451106497809,353.3085,83.33082,178.7038,0.6631109,0.05110218,0.7461577,3
3.84,-31.77279,1.448949,-34.38471,0.4311237691504015,0.0929243714488926,-0.0307475167784714,356.8937,82.50269,178.813,0.658875,0.02720382,0.7516931,3
3.86,-31.65571,1.608856,-34.35728,0.4468052467784598,0.1194126874135571,-0.0301506387011514,0.4791781,81.6834,178.8703,0.6539653,0.003283788,0.7564492,3
3.88,-31.60141,1.296078,-34.38646,0.4396095172111822,0.0699510077218855,-0.0376890158969285,353.4698,83.72796,179.4797,0.6660818,0.0454413,0.7436873,3
3.9,-31.48152,1.457114,-34.3564,0.43581353795591,0.0888343920911615,-0.0385713945403152,357.0525,82.89461,179.6856,0.6616566,0.02109329,0.7493608,3
3.92,-31.36445,1.614446,-34.32598,0.4266107807298422,0.1057348317353564,-0.0392847137306073,0.6367784,82.07599,179.8392,0.6565545,-0.003269984,0.754257,3
3.94,-31.34259,1.254658,-34.37798,0.402653720831911,0.0962183250304297,-0.0449394319722609,357.439,84.54893,181.1271,0.672645,0.009920292,0.7395626,3
3.96,-31.22536,1.41922,-34.35058,0.374037197557703,0.0871708922745887,-0.0508626967716274,1.000347,83.73212,181.3415,0.6672443,-0.01431316,0.7446959,3
3.98,-31.1107,1.580267,-34.3228,0.3402976996786755,0.075782188498444,-0.0574091398225533,4.563323,82.92702,181.5056,0.6611689,-0.03852446,0.7490652,3
4.0,-31.1383,1.240498,-34.36049,0.2973685483968857,0.0643879794887358,-0.0629781276179599,4.030692,84.91563,182.0433,0.6740598,-0.03797017,0.7376243,3
4.02,-31.01892,1.406795,-34.33413,0.2511036657692944,0.0539909265338702,-0.0688639092286793,7.675541,84.12682,182.2652,0.6673375,-0.06289317,0.7414807,3
4.04,-30.98747,1.226392,-34.35111,0.1859554841892592,-0.0088481886740559,-0.0810225831200401,10.33958,85.17345,183.142,0.6718806,-0.08479394,0.734655,3
4.06,-30.86956,1.397092,-34.32727,0.1419713787541252,0.0030992392497766,-0.0847599468621309,13.95653,84.40587,183.3426,0.6638739,-0.1094073,0.7373505,3
4.08,-30.75383,1.564272,-34.30296,0.1023234813543947,0.0410684393965199,-0.0852384493097417,17.57464,83.63853,183.496,0.6551772,-0.1338975,0.7392688,3
4.1,-30.8348,1.199692,-34.34171,0.0592086918628864,0.0766203219691289,-0.0860380344081619,14.77168,85.37184,183.6292,0.6690245,-0.115738,0.7313765,3
4.12,-30.71907,1.37656,-34.32065,-0.0233476751387633,0.0063527175673405,-0.0970538064593924,18.36041,84.61624,183.8108,0.6602055,-0.1400142,0.7332304,3
4.14,-30.71454,1.175741,-34.33677,-0.0773985059785684,0.0152804091371824,-0.100298684059668,18.75017,84.64366,184.036,0.6596479,-0.1437597,0.7329086,3
4.16,-30.60102,1.358664,-34.31786,-0.1492156202999712,-0.029962138304313,-0.1078264693910444,22.30874,83.87966,184.1551,0.6500767,-0.1675765,0.734003,3
4.18,-30.48884,1.538343,-34.2984,-0.2028918762750935,-0.0170582187575895,-0.1102703285684967,25.86746,83.10316,184.2249,0.6398526,-0.1912159,0.7343495,3
4.2,-30.3782,1.714867,-34.27843,-0.2559639367649908,-0.0035354806471141,-0.1126988889573992,29.42531,82.30651,184.2411,0.6289865,-0.2146492,0.7339496,3
4.22,-30.51676,1.145478,-34.32211,-0.3356997098854628,-0.0742094431318847,-0.1204359730598829,24.61638,81.54749,184.027,0.631997,-0.183751,0.7443227,3
4.24,-30.40656,1.336596,-34.30535,-0.3834440145843483,-0.0600735108636149,-0.1216454418080044,28.12055,80.70646,183.9404,0.6213632,-0.2066229,0.7442073,3
4.26,-30.39535,1.128767,-34.31277,-0.4282948477545032,-0.0451379980376331,-0.1226506399863138,30.05684,79.01046,183.6882,0.6076343,-0.2197335,0.7500992,3
4.28,-30.28767,1.32473,-34.29742,-0.4694897973465863,-0.0569039320553637,-0.1238883725545525,33.50216,78.0663,183.4164,0.5961046,-0.2417566,0.7489,3
4.3,-30.18045,1.517783,-34.28144,-0.5064212991775126,-0.0656810376071528,-0.1249262433318723,36.94205,77.06165,183.062,0.5840117,-0.2635413,0.7469819,3
4.32,-30.21613,1.118801,-34.30032,-0.5420380587404088,-0.1311708151685758,-0.1297590370052841,37.40973,76.81329,182.9731,0.5817096,-0.2664826,0.7471516,3
4.34,-30.11015,1.317764,-34.28622,-0.5483618807285495,-0.1083222706910545,-0.1295217005931839,40.80288,75.7108,182.4914,0.5690578,-0.287677,0.7445112,3
4.36,-30.04182,1.115087,-34.30246,-0.5495868898657128,-0.0849435555494098,-0.1289986777026968,43.28111,77.13963,181.7053,0.5751682,-0.2969244,0.7300822,3
4.38,-29.93715,1.315559,-34.28966,-0.5563660737806666,-0.1485191278125197,-0.1319047184495323,46.63057,75.96692,181.1737,0.5619533,-0.3177299,0.7262827,3
4.4,-29.83264,1.513291,-34.27621,-0.5454478440365231,-0.1230468581412339,-0.1287837141732009,49.97015,74.66744,180.4999,0.5482327,-0.3382379,0.7218186,3
4.42,-29.81944,1.113008,-34.2922,-0.5287886986816841,-0.0973380613335118,-0.1250013322228476,48.07644,75.99571,179.4943,0.5636518,-0.318518,0.7185771,3
4.44,-29.71615,1.313658,-34.27957,-0.4913407314406974,-0.1003301297293869,-0.1195602255765013,51.37767,74.68069,178.8124,0.5501403,-0.3389565,0.7137021,3
4.46,-29.54655,1.10378,-34.27551,-0.4495273961950952,-0.1018691840060305,-0.1134905406525517,56.51934,74.24694,176.1517,0.5439758,-0.3594516,0.6923124,3
4.48,-29.44523,1.300023,-34.263,-0.4035844983645198,-0.1053286883516687,-0.1069460064161447,59.75847,72.52683,175.0605,0.5297077,-0.3792067,0.6857827,3
4.5,-29.34432,1.493714,-34.24993,-0.3411035543820868,-0.1028086950616477,-0.0983204702474589,62.97577,70.48508,173.6374,0.5149857,-0.398621,0.6786563,3
4.52,-29.07524,1.118171,-34.23795,-0.274877019392783,-0.0996388922161434,-0.0888698130172578,61.80317,64.84712,167.1515,0.5056801,-0.3793055,0.6889291,3
4.54,-28.97504,1.304783,-34.22279,-0.2256723019478963,-0.0395194058243276,-0.079181925610575,64.86005,61.85441,164.6882,0.4912159,-0.3981304,0.6808687,3
4.56,-28.87582,1.488895,-34.20713,-0.1557129850567724,-0.0510620123122759,-0.0715293468175808,67.84654,58.1351,161.4913,0.4763414,-0.416609,0.6722285,3
4.58,-28.71934,1.162146,-34.20642,-0.0841362314362577,-0.0637842815123545,-0.0631873792684585,55.70818,64.32864,168.7619,0.5071362,-0.3475287,0.7204967,3
4.6,-28.61855,1.342117,-34.18761,-0.0205447043795232,0.0004658139712101,-0.0529815288718911,58.74598,61.91005,166.8236,0.4935413,-0.3664269,0.713445,3
4.62,-28.41825,1.212072,-34.19548,0.044466266163587,-0.0055007321694117,-0.0505941759161672,43.00589,71.55064,173.9309,0.5588992,-0.268176,0.7424448,3
4.64,-28.31132,1.386118,-34.17418,0.093631102407329,0.0344457165874018,-0.0464848803492445,46.26542,70.13079,173.0301,0.5468883,-0.2888471,0.737576,3
4.66,-28.20616,1.557271,-34.15244,0.1453773404234333,0.0286619508321847,-0.0502009978205082,49.50614,68.54137,171.9472,0.5343994,-0.309255,0.7320514,3
4.68,-28.11362,1.250127,-34.19704,0.1981141726446229,0.0211870122475219,-0.0540509413528083,26.16841,76.33669,175.9789,0.6078042,-0.1567543,0.7604079,3
4.7,-27.99615,1.418733,-34.17406,0.2472957607063328,0.0804737327242512,-0.0504611431953838,29.70987,75.34177,175.5296,0.5981651,-0.1797349,0.758387,3
4.72,-27.88095,1.58384,-34.15062,0.2958577722472695,0.0684354280942464,-0.0553538075046509,33.24411,74.27599,174.9893,0.5879235,-0.2025342,0.7555921,3
4.74,-27.86439,1.268099,-34.19596,0.3374597482644033,0.1015171050512058,-0.0531147003843957,8.049131,81.02561,177.5394,0.6490124,-0.0394326,0.7572324,3
4.76,-27.74535,1.435167,-34.1736,0.3758222758363967,0.1323508134648801,-0.0512131638571817,11.61818,80.22046,177.4037,0.6425409,-0.06286858,0.7592064,3
4.78,-27.63709,1.279217,-34.19488,0.4037747329895924,0.0914507859121531,-0.0563137475877706,354.4288,84.61665,178.3979,0.6717566,0.04533632,0.7390448,3
4.8,-27.517,1.444085,-34.1727,0.438782699805643,0.1199756836046646,-0.0526029204799334,358.0077,83.83173,178.4664,0.6677049,0.02187458,0.7441031,3
4.82,-27.36612,1.293776,-34.18221,0.4700762343561222,0.1457864404085008,-0.048890964190063,352.8401,85.5057,179.2596,0.6772023,0.0502262,0.7331146,3
4.84,-27.24487,1.455279,-34.15675,0.4835792611293841,0.143318202979389,-0.0487748434974761,356.4351,84.70853,179.4557,0.6732701,0.02618422,0.7387272,3
4.86,-27.12638,1.613057,-34.13089,0.4924159491956672,0.1408186368320262,-0.0488449744397438,0.03145602,83.92596,179.6014,0.6686471,0.002121793,0.7435719,3
4.88,-27.13436,1.269663,-34.16609,0.4961207774169205,0.1355023286163955,-0.0494693221400721,354.1027,85.75153,179.9824,0.6795045,0.03780182,0.7318659,3
4.9,-27.01634,1.433154,-34.14082,0.4844361440763367,0.1244734016802991,-0.0518337453328303,357.6452,84.95876,180.2087,0.6752087,0.01392472,0.7373383,3
4.92,-26.90092,1.59311,-34.11517,0.4685249635807529,0.1140425274106895,-0.0551241860273883,1.189526,84.18123,180.3858,0.6702392,-0.009959725,0.7420649,3
4.94,-26.865,1.246113,-34.15947,0.4383828922633848,0.0535907573621801,-0.0651870732412733,1.407627,86.49262,181.5723,0.6848971,-0.01834634,0.7284071,3
4.96,-26.74547,1.411422,-34.13627,0.4184167994233791,0.0695076369713299,-0.0644874233219559,5.024158,85.73127,181.8008,0.6790389,-0.0428013,0.7326249,3
4.98,-26.62846,1.573124,-34.11264,0.3943061724840078,0.0843099488130234,-0.0645257409744095,8.643058,84.97945,181.9821,0.6724757,-0.06720701,0.7360723,3
5.0,-26.6788,1.232101,-34.14613,0.3655890055074389,0.0952174558686974,-0.0656462776426103,8.266797,86.44445,182.8485,0.6815321,-0.06948541,0.7278101,3
5.02,-26.55932,1.401054,-34.12448,0.3181504375501238,0.0784649631436965,-0.0681108570531252,11.90339,85.70928,183.058,0.6742055,-0.09403655,0.7307522,3
5.04,-26.54895,1.208679,-34.14219,0.2682234479922076,0.0637591365644639,-0.0715353962517753,13.46142,86.92667,183.5235,0.6802112,-0.1060299,0.7229505,3
5.06,-26.43173,1.383434,-34.12317,0.2107363466264233,0.0471833335815398,-0.0744751616732264,17.06285,86.21114,183.7315,0.6718987,-0.1302558,0.724935,3
5.08,-26.31639,1.554748,-34.10363,0.1514070773202558,0.0332058700156501,-0.0783160820302359,20.66545,85.49479,183.896,0.6628965,-0.1543394,0.7261653,3
5.1,-26.20315,1.722743,-34.08363,0.0898754378627608,0.018839236693266,-0.0833215685869035,24.26865,84.77147,184.0149,0.6532139,-0.178253,0.7266412,3
5.12,-26.34369,1.175764,-34.13108,0.0335188747364108,0.0008681008303928,-0.0853000437045565,18.74904,85.88675,184.0294,0.6675692,-0.1427954,0.7257059,3
5.14,-26.22961,1.358685,-34.11497,-0.0231905397801477,-0.0137946278353929,-0.0880524574381818,22.30884,85.15987,184.1445,0.6582516,-0.1663575,0.726685,3
5.16,-26.23752,1.152991,-34.12708,-0.0641258974507481,0.0278974798676683,-0.0861483104273164,23.09633,83.84501,184.0342,0.6489515,-0.1719007,0.7332434,3
5.18,-26.12596,1.34206,-34.11272,-0.1295209929283096,-0.0135944744962434,-0.0887858568775206,26.61621,83.06747,184.006,0.6388385,-0.1947581,0.7333534,3
5.2,-26.0153,1.528023,-34.09779,-0.1939182084922595,-0.0525980775978454,-0.0921308778445153,30.13384,82.26233,183.9215,0.6281015,-0.2174112,0.7327373,3
5.22,-26.09628,1.132787,-34.11846,-0.2575478278791112,-0.0923339340789834,-0.09639252988062,28.03819,81.16718,183.919,0.6245202,-0.2054495,0.7417951,3
5.24,-25.98742,1.327398,-34.10511,-0.296767764435883,-0.1077996413864355,-0.0957731812524596,31.50353,80.30353,183.7172,0.6135436,-0.227514,0.7409263,3
5.26,-25.8791,1.519051,-34.09118,-0.3331394455789151,-0.1199933818627114,-0.0955204475267619,34.96473,79.3909,183.4436,0.6019841,-0.2493526,0.739343,3
5.28,-25.88414,1.118773,-34.10681,-0.352172416837222,-0.0728469226708172,-0.0920982318043224,37.41486,78.32874,182.9857,0.5915002,-0.264178,0.7394033,3
5.3,-25.77752,1.317685,-34.0951,-0.382977072117145,-0.110841290725556,-0.0939265231428887,40.81714,77.27379,182.5202,0.5790587,-0.2851885,0.7366987,3
5.32,-25.6902,1.115087,-34.10988,-0.4098557594147927,-0.1471265085677291,-0.0961254534870859,43.29422,78.36839,181.6989,0.5829521,-0.2946076,0.7238287,3
5.34,-25.5851,1.315555,-34.09929,-0.4116798313137386,-0.0967179830207137,-0.0935492264183412,46.64601,77.23393,181.1687,0.5699286,-0.3151709,0.7199736,3
5.36,-25.48015,1.513271,-34.08809,-0.4104249202715158,-0.1324623541168758,-0.0943512789251697,49.98827,75.97524,180.4997,0.5563937,-0.3354402,0.7154621,3
5.38,-25.44912,1.11302,-34.10144,-0.3991305975211547,-0.1071551627181246,-0.0906997595756111,48.07254,76.99766,179.4912,0.5699303,-0.3162456,0.7136253,3
5.4,-25.34548,1.313672,-34.09067,-0.3831822456899849,-0.0815904630728317,-0.0867510845824712,51.37428,75.71833,178.8072,0.5566034,-0.3364482,0.7086892,3
5.42,-25.24198,1.511647,-34.0793,-0.3429484587476361,-0.1434279864596647,-0.0839515322114685,54.66357,74.27037,177.942,0.5427893,-0.3563444,0.7031227,3
5.44,-25.03391,1.102236,-34.07835,-0.2862556606843003,-0.1173866112770289,-0.0766917519787355,59.69538,73.52484,174.0029,0.5392548,-0.3710156,0.6783232,3
5.46,-24.93261,1.296087,-34.06698,-0.2260839607616107,-0.092133041888109,-0.0690834974353995,62.91254,71.53549,172.5963,0.5248998,-0.3903483,0.6710122,3
5.48,-24.83185,1.487396,-34.05508,-0.1640835685464972,-0.0863897071034604,-0.0615685477679717,66.10025,69.10524,170.7403,0.5100977,-0.4093334,0.6631213,3
5.5,-24.67494,1.118225,-34.05378,-0.0996638061819039,-0.0798402612679566,-0.0534586476860088,61.79497,65.62882,167.1757,0.5103024,-0.3769316,0.6855734,3
5.52,-24.57467,1.304814,-34.03971,-0.0330471345204799,-0.0757486292606656,-0.0449346308068951,64.85114,62.70884,164.7512,0.4960755,-0.3955779,0.677432,3
5.54,-24.47535,1.488906,-34.02517,0.028632805603709,-0.0600283068286505,-0.0391941255741743,67.83964,59.07692,161.6083,0.4814372,-0.4138829,0.6687191,3
5.56,-24.24618,1.178352,-34.0277,0.0902371093807468,-0.0438446230119534,-0.0330732787664977,52.05015,68.42529,171.1853,0.5316425,-0.3229387,0.7219491,3
5.58,-24.14432,1.356599,-34.0102,0.151547824118678,-0.0303271897437838,-0.0268055020744668,55.13972,66.50351,169.7305,0.5187455,-0.341996,0.7156211,3
5.6,-24.04391,1.532245,-33.99227,0.2036124948918489,0.0537112064716258,-0.0183184680484354,58.19523,64.27156,167.9571,0.5054272,-0.360764,0.7087011,3
5.62,-23.93748,1.228473,-34.02945,0.2535929124081715,0.0434138590041538,-0.022610962689094,37.8259,74.2632,174.7055,0.5823841,-0.2317627,0.7443674,3
5.64,-23.82519,1.399966,-34.00943,0.289574379772493,0.0776847506278682,-0.0229299197703785,41.21683,73.05403,173.9815,0.5711936,-0.2532053,0.7401186,3
5.66,-23.69863,1.25765,-34.04387,0.3240889368821116,0.1101168526044861,-0.0236231972649409,19.96908,79.62279,176.5645,0.6342744,-0.1142233,0.7528547,3
5.68,-23.58217,1.426444,-34.0247,0.353184779932977,0.0706636124775025,-0.0343749643319721,23.45399,78.7621,176.2568,0.6260312,-0.1367264,0.7521946,3
5.7,-23.46789,1.591823,-34.00504,0.383215655093573,0.1000022241799071,-0.0359080465379335,26.9355,77.85597,175.8809,0.6171811,-0.1591021,0.7507961,3
5.72,-23.34485,1.275893,-34.04075,0.4141440783185355,0.0827834269146867,-0.0425114001914135,358.3684,84.80996,178.1613,0.6740428,0.02133083,0.738381,3
5.74,-23.22525,1.441865,-34.0218,0.4418788603632624,0.0641599262722177,-0.0496207344829482,1.922624,84.06541,178.1655,0.6695743,-0.001742839,0.7423834,3
5.76,-23.10806,1.60427,-34.00234,0.4803962803519344,0.1128791358002524,-0.0471679275232048,5.475554,83.31888,178.1233,0.6644384,-0.02480773,0.7456363,3
5.78,-23.04088,1.291582,-34.02732,0.514364020358371,0.1574233592117452,-0.0449670112579818,352.215,86.12016,179.0227,0.6807422,0.05540678,0.7293217,3
5.8,-22.91926,1.453818,-34.00521,0.5292736960774866,0.1532452902055284,-0.0461072957604526,355.8084,85.36182,179.176,0.6772506,0.03175505,0.7348081,3
5.82,-22.80034,1.612345,-33.98266,0.5402986600815893,0.1488294754373016,-0.0469708355695752,359.4024,84.61584,179.2814,0.6730683,0.008077674,0.7395356,3
5.84,-22.74399,1.269727,-34.01903,0.5419525630503821,0.1881127225227188,-0.0430642547344133,354.1052,86.94915,179.9839,0.6871173,0.03741018,0.7247248,3
5.86,-22.62515,1.433121,-33.99641,0.5233557344926014,0.1519958077187309,-0.0491379020763451,357.6537,86.19234,180.2164,0.6831087,0.01366016,0.7300271,3
5.88,-22.5089,1.59296,-33.97337,0.5001544974642562,0.1158644993565965,-0.0559581272170977,1.204001,85.45115,180.4018,0.6784189,-0.01009702,0.7345918,3
5.9,-22.52864,1.250286,-34.01617,0.4904770905459106,0.1515711238168734,-0.0546421838009534,359.4337,87.23727,181.3404,0.6898413,-0.004491988,0.7238494,3
5.92,-22.40869,1.415005,-33.9952,0.4614076093544828,0.1131941427149942,-0.0607608450673975,3.04219,86.50402,181.5548,0.6846418,-0.02862547,0.7282701,3
5.94,-22.35882,1.237704,-34.01252,0.4288679316288433,0.0753789558850579,-0.0679444183647532,6.19535,87.77084,182.5674,0.6911594,-0.05444445,0.7203332,3
5.96,-22.23803,1.404948,-33.99284,0.4039997940440805,0.1107884904136123,-0.0659546488566862,9.845306,87.06664,182.7981,0.6845124,-0.07894724,0.7235278,3
5.98,-22.11964,1.568551,-33.9727,0.3741663852320385,0.1437076687392106,-0.0645714214419816,13.49672,86.36893,182.9858,0.6771454,-0.103359,0.7259519,3
6.0,-22.00386,1.728663,-33.95214,0.3047082486701993,0.0743117316012354,-0.0725908301790019,17.14952,85.67213,183.1301,0.6690664,-0.1276561,0.7276036,3
6.02,-22.13583,1.208666,-34.0004,0.2572212192705208,0.0808153486676823,-0.0733602657747427,13.46201,87.93543,183.5204,0.6865513,-0.1054964,0.7169325,3
6.04,-22.01767,1.383269,-33.98367,0.2069815105480583,0.0876772087543197,-0.074860022546555,17.07904,87.25703,183.7293,0.6784718,-0.1296276,0.7187587,3
6.06,-22.02507,1.183139,-34.0005,0.1451429888888826,0.0677607909274987,-0.0769199178564417,17.42158,87.74411,183.9023,0.6809419,-0.1324374,0.7157346,3
6.08,-21.90966,1.363972,-33.98631,0.0821643823474707,0.050997095397467,-0.0796454059963895,20.99577,87.0663,184.0669,0.6721318,-0.1560375,0.7168452,3
6.1,-21.79569,1.541494,-33.97157,0.0177257691543233,0.0343296986178097,-0.083254545893797,24.57051,86.38248,184.1894,0.6626453,-0.1794717,0.7172249,3
6.12,-21.83507,1.153088,-33.99211,-0.0693173589163569,-0.0664271507964313,-0.0918800854894277,23.08072,84.94184,184.0282,0.6559709,-0.170727,0.7270097,3
6.14,-21.72309,1.34214,-33.98012,-0.1193131249121517,-0.058946758639567,-0.0918579876200098,26.60149,84.19863,183.9963,0.6460859,-0.1933476,0.7270197,3
6.16,-21.612,1.528079,-33.96756,-0.1687090279519605,-0.0500617024297778,-0.0922735557330804,30.1202,83.42882,183.9106,0.6355718,-0.2157681,0.726312,3
6.18,-21.67382,1.132808,-33.98356,-0.2213812432031843,-0.0675827259484653,-0.0921449592070109,28.0356,82.08048,183.9144,0.6304249,-0.2043467,0.7367924,3
6.2,-21.56463,1.32742,-33.97208,-0.2716626477000203,-0.0815483039739988,-0.0922690535695673,31.5012,81.25159,183.7105,0.6196697,-0.2262052,0.7358196,3
6.22,-21.45597,1.519068,-33.96004,-0.3197946096683699,-0.0952493367557466,-0.0928163872863745,34.96272,80.37491,183.4373,0.6083282,-0.2478394,0.7341406,3
6.24,-21.44191,1.118786,-33.97296,-0.3469816390509352,-0.1089529535480372,-0.0931222611061981,37.41138,79.09966,182.9824,0.5964756,-0.2628991,0.7354088,3
6.26,-21.33501,1.317698,-33.96275,-0.3703359607766638,-0.1192840857474955,-0.0936592599802983,40.81372,78.07984,182.5159,0.584244,-0.2837202,0.7326074,3
6.28,-21.22836,1.513769,-33.95195,-0.390066865049286,-0.1296125404661814,-0.0945820038823281,44.20786,76.96526,181.9391,0.5714749,-0.3042706,0.729122,3
6.3,-21.22916,1.115098,-33.97678,-0.389478875639309,-0.0549012694818575,-0.0915315786227592,43.28331,79.00429,181.7002,0.5869802,-0.2933077,0.7206115,3
6.32,-21.12384,1.315565,-33.96739,-0.4006959916399082,-0.0947181821268644,-0.0929718365834784,46.63483,77.90591,181.1695,0.5741637,-0.3136942,0.7166504,3
6.34,-21.01867,1.513275,-33.95742,-0.4041760235380129,-0.0730245412036616,-0.0904807171117125,49.97712,76.68573,180.5033,0.5608342,-0.3337896,0.7120391,3
6.36,-20.92552,1.110009,-33.97109,-0.402667638547642,-0.0506168915009428,-0.0876880554926202,50.70002,77.68346,178.6927,0.570548,-0.3269881,0.7007732,3
6.38,-20.82203,1.309594,-33.96191,-0.3845338088882375,-0.1163250194525158,-0.0870523217307868,53.99306,76.36607,177.9398,0.5571413,-0.3468522,0.6952305,3
6.4,-20.71873,1.506521,-33.95216,-0.3517801426021663,-0.0934312194500144,-0.0827269300254167,57.27287,74.8545,176.9816,0.5432509,-0.3664042,0.6890742,3
6.42,-20.47517,1.104526,-33.95098,-0.3149024594027074,-0.0706236497153127,-0.0781692798001012,61.22726,71.66641,171.1483,0.5341887,-0.3727473,0.6726401,3
6.44,-20.37391,1.295848,-33.94086,-0.252030753328611,-0.1285612599240793,-0.0750219899140542,64.39485,69.30961,169.3077,0.5199305,-0.391569,0.664834,3
6.46,-20.27331,1.484643,-33.93024,-0.2023312896643809,-0.0980850725566279,-0.0700254040190033,67.51929,66.38051,166.8877,0.5052345,-0.4100456,0.65646,3
6.48,-20.11298,1.128969,-33.93084,-0.1509892037139397,-0.0680673220379992,-0.0647391161098545,60.94271,65.3194,166.6804,0.511488,-0.370107,0.6889775,3
6.5,-20.01217,1.313345,-33.91781,-0.0982111109417693,-0.0416917443602985,-0.0593361951780817,63.9695,62.40647,164.2044,0.4975122,-0.3883878,0.6808973,3
6.52,-19.91243,1.495206,-33.90432,-0.0458286542495569,-0.0310894933299425,-0.0569610336185268,66.92593,58.81178,161.0407,0.4831275,-0.4063368,0.6722482,3
6.54,-19.68384,1.195624,-33.9134,0.0075517654600378,-0.019636133173823,-0.054372734240319,48.2864,71.85488,173.1443,0.5542797,-0.2986,0.7232561,3
6.56,-19.581,1.372204,-33.89694,0.0617227453792557,-0.0104627782026906,-0.0517915286611625,51.40745,70.30576,172.0528,0.5421147,-0.3178128,0.7176389,3
6.58,-19.4797,1.546142,-33.88006,0.1049710285170777,0.0011363200280925,-0.0574771846054105,54.50595,68.54008,170.7355,0.529513,-0.3367586,0.7114342,3
6.6,-19.38008,1.717525,-33.86279,0.1490824633612884,0.0127875184431944,-0.0632485050269977,57.57545,66.4969,169.1326,0.5164871,-0.3554231,0.7046473,3
6.62,-19.28454,1.250259,-33.93173,0.1936807598556749,0.0213989353815761,-0.0693534207727113,26.18785,78.64162,175.986,0.622946,-0.1535376,0.7480066,3
6.64,-19.16698,1.419138,-33.91385,0.2362060392254086,0.0283877992308395,-0.0760542456239115,29.70211,77.72775,175.5549,0.613795,-0.1758996,0.7458257,3
6.66,-19.05161,1.584563,-33.8955,0.2776139064541494,0.035535100939879,-0.0831779354343478,33.20987,76.74791,175.0401,0.6040401,-0.1980865,0.7429026,3
6.68,-18.96369,1.271945,-33.9431,0.3150399625948883,0.0864910520461283,-0.0827489345102643,2.36568,84.97033,177.9337,0.67542,-0.003045422,0.7369239,3
6.7,-18.8436,1.438595,-33.92657,0.3491398331758799,0.1339781594090627,-0.0825332427526452,5.928396,84.25758,177.8908,0.6704942,-0.02601553,0.7398826,3
6.72,-18.69554,1.285303,-33.94145,0.3687666393744553,0.0867606339729098,-0.0909128211445269,353.3174,87.19956,178.7092,0.6879255,0.04995927,0.7233504,3
6.74,-18.57385,1.448809,-33.92334,0.3849687547316187,0.1089618444423287,-0.0911373724402704,356.9054,86.48087,178.832,0.6845757,0.02664963,0.7283706,3
6.76,-18.45475,1.608634,-33.90473,0.3973674800410256,0.1291238744374488,-0.0911381426486608,0.4936382,85.77159,178.9097,0.6805323,0.003318981,0.732644,3
6.78,-18.33846,1.764946,-33.88569,0.3936899552354225,0.0741537993031491,-0.0988740932854508,4.081499,85.06612,178.943,0.6758001,-0.02000793,0.7361668,3
6.8,-18.33324,1.282733,-33.93263,0.3938866093953663,0.0883555610841237,-0.099885281782913,353.7874,87.86893,179.7312,0.6927224,0.04064814,0.7191621,3
6.82,-18.21246,1.44489,-33.91235,0.3894099158665043,0.1012959705162728,-0.1010763366394256,357.3557,87.14641,179.9529,0.6890904,0.01700012,0.724308,3
6.84,-18.09435,1.603405,-33.89163,0.368101525461481,0.0391414060592541,-0.1108859169692211,0.9253836,86.43907,180.1294,0.6847662,-0.006658278,0.7287173,3
6.86,-18.07942,1.250433,-33.93781,0.3522504255028049,0.0510356813805626,-0.112618786429806,359.4096,88.70261,181.3532,0.6990415,-0.004570615,0.7149653,3
6.88,-17.95951,1.415318,-33.91978,0.332194664644009,0.0621162707073424,-0.1148470506611563,2.999368,88.00417,181.5832,0.6941204,-0.02841778,0.7192508,3
6.9,-17.84209,1.57663,-33.90128,0.3074832871670152,0.069639437958389,-0.1178753343576,6.590838,87.31721,181.77,0.6884938,-0.05222819,0.7227967,3
6.92,-17.82837,1.232082,-33.9301,0.26650320172271,0.0525210615576431,-0.119661415021615,8.262756,89.02147,182.8606,0.6977211,-0.06881307,0.7123052,3
6.94,-17.70785,1.400988,-33.91393,0.2232159849370589,0.0374556428512945,-0.1219448746639484,11.89909,88.36004,183.0876,0.6909069,-0.09298252,0.7149781,3
6.96,-17.58958,1.566293,-33.89725,0.1873355999253805,0.0723419701190874,-0.1191805025671328,15.53669,87.70392,183.2746,0.6833741,-0.1170476,0.7168981,3
6.98,-17.47378,1.728142,-33.88013,0.1214164868832481,0.0293403304062853,-0.1228291467005258,19.17554,87.04783,183.421,0.6751305,-0.1409843,0.718064,3
7.0,-17.60267,1.199641,-33.92262,0.0537223536778053,-0.0112888411630699,-0.127446752378856,14.77591,89.12597,183.6418,0.6926051,-0.113681,0.709075,3
7.02,-17.48509,1.37634,-33.90931,-0.0160496646434247,-0.0524957196464652,-0.1332601849500019,18.37747,88.48539,183.8443,0.6845214,-0.1374355,0.7105371,3
7.04,-17.36922,1.549616,-33.89546,-0.0747364764999407,-0.0743007130812752,-0.1340171018752958,21.97994,87.84425,184.0081,0.67574,-0.161042,0.7112658,3
7.06,-17.42845,1.16825,-33.92028,-0.1334271471090156,-0.0923318034547337,-0.1354580683591182,20.15743,87.64445,184.0502,0.6768504,-0.1502738,0.7141963,3
7.08,-17.31435,1.353149,-33.90974,-0.1738582016365324,-0.0539578898212212,-0.1326639639914857,23.70753,86.97598,184.1246,0.6677274,-0.1731735,0.7146745,3
7.1,-17.2014,1.534827,-33.89864,-0.2139380599935885,-0.0165679728169574,-0.1301182094160635,27.25716,86.29338,184.1548,0.6579448,-0.1958935,0.7144374,3
7.12,-17.23733,1.139081,-33.91466,-0.2883016357001355,-0.0902194205431138,-0.1317760885106587,26.31215,84.46432,183.9514,0.6482963,-0.1909883,0.7258396,3
7.14,-17.12673,1.331889,-33.90556,-0.337940188647378,-0.0771654627772623,-0.1288732982316363,29.80272,83.7068,183.8168,0.6380519,-0.2129098,0.7251198,3
7.16,-17.01676,1.521669,-33.8959,-0.3846634891899145,-0.0627489165252638,-0.1260758577223164,33.28992,82.91146,183.6222,0.627199,-0.234617,0.7236981,3
7.18,-17.06112,1.124928,-33.90793,-0.4452020387616038,-0.1334142845469333,-0.1261817266758358,32.08237,81.37299,183.5056,0.6198338,-0.2286025,0.7339321,3
7.2,-16.95293,1.322221,-33.89925,-0.476722757366903,-0.1155063552045993,-0.1225984722909991,35.51336,80.48915,183.161,0.6086193,-0.2496675,0.7320885,3
7.22,-16.84507,1.516612,-33.89002,-0.5037223228288847,-0.0961893801033185,-0.1192648236777191,38.9383,79.53842,182.7326,0.5968397,-0.270491,0.729556,3
7.24,-16.80536,1.115634,-33.91264,-0.5337207395752142,-0.1624972629761313,-0.1207210786692885,41.86812,80.42697,182.3373,0.5973302,-0.2850872,0.7177943,3
7.26,-16.69903,1.315767,-33.9054,-0.5452910924985919,-0.1391153694184138,-0.1189570547511609,45.24387,79.38883,181.8323,0.584746,-0.3053614,0.7140992,3
7.28,-16.59284,1.5131,-33.89762,-0.5518194652102253,-0.1145614897871602,-0.1172874229107927,48.6111,78.23912,181.2024,0.571634,-0.3253499,0.7097501,3
7.3,-16.48697,1.707642,-33.88928,-0.5535538639499604,-0.0921991348480681,-0.1158512138986935,51.96741,76.94612,180.4171,0.558007,-0.3450344,0.7047516,3
7.32,-16.49507,1.112993,-33.91251,-0.5441856995492831,-0.098729694214684,-0.112782714872905,48.07644,79.2071,179.5116,0.5835189,-0.311365,0.7025405,3
7.34,-16.39063,1.313586,-33.9052,-0.5290584129771274,-0.1023344522347471,-0.1096370870605278,51.38982,78.01723,178.8531,0.5705392,-0.3312198,0.6974468,3
7.36,-16.2863,1.511477,-33.89735,-0.5083896005219448,-0.1064270880831396,-0.1065456616987265,54.69205,76.66749,178.0235,0.557061,-0.3507743,0.6917347,3
7.38,-16.09826,1.102209,-33.90536,-0.4611167507355465,-0.1074518167410432,-0.1019434370559002,59.67805,75.99374,174.0374,0.5536746,-0.3637989,0.6667143,3
7.4,-15.99629,1.296028,-33.89809,-0.4097554566964012,-0.1067701983507634,-0.0971122660461594,62.90108,74.10193,172.6622,0.5396023,-0.382673,0.6593392,3
7.42,-15.89483,1.487291,-33.8903,-0.3545430239739855,-0.1077034211990339,-0.0921924996549208,66.09649,71.78464,170.8539,0.5250732,-0.401208,0.6513994,3
7.44,-15.63771,1.128908,-33.8926,-0.2960673623016165,-0.0956583030093166,-0.0882447893498987,60.95114,66.97323,166.6787,0.5213687,-0.3649789,0.6814839,3
7.46,-15.53625,1.313242,-33.88257,-0.2359364011758193,-0.0823279418749727,-0.0839001544295241,63.98492,64.09317,164.2022,0.5074632,-0.3829692,0.6734254,3
7.48,-15.43586,1.495046,-33.87208,-0.1743787211359675,-0.0709042147792462,-0.0793338322918666,66.94907,60.53294,161.04,0.4931407,-0.4006323,0.6648048,3
7.5,-15.33667,1.674384,-33.86115,-0.1206864073015334,0.0167734997083661,-0.0729756722040164,69.81312,56.02014,156.9207,0.4784152,-0.4179536,0.6556303,3
7.52,-15.19012,1.195579,-33.88255,-0.0635877685399022,0.0108898971276613,-0.0751098836263599,48.29697,73.23601,173.1341,0.5629641,-0.2951772,0.7164644,3
7.54,-15.08674,1.372155,-33.86891,-0.0045580143366188,0.0043091321693833,-0.0771019894616742,51.41897,71.71772,172.0384,0.5509348,-0.3140962,0.7108276,3
7.56,-14.98487,1.54608,-33.85484,0.0365991265059448,0.0657414756607297,-0.0757250410872316,54.51882,69.98461,170.7194,0.5384631,-0.3327523,0.704611,3
7.58,-14.82725,1.250215,-33.91577,0.0771021556780502,0.0577715992898829,-0.0846600108263953,26.20317,80.41093,175.9909,0.634398,-0.1510239,0.7382807,3
7.6,-14.7091,1.419073,-33.90159,0.118655945266044,0.0489135564039277,-0.0940333302257094,29.71868,79.53451,175.5688,0.6254372,-0.1730676,0.736047,3
7.62,-14.59312,1.58447,-33.8869,0.1608901612632798,0.0360745896688754,-0.1040829499792295,33.22813,78.59409,175.0659,0.6158625,-0.1949393,0.7330833,3
7.64,-14.48707,1.271941,-33.93068,0.2034042199221397,0.0441656737058931,-0.1089179703173393,2.379787,86.44131,177.9299,0.6848238,-0.002762455,0.7281889,3
7.66,-14.36649,1.43859,-33.91761,0.2440262518569094,0.0526069769738543,-0.1140061827365093,5.942746,85.76176,177.8861,0.6801466,-0.02544261,0.7310097,3
7.68,-14.24824,1.601656,-33.904,0.282280179876754,0.0585196743258288,-0.1195992226230417,9.503901,85.07438,177.7991,0.6747929,-0.04809053,0.7330949,3
7.7,-14.13254,1.761286,-33.88988,0.321488480032843,0.1303028721487533,-0.1159977899498141,13.06276,84.37356,177.6673,0.6687685,-0.07068372,0.7344431,3
7.72,-14.09525,1.291584,-33.93266,0.3442269698726594,0.1090764495636051,-0.1199086184969271,352.219,88.8317,179.0141,0.6978055,0.0544693,0.7130153,3
7.74,-13.97259,1.453862,-33.91721,0.359986553655139,0.1342619462400583,-0.118685542163055,355.8101,88.14232,179.1647,0.6948764,0.03133038,0.7181626,3
7.76,-13.85258,1.612423,-33.90125,0.3715867060175932,0.157770225851571,-0.1172094065426332,359.4017,87.46485,179.2717,0.6912442,0.008166177,0.7225747,3
7.78,-13.81864,1.269795,-33.93906,0.3610860111165601,0.1043326483702362,-0.1242126911086733,354.1026,89.81342,179.985,0.7050151,0.03652636,0.7073243,3
7.8,-13.69865,1.433178,-33.92294,0.3472771281722859,0.050241407549978,-0.1315467317657193,357.6501,89.12457,180.2239,0.701564,0.01323901,0.7123089,3
7.82,-13.58122,1.592998,-33.90636,0.3460017582023671,0.0879488030753691,-0.129531780127805,1.199256,88.45164,180.4199,0.6974178,-0.0100549,0.7165792,3
7.84,-13.54935,1.246125,-33.94676,0.3260943388767565,0.0524555414133935,-0.1337756796747751,1.39495,90.49467,181.574,0.7099153,-0.01832274,0.704048,3
7.86,-13.42819,1.411395,-33.93272,0.3032947030593551,0.0178914312045422,-0.1387882771652551,5.012095,89.83835,181.8122,0.7048554,-0.04211357,0.7078262,3
7.88,-13.30949,1.573043,-33.91819,0.2922511682946616,0.0576194080856114,-0.1347498750383629,8.631277,89.19288,182.01,0.6990706,-0.06585536,0.7108682,3
7.9,-13.19348,1.731236,-33.90319,0.277284064502608,0.0951520902801585,-0.1309310319890126,12.25143,88.55331,182.1684,0.6925675,-0.0895227,0.7131713,3
7.92,-13.30101,1.226306,-33.94137,0.2226664008230423,0.03208346968309,-0.133786142171659,10.339,90.4284,183.1452,0.7048503,-0.08284843,0.7030838,3
7.94,-13.18051,1.396811,-33.92923,0.1816186713784378,0.0455625974645147,-0.1305327794281696,13.97119,89.80681,183.3606,0.6978464,-0.1066515,0.7052553,3
7.96,-13.06213,1.56374,-33.91655,0.1204037078489566,0.0070891071114811,-0.1305953624997249,17.60439,89.18894,183.5385,0.6901205,-0.1303367,0.7066888,3
7.98,-13.13435,1.190931,-33.94608,0.0576552232917402,-0.0287125179682174,-0.1315616458785058,16.09214,90.99811,183.7602,0.7026188,-0.1212243,0.6969228,3
8.0,-13.01724,1.3697,-33.93727,-0.0069382662970951,-0.0648230982152783,-0.1336378363645023,19.68061,90.3957,183.9638,0.6945224,-0.144534,0.6980723,3
8.02,-12.90166,1.545093,-33.92789,-0.0373485308529895,-0.0011038649555719,-0.1280365460812511,23.26988,89.79278,184.1313,0.6857252,-0.1676895,0.6985089,3
8.04,-12.95275,1.160842,-33.94551,-0.0991636242127205,-0.0454422405407034,-0.1267320324202803,21.57868,88.54499,184.0803,0.6805248,-0.1583665,0.7075765,3
8.06,-12.83918,1.347863,-33.93887,-0.1605435108593083,-0.086343604691969,-0.1263083261433379,25.11476,87.89109,184.1032,0.6713355,-0.1806897,0.7077276,3
8.08,-12.7266,1.531706,-33.93167,-0.1957480092360568,-0.0442301543692086,-0.1210654492000209,28.64977,87.2187,184.0809,0.6614906,-0.2028276,0.7071787,3
8.1,-12.61521,1.71244,-33.92394,-0.254261070907755,-0.0847965911385281,-0.1176207475053967,32.18293,86.52048,184.0087,0.6510004,-0.2247561,0.7059316,3
8.12,-12.74774,1.13282,-33.94234,-0.3105159341439514,-0.1221598083854407,-0.1147797443873646,28.03488,85.04871,183.9179,0.6492914,-0.2008239,0.7202226,3
8.14,-12.63768,1.327381,-33.93644,-0.3426116676179556,-0.0734174912353917,-0.1085519054412875,31.50838,84.29137,183.7225,0.6389325,-0.2221788,0.7191302,3
8.16,-12.5281,1.518952,-33.92999,-0.3848593580637698,-0.1089362703548808,-0.1054775557447724,34.97815,83.48958,183.4633,0.6279704,-0.243314,0.7173499,3
8.18,-12.5354,1.118792,-33.94166,-0.4236775457934569,-0.141684344020045,-0.1029932507751372,37.39775,82.16529,182.9886,0.6159472,-0.2578021,0.7192275,3
8.2,-12.42784,1.317672,-33.93698,-0.4362627235573961,-0.0874792437841474,-0.0979040753812814,40.80317,81.21951,182.533,0.6040756,-0.2780616,0.7163816,3
8.22,-12.3205,1.513694,-33.93175,-0.4488906718747992,-0.1179200922093685,-0.0967085080804484,44.20103,80.18391,181.9739,0.5916513,-0.2980575,0.7128712,3
8.24,-12.26487,1.114575,-33.95707,-0.4573384737652323,-0.1460127421082821,-0.0960575432123755,44.69498,82.11778,181.0931,0.6047404,-0.2924834,0.6997538,3
8.26,-12.15914,1.315266,-33.95303,-0.4516667350322604,-0.0862830629724646,-0.0912324130694193,48.04512,81.08337,180.571,0.5921525,-0.3123207,0.6954219,3
8.28,-12.0535,1.513195,-33.94846,-0.4415748142182655,-0.0274673687816844,-0.0864948356566621,51.38683,79.92712,179.9151,0.5790401,-0.3318712,0.6904652,3
8.3,-11.94812,1.70837,-33.94336,-0.4297024454565674,-0.0854288373728622,-0.0849289506272334,54.71772,78.61253,179.0902,0.5654153,-0.3511178,0.6848885,3
8.32,-11.91041,1.107224,-33.96191,-0.4139796814040528,-0.1432259955010109,-0.0837758184665116,53.31337,79.82348,177.6398,0.5803768,-0.3322419,0.6794325,3
8.34,-11.80692,1.305786,-33.95782,-0.3775842792995981,-0.0862873025454784,-0.0783574685218955,56.58982,78.44991,176.7608,0.5669671,-0.3513169,0.6733668,3
8.36,-11.70364,1.501711,-33.95323,-0.3159124368155435,-0.110834295451508,-0.0753300706935773,59.85078,76.84481,175.6413,0.5530723,-0.3700773,0.666717,3
8.38,-11.46265,1.109136,-33.96177,-0.2511920653780823,-0.135517129383102,-0.0723374376209964,62.64637,71.31144,167.8188,0.5399601,-0.3671905,0.6580361,3
8.4,-11.36098,1.297968,-33.9565,-0.1962689192370975,-0.0729734792156867,-0.0670732887046705,65.74648,68.53129,165.4557,0.5258527,-0.3851085,0.6498344,3
8.42,-11.2601,1.484275,-33.95074,-0.1186508564885167,-0.0815563193672058,-0.0648944308988692,68.78466,65.02276,162.3587,0.5113088,-0.4026924,0.6410861,3
8.44,-11.0135,1.161717,-33.96063,-0.0397471016070358,-0.0908177598744779,-0.0623686691850453,55.77422,69.59148,168.7344,0.5396481,-0.3327354,0.6961246,3
8.46,-10.91075,1.341656,-33.95187,0.0167548052369608,-0.0218936092926554,-0.0580842467393543,58.82093,67.3139,166.8007,0.5265723,-0.3505497,0.6890143,3
8.48,-10.8093,1.519004,-33.94265,0.0724872951621307,0.0450914278461253,-0.0539149280370967,61.81856,64.60049,164.4256,0.5130705,-0.3680693,0.681338,3
8.5,-10.7093,1.693837,-33.933,0.1293531266624537,0.0172695713029592,-0.0596234186462805,64.74988,61.30721,161.4658,0.4991565,-0.3852814,0.6731019,3
8.52,-10.58819,1.228743,-33.98108,0.1874922917497051,-0.0127248448148362,-0.0653299421826769,37.81454,78.1797,174.7103,0.6074876,-0.22371,0.7240697,3
8.54,-10.47649,1.400824,-33.96966,0.239274923525136,0.0503051778047869,-0.0663314178300096,41.14706,77.08462,174.0062,0.5969251,-0.2439792,0.7198154,3
8.56,-10.36664,1.569831,-33.95776,0.2892512891799729,0.043439483297016,-0.0767569335397482,44.46711,75.87256,173.1743,0.5858312,-0.2640226,0.7149122,3
8.58,-10.25901,1.263619,-34.01531,0.3397505831413289,0.0355786966186902,-0.0877035059240087,13.9085,85.08173,177.156,0.673149,-0.07252623,0.7291182,3
8.6,-10.13937,1.431471,-34.00494,0.381776353936558,0.0937240459051903,-0.0880818041764461,17.44388,84.38259,176.9568,0.6665908,-0.09468332,0.7293763,3
8.62,-10.02193,1.595794,-33.99402,0.4222898117643426,0.0818799224580088,-0.0950847160610264,20.97685,83.65561,176.7067,0.6593786,-0.1167459,0.7289113,3
8.64,-9.90971,1.279293,-34.03103,0.4598434640170336,0.0692727061966911,-0.1022819749073979,354.4572,89.70774,178.391,0.7039255,0.04416433,0.7084879,3
8.66,-9.788132,1.444283,-34.02095,0.4951152377392286,0.1242085326748271,-0.1010727194872878,358.0252,89.05965,178.4631,0.7009486,0.02168779,0.7128778,3
8.68,-9.668976,1.605649,-34.01031,0.5251913029699491,0.1756850543418454,-0.0996530326870814,1.592687,88.41682,178.4947,0.6972738,-0.000803371,0.7165501,3
8.7,-9.552464,1.763546,-33.99913,0.5336769756377197,0.1311723277407995,-0.1055942615900962,5.159349,87.77425,178.4864,0.6929055,-0.02328808,0.7195017,3
8.72,-9.523966,1.296057,-34.04024,0.5384589270766967,0.0850329366457789,-0.111351858766139,353.4651,90.59702,179.4726,0.7094338,0.04335799,0.7024488,3
8.74,-9.400848,1.457073,-34.02659,0.5504645226962055,0.1283215695353383,-0.1085882003328926,357.0486,89.93868,179.6846,0.7064411,0.02016445,0.7072978,3
8.76,-9.280436,1.614359,-34.01243,0.5418397545940276,0.0966589627835147,-0.1134680392591134,0.6331993,89.29507,179.8552,0.7027373,-0.003043086,0.711427,3
8.78,-9.286136,1.254721,-34.05743,0.5289296744940529,0.0654362227196745,-0.1186020323843077,357.4224,91.45956,181.1248,0.7159942,0.008672787,0.697675,3
8.8,-9.16605,1.419247,-34.04576,0.5238013741425875,0.1064999611894655,-0.1161163103683486,0.9831896,90.8175,181.3535,0.7119863,-0.01443356,0.7020417,3
8.82,-9.048417,1.580232,-34.03356,0.4986564641061634,0.0740626301062722,-0.1188802480984696,4.545249,90.18842,181.5428,0.7072704,-0.03751912,0.7057022,3
8.84,-9.032351,1.237795,-34.06244,0.4699080934095719,0.0427637924269583,-0.1223014331638747,6.166612,92.05682,182.5704,0.7176241,-0.0534541,0.6939904,3
8.86,-8.910525,1.405106,-34.05236,0.4495946517569853,0.0852270075662913,-0.1180117631917774,9.805723,91.45389,182.8153,0.7117203,-0.07716946,0.6968179,3
8.88,-8.791017,1.568778,-34.04173,0.4242664968969362,0.1257586962862789,-0.1138672556513427,13.44614,90.85963,183.024,0.7050785,-0.1007976,0.6989146,3
8.9,-8.674051,1.728958,-34.03059,0.3586243288537418,0.0645658988226353,-0.1153561952362993,17.08819,90.26942,183.1966,0.6977054,-0.1243167,0.7002789,3
8.92,-8.809217,1.208736,-34.06269,0.290154881452092,0.0049392508637193,-0.1178370792470335,13.44799,92.18951,183.5229,0.712698,-0.1031521,0.6909657,3
8.94,-8.689982,1.383325,-34.05522,0.2516822062005275,0.0429126749908274,-0.1134794450256251,17.06169,91.61288,183.7425,0.7053017,-0.126505,0.6924776,3
8.96,-8.699006,1.183194,-34.06783,0.1853249258979503,0.0017018319476418,-0.112652203535033,17.41021,91.93352,183.904,0.7066591,-0.1293446,0.6903763,3
8.98,-8.582697,1.36401,-34.06243,0.1173501372426026,-0.0363428163207246,-0.112815865532303,20.98145,91.35767,184.0782,0.6985039,-0.1521634,0.6912009,3
9.0,-8.467771,1.541504,-34.05647,0.0757374313403614,0.006209960773089,-0.1077473735317724,24.55313,90.77909,184.2175,0.689653,-0.1748221,0.6913289,3
9.02,-8.354441,1.715774,-34.04998,0.0119535773410007,-0.0332771016110481,-0.104794689342742,28.12444,90.19256,184.3197,0.680116,-0.1972927,0.6907625,3
9.04,-8.455689,1.145498,-34.07103,-0.0518844978714486,-0.0692791190600819,-0.1025440428045998,24.6121,88.51599,184.039,0.6760525,-0.1765805,0.7045556,3
9.06,-8.343459,1.336495,-34.06762,-0.0912542570061484,-0.0214936554194834,-0.0970198256199426,28.12735,87.8581,183.9776,0.6664936,-0.198258,0.7040424,3
9.08,-8.231938,1.524392,-34.06366,-0.1298888375972856,0.0257003391655824,-0.0917038371393088,31.64031,87.17285,183.8667,0.6562937,-0.219734,0.7028436,3
9.1,-8.294475,1.128811,-34.07009,-0.1954681993884257,-0.039691133077016,-0.0885995204254843,30.03787,85.49323,183.6883,0.6491076,-0.2112998,0.71457,3
9.12,-8.185149,1.324728,-34.06703,-0.2592175866058713,-0.1028874523377273,-0.086249786879863,33.48662,84.72717,183.4275,0.6386113,-0.232063,0.7130477,3
9.14,-8.076211,1.517698,-34.06345,-0.2849241921322289,-0.0535788462058413,-0.0807926874863493,36.93101,83.90893,183.0978,0.6275211,-0.2526018,0.7108539,3
9.16,-8.061127,1.117197,-34.08006,-0.3174154674448176,-0.0886447421158199,-0.0794880855812696,39.6241,83.52447,182.6629,0.6205742,-0.267309,0.7068202,3
9.18,-7.953931,1.316696,-34.07819,-0.3462986219510368,-0.1210228110192273,-0.0788334204574043,43.01378,82.58456,182.1889,0.6085807,-0.2871324,0.7035326,3
9.2,-7.846891,1.513359,-34.07581,-0.3543364121092801,-0.0657662636911633,-0.0761540617163136,46.39589,81.54813,181.606,0.5960369,-0.3066868,0.6996005,3
9.22,-7.771171,1.113801,-34.09781,-0.357605900308838,-0.0958220768110266,-0.0766404444493558,46.37865,82.91829,180.3397,0.6077175,-0.2969058,0.6896507,3
9.24,-7.6658,1.314435,-34.09611,-0.3570336029306207,-0.1238499570690703,-0.0776163318724512,49.71117,81.86279,179.761,0.595129,-0.3163186,0.6849375,3
9.26,-7.560513,1.512329,-34.09391,-0.3451080333319946,-0.0644074773270902,-0.0745372812489524,53.03451,80.67258,179.037,0.5820192,-0.3354439,0.6796162,3
9.28,-7.455472,1.707493,-34.0912,-0.3291567387736488,-0.0060353676432479,-0.0715818032340234,56.34602,79.30613,178.1272,0.5684002,-0.3542658,0.6736921,3
9.3,-7.367519,1.103787,-34.1089,-0.3019256196309165,-0.063399650159451,-0.0717263770860352,56.50117,80.16161,176.1695,0.5789607,-0.3430034,0.6634365,3
9.32,-7.264561,1.299989,-34.10684,-0.2717160557847685,-0.1213897638195896,-0.0721956404601069,59.75486,78.63011,175.0995,0.565351,-0.3615633,0.6567405,3
9.34,-7.161944,1.493588,-34.10429,-0.2286386539555068,-0.064321251428658,-0.0694901965861536,62.98935,76.79852,173.7218,0.5512625,-0.3798033,0.6494814,3
9.36,-6.912858,1.118018,-34.11745,-0.1622960530192428,-0.0833248848588204,-0.0699482580976393,61.81921,71.08655,167.1739,0.5423232,-0.3596491,0.6603953,3
9.38,-6.810978,1.304579,-34.11347,-0.093672818394255,-0.1029529375270221,-0.0702174900465237,64.88679,68.29952,164.7509,0.5284597,-0.3771832,0.6522758,3
9.4,-6.709998,1.488604,-34.10902,-0.0437162515496992,-0.0385862655657085,-0.0683974225458055,67.88982,64.8131,161.6237,0.5141614,-0.3943957,0.6436118,3
9.42,-6.464194,1.178181,-34.12622,0.0242327562008623,-0.0424619294313526,-0.0723641687349614,52.08749,73.63456,171.1609,0.5638995,-0.3089526,0.6968483,3
9.44,-6.360647,1.356402,-34.11892,0.0930044916268175,-0.047112026165755,-0.0759381060830222,55.18103,71.84708,169.71,0.551524,-0.3269172,0.6904508,3
9.46,-6.258486,1.531996,-34.11114,0.140350410199244,0.0202579891338925,-0.0768712773556004,58.24291,69.76018,167.9536,0.5387062,-0.3446092,0.6834911,3
9.48,-6.157861,1.705045,-34.10293,0.1861684623928003,0.0852490437504927,-0.0779318243012072,61.26314,67.2822,165.8007,0.5254585,-0.3620153,0.6759756,3
9.5,-6.043909,1.23986,-34.16191,0.2255664054994841,0.0551310724159508,-0.0899654262907798,32.00133,81.10841,175.331,0.6329911,-0.1838039,0.7224496,3
9.52,-5.928504,1.41032,-34.15315,0.265913915036254,0.0228799954521712,-0.1022717668619757,35.42658,80.18632,174.7802,0.6234615,-0.2045765,0.719052,3
9.54,-5.815082,1.57751,-34.14387,0.30346980509126,0.0809820024832592,-0.1063217983643074,38.84306,79.18003,174.1334,0.6133519,-0.2251524,0.714978,3
9.56,-5.710734,1.268157,-34.19778,0.3361244457980441,0.0687310366385292,-0.1181103250181889,8.15172,87.6353,177.5427,0.6915553,-0.03646531,0.7185014,3
9.58,-5.590161,1.435395,-34.19032,0.3676662338945886,0.0557203162632367,-0.1303728819420833,11.70224,87.00101,177.4276,0.6862621,-0.05855755,0.7198323,3
9.6,-5.471838,1.599073,-34.18228,0.397721954786482,0.109809662319489,-0.1328243729506946,15.25024,86.35052,177.2702,0.6802945,-0.08058514,0.720448,3
9.62,-5.340606,1.285368,-34.21907,0.4265747712902796,0.0944572495796427,-0.1413319738535463,353.3167,91.23325,178.6955,0.7129503,0.0488902,0.698696,3
9.64,-5.218007,1.448996,-34.21083,0.4521604855698536,0.0780458835144231,-0.1495152210760766,356.8961,90.61066,178.8126,0.7103688,0.02641062,0.7032325,3
9.66,-5.09791,1.608948,-34.202,0.4744366421460861,0.1293339925937488,-0.1503325261075385,0.4755498,89.99689,178.8907,0.707077,0.00391066,0.7070584,3
9.68,-4.980544,1.765388,-34.19263,0.4726033202673392,0.1066598702414799,-0.1553776745401416,4.0546,89.3871,178.9305,0.7030787,-0.01858662,0.7101707,3
9.7,-4.978439,1.282846,-34.23454,0.4666568195064499,0.0837308879943119,-0.1599636734027401,353.7827,91.98905,179.7298,0.7181243,0.03936803,0.693795,3
9.72,-4.856378,1.445013,-34.22387,0.4561791304639668,0.0577242135690158,-0.1643285479256055,357.3481,91.36127,179.9578,0.7152591,0.01643036,0.6984761,3
9.74,-4.736916,1.603531,-34.21268,0.4413054473703385,0.0479986010306054,-0.1677136325791082,0.9147743,90.74889,180.1464,0.7116824,-0.006517147,0.702455,3
9.76,-4.725647,1.250462,-34.25564,0.4221223224944438,0.0397480459922336,-0.1712688818790058,359.3962,92.85036,181.3545,0.7244573,-0.004931364,0.6891986,3
9.78,-4.604575,1.415336,-34.24706,0.3981880732977519,0.0301877330220451,-0.1752313777859697,2.984545,92.24701,181.5931,0.7202706,-0.02806583,0.6930653,3
9.8,-4.485931,1.576625,-34.23792,0.3875844727040595,0.0936072620109248,-0.1709023689284379,6.574355,91.65609,181.7946,0.7153584,-0.0511645,0.6962266,3
9.82,-4.474589,1.23212,-34.26398,0.3399931247361543,0.0594609798213123,-0.1712049083200604,8.246111,93.22845,182.8625,0.7234049,-0.06747753,0.6862208,3
9.84,-4.352998,1.400994,-34.25726,0.2900152449010599,0.0266688396135726,-0.1719465461617568,11.88165,92.66346,183.0998,0.7172687,-0.09089924,0.6885474,3
9.86,-4.233599,1.566254,-34.24996,0.2521222149029326,0.0673449212422948,-0.1670953428803425,15.51826,92.10585,183.3035,0.7103922,-0.1142196,0.6901559,3
9.88,-4.11662,1.728042,-34.24212,0.1834948981307737,0.0303156547805252,-0.1658305493535685,19.15605,91.55132,183.4737,0.7027827,-0.1374162,0.691045,3
9.9,-4.24867,1.199683,-34.27087,0.1128253760371636,-0.0041799117664197,-0.165281595543334,14.76768,93.41629,183.6461,0.7186657,-0.111044,0.6826603,3
9.92,-4.130192,1.376345,-34.26673,0.039809058154502,-0.0390939124754582,-0.165621585567437,18.36867,92.87326,183.86,0.7112128,-0.1340258,0.6838308,3
9.94,-4.013371,1.549568,-34.26202,-0.0220029682297327,-0.0543857260942859,-0.162134394758163,21.97039,92.33262,184.0421,0.7030407,-0.1568641,0.684302,3
9.96,-4.074706,1.168295,-34.27892,-0.0840413582655898,-0.0657287550573759,-0.1592547724155499,20.14689,91.96072,184.0541,0.703274,-0.1465136,0.6882134,3
9.98,-3.959892,1.353153,-34.27715,-0.1276249992958131,-0.0204955149715152,-0.1540258286188232,23.69685,91.3904,184.1396,0.6947506,-0.1686156,0.6884547,3
10.0,-3.846175,1.534775,-34.27483,-0.1710054240093843,0.0239255941011262,-0.1490370133466427,27.24638,90.80952,184.1879,0.6855462,-0.1905437,0.6880137,3
10.02,-3.883583,1.139116,-34.28507,-0.2491020462408699,-0.0424862064164469,-0.1449618725372943,26.29975,88.83273,183.9562,0.6755006,-0.1859241,0.7006249,3
10.04,-3.772351,1.331884,-34.28437,-0.3253868572213853,-0.106429815511795,-0.1417552389099317,29.79071,88.17451,183.8334,0.665822,-0.2070228,0.6997382,3
10.06,-3.6617,1.521608,-34.28315,-0.3681023825798472,-0.0598949304698933,-0.1353383485058623,33.27875,87.48295,183.6582,0.6555132,-0.227915,0.6981809,3
10.08,-3.551815,1.708328,-34.28141,-0.4245176385125785,-0.0973700601930308,-0.1301674821902372,36.76372,86.74862,183.4229,0.6445838,-0.2485833,0.6959545,3
10.1,-3.636369,1.121866,-34.29232,-0.4773725217362379,-0.1319540862426959,-0.1257018448783045,34.71629,85.28123,183.2361,0.640093,-0.2376356,0.7075426,3
10.12,-3.527935,1.319919,-34.29215,-0.5008956025436232,-0.0799046010828701,-0.1204090140532869,38.13881,84.45244,182.8477,0.6289716,-0.2576387,0.7051011,3
10.14,-3.41974,1.515073,-34.29146,-0.527404490151387,-0.1122746115847772,-0.1191769625214558,41.55527,83.55104,182.3735,0.6172733,-0.2773967,0.7020048,3
10.16,-3.384013,1.115067,-34.317,-0.5491297686687815,-0.142124744542106,-0.1186726422436157,43.27706,84.94137,181.7274,0.6234584,-0.2814283,0.6893172,3
10.18,-3.277569,1.315452,-34.31792,-0.5522579248198484,-0.0842590910721317,-0.1158927066258419,46.64209,83.9924,181.2285,0.6112288,-0.3007857,0.6852719,3
10.2,-3.171212,1.513041,-34.31834,-0.5500683264614294,-0.0272566789234342,-0.1134637255780885,49.9995,82.93394,180.6091,0.598456,-0.3198662,0.6806099,3
10.22,-3.061981,1.110027,-34.33841,-0.5527112976207866,-0.08657853589497,-0.1138422799955263,50.67686,83.44746,178.7078,0.6050754,-0.3126135,0.6713048,3
10.24,-2.95762,1.309585,-34.33942,-0.545447458306232,-0.0563303716724935,-0.1111689064331518,53.97484,82.27261,177.9749,0.5921649,-0.3313613,0.6657535,3
10.26,-2.853388,1.506457,-34.33995,-0.5326933672781514,-0.0251528415551173,-0.1088057417900163,57.26125,80.91769,177.0531,0.5787452,-0.3498142,0.6596223,3
10.28,-2.749447,1.700659,-34.34,-0.4955245375133317,-0.0792183617850411,-0.1103844564861571,60.53233,79.32153,175.8822,0.5648285,-0.3679565,0.6529169,3
10.3,-2.592857,1.104483,-34.35983,-0.4545802560129801,-0.1343162755741354,-0.1123194803711813,61.21422,77.35879,171.1821,0.5668551,-0.3549428,0.645444,3
10.32,-2.490683,1.295799,-34.3599,-0.4075613298937965,-0.0743562606977183,-0.1115825777259997,64.38563,75.15189,169.3672,0.5529632,-0.3726128,0.6377121,3
10.34,-2.389122,1.484564,-34.3595,-0.336483833807228,-0.087595144209142,-0.1149436188558281,67.51712,72.39486,166.9968,0.5386111,-0.3899586,0.6294437,3
10.36,-2.147219,1.144222,-34.38054,-0.2625840884155958,-0.1015348060508256,-0.1181124300259055,58.39821,72.00654,167.7731,0.5522476,-0.3377673,0.6716293,3
10.38,-2.044551,1.326319,-34.37786,-0.2081358674126708,-0.0344182066124682,-0.1187884536534156,61.44348,69.5481,165.615,0.5389802,-0.3549428,0.6640933,3
10.4,-1.943027,1.505844,-34.37471,-0.1526601665587917,0.0308532489168676,-0.1194684097129892,64.43335,66.56032,162.9231,0.5252765,-0.3718208,0.6560121,3
10.42,-1.720596,1.211912,-34.41245,-0.0940488103019681,0.001154261770863,-0.1283960414824241,43.09276,79.60179,173.9359,0.6094813,-0.250264,0.701152,3
10.44,-1.612309,1.386242,-34.40739,-0.0547015861366484,0.0431081313440021,-0.1339162825414002,46.32285,78.40606,173.0732,0.5984772,-0.2691271,0.6961337,3
10.46,-1.50566,1.557704,-34.40182,-0.0150197260192707,0.0842098319195435,-0.1395984249989457,49.53767,77.05949,172.0516,0.5869706,-0.2877553,0.6905233,3
10.48,-1.400809,1.726391,-34.39577,0.0236741289054136,0.054732321747052,-0.1550512544052171,52.73397,75.5228,170.8329,0.5749713,-0.3061374,0.6843243,3
10.5,-1.330765,1.257226,-34.46451,0.064102644764661,0.0231307679309042,-0.1710103557408242,20.07468,86.22109,176.5563,0.6764675,-0.1069599,0.7149592,3
10.52,-1.211118,1.425562,-34.46011,0.1036695715565538,0.0816527302642025,-0.1774951007316314,23.60201,85.5228,176.2551,0.6691478,-0.1283552,0.7137487,3
10.54,-1.093602,1.590382,-34.45514,0.1403149485163076,0.0696500504702384,-0.1905649002872049,27.1265,84.78342,175.8963,0.6611745,-0.1496276,0.7118345,3
10.56,-0.9978974,1.27572,-34.50224,0.1760367970908417,0.0569067287080211,-0.204033784297275,358.4253,91.77326,178.1693,0.7176517,0.02103305,0.6960835,3
10.58,-0.8761503,1.441525,-34.49898,0.2114439113120418,0.111500033840935,-0.2085183461172537,1.991128,91.1889,178.1929,0.7144,-0.0008924883,0.6993442,3
10.6,-0.7567263,1.603715,-34.49508,0.2434194770427557,0.1627807182486108,-0.21277452016413,5.556017,90.6042,178.1802,0.7104418,-0.02281051,0.7019064,3
10.62,-0.6201735,1.293857,-34.53405,0.2586673183204437,0.1201401643874012,-0.2227125745063478,352.8249,93.63328,179.241,0.7274389,0.04764063,0.6832816,3
10.64,-0.4964139,1.455471,-34.52841,0.2697781623503183,0.1465995427067288,-0.2256007625256542,356.4121,93.03251,179.4337,0.7250986,0.02512648,0.6879154,3
10.66,-0.3752759,1.61335,-34.52216,0.2770684674486867,0.1713738460365479,-0.2279170875333722,0.0001258116,92.44554,179.5883,0.7220306,0.002593504,0.6918518,3
10.68,-0.3886191,1.269958,-34.54924,0.2617836288575279,0.1192128999019575,-0.2360176671515574,354.0929,94.0518,179.9803,0.7306838,0.03524948,0.6807686,3
10.7,-0.267846,1.43342,-34.54297,0.243497898005411,0.0663869667375376,-0.2441460470941017,357.6325,93.45343,180.2216,0.727963,0.01275327,0.6853022,3
10.72,-0.1495445,1.593324,-34.53613,0.2386850876362681,0.1054146667376923,-0.2447324232645025,1.173344,92.87093,180.4258,0.7245293,-0.009749054,0.6891577,3
10.74,-0.1207122,1.246165,-34.57766,0.2149784109000727,0.0712581585968713,-0.2493501900097809,1.38043,94.91031,181.5768,0.7365131,-0.01828136,0.6761762,3
10.76,0.001255691,1.411439,-34.57362,0.188667271066112,0.0380393045298535,-0.2545282931998915,4.994379,94.3449,181.8251,0.732142,-0.04128435,0.6795712,3
10.78,0.1208332,1.573083,-34.56897,0.1751543948433789,0.0791345546316781,-0.2522618740965408,8.610216,93.7916,182.0388,0.7270243,-0.06424019,0.6822665,3
10.8,0.2377851,1.731261,-34.56374,0.1580818409551603,0.1180432587231037,-0.2499346736437262,12.22688,93.24618,182.2192,0.721166,-0.08712348,0.6842598,3
10.82,0.1275341,1.226332,-34.59161,0.1012298256869393,0.0563904370445905,-0.2496985409499279,10.32506,95.03292,183.1502,0.732532,-0.08093736,0.6742088,3
10.84,0.2487874,1.396806,-34.58959,0.0588001410625786,0.0712870068843278,-0.2450522053855088,13.95586,94.50406,183.3785,0.7261598,-0.1039139,0.6760843,3
10.86,0.3679811,1.563692,-34.58695,0.0144488872437731,0.0867200742344646,-0.2406893013623889,17.5875,93.98138,183.5757,0.7190421,-0.1267761,0.6772588,3
10.88,0.2933895,1.19098,-34.60887,-0.0590984717039336,0.0226250514255021,-0.2377879332701171,16.08195,95.71661,183.7657,0.7307177,-0.1179275,0.6674189,3
10.9,0.411042,1.369707,-34.60995,-0.1335341165634419,-0.0393466874959647,-0.2360523719355525,19.6696,95.20781,183.9818,0.7232085,-0.140377,0.6683248,3
10.92,0.5272053,1.545045,-34.61044,-0.1721393342012968,0.0008263748987963,-0.230058595801804,23.25786,94.70159,184.1685,0.7149748,-0.1626777,0.6685542,3
10.94,0.4747813,1.160861,-34.6221,-0.2344138990381246,-0.040406017957852,-0.2242489560142715,21.57197,93.39839,184.0867,0.709875,-0.1537554,0.6781399,3
10.96,0.5887337,1.347842,-34.62514,-0.2958372562771527,-0.0782101806128387,-0.219425517074173,25.10792,92.83925,184.1227,0.7012414,-0.175178,0.6781182,3
10.98,0.701754,1.53163,-34.62761,-0.3302013182335434,-0.0330294506609161,-0.2123835610225022,28.64303,92.26548,184.1207,0.6919279,-0.1964235,0.6774315,3
11.0,0.8136381,1.712293,-34.62953,-0.3628993231460117,0.0115108988337702,-0.2057773715628847,32.17653,91.67087,184.0766,0.6819443,-0.217467,0.6760821,3
11.02,0.6796119,1.132844,-34.63472,-0.4254666961447523,-0.0559811567966939,-0.1982281214922281,28.02311,90.05038,183.9251,0.6801069,-0.1945328,0.6912301,3
11.04,0.7900357,1.327361,-34.63828,-0.4626027244914411,-0.0350038554115003,-0.1897983836012322,31.49727,89.3893,183.744,0.6702628,-0.2149511,0.6900514,3
11.06,0.9000126,1.518871,-34.64132,-0.4956914410211001,-0.0124973489070525,-0.182043852008741,34.96822,88.68865,183.5067,0.6597905,-0.2351591,0.6882186,3
11.08,0.8913461,1.118796,-34.65071,-0.5382081600841457,-0.0754373805172964,-0.1771201343371355,37.38092,87.24606,182.9966,0.6472383,-0.2489844,0.6912654,3
11.1,0.9991715,1.317639,-34.65535,-0.5766336304978807,-0.136680751456333,-0.1733531239981651,40.78752,86.3983,182.5553,0.6358059,-0.2682707,0.6884354,3
11.12,1.10683,1.513609,-34.6595,-0.5821308675929684,-0.0840526545803967,-0.1688619592906262,44.18742,85.46731,182.0194,0.6237963,-0.2873049,0.6849726,3
11.14,1.159622,1.114563,-34.68809,-0.5868172751143457,-0.1162280542448629,-0.1674565380517627,44.68498,87.30128,181.1049,0.6357586,-0.2811996,0.671742,3
11.16,1.26556,1.315223,-34.69336,-0.5863668114344424,-0.1461731419860765,-0.1670610013535682,48.03638,86.36707,180.5987,0.6235261,-0.3000515,0.6674778,3
11.18,1.371446,1.513104,-34.69815,-0.5701776440399072,-0.0884492518357807,-0.1637572238027917,51.38028,85.31943,179.969,0.6107451,-0.31863,0.6626198,3
11.2,1.477115,1.708218,-34.70247,-0.5485117528408968,-0.0316910245281831,-0.1610297206127198,54.71463,84.12463,179.1833,0.5974278,-0.3369194,0.6571724,3
11.22,1.512413,1.107227,-34.72302,-0.519893886371657,-0.0918228494182702,-0.1619883181857897,53.2956,85.14154,177.6572,0.6112689,-0.3178681,0.6518776,3
11.24,1.616109,1.305766,-34.72832,-0.4871085082013311,-0.0624887254004994,-0.1607129353648062,56.5739,83.87336,176.799,0.5981195,-0.3359428,0.6459522,3
11.26,1.719632,1.501651,-34.73316,-0.4497252153524411,-0.0326063973047527,-0.1599009104158728,59.83815,82.38603,175.7141,0.5844622,-0.3537198,0.6394717,3
11.28,1.958349,1.109086,-34.76258,-0.3892262953455824,-0.0828357582477009,-0.1643516490362877,62.63857,76.71728,167.8521,0.5703061,-0.3492173,0.631986,3
11.3,2.060321,1.297906,-34.76695,-0.3255318654923019,-0.134709560419467,-0.169072035123988,65.74249,74.04933,165.5157,0.5563397,-0.3661077,0.6240003,3
11.32,2.161561,1.484184,-34.77084,-0.2668488622772327,-0.0733623864673477,-0.1711269013759073,68.78763,70.67073,162.4642,0.5419149,-0.3826835,0.615495,3
11.34,2.405974,1.161585,-34.80217,-0.1886181542589589,-0.0813022570963297,-0.1794424805066352,55.79242,75.06339,168.7364,0.5722216,-0.3164016,0.669511,3
11.36,2.50934,1.341509,-34.80358,-0.1084672795482287,-0.0899398855365014,-0.1875665433412425,58.8425,72.88709,166.8192,0.5593536,-0.3331679,0.6625744,3
11.38,2.611461,1.518825,-34.80447,-0.0478102112670908,-0.0234598329053069,-0.192338050189222,61.84606,70.28548,164.4724,0.5460367,-0.3496568,0.6550988,3
11.4,2.712188,1.693612,-34.80486,0.0126325823354732,0.0409073400769813,-0.1971862231847501,64.78673,67.11703,161.5552,0.5322842,-0.3658561,0.6470909,3
11.42,2.827732,1.228583,-34.86201,0.0696173941360271,0.0103432206153492,-0.213057238041741,37.85554,83.76299,174.7115,0.6419638,-0.2121156,0.693529,3
11.44,2.940201,1.400654,-34.862,0.1107466800112263,0.0481876502610549,-0.2231298758024111,41.18918,82.76301,174.0201,0.631747,-0.2312914,0.6892881,3
11.46,3.050879,1.569638,-34.8614,0.1514789415793741,0.0848199335921877,-0.2335159566720843,44.51154,81.65215,173.2094,0.6209725,-0.2502552,0.6844316,3
11.48,3.152435,1.263577,-34.92688,0.185873812673641,0.0502232548780563,-0.2518261674761186,13.94122,90.73463,177.1575,0.7082629,-0.06771655,0.6950096,3
11.5,3.272684,1.431409,-34.92891,0.2205932280197466,0.0137027406050402,-0.270943106868506,17.47704,90.12523,176.9684,0.7022558,-0.08876426,0.6950453,3
11.52,3.390799,1.5957,-34.93026,0.2601698042717353,0.0674851722462656,-0.2797041534471667,21.01093,89.49052,176.7345,0.6955647,-0.1097238,0.6943975,3
11.54,3.498653,1.279264,-34.97609,0.2978412442689778,0.051777731485055,-0.2949923818702569,354.4795,95.46519,178.3948,0.7386292,0.04274035,0.6722447,3
11.56,3.620776,1.444236,-34.97888,0.3333176666818159,0.0350685625099057,-0.3102772690111459,358.0472,94.90334,178.477,0.7363822,0.02131183,0.676221,3
11.58,3.740557,1.60557,-34.98094,0.3690188272265537,0.0859055686833966,-0.3177982355566842,1.614492,94.34727,178.5242,0.733407,-0.000131744,0.679522,3
11.6,3.857771,1.763423,-34.98229,0.4003671675219855,0.1331160432431333,-0.3247098250594478,5.181083,93.79265,178.5368,0.7297072,-0.02156912,0.6821454,3
11.62,3.881643,1.296031,-35.0235,0.4137901277364677,0.08122808243106,-0.3381039997139163,353.4602,96.49211,179.4767,0.7446158,0.04138529,0.6650363,3
11.64,4.005648,1.457029,-35.02323,0.4208393186678587,0.0985215372191418,-0.3447241608733771,357.0431,95.91937,179.6997,0.7423789,0.01922333,0.6694784,3
11.66,4.127025,1.614287,-35.02226,0.4224427384614686,0.1150492253962968,-0.3509390827653655,0.6269067,95.36187,179.8866,0.7393993,-0.002951254,0.6732442,3
11.68,4.116683,1.254763,-35.06408,0.4181014432023708,0.1281256422327288,-0.3569141365814037,357.4103,97.4427,181.126,0.7514285,0.00752497,0.6593546,3
11.7,4.237461,1.419264,-35.06558,0.4011191730018693,0.1170343821358446,-0.361496982644427,0.9703293,96.88672,181.3652,0.7481536,-0.01453093,0.6633649,3
11.72,4.355863,1.580215,-35.06641,0.3808681771151432,0.1076077469252081,-0.3663559154251876,4.531491,96.34452,181.5703,0.7441396,-0.03656592,0.6667132,3
11.74,4.368662,1.237809,-35.09492,0.3568643127104351,0.0970053288307411,-0.371629748919335,6.1483,98.16552,182.5718,0.753591,-0.05204956,0.6547706,3
11.76,4.491008,1.40509,-35.09836,0.319697393683473,0.0857030857851913,-0.3718104497421173,9.786512,97.65009,182.828,0.7483455,-0.07464719,0.6573458,3
11.78,4.611114,1.56872,-35.10109,0.2793793524604284,0.077047950568642,-0.3724079857949984,13.42582,97.14516,183.0538,0.7423289,-0.09716075,0.659237,3
11.8,4.728752,1.728847,-35.10313,0.2354672710352521,0.0681561814659756,-0.3735285798646561,17.06658,96.64686,183.2498,0.7355472,-0.1195694,0.6604427,3
11.82,4.590892,1.208775,-35.11836,0.164097112822954,-0.0202845048642239,-0.3755045824335274,13.43783,98.46036,183.5285,0.7494291,-0.09952278,0.6509576,3
11.84,4.710409,1.383322,-35.12426,0.123706918012479,-0.0083702523595899,-0.3739548452210819,17.05091,97.97266,183.7607,0.7426214,-0.1217192,0.6523088,3
11.86,4.828183,1.554368,-35.12949,0.0809012743470112,0.0049339401099144,-0.3730958812550282,20.66469,97.49053,183.965,0.7350603,-0.1437846,0.6529914,3
11.88,4.754213,1.17582,-35.14129,0.0352994378840849,0.0167214766305562,-0.3730159380807709,18.73164,97.90155,184.0443,0.739858,-0.1330602,0.65188,3
11.9,4.869812,1.35861,-35.14962,-0.021075354523794,0.0009176372232006,-0.3666994643431023,22.29453,97.40639,184.1924,0.7319663,-0.1544679,0.6523883,3
11.92,4.984232,1.538104,-35.15734,-0.0772063301970493,-0.0109260207576738,-0.3613199974986987,25.85745,96.90801,184.3105,0.7233539,-0.1757157,0.652248,3
11.94,4.931341,1.145568,-35.16274,-0.1334132634003819,-0.0219324650628716,-0.3569343384873367,24.59176,95.05567,184.0406,0.7151681,-0.1691147,0.6648703,3
11.96,5.043182,1.336565,-35.1722,-0.190115180867989,-0.0339467513572921,-0.3484632595119477,28.09856,94.48666,183.9875,0.7061154,-0.189485,0.6643814,3
11.98,5.154378,1.524464,-35.18111,-0.2446987343147235,-0.0417897282306505,-0.3405393291977434,31.60327,93.89406,183.8918,0.6963913,-0.2096646,0.6632538,3
12.0,5.264738,1.709311,-35.18947,-0.2974551359886024,-0.0487211013793875,-0.3332412201749015,35.1059,93.27049,183.7478,0.686005,-0.2296367,0.6614889,3
12.02,5.153453,1.124931,-35.18679,-0.3652958631681455,-0.1414045680984187,-0.3223902221682078,32.06969,91.27555,183.5207,0.6808617,-0.2141489,0.677739,3
12.04,5.262232,1.322134,-35.19647,-0.394162448555998,-0.1191817320798092,-0.3112390390887229,35.50956,90.5551,183.2023,0.6704222,-0.2334046,0.6759502,3
12.06,5.370761,1.516395,-35.20566,-0.4189498779328753,-0.0952459690003593,-0.3000781491562367,38.94468,89.77714,182.8136,0.6593656,-0.2524376,0.6735321,3
12.08,5.385718,1.115623,-35.22895,-0.4399547817870688,-0.072902973707112,-0.289049270711553,41.84513,90.52679,182.3544,0.6582085,-0.2649269,0.6625125,3
12.1,5.49222,1.315691,-35.24005,-0.4653505134362072,-0.0781095372532447,-0.2709486482563896,45.22507,89.65598,181.8767,0.6462331,-0.2833167,0.6590568,3
12.12,5.598658,1.51293,-35.25068,-0.4848736102633251,-0.0797189040151626,-0.2516489895640381,48.59807,88.68664,181.2906,0.6336811,-0.3014452,0.6550061,3
12.14,5.672843,1.112972,-35.27666,-0.4988107416406708,-0.0811494790258331,-0.2313854360813705,48.06031,89.56802,179.5359,0.6445489,-0.2864216,0.6470858,3
12.16,5.777403,1.31351,-35.28779,-0.5032039467236189,-0.0824539493357996,-0.1964436814832693,51.37724,88.54939,178.9088,0.6320282,-0.3043677,0.6423231,3
12.18,5.881932,1.511319,-35.29847,-0.5021952658155695,-0.0809186510029972,-0.1591455484717521,54.68494,87.38748,178.1301,0.6189621,-0.3220424,0.6369993,3
12.2,5.986267,1.706408,-35.3087,-0.4960776450586486,-0.0799368672449532,-0.1198327893832154,57.98067,86.03668,177.155,0.6053626,-0.3394302,0.6311198,3
12.22,6.102619,1.10221,-35.33988,-0.4760057648266622,-0.1631987918097698,-0.0583799784824563,59.64481,86.11301,174.0677,0.6103173,-0.3322409,0.6154991,3
12.24,6.204715,1.296024,-35.35073,-0.4420654736245208,-0.1300659038779151,0.0079847973440738,62.8704,84.39204,172.7189,0.5964662,-0.3492099,0.6085985,3
12.26,6.306391,1.487256,-35.3611,-0.4042134154889669,-0.0972223523040227,0.076690342655894,66.07125,82.27041,170.9638,0.5821169,-0.3658741,0.6011851,3
12.28,6.540308,1.128752,-35.40437,-0.3627248950207156,-0.0679055172795719,0.1472510637765376,60.96346,77.41721,166.7007,0.5811411,-0.3307665,0.6312295,3
12.3,6.642313,1.313059,-35.4132,-0.3447495930073752,-0.0527535881517657,0.2426854690103059,64.00417,74.7176,164.2623,0.5674114,-0.3468151,0.6236843,3
12.32,6.743356,1.494809,-35.4215,-0.3246374313057796,-0.0360919442032474,0.3405868311054272,66.98062,71.36172,161.1641,0.5532215,-0.3625725,0.6156271,3
12.34,6.964838,1.195345,-35.47241,-0.3025952885706817,-0.0210797834783227,0.4403132512060033,48.34207,83.99514,173.1309,0.6275712,-0.2671843,0.6603864,3
12.36,7.069322,1.371879,-35.47895,-0.3015939703063712,-0.0009576876308159,0.5589415443608736,51.46871,82.64321,172.0629,0.615938,-0.2841434,0.6550634,3
12.38,7.172403,1.545737,-35.4849,-0.2996355794644518,0.0199803097383107,0.6796336935301213,54.57603,81.09054,170.7884,0.6038165,-0.3008683,0.6492146,3
12.4,7.273931,1.717004,-35.49025,-0.296996854826725,0.0386397924769901,0.8015779042276003,57.65858,79.28061,169.2515,0.5912186,-0.3173474,0.6428449,3
12.42,7.352503,1.250097,-35.57135,-0.3016060548672459,-0.0153995803352209,0.9315438685567594,26.26682,90.99644,175.9877,0.6997229,-0.1348529,0.6765062,3
12.44,7.471439,1.418943,-35.58017,-0.3075538565006559,0.0227546689275144,1.0712495898427612,29.78258,90.27185,175.5791,0.6914605,-0.1547304,0.674203,3
12.46,7.588352,1.584307,-35.58824,-0.3149655049470674,0.0596329756616715,1.2117821662300656,33.29358,89.48981,175.1013,0.6825275,-0.1744561,0.6712408,3
12.48,7.664137,1.271879,-35.64836,-0.3241403405345919,0.0923402389922324,1.3522165971660174,2.441294,97.47314,177.938,0.7516459,-0.0005250974,0.6589777,3
12.5,7.785193,1.438491,-35.65945,-0.3514164965625408,0.09910215241944,1.5006745783153903,6.004107,96.94049,177.9147,0.7480923,-0.02111348,0.661276,3
12.52,7.904069,1.601496,-35.66972,-0.3818575061403819,0.1062416997836576,1.650725926111483,9.565523,96.40237,177.8576,0.7438031,-0.04167473,0.6629182,3
12.54,8.028118,1.291486,-35.72518,-0.4157439267070753,0.1109042063826877,1.801355453655903,352.2299,100.3593,179.0264,0.7658948,0.04989813,0.6393303,3
12.56,8.151573,1.453723,-35.73543,-0.4521272720947376,0.1819041326174613,1.958318909281881,355.8202,99.81175,179.2009,0.7642964,0.02881758,0.6437958,3
12.58,8.272543,1.612224,-35.74481,-0.5092116039145722,0.1560020822182448,2.110215455304293,359.4109,99.27714,179.3406,0.7619327,0.007713954,0.6476105,3
12.6,8.390794,1.767157,-35.75331,-0.5709570802897577,0.1300100934990977,2.262600286020336,3.001656,98.7511,179.447,0.7588068,-0.01339123,0.6507714,3
12.62,8.414025,1.26212,-35.8101,-0.6375141641249391,0.1011039255265046,2.414430181174361,355.7365,101.6773,180.5646,0.7749403,0.01967258,0.6309197,3
12.64,8.534766,1.425986,-35.82025,-0.7060027767783348,0.0885430342574815,2.562307799604404,359.2926,101.1391,180.8184,0.7723895,-0.001595149,0.635079,3
12.66,8.653148,1.586278,-35.82956,-0.7795715627260575,0.0776188827332483,2.7096659883072984,2.849885,100.6165,181.0389,0.7690779,-0.0228552,0.6386068,3
12.68,8.76895,1.743155,-35.83804,-0.85837409612047,0.0655454829032569,2.8554561441361823,6.408013,100.1056,181.2279,0.7650096,-0.04408634,0.6415001,3
12.7,8.698089,1.240638,-35.87228,-0.9231822146822026,0.1265892363933997,3.005147656405621,3.972154,102.6301,182.0541,0.7796121,-0.03564186,0.625047,3
12.72,8.819685,1.406995,-35.88508,-1.013950187738804,0.0901407159559755,3.1272698212206285,7.59956,102.1313,182.3156,0.775157,-0.05732027,0.6279615,3
12.74,8.939054,1.569704,-35.89703,-1.1080631659127205,0.0552067623949995,3.2484434157359967,11.22871,101.6446,182.547,0.7699078,-0.07893426,0.6302274,3
12.76,8.900441,1.217455,-35.92001,-1.1901533078795232,0.0938898083694997,3.371947254697842,11.88287,103.5235,183.3565,0.7790133,-0.08691902,0.6177253,3
12.78,9.019956,1.389905,-35.93593,-1.2926063062347752,0.0549704742030723,3.471208846762253,15.50425,103.0589,183.6056,0.7727492,-0.1082791,0.6194438,3
12.8,9.137651,1.558802,-35.95103,-1.3979422538215531,0.0187431733747591,3.5691602938201283,19.12643,102.6023,183.8285,0.765698,-0.1295218,0.6205254,3
12.82,9.087339,1.183213,-35.96683,-1.506236148373791,-0.0177447359815677,3.664953968276112,17.40132,103.8721,183.9167,0.7746212,-0.1198068,0.6131598,3
12.84,9.202662,1.36393,-35.98571,-1.5937487288151784,-0.0345244600704823,3.740301198601653,20.97613,103.4147,184.1132,0.7671984,-0.1404232,0.6140598,3
12.86,9.31673,1.541298,-36.00387,-1.6821822791091043,-0.0472005538648986,3.81402967796016,24.55126,102.9592,184.2835,0.7590157,-0.1608934,0.6143453,3
12.88,9.429332,1.715414,-36.02127,-1.7716481557938817,-0.0588362083783793,3.885431312412572,28.12623,102.5017,184.4263,0.7500818,-0.1811918,0.6140181,3
12.9,9.283064,1.153138,-36.01427,-1.8337522369901444,0.0094973794064416,3.954875553524293,23.05872,101.8254,184.0533,0.7555926,-0.1528355,0.6228814,3
12.92,9.394325,1.342066,-36.03511,-1.9146010461143468,-0.0320949765453152,3.991798481111157,26.57992,101.3094,184.0625,0.74699,-0.1723264,0.6229271,3
12.94,9.504867,1.527844,-36.05534,-1.9941953451502183,-0.0702728969073137,4.026978919771821,30.0997,100.777,184.0349,0.7376719,-0.1916411,0.6223707,3
12.96,9.436533,1.128924,-36.05101,-2.047724028172729,-0.0229234754717371,4.059586665412151,30.02564,96.02899,183.6565,0.7120496,-0.1960966,0.6519243,3
12.98,9.544992,1.324872,-36.06902,-2.1077308675203086,-0.0594389310435651,4.075211270134194,33.48045,95.35931,183.369,0.7020506,-0.2146557,0.6507241,3
13.0,9.65316,1.51784,-36.08652,-2.1648644566073845,-0.0928869892702921,4.088587601485195,36.93108,94.63943,183.0187,0.691401,-0.2330086,0.6489145,3
13.02,9.643179,1.117508,-36.07333,-2.219230923636731,-0.1266004752676643,4.099242668419641,39.5943,88.60025,182.5361,0.6516137,-0.256881,0.678462,3
13.04,9.750182,1.317276,-36.08418,-2.2398548464802097,-0.1326508229923282,4.097257229727281,42.97117,87.68448,181.9315,0.6399968,-0.2749964,0.6753109,3
13.06,9.857101,1.514187,-36.09458,-2.255932654917828,-0.1349772424418121,4.092207647670288,46.33897,86.66296,181.213,0.6278066,-0.2928571,0.6715482,3
13.08,9.963761,1.708256,-36.10452,-2.267609459377272,-0.13697734430808,4.083700807551643,49.69552,85.50815,180.3536,0.6150549,-0.3104477,0.6671777,3
13.1,9.888971,1.114281,-36.06926,-2.2610464889740225,-0.0531744099598172,4.073523388039272,46.33163,79.80774,180.1102,0.5894868,-0.302348,0.7055115,3
13.12,9.994393,1.315376,-36.0672,-2.253124352499972,-0.0843763833553304,4.050200470082171,49.62946,78.677,179.2814,0.5773968,-0.3209761,0.7003226,3
13.14,10.09976,1.513724,-36.06473,-2.240056327593556,-0.1136832447382154,4.023206229253124,52.91393,77.38403,178.2835,0.5648092,-0.3393184,0.6945232,3
13.16,10.17704,1.104398,-35.98958,-2.2171838736719867,-0.0553441487212451,3.9945876566591423,56.42031,68.01652,175.8426,0.5067664,-0.3737179,0.7204223,3
13.18,10.27845,1.301214,-35.97242,-2.179518006342833,-0.0808160202659096,3.9784929326807568,59.61458,66.26736,174.3859,0.4940972,-0.3925311,0.7124339,3
13.2,10.3795,1.495424,-35.95489,-2.137391164760899,-0.1058520424575076,3.95706498348948,62.78082,64.16002,172.5668,0.4810241,-0.411018,0.7038408,3
13.22,10.54464,1.118692,-35.79219,-2.0909651465737253,-0.1337879623201952,3.929993837482813,61.73104,49.01183,166.7635,0.4074714,-0.422665,0.7513201,3
13.24,10.64008,1.306046,-35.75757,-2.042243151187444,-0.0484117342062327,3.900179155272135,64.68837,45.91799,163.8719,0.395399,-0.4415226,0.7409569,3
13.26,10.73461,1.490882,-35.72284,-1.9780144869446703,-0.0609557824145974,3.8833125565619886,67.56103,42.06263,160.216,0.3830108,-0.4600147,0.7299916,3
13.28,10.82809,1.673243,-35.68805,-1.910491993004825,-0.0740235907374059,3.860085957488626,70.31374,37.15641,155.5074,0.370327,-0.4781394,0.7184263,3
13.3,10.874,1.178824,-35.51352,-1.8597205992463897,-0.0087419679434857,3.835176101854289,52.03848,42.93031,170.8394,0.3603974,-0.3806824,0.8208272,3
13.32,10.96286,1.357882,-35.46112,-1.795469370040091,-0.0109978916512184,3.8121998119351614,55.04223,40.98645,169.0567,0.3503371,-0.401255,0.8115051,3
13.34,11.05037,1.53434,-35.40897,-1.7294526392122465,-0.0141020082307807,3.783647533806121,58.00426,38.70929,166.9377,0.3400053,-0.4215036,0.8015419,3
13.36,11.1281,1.240731,-35.26141,-1.6800507180092954,0.0506073630204537,3.755536548235874,31.98491,43.96459,174.9974,0.37064,-0.2395339,0.8860613,3
13.38,11.22091,1.412214,-35.19354,-1.6310933771866936,0.1124838594650723,3.721217785976986,35.33516,42.96037,174.1026,0.3629739,-0.2640924,0.879763,3
13.4,11.31189,1.580464,-35.12632,-1.5811081586762696,0.0789723310135402,3.6668996311460695,38.67064,41.84523,173.0935,0.3549812,-0.2884066,0.8726577,3
13.42,11.34658,1.268952,-35.00623,-1.530867449882395,0.0435391378941123,3.607918166180575,8.165799,44.8503,177.2646,0.3819706,-0.05671457,0.9211218,3
13.44,11.43662,1.437061,-34.92665,-1.4773418973842647,0.0984364722020717,3.555233650727298,11.67919,44.27708,176.8778,0.3773202,-0.08399448,0.9200822,3
13.46,11.52466,1.601633,-34.84801,-1.4229436757517249,0.0834901440741157,3.495306204527525,15.18807,43.67205,176.4518,0.3723104,-0.1111986,0.9181481,3
13.48,11.61055,1.762812,-34.77049,-1.3714374539416463,0.0679337077622934,3.431987107626407,18.69137,43.02915,175.9805,0.3669456,-0.1382924,0.9153226,3
13.5,11.57284,1.285811,-34.70097,-1.3172404420074566,0.1200508217581032,3.372720749522828,353.314,43.87209,178.5333,0.3722129,0.05885985,0.9262261,3
13.52,11.65433,1.449961,-34.60963,-1.2646797614105696,0.1006811213100465,3.305856341494348,356.8804,43.37019,178.5028,0.3690062,0.03011724,0.9289367,3
13.54,11.73376,1.610458,-34.51967,-1.216617433818596,0.0807026433651637,3.2366667909002445,0.4453871,42.86761,178.4412,0.3654388,0.001353132,0.930728,3
13.56,11.81099,1.767461,-34.43127,-1.1744384255694122,0.1277157095775547,3.171630717047256,4.008658,42.3605,178.3481,0.3615147,-0.02740411,0.9315991,3
13.58,11.77584,1.270227,-34.3759,-1.1387192852659034,0.171746108905323,3.1040737974489447,354.1037,40.75782,179.8542,0.3477045,0.04865557,0.9361916,3
13.6,11.84711,1.433857,-34.27797,-1.1150079451427424,0.1169410902823864,3.007807390682606,357.6547,40.24628,179.98,0.3439636,0.01927587,0.93876,3
13.62,11.91646,1.593914,-34.18165,-1.0970057470931431,0.0619195417540307,2.9109353988003583,1.205712,39.74336,180.074,0.3398895,-0.01011458,0.9404064,3
13.64,11.90878,1.246361,-34.14682,-1.071116043245559,0.1023501447800683,2.820480243347649,1.370918,38.77029,181.4907,0.331718,-0.01560136,0.9432132,3
13.66,11.97635,1.41179,-34.04514,-1.0562829619648468,0.0694220407760628,2.7120054092850925,4.989471,38.27864,181.6591,0.3269259,-0.0458595,0.9439366,3
13.68,12.04211,1.573578,-33.94508,-1.047228813060525,0.0377661216433162,2.604819910038411,8.608872,37.79469,181.7987,0.3218057,-0.07607101,0.9436972,3
13.7,12.10597,1.731893,-33.84686,-1.0442556868215858,0.004501208173099,2.498662161767913,12.22834,37.31459,181.9087,0.3163623,-0.1061969,0.9424965,3
13.72,12.01993,1.226517,-33.9265,-1.0200352792297225,0.0652351669773179,2.3972597108431524,10.31437,36.60781,183.0832,0.3103768,-0.09372415,0.9459781,3
13.74,12.08404,1.39712,-33.82346,-1.012185712234205,0.0238955445798977,2.268625170347398,13.94754,36.14389,183.25,0.304519,-0.1241107,0.9443232,3
13.76,12.1466,1.564127,-33.72185,-1.0098707570664962,-0.0146463496152341,2.143688371127785,17.58087,35.68319,183.389,0.2983536,-0.1543612,0.9416994,3
13.78,12.0915,1.191156,-33.7788,-0.990082787292953,0.023389000207585,2.0241658943226875,16.07655,35.40605,183.7117,0.2966237,-0.1428939,0.944168,3
13.8,12.15258,1.369985,-33.67807,-0.9758528236341142,0.0604082009283423,1.90915852722386,19.66635,34.95953,183.8777,0.2902758,-0.1728138,0.9410083,3
13.82,12.21246,1.545413,-33.57833,-0.9817824522052144,-0.0088440164407387,1.7646233895296422,23.25621,34.51367,184.0174,0.2836417,-0.2025517,0.9369062,3
13.84,12.17093,1.161028,-33.61783,-0.9677128601517742,0.0055856031345819,1.6270888102578498,21.5614,31.578,184.0427,0.2607782,-0.1893089,0.9464935,3
13.86,12.22884,1.348088,-33.51941,-0.9576859057715994,0.0214492236485477,1.4972588446799175,25.09724,31.0804,184.0386,0.2539762,-0.2184101,0.9418951,3
13.88,12.28586,1.531941,-33.42157,-0.962297907005994,-0.0462098641334475,1.3526463554469594,28.63187,30.56723,183.9995,0.2469328,-0.2472908,0.9363834,3
13.9,12.34192,1.712655,-33.32449,-0.97100620810454,-0.1112052984855655,1.2172941149116534,32.16468,30.03321,183.9225,0.2396564,-0.275922,0.9299647,3
13.92,12.2627,1.132981,-33.43692,-0.945584774242132,-0.0667509015895636,1.0879218141749738,28.00857,27.00943,183.8891,0.2184696,-0.2428565,0.9448245,3
13.94,12.31697,1.327563,-33.34044,-0.9283348920009402,-0.1058709236146121,0.9558366116512792,31.4808,26.40954,183.6758,0.2112824,-0.2710222,0.9385576,3
13.96,12.37064,1.519123,-33.24414,-0.91389001518888,-0.1416579363250217,0.8349770188387677,34.94979,25.77052,183.4103,0.2039031,-0.2989259,0.9314104,3
13.98,12.35994,1.118893,-33.25085,-0.8759773654715941,-0.0901712962275452,0.7221602537242222,37.36234,23.15939,182.9656,0.181972,-0.3185979,0.9293875,3
14.0,12.41203,1.317794,-33.15606,-0.8401184754421085,-0.0392340299138198,0.6210200908786612,40.76639,22.37098,182.4963,0.1743534,-0.3455609,0.9208316,3
14.02,12.46368,1.513807,-33.06123,-0.8124941569565882,-0.1026874174855868,0.5123601506413467,44.16391,21.50033,181.9358,0.1665811,-0.3722017,0.911439,3
14.04,12.50043,1.114625,-33.02214,-0.769706720074705,-0.0760824661852011,0.4127014908861284,44.67559,22.37114,181.0797,0.1759094,-0.3745207,0.9080431,3
14.06,12.55071,1.315328,-32.92849,-0.7288074216925562,-0.0480765448334999,0.3259367593016162,48.02504,21.49592,180.549,0.1684324,-0.4006089,0.8977852,3
14.08,12.6006,1.513239,-32.83471,-0.6886964413483903,-0.1069878027782564,0.2511503786075368,51.36713,20.50927,179.8988,0.1608115,-0.4263356,0.8867375,3
14.1,12.65002,1.708369,-32.74095,-0.6515173650741097,-0.165217817070378,0.1899023831626287,54.69992,19.37838,179.0971,0.1530537,-0.4516787,0.8749104,3
14.12,12.67231,1.107288,-32.71413,-0.5905899727632171,-0.1083919659815559,0.1359568147051426,53.27915,19.53085,177.6373,0.1606873,-0.4386602,0.8791381,3
14.14,12.7205,1.305866,-32.62189,-0.5319073409363675,-0.0526466227436321,0.0944351785323736,56.55556,18.32131,176.7573,0.1533814,-0.4635502,0.8669471,3
14.16,12.76825,1.501776,-32.52965,-0.4634210616973611,-0.109782435582486,0.0866400666396667,59.81826,16.89654,175.6561,0.1459506,-0.4880345,0.854019,3
14.18,12.88239,1.109085,-32.32084,-0.3947924515490886,-0.0775062550518108,0.0799292762002483,62.62487,10.5149,167.8506,0.1326114,-0.5063278,0.8409355,3
14.2,12.92818,1.297949,-32.22937,-0.3299438998749777,-0.0451501261208126,0.0827954905772263,65.72598,7.906307,165.4953,0.125784,-0.5296997,0.8265458,3
14.22,12.97328,1.484257,-32.13839,-0.2585096853512967,-0.0854757265277977,0.1127697661315632,68.76924,4.594213,162.4331,0.1188574,-0.552623,0.8114753,3
14.24,13.01764,1.668056,-32.04803,-0.2021052870588322,-0.0428069060192487,0.1307608716384489,71.72662,0.250465,158.3364,0.1118368,-0.5750812,0.7957357,3
14.26,13.14178,1.178029,-31.82546,-0.1513749204756305,-0.0003821775669612,0.1549699935785971,52.1265,11.00426,171.1049,0.1197873,-0.4293426,0.8882115,3
14.28,13.18452,1.35626,-31.73028,-0.1066878127014576,0.0387105412137693,0.1854744680694593,55.22112,9.324961,169.6239,0.1135036,-0.4535202,0.8761613,3
14.3,13.2263,1.531831,-31.63614,-0.060381509312712,-0.0183922699525553,0.2203756457943182,58.28543,7.351659,167.8452,0.107133,-0.4773251,0.8634086,3
14.32,13.35072,1.239743,-31.48132,-0.0131866493355543,0.0220259548225215,0.2431962705181032,32.06591,18.32932,175.3171,0.1640889,-0.266183,0.9462451,3
14.34,13.39698,1.410196,-31.37489,0.0282918491710382,0.0613109410024651,0.2709894795934273,35.49228,17.53911,174.767,0.1588064,-0.2942941,0.9381795,3
14.36,13.44198,1.577356,-31.27001,0.0698580237782131,0.0295544133793996,0.2991540618997215,38.91111,16.67071,174.1311,0.1533812,-0.3221274,0.9292448,3
14.38,13.48567,1.741334,-31.16687,0.1069406312394261,0.0657265501533283,0.3191741986934788,42.32208,15.70593,173.3918,0.1478173,-0.3496669,0.9194456,3
14.4,13.53958,1.268129,-31.15998,0.1367745386735583,0.1006770852125455,0.3419112348185695,8.214037,24.20352,177.5283,0.210572,-0.06550153,0.9747152,3
14.42,13.58827,1.435372,-31.04915,0.1642508134283686,0.0645513047875589,0.3666220468477963,11.76482,23.70077,177.4104,0.2064898,-0.09566142,0.9728097,3
14.44,13.63557,1.599035,-30.9401,0.1922458093871346,0.0979980540027439,0.3865735922593138,15.31342,23.1834,177.2587,0.2022097,-0.1257189,0.9699522,3
14.46,13.70873,1.285303,-30.85403,0.212301942070626,0.1298546519983521,0.4069469634056557,353.3287,27.73341,178.6907,0.2385968,0.05921955,0.9693072,3
14.48,13.75731,1.44893,-30.74092,0.224080157870506,0.1573428212892977,0.4273324025777838,356.9079,27.24203,178.8142,0.2351289,0.02865622,0.9715347,3
14.5,13.80439,1.608862,-30.62983,0.2272775104441293,0.1626694150851688,0.4473486789055334,0.486944,26.75954,178.907,0.2314312,-0.001926646,0.9727954,3
14.52,13.86898,1.282988,-30.55209,0.2363993598078213,0.1566633836425033,0.4447281704240811,353.7794,28.43931,179.7286,0.2451528,0.05317671,0.9679621,3
14.54,13.915,1.44512,-30.43829,0.2384715339012875,0.1515982360083808,0.4416755759013551,357.3447,27.94149,179.9662,0.241355,0.02255552,0.9701602,3
14.56,13.95952,1.603582,-30.32662,0.2332540755477792,0.1446763045519576,0.4377485147200475,0.9109003,27.45941,180.1725,0.2373225,-0.008079262,0.9713973,3
14.58,14.00246,1.758543,-30.21729,0.2190764284855384,0.0620745354372928,0.4161838908105011,4.477652,26.98928,180.3494,0.2330593,-0.03869728,0.9716728,3
14.6,14.00661,1.25052,-30.29292,0.2147530167040225,0.0758490981020122,0.3995843941960704,359.3754,28.77683,181.346,0.2485352,0.00236024,0.9685364,3
14.62,14.05314,1.415388,-30.18062,0.2047641902942549,0.0892410882433456,0.381237415580407,2.963135,28.30424,181.5866,0.2440449,-0.02845234,0.9693207,3
14.64,14.09824,1.576654,-30.07029,0.1834933353389689,0.0281729710661201,0.3426357464471441,6.551907,27.8448,181.7986,0.2393143,-0.05922963,0.969133,3
14.66,14.1101,1.232169,-30.08701,0.1685878173742478,0.0434224104589475,0.3121520204617507,8.227673,29.13717,182.8608,0.2490793,-0.07567291,0.9655032,3
14.68,14.15815,1.401012,-29.97484,0.1489690079775902,0.059082623396289,0.2796575768426228,11.86255,28.70416,183.1076,0.2437475,-0.106759,0.9639447,3
14.7,14.20484,1.566221,-29.86444,0.124462355998832,0.0723600014767588,0.2447043462254279,15.4981,28.28111,183.3296,0.2381697,-0.1377264,0.9613956,3
14.72,14.25012,1.727937,-29.75601,0.081576650809263,-0.0178526079052548,0.171725189657574,19.13457,27.86491,183.5275,0.2323514,-0.1685473,0.9578589,3
14.74,14.22523,1.190994,-29.85398,0.0573866444299633,-0.0078042592954098,0.1245112158329715,16.07988,29.36208,183.7682,0.2463628,-0.1434744,0.958491,3
14.76,14.274,1.369621,-29.74634,0.0302830074528976,0.0034671661623857,0.0766494119483951,19.67562,28.95742,183.9945,0.2404285,-0.1739182,0.9549123,3
14.78,14.3217,1.544824,-29.63986,-0.0103060100439638,-0.0655451281281533,0.0032212393195876,23.27174,28.55854,184.1988,0.2342572,-0.2041785,0.9503744,3
14.8,14.36827,1.716711,-29.53475,-0.0356162446653658,-0.0513021745923651,-0.0465768290080843,26.86781,28.16245,184.3807,0.2278548,-0.2342223,0.9448836,3
14.82,14.3133,1.160929,-29.67189,-0.0623917403188927,-0.0353999352821973,-0.0955019025548939,21.56198,26.73483,184.0834,0.2204861,-0.1899635,0.9566693,3
14.84,14.36169,1.347869,-29.5683,-0.0907767907028698,-0.0208822513321908,-0.1438948075221509,25.10027,26.27856,184.1238,0.2141304,-0.2194515,0.951714,3
14.86,14.40927,1.531596,-29.46538,-0.1178699831746055,-0.0348103441985888,-0.197493759935968,28.63766,25.81108,184.1334,0.2075717,-0.2487175,0.9458367,3
14.88,14.38422,1.132887,-29.52353,-0.1449856753263412,-0.0443993193725204,-0.2485621554677379,28.00937,23.49323,183.9287,0.189295,-0.2435649,0.9510866,3
14.9,14.4315,1.327359,-29.42332,-0.1722362541820699,-0.0529099368534557,-0.2973657742647893,31.48507,22.93819,183.7591,0.182557,-0.2720314,0.9445338,3
14.92,14.4782,1.518805,-29.32335,-0.2030322923809904,-0.1469599938008998,-0.3546779389478605,34.958,22.34864,183.5417,0.1756526,-0.3002335,0.9370966,3
14.94,14.48656,1.118834,-29.31598,-0.2136329949412698,-0.1259153968512003,-0.3785210465596202,37.35647,20.33618,182.9948,0.1589444,-0.3194859,0.9336124,3
14.96,14.53327,1.317659,-29.21833,-0.223089185848754,-0.1030109495532442,-0.398687355880468,40.76384,19.59133,182.5579,0.1517831,-0.3466729,0.924818,3
14.98,14.57954,1.513592,-29.12068,-0.2315003325031317,-0.0815504434226756,-0.4154315994081772,44.16528,18.76926,182.0351,0.1444887,-0.3735367,0.915185,3
15.0,14.6253,1.706651,-29.02319,-0.2344944554448607,-0.0872865969352272,-0.43019406423263,47.55948,17.85004,181.4074,0.1370677,-0.4000532,0.9047227,3
15.02,14.63031,1.114579,-29.06463,-0.2355761347150098,-0.0893009835537864,-0.4401485414051151,44.67171,20.10821,181.1055,0.1578624,-0.3757395,0.9113654,3
15.04,14.67635,1.315229,-28.96875,-0.2348276206860102,-0.0910098273964822,-0.4455260411768034,48.02327,19.27668,180.6027,0.1508278,-0.401977,0.9009147,3
15.06,14.72202,1.513084,-28.87278,-0.2254654791606101,-0.0922347890702607,-0.433107414676813,51.3681,18.33938,179.9864,0.1436649,-0.4278525,0.889673,3
15.08,14.7787,1.107243,-28.78634,-0.2144827489629879,-0.0905118718327926,-0.4165527306533088,53.27161,18.09515,177.6737,0.1495243,-0.4397951,0.8811398,3
15.1,14.82399,1.305765,-28.69258,-0.2019521629517955,-0.0892316148522118,-0.3960927757486523,56.55178,16.94117,176.8334,0.1426217,-0.4647869,0.8688095,3
15.12,14.86887,1.501615,-28.59882,-0.1762514155498058,-0.1718307213076893,-0.3519304591743308,59.81924,15.5809,175.7811,0.1356019,-0.4893714,0.8557429,3
15.14,14.91325,1.69481,-28.50522,-0.1458843105925993,-0.1379297378055702,-0.2954159570673833,63.07027,13.93928,174.4423,0.1284709,-0.5135319,0.8419499,3
15.16,15.04601,1.117883,-28.2638,-0.1146262270458216,-0.1042314042657613,-0.2360298388439137,61.83526,7.835532,167.1668,0.1155361,-0.5028427,0.8466172,3
15.18,15.0892,1.304421,-28.17069,-0.0825285838149154,-0.0739695460125461,-0.1740191409151892,64.91099,5.206551,164.7462,0.1091375,-0.5262613,0.8322456,3
15.2,15.13167,1.488386,-28.07822,-0.0596673513752872,0.022494051832106,-0.1271314338692462,67.9259,1.895268,161.6405,0.102653,-0.5492381,0.8171909,3
15.22,15.25001,1.177948,-27.8642,-0.0286468081445141,0.0132363956267372,-0.0711064938538439,52.13815,10.25448,171.1319,0.1138747,-0.4301797,0.8889568,3
15.24,15.29098,1.356149,-27.76829,0.0025032808792584,0.0040094797312646,-0.0134235685081907,55.23555,8.628996,169.6897,0.1079249,-0.4543979,0.8768414,3
15.26,15.33103,1.531692,-27.67344,0.0337820572434544,-0.0083511324293251,0.0456733703118859,58.30431,6.717487,167.958,0.1018929,-0.4782442,0.864026,3
15.28,15.37011,1.704659,-27.5798,0.06430377189348,0.0077634031247455,0.0883341472405141,61.33543,4.432399,165.8497,0.0957858,-0.5016989,0.8505226,3
15.3,15.46484,1.239722,-27.50154,0.094945906352494,0.0245663083438781,0.132053883577345,32.07198,17.69974,175.3266,0.1588654,-0.2666969,0.9471243,3
15.32,15.50982,1.410165,-27.39455,0.1256581332005284,0.0389697285831057,0.1764087573856829,35.49826,16.93959,174.789,0.1538392,-0.2948364,0.9389985,3
15.34,15.5536,1.577314,-27.28914,0.1486344299735389,0.0506689581862487,0.2073004616331797,38.9174,16.10348,174.1683,0.1486749,-0.3226982,0.9300048,3
15.36,15.63956,1.268096,-27.21679,0.1704897402904186,0.0632119063417169,0.2365638391416724,8.226118,24.09269,177.5397,0.2096233,-0.06566013,0.9749143,3
15.38,15.68786,1.435314,-27.10574,0.1911487893477859,0.0736689091807782,0.2637117883740369,11.777,23.61488,177.4354,0.2057398,-0.09584192,0.9729624,3
15.4,15.73479,1.598949,-26.99648,0.2105560707384066,0.0791735441388482,0.288285998507761,15.32588,23.12365,177.2989,0.2016594,-0.1259214,0.9700603,3
15.42,15.81746,1.285285,-26.89226,0.2264492442933381,0.0835942340090923,0.3113974621384408,353.3301,27.62129,178.6942,0.2376505,0.05920302,0.9695408,3
15.44,15.86591,1.448904,-26.77905,0.2405386241051075,0.0883260389714276,0.3325593938655964,356.9091,27.15202,178.823,0.2343681,0.0286256,0.9717197,3
15.46,15.91288,1.608824,-26.66787,0.2527385936737225,0.0905278538702229,0.3512218674801621,0.487884,26.69191,178.9222,0.2308569,-0.001971451,0.9729331,3
15.48,15.95829,1.765208,-26.55892,0.2588865862570739,0.1585246480385028,0.3700153724730914,4.066407,26.23733,178.993,0.2271206,-0.03255806,0.9731808,3
15.5,16.00207,1.81157,-26.45242,0.2602256967529399,0.1288813209131008,0.3652143509660268,7.644355,25.78473,179.0355,0.223163,-0.06310356,0.9724632,3
15.52,16.01991,1.269937,-26.51075,0.2594325920284004,0.0996168993824265,0.3575057560059784,354.1058,28.58967,179.9746,0.2465741,0.04987645,0.9677593,3
15.54,16.06586,1.433191,-26.39809,0.2536182496004469,0.1402695318929647,0.3510858370295016,357.6612,28.11598,180.2206,0.2428909,0.0193295,0.9698371,3
15.56,16.11038,1.592839,-26.28749,0.2424694611064932,0.1075951228758201,0.3244306412414883,1.217498,27.6583,180.437,0.2389729,-0.01122799,0.9709607,3
15.58,16.14303,1.24617,-26.29483,0.2297316479191238,0.0760762020516991,0.2945239435471527,1.36213,29.38636,181.5753,0.2534429,-0.01498321,0.9671798,3
15.6,16.19099,1.411371,-26.18223,0.2153822572404591,0.0428761969283987,0.2609017632251817,4.979906,28.94592,181.8322,0.2489827,-0.04605231,0.9674016,3
15.62,16.23753,1.572917,-26.0716,0.1989232067094848,0.0318956066934751,0.2326546983701733,8.599053,28.51897,182.0627,0.244273,-0.07706986,0.9666385,3
15.64,16.24419,1.22638,-26.09078,0.1812933906153513,0.0237844190184541,0.2019006078268868,10.30346,29.46684,183.1494,0.2508126,-0.09376884,0.9634766,3
15.66,16.29335,1.396799,-25.97959,0.1624462846026451,0.0156557334771422,0.1681973620025818,13.93527,29.06372,183.3883,0.2454847,-0.1247398,0.9613393,3
15.68,16.34122,1.563608,-25.87007,0.1471198019258026,0.0800340982982057,0.149866920163423,17.56754,28.66962,183.6046,0.2399097,-0.1555738,0.9582178,3
15.7,16.38771,1.726944,-25.76242,0.1162548382163968,0.0416807731313067,0.0947363094438458,21.20031,28.2817,183.7987,0.2340931,-0.1862409,0.954116,3
15.72,16.33835,1.191074,-25.90553,0.0850515251380934,0.0063496957631473,0.0379747640716954,16.06979,29.66261,183.7589,0.2488933,-0.1433593,0.9578525,3
15.74,16.38794,1.369774,-25.7985,0.0534849135939792,-0.0289387127464643,-0.0207605563478545,19.65774,29.27817,183.9773,0.2431384,-0.1737063,0.9542586,3
15.76,16.43648,1.545063,-25.69263,0.0318552272101677,0.0371968829090465,-0.0511450017027357,23.24594,28.89944,184.1749,0.237145,-0.2038708,0.9497122,3
15.78,16.41021,1.160947,-25.76162,-0.0041264260665454,-0.0045298702060148,-0.1134241236755042,21.55629,27.32543,184.0868,0.225412,-0.1898731,0.9555292,3
15.8,16.45961,1.34788,-25.65851,-0.0395889923117529,-0.0427116908723761,-0.1755137589668569,25.09249,26.89341,184.1325,0.2192229,-0.2193194,0.9505664,3
15.82,16.50821,1.531599,-25.55607,-0.0745576382340384,-0.0804982459128038,-0.237697450494223,28.62785,26.45134,184.1494,0.2128262,-0.2485447,0.9446852,3
15.84,16.55595,1.712173,-25.4545,-0.1022822525001654,-0.094866825746232,-0.2810715534670622,32.16177,25.99457,184.1345,0.2062283,-0.2775175,0.9378929,3
15.86,16.51792,1.128824,-25.53881,-0.1286472416546895,-0.1046585459805052,-0.3223316289320945,30.02775,23.0473,183.7006,0.1846563,-0.2599289,0.9475712,3
15.88,16.56598,1.324623,-25.4394,-0.1536871005806341,-0.1131388221349048,-0.3617460752311028,33.49403,22.47432,183.4639,0.1779782,-0.2881332,0.9404966,3
15.9,16.61353,1.517416,-25.34017,-0.1666609565042156,-0.03662226976579,-0.3755391552815195,36.95705,21.85896,183.1737,0.1711386,-0.3160606,0.9325461,3
15.92,16.63709,1.117213,-25.31569,-0.1858461865635075,-0.0729074410013598,-0.4081321573002201,39.59763,20.82967,182.67,0.1622803,-0.3370101,0.9265618,3
15.94,16.6847,1.316657,-25.21886,-0.2026304432301735,-0.1061857110328178,-0.4370287254264866,42.99342,20.08135,182.2136,0.1552193,-0.3639015,0.9172515,3
15.96,16.73191,1.513226,-25.122,-0.211382742503527,-0.0515614549178858,-0.4486350339728306,46.38326,19.2493,181.6656,0.148023,-0.3904572,0.9071158,3
15.98,16.77864,1.706935,-25.02526,-0.2192126671293377,-0.0814531267806745,-0.4633396097988025,49.76572,18.3111,181.0045,0.1406979,-0.4166531,0.8961651,3
16.0,16.78879,1.113809,-25.04617,-0.2244710399112306,-0.108840704373387,-0.4738664837311908,46.35317,20.07907,180.3546,0.1590589,-0.3880339,0.9054278,3
16.02,16.83538,1.314407,-24.95101,-0.2271833034277151,-0.1371464667314604,-0.4804448068976334,49.68844,19.21832,179.7958,0.1522159,-0.4139869,0.894595,3
16.04,16.8816,1.512232,-24.85576,-0.2213405104105481,-0.0523916720344,-0.4625072955565596,53.01634,18.23923,179.1119,0.1452446,-0.4395712,0.8829845,3
16.06,16.96063,1.1038,-24.72446,-0.2031920048118682,-0.0826164827507672,-0.4257033013364646,56.45475,17.59724,176.2114,0.1501482,-0.4626954,0.8678421,3
16.08,17.00623,1.299981,-24.63152,-0.183002559253949,-0.1118415651390744,-0.3854030297331019,59.71286,16.27995,175.1828,0.1434014,-0.4872168,0.8548172,3
16.1,17.05137,1.493527,-24.53871,-0.1625212526995452,-0.0532740331145985,-0.3404265951964369,62.95489,14.6908,173.8776,0.1365374,-0.511316,0.8410749,3
16.12,17.17865,1.117873,-24.30451,-0.128774386865043,-0.0704170296244143,-0.2729159180865119,61.83217,8.255383,167.1849,0.1185563,-0.5023567,0.846223,3
16.14,17.22231,1.304428,-24.21179,-0.0939862130162625,-0.0878177577326339,-0.2029932045130507,64.90446,5.670226,164.7889,0.1123037,-0.5257006,0.8318791,3
16.16,17.26527,1.488418,-24.1197,-0.0581714944798732,-0.1087465437008939,-0.1309216832546935,67.91763,2.412866,161.7181,0.1059631,-0.5486063,0.8168561,3
16.18,17.30747,1.669897,-24.02838,-0.0346772278630527,-0.0212890903884573,-0.0791720114285854,70.84373,358.1899,157.6795,0.09954023,-0.5710525,0.8011687,3
16.2,17.34885,1.742266,-23.93797,-0.0043094503657199,-0.027986398668685,-0.0241326245658743,73.63721,352.5375,152.2095,0.09303985,-0.5930239,0.7848287,3
16.22,17.44486,1.195223,-23.79231,0.0264538604028161,-0.0348097511638437,0.0322502070353665,48.37406,12.99884,173.0832,0.1276252,-0.4001131,0.9019018,3
16.24,17.48654,1.371761,-23.69579,0.0461215236282739,0.0288816823712877,0.0713320398331545,51.50284,11.71592,171.9826,0.1219157,-0.424715,0.8906921,3
16.26,17.52727,1.545598,-23.60041,0.0655201485279053,0.0906565434382083,0.1093408652730829,54.61273,10.234,170.6793,0.1161131,-0.4489703,0.8787746,3
16.28,17.64614,1.250005,-23.48987,0.0952040837974896,0.0587585287937963,0.1433902944878293,26.31524,20.07508,175.9784,0.177478,-0.2180534,0.9568606,3
16.3,17.69425,1.418834,-23.38047,0.1255712855662043,0.0251294589193583,0.1781358849806222,29.83279,19.44437,175.5713,0.1728617,-0.247218,0.9500338,3
16.32,17.74108,1.584165,-23.27277,0.1481004331125772,0.0819662547634225,0.2153028349708781,33.34625,18.75982,175.1019,0.1680813,-0.276145,0.9422873,3
16.34,17.82034,1.271859,-23.19819,0.1736480726852094,0.0686069401340731,0.2471552006757278,2.490101,26.06919,177.9272,0.2258321,-0.0170866,0.9737561,3
16.36,17.8705,1.43847,-23.08724,0.1986476023355039,0.0548813652065067,0.2774132847365478,6.053643,25.62959,177.9016,0.2223966,-0.04742379,0.9733541,3
16.38,17.91927,1.60146,-22.97812,0.2165248652188296,0.108838864440153,0.3103101729404858,9.615858,25.18504,177.8481,0.2187464,-0.07770569,0.9719965,3
16.4,17.96657,1.760976,-22.87104,0.2323144093359879,0.1598497641309225,0.3395959850168117,13.17653,24.73192,177.7656,0.2148855,-0.1079026,0.9696857,3
16.42,18.00885,1.291449,-22.85543,0.2445802432865833,0.1173043067582294,0.351369445058415,352.2401,28.4999,179.0149,0.2450155,0.06769301,0.9671173,3
