t,pX,pY,pZ,aX,aY,aZ,reX,reY,reZ,rtX,rtY,rtZ,ID
5.04,-41.30571,1.101702,-35.82837,3.365422808422052,-0.0696238987693168,1.9208235463817545,14.63806,356.3557,163.6092,-0.01306503,-0.130525,0.9818043,10
5.06,-41.30647,1.301532,-35.82785,3.4093193054389497,-0.1094458033755405,1.9194858983393903,14.65524,356.3615,163.6321,-0.01301971,-0.1306625,0.9818141,10
5.08,-41.30723,1.501359,-35.82734,3.449574691628623,-0.1226292497898583,1.9146536332739208,14.67254,356.3674,163.6552,-0.01297409,-0.1308009,0.9818239,10
5.1,-41.30799,1.701187,-35.82681,3.4858522102999787,-0.1110764098113997,1.906249097217792,14.68983,356.3732,163.6783,-0.01292848,-0.1309393,0.9818339,10
5.12,-41.25078,1.156399,-35.78454,3.527770054854246,-0.1421477708595561,1.897893539217673,15.09271,3.515836,163.213,0.04924627,-0.1254214,0.9796711,10
5.14,-41.23092,1.357351,-35.76867,3.566348289605191,-0.1480667065566678,1.8866675371200188,15.41615,4.760438,162.7755,0.06075905,-0.1263361,0.9781111,10
5.16,-41.12279,1.163036,-35.67631,3.6011765948229195,-0.1307541507722486,1.8724124211458413,18.49787,9.854414,165.6195,0.1041494,-0.1482604,0.9738913,10
5.18,-41.10156,1.360097,-35.64505,3.622193297292703,-0.1593689681934552,1.850700279628985,19.3824,11.07203,165.3273,0.1157117,-0.1540381,0.9710262,10
5.2,-41.07996,1.556811,-35.61415,3.640506192260077,-0.1632509576202689,1.8265203810566204,20.27484,12.28968,165.0517,0.1272394,-0.159805,0.9679664,10
5.22,-40.95541,1.181487,-35.54491,3.655671426373433,-0.144327308402121,1.799719111266561,15.17842,19.66644,168.5266,0.1814444,-0.1125565,0.9695323,10
5.24,-40.92304,1.374706,-35.50382,3.663498851891543,-0.1716465531763996,1.7714057502331286,16.57077,20.5853,168.1976,0.1904515,-0.122855,0.9658318,10
5.26,-40.88966,1.567217,-35.46302,3.668547344176531,-0.1745856525689207,1.7407280645319476,17.97902,21.53831,167.8797,0.1997316,-0.1331597,0.9618165,10
5.28,-40.66956,1.210981,-35.34751,3.670366406722404,-0.1550466699156586,1.707542334479772,3.702076,34.13383,173.0264,0.2946703,-0.01298113,0.9531186,10
5.3,-40.61134,1.389467,-35.26955,3.657010026252816,-0.1810555573835042,1.670009825089502,6.491149,35.17384,173.1543,0.3043517,-0.03586233,0.9490116,10
5.32,-40.36362,1.244256,-35.14771,3.6412482824598937,-0.1831211237916596,1.6308684643514582,358.9407,42.01995,176.913,0.3581527,0.01828355,0.9332289,10
5.34,-40.27128,1.403139,-35.04021,3.622608457597914,-0.1631095074387046,1.5899439118733731,3.021168,43.05416,177.3445,0.3672832,-0.01601648,0.9294472,10
5.36,-40.17995,1.557147,-34.93612,3.5849983713465496,-0.194102441569355,1.5436682771711183,7.094811,44.1248,177.8528,0.3759051,-0.05030935,0.9244019,10
5.38,-40.06889,1.260783,-34.97478,3.545160141664077,-0.200328012127554,1.4960791647476164,354.9372,48.60022,180.2704,0.4112085,0.03928381,0.9104677,10
5.4,-39.96121,1.413169,-34.86709,3.502742896227377,-0.1836652283734506,1.4470678038742362,359.304,49.59214,180.9049,0.4194126,0.002201421,0.9077411,10
5.42,-39.85525,1.559937,-34.76335,3.443138111648364,-0.2169029509178375,1.3942179232265488,3.66051,50.63334,181.6164,0.426953,-0.03489691,0.9035998,10
5.44,-39.80993,1.243783,-34.83035,3.3822227434125143,-0.2246837666636043,1.3406550155365542,1.617694,54.72966,181.8123,0.4593532,-0.01980372,0.8880008,10
5.46,-39.70785,1.406191,-34.74744,3.319690719793216,-0.2089241700300398,1.2862937238962342,5.406928,55.78605,182.3958,0.466328,-0.05144711,0.8831074,10
5.48,-39.6071,1.564425,-34.66735,3.2309198035811075,-0.2424490119488422,1.2242566375490809,9.182021,56.88911,183.0527,0.4727367,-0.08300145,0.8771618,10
5.5,-39.64124,1.231215,-34.73548,3.14223039751882,-0.2496627206983593,1.1622127803935216,8.345564,58.39644,183.0353,0.4846865,-0.07638227,0.871258,10
5.52,-39.53733,1.3991,-34.66318,3.0533827294853086,-0.2325128743887712,1.1001098999170242,12.00838,59.50422,183.5457,0.4904805,-0.1060377,0.8646106,10
5.54,-39.43463,1.563085,-34.59322,2.938594596759989,-0.2685711827610143,1.0311522094592096,15.65951,60.66227,184.1373,0.4957183,-0.1355654,0.8570007,10
5.56,-39.47993,1.199041,-34.64324,2.825091060226975,-0.2766994534692963,0.9628051400292704,14.79091,62.20221,183.8309,0.5082827,-0.1272753,0.8508822,10
5.58,-39.37593,1.375065,-34.57879,2.7127551347440733,-0.2588948146387659,0.8950761075600466,18.37481,63.36202,184.3399,0.5129358,-0.155405,0.842641,10
5.6,-39.27281,1.547424,-34.5162,2.6014738652692966,-0.2170792463886224,0.8279753886360481,21.94682,64.58186,184.9384,0.5170311,-0.1833598,0.8335004,10
5.62,-39.36001,1.175244,-34.56935,2.453728200925597,-0.2554372131104817,0.7500013913505219,18.74465,63.58751,184.2352,0.5143606,-0.1575272,0.8412018,10
5.64,-39.25684,1.357484,-34.50949,2.3094365715913066,-0.2642040754906088,0.673874385446041,22.27745,64.75551,184.6818,0.518309,-0.1844762,0.8321608,10
5.66,-39.2756,1.152418,-34.5081,2.168609756756749,-0.2454252073696456,0.5996565281948705,23.08743,62.83812,184.2709,0.5040309,-0.1896871,0.8394222,10
5.68,-39.17429,1.340653,-34.4497,2.0049517587467545,-0.2828756256553375,0.5203469433243102,26.59068,63.99148,184.6135,0.5073869,-0.2156319,0.8295923,10
5.7,-39.07325,1.525514,-34.3926,1.8462092588542875,-0.289310491472015,0.4438893466794553,30.08541,65.20609,185.0477,0.5102191,-0.2413436,0.8189251,10
5.72,-39.10667,1.128317,-34.39249,1.682411644940954,-0.3228670799406877,0.3685809137801721,30.08444,61.63747,183.8497,0.4870033,-0.239376,0.8333639,10
5.74,-39.00544,1.323548,-34.33958,1.5241861639119438,-0.3247737915998601,0.2965426776892865,33.54447,62.66029,183.8809,0.489217,-0.2632068,0.8224597,10
5.76,-38.90416,1.515542,-34.28772,1.371732680985124,-0.2971353576536675,0.22790559524885,37.00244,63.72905,183.9907,0.4909413,-0.2867712,0.8107488,10
5.78,-38.93442,1.118437,-34.29078,1.2252465857736752,-0.2419938486141271,0.1628017936065608,37.44272,61.22297,183.1089,0.4746009,-0.2892172,0.8192378,10
5.8,-38.83304,1.316746,-34.24223,1.064402857197483,-0.2716131715401388,0.0927406138735174,40.85392,62.10543,182.9175,0.4756218,-0.3112061,0.8071454,10
5.82,-38.73145,1.511935,-34.19472,0.9113126852447886,-0.2689911394340165,0.0273365209228053,44.26825,63.00487,182.7776,0.4760981,-0.3328831,0.7943236,10
5.84,-38.69572,1.114528,-34.17763,0.7662848095274297,-0.2362403445087201,-0.0333942080610265,44.699,62.36577,181.0979,0.4757386,-0.3298885,0.7931037,10
5.86,-38.59474,1.315077,-34.13593,0.6244203475243717,-0.25973290818542,-0.0902474476396753,48.04124,62.75446,180.664,0.4735579,-0.3502853,0.7810367,10
5.88,-38.49361,1.512648,-34.09476,0.4911211603812093,-0.2509125316589041,-0.1422879446648473,51.38504,63.13944,180.2393,0.4710033,-0.3703633,0.7682415,10
5.9,-38.46646,1.109861,-34.07069,0.3666930816509977,-0.2118743255538844,-0.1892686241719872,50.76295,61.61785,178.7436,0.4667468,-0.3630574,0.7735222,10
5.92,-38.36531,1.309063,-34.02943,0.2660456276994116,-0.2289030175721443,-0.2210420165312125,54.09907,61.95049,178.1762,0.4645175,-0.3825626,0.7597815,10
5.94,-38.19022,1.102369,-33.95004,0.1739564601875605,-0.2147046930280966,-0.2475429598865419,59.71617,58.44639,173.8887,0.4459673,-0.4113009,0.7428477,10
5.96,-38.09077,1.296156,-33.91449,0.0907737407162807,-0.1712909310065468,-0.268602173746248,62.92987,57.74457,172.5106,0.440833,-0.4292192,0.7288797,10
5.98,-37.99158,1.487233,-33.8798,0.0168329939860036,-0.1006145921847724,-0.2840123581113607,66.13241,56.69462,170.8203,0.4350637,-0.4467995,0.7144514,10
6.0,-37.89283,1.675591,-33.84569,-0.0416207720074304,-0.1044876021299696,-0.2876886817688779,69.31808,55.2261,168.7174,0.4289392,-0.463999,0.6994202,10
6.02,-37.75852,1.129387,-33.76246,-0.0900820704502516,-0.0786047757548136,-0.2851524344262581,60.9012,48.90509,166.502,0.4085869,-0.4162051,0.7546516,10
6.04,-37.66021,1.313866,-33.72687,-0.1282049218558896,-0.0248978616310765,-0.276223853389967,63.90721,46.8807,163.9464,0.402014,-0.4336703,0.7414324,10
6.06,-37.49176,1.178444,-33.63744,-0.1455343309818753,-0.0113389683631075,-0.2550519466504681,52.02981,52.34477,171.155,0.425557,-0.3618979,0.7892205,10
6.08,-37.39184,1.356295,-33.59719,-0.1513682867361243,0.0005023771934929,-0.2269243300624603,55.16206,51.52834,169.7484,0.4209841,-0.3808873,0.7770724,10
6.1,-37.29293,1.531268,-33.55773,-0.145363587179979,0.0069645547362028,-0.1916464167771288,58.28424,50.5005,168.132,0.4161131,-0.3995707,0.764254,10
6.12,-37.12479,1.23992,-33.49299,-0.1222118096949342,-0.0617301733888085,-0.1484965515335741,31.91097,59.59245,175.3698,0.4870197,-0.2190548,0.8281679,10
6.14,-37.01495,1.410025,-33.44777,-0.093699650083769,-0.026920273323987,-0.1029143845219353,35.35992,59.79127,174.9291,0.4860625,-0.2420226,0.8184826,10
6.16,-36.90649,1.57658,-33.40379,-0.0544560829515416,0.0022953622315738,-0.0511693502241437,38.81964,59.9724,174.4774,0.4847056,-0.2647966,0.807969,10
6.18,-36.8679,1.263522,-33.39138,-0.0290948740722782,0.0139540371510354,-0.0100354998316287,13.8212,64.48104,177.1806,0.5319424,-0.08870921,0.8378382,10
6.2,-36.75375,1.430958,-33.34587,0.0078190466173602,0.0222264073349431,0.035200507778252,17.38214,64.89309,177.065,0.5334439,-0.113894,0.8318528,10
6.22,-36.64127,1.594611,-33.30167,0.0562593481003839,0.0235036338582797,0.0844321705218709,20.94951,65.31828,176.9761,0.534501,-0.1390039,0.824989,10
6.24,-36.5572,1.279232,-33.24998,0.0998059846029422,0.0337852758431505,0.1332929903559998,354.3958,68.8476,178.4178,0.5640233,0.04811779,0.8241957,10
6.26,-36.44149,1.443923,-33.20428,0.1534687615031229,0.0403602955952696,0.1848504227982745,357.9692,69.28353,178.5815,0.5681304,0.02161392,0.8226548,10
6.28,-36.32778,1.604825,-33.15998,0.2170144864354046,0.0397329090416504,0.2388570261998994,1.54048,69.7291,178.7726,0.571672,-0.004907263,0.8203024,10
6.3,-36.29765,1.293748,-33.12921,0.2623408585928839,0.1106785261619034,0.2838172966415682,352.8449,69.66927,179.2931,0.5697699,0.05473384,0.8194089,10
6.32,-36.18141,1.45498,-33.08046,0.2888159104384193,0.0827162212220991,0.3146615067050247,356.4389,70.09221,179.5959,0.5738649,0.02746138,0.8183529,10
6.34,-36.06761,1.612452,-33.03329,0.29314897681187,0.100470622847298,0.3354819662495796,0.02308596,70.48186,179.9082,0.5770159,0.0002978083,0.8167327,10
6.36,-36.06703,1.261961,-33.01186,0.2966992835844069,0.1176819651979823,0.3474044234867204,355.776,69.97285,180.5741,0.5731371,0.02732223,0.8186154,10
6.38,-35.95433,1.425835,-32.96397,0.2833866079421598,0.0608161406372263,0.3428143311250888,359.325,70.26706,180.8605,0.5754941,0.0004955796,0.8177506,10
6.4,-35.8437,1.586055,-32.91739,0.2672820785857279,0.0713713889090539,0.350521927984146,2.872571,70.56161,181.1581,0.5771665,-0.02629592,0.8161795,10
6.42,-35.83626,1.240584,-32.88858,0.2481069400552931,0.082663090295071,0.3489325057638126,4.025503,70.06799,182.0625,0.5730978,-0.039079,0.8185369,10
6.44,-35.72268,1.406879,-32.83946,0.2058335428126625,0.0210545665643418,0.3307332735047223,7.648856,70.38721,182.3714,0.5738066,-0.06639534,0.8160105,10
6.46,-35.61108,1.569426,-32.79156,0.1703290674650457,0.0307175633037636,0.3286119825635341,11.26998,70.72941,182.7043,0.5739322,-0.09364212,0.8126589,10
6.48,-35.67373,1.22619,-32.79306,0.1328944173752315,0.040626349899156,0.320707543061915,10.36771,69.81994,183.1661,0.5676835,-0.08981019,0.817815,10
6.5,-35.56085,1.396559,-32.74408,0.0930394290208909,0.0480837138537126,0.3067633856535696,13.99389,70.16899,183.4606,0.5672333,-0.1168638,0.8139549,10
6.52,-35.44972,1.563222,-32.69621,0.0340537823122479,0.0252937614147221,0.2918395823080466,17.61712,70.54361,183.7834,0.566207,-0.1437909,0.8092719,10
6.54,-35.52127,1.190782,-32.69728,-0.0251181511575016,0.0055560105979491,0.2734593536512806,16.10987,69.6624,183.7746,0.5614309,-0.1335803,0.814935,10
6.56,-35.41162,1.369411,-32.6494,-0.0849154724088165,-0.0140425571400349,0.251442830753958,19.69337,70.03458,184.0547,0.560062,-0.1599687,0.8098809,10
6.58,-35.30323,1.544522,-32.60239,-0.1508060234856119,-0.0362516279328962,0.232488724892204,23.274,70.43475,184.3669,0.558138,-0.1861914,0.8040285,10
6.6,-35.19628,1.716219,-32.55634,-0.2157377833663538,-0.0549396669823729,0.2116551812294327,26.8511,70.86823,184.7162,0.5556617,-0.21222,0.7973843,10
6.62,-35.3556,1.160676,-32.5928,-0.2801101089484277,-0.0731695017876721,0.1888040548832448,21.6001,66.84189,184.1001,0.5350887,-0.175652,0.8230299,10
6.64,-35.2495,1.347535,-32.54543,-0.3391013690110642,-0.0946148585449346,0.1722396228831844,25.13431,67.16914,184.2069,0.5328974,-0.2009574,0.8169811,10
6.66,-35.14417,1.531065,-32.4987,-0.3957111482071678,-0.1119772970160822,0.1550606408501895,28.66689,67.51397,184.3399,0.5301949,-0.2260631,0.8101527,10
6.68,-35.22588,1.132681,-32.50267,-0.4320789783082732,-0.0708616644077034,0.145701461071571,28.05894,63.00853,183.9398,0.4995702,-0.2239934,0.831035,10
6.7,-35.12368,1.327047,-32.45472,-0.4655898253952912,-0.0305246752833192,0.1357782325979126,31.5353,63.24015,183.8344,0.4965325,-0.2481463,0.8238087,10
6.72,-35.09325,1.121772,-32.41997,-0.5235436276287353,-0.1033482709210115,0.1131189592462682,34.756,60.22567,183.2481,0.4712896,-0.2718313,0.8294698,10
6.74,-34.99331,1.31966,-32.37222,-0.5577253304935614,-0.087414403890676,0.0989024676370666,38.17405,60.32821,182.9438,0.4674348,-0.2948286,0.8210084,10
6.76,-34.89349,1.514508,-32.32481,-0.5875183749036541,-0.0702707128225397,0.0854150754940743,41.59154,60.41154,182.6323,0.4631589,-0.3175545,0.8118113,10
6.78,-34.79395,1.706337,-32.27781,-0.6247524495389958,-0.1387930086843371,0.0660202647965269,45.00831,60.47316,182.3098,0.4584662,-0.3399883,0.8018878,10
6.8,-34.83999,1.115016,-32.2923,-0.6381305620504416,-0.1181966686391392,0.0557024043411686,43.30423,59.47652,181.7339,0.4561384,-0.327316,0.8097112,10
6.82,-34.74027,1.315161,-32.24395,-0.6465764134888028,-0.0964777722492151,0.0469666392740686,46.71973,59.59808,181.3448,0.4521556,-0.349407,0.7989024,10
6.84,-34.64022,1.512354,-32.19687,-0.6512801771262109,-0.1618225873418032,0.0404988962690167,50.13927,59.56192,180.8852,0.4470405,-0.3712232,0.7877682,10
6.86,-34.57678,1.11012,-32.15694,-0.6420666249885745,-0.1382146397680619,0.0398338637463582,50.73468,57.4507,178.6127,0.4387873,-0.370411,0.7898287,10
6.88,-34.4794,1.309705,-32.1124,-0.6284622305685672,-0.1139935484127805,0.0413624566399053,54.05198,56.92849,177.8229,0.432077,-0.3913272,0.7788602,10
6.9,-34.38217,1.506434,-32.06789,-0.6107221855760674,-0.0924862456550927,0.0449234992090161,57.3601,56.29397,176.9205,0.4250808,-0.4118896,0.7671999,10
6.92,-34.18191,1.104333,-31.95343,-0.5729577586479406,-0.0969214303500344,0.0580577666620354,61.31273,50.95644,171.1396,0.4044981,-0.4303413,0.7573186,10
6.94,-34.08571,1.295136,-31.90694,-0.5314796499576242,-0.0997087862700913,0.0728505129269434,64.56015,49.73869,169.4425,0.3986234,-0.4497682,0.743132,10
6.96,-33.98991,1.483154,-31.86116,-0.4977146589524905,-0.0436933043963746,0.0834566086593024,67.78862,48.04118,167.2954,0.3921743,-0.4688564,0.728412,10
6.98,-33.89474,1.668404,-31.81592,-0.4502052249708921,-0.0605371273851838,0.1059797273332079,70.98483,45.70336,164.5108,0.3854038,-0.4875371,0.7130612,10
7.0,-33.75855,1.144085,-31.72973,-0.4010018217636317,-0.0778000305173038,0.1306389319744587,58.42187,45.40068,167.8213,0.3826935,-0.4119502,0.7806942,10
7.02,-33.66204,1.325479,-31.68229,-0.3504519178297718,-0.0986892815783318,0.1574255815131584,61.55261,44.02262,165.7931,0.3782009,-0.4309295,0.7667175,10
7.04,-33.56644,1.50404,-31.6357,-0.2944355040810751,-0.0822199539488234,0.1839418930529466,64.65343,42.22567,163.3573,0.3733703,-0.4495472,0.7521135,10
7.06,-33.40041,1.212206,-31.54995,-0.2375509703964087,-0.0654678656046374,0.2128843267023552,43.00462,52.55818,173.8777,0.4288933,-0.3061897,0.8243876,10
7.08,-33.30038,1.386295,-31.50099,-0.1908242171956815,-0.0039606969266031,0.2359775315111156,46.2581,52.10764,172.9984,0.4247068,-0.3275651,0.8140958,10
7.1,-33.20155,1.557264,-31.45288,-0.1451185589656809,0.0546495383973306,0.259923849615193,49.51411,51.5541,172.0163,0.420196,-0.3486951,0.8030689,10
7.12,-33.06899,1.257253,-31.40197,-0.1100032547454179,0.0177773409834138,0.2745830422620519,19.97314,58.75327,176.5552,0.4874398,-0.1365291,0.8552661,10
7.14,-32.96021,1.425311,-31.34746,-0.0850036522723112,0.0483108211446786,0.2878656463648372,23.52127,58.83001,176.2934,0.4863124,-0.1619044,0.8491157,10
7.16,-32.85296,1.589601,-31.29403,-0.0626122452275548,0.077620685397809,0.3021617178909039,27.08007,58.91271,176.0327,0.4848628,-0.1871883,0.8420374,10
7.18,-32.82853,1.27188,-31.27927,-0.0479254835759457,0.0354277123883444,0.3130505983266078,2.327031,62.78665,177.9382,0.5210304,-0.007960146,0.8531071,10
7.2,-32.71833,1.438261,-31.22404,-0.0254565879143089,0.0629809409836201,0.3302268053819062,5.903121,62.96444,177.9523,0.5222427,-0.03458595,0.8510546,10
7.22,-32.61004,1.600897,-31.17001,-0.0066821436508974,0.0889932764833042,0.3486042624879797,9.479262,63.14454,177.9784,0.5229439,-0.06118181,0.8481718,10
7.24,-32.51097,1.291604,-31.10637,0.0085485358990595,0.0446540718318278,0.367938312397817,352.2075,64.85992,179.0334,0.5345259,0.06186394,0.8423742,10
7.26,-32.40009,1.453697,-31.04815,0.0236585823119956,0.0695567958849291,0.3879857723122879,355.7978,65.01316,179.2534,0.5368223,0.03441736,0.8428732,10
7.28,-32.29135,1.611963,-30.99131,0.0333576150365115,0.0925179067875687,0.4091206165219789,359.3861,65.17963,179.4821,0.5385873,0.006947702,0.8425405,10
7.3,-32.18498,1.76657,-30.93595,0.0371215908058362,0.1108419276248309,0.4310727580525246,2.972334,65.36045,179.7218,0.5398196,-0.02051965,0.8413776,10
7.32,-32.24517,1.269626,-30.95119,0.0257327294754095,0.0983488866588273,0.4357586286955714,354.1055,65.21631,179.9996,0.5381778,0.04331389,0.8412618,10
7.34,-32.1378,1.432903,-30.89231,0.0094120123094323,0.0871411993281306,0.4416181401178316,357.648,65.37003,180.303,0.5399503,0.01584588,0.8414427,10
7.36,-32.03246,1.592522,-30.83478,-0.0122665724536958,0.0744531883796891,0.4484150722382161,1.189996,65.52135,180.6083,0.541048,-0.01160511,0.840911,10
7.38,-32.03983,1.246051,-30.82973,-0.0360422195786509,0.0625680966152301,0.4479579677042333,1.417052,65.40772,181.5878,0.5400597,-0.01789029,0.8414219,10
7.4,-31.93145,1.4112,-30.77066,-0.063671674985652,0.052368123362621,0.4490493384061529,5.030251,65.57819,181.8898,0.5403446,-0.04580802,0.8401376,10
7.42,-31.82506,1.572624,-30.71289,-0.09560866423001,0.0410126422976682,0.4514253952579232,8.642025,65.769,182.2047,0.5400866,-0.07367591,0.8380119,10
7.44,-31.85893,1.226193,-30.70595,-0.1344689811583475,0.0275253801219929,0.4430390392037169,10.36357,65.10551,183.1666,0.533569,-0.0909042,0.8404739,10
7.46,-31.75115,1.396563,-30.64711,-0.1769404950144988,0.0168135800156533,0.4358484380762144,13.9915,65.31911,183.4536,0.5322955,-0.118633,0.8372254,10
7.48,-31.64507,1.563241,-30.5894,-0.2234440934040442,0.0059872402429001,0.4296315491114471,17.61722,65.55544,183.76,0.5304841,-0.1462336,0.8331331,10
7.5,-31.5409,1.726363,-30.53293,-0.2485556262592361,0.0675505124753213,0.4313952097722215,21.24075,65.8177,184.0891,0.5281371,-0.1736802,0.8282018,10
7.52,-31.69532,1.190804,-30.59461,-0.3063376120534435,0.0251477667467193,0.4098797815303068,16.1064,65.11385,183.7747,0.5286525,-0.1355625,0.8365756,10
7.54,-31.5904,1.369445,-30.53775,-0.3662900716055599,-0.014391534270761,0.3901441934655349,19.69058,65.34978,184.0464,0.526508,-0.1626184,0.8320932,10
7.56,-31.48672,1.544588,-30.48174,-0.4016418649231155,0.0262770615151453,0.3792038615682203,23.27258,65.60989,184.3408,0.523845,-0.1895062,0.8267933,10
7.58,-31.57578,1.16071,-30.50294,-0.4594009637913201,-0.0146649976536503,0.3534119288626818,21.59703,62.11187,184.0934,0.5006843,-0.1784966,0.8444096,10
7.6,-31.47432,1.347598,-30.447,-0.5178007877828628,-0.0523705929133483,0.3298863510050314,25.13196,62.29991,184.1844,0.4977548,-0.204503,0.8388683,10
7.62,-31.37362,1.531178,-30.39165,-0.5771568147619295,-0.0899736239189057,0.3085171501215491,28.66558,62.50014,184.2915,0.4943509,-0.230307,0.8325293,10
7.64,-31.43788,1.132706,-30.39816,-0.6129826777594496,-0.1045599308648479,0.2901248380176717,28.05478,58.34871,183.936,0.4653857,-0.227753,0.8506613,10
7.66,-31.34021,1.327099,-30.34227,-0.6474856637519566,-0.1148885559889269,0.2744970924903707,31.53098,58.44113,183.8172,0.4616507,-0.2526414,0.8438674,10
7.68,-31.24289,1.518363,-30.28673,-0.6809769240716292,-0.1242078209822452,0.2615321655008005,35.00624,58.52842,183.7005,0.4574904,-0.2772891,0.8362977,10
7.7,-31.14606,1.70653,-30.23163,-0.685837470948711,-0.0489100173012481,0.2586315453417089,38.48066,58.61058,183.5852,0.4529088,-0.3016745,0.8279596,10
7.72,-31.24024,1.118719,-30.26218,-0.7048257966802227,-0.0867518722748669,0.2421910620586187,37.43068,54.90421,183.0007,0.4290261,-0.2960705,0.8440598,10
7.74,-31.14511,1.317425,-30.20677,-0.7100919709275488,-0.0624086935537952,0.2308010586950928,40.84151,54.81753,182.6245,0.4241996,-0.3195428,0.8354154,10
7.76,-31.05008,1.513128,-30.15157,-0.7117943850296427,-0.0366870837000629,0.2224579208404318,44.25088,54.69465,182.22,0.4189945,-0.3427232,0.826027,10
7.78,-31.03631,1.114533,-30.14289,-0.7149523336057624,-0.0969338767974215,0.211428386990423,44.71229,54.40363,181.1031,0.4194913,-0.3423491,0.8241878,10
7.8,-30.94323,1.315052,-30.08781,-0.7150006922394909,-0.1561066084052483,0.2033838269661654,48.06831,54.24108,180.671,0.4142121,-0.3649321,0.813958,10
7.82,-30.85016,1.512672,-30.03289,-0.6904241166493015,-0.1005730911471828,0.2074048861251864,51.42234,54.02626,180.1928,0.408575,-0.3871926,0.803027,10
7.84,-30.76306,1.107146,-29.97299,-0.650497657412886,-0.1313712676809988,0.2224565680494734,53.3453,51.88081,177.653,0.3990716,-0.3955764,0.7993666,10
7.86,-30.67198,1.305513,-29.91891,-0.6080776567035278,-0.161075870151527,0.2398347247686723,56.63127,51.4031,176.887,0.3932609,-0.4168726,0.7873706,10
7.88,-30.58101,1.501105,-29.86505,-0.5579948314592751,-0.1035528189029394,0.260472124887857,59.91162,50.7917,175.9924,0.3871226,-0.4378113,0.7747198,10
7.9,-30.48965,1.694025,-29.81222,-0.5053548612943759,-0.047557427387772,0.2835930974648284,63.19234,49.78577,174.8241,0.37962,-0.4585806,0.7618843,10
7.92,-30.36232,1.1092,-29.72363,-0.4422318316870437,-0.0998847183978575,0.3147009252664619,62.67165,42.52814,167.7389,0.359752,-0.4487948,0.7712896,10
7.94,-30.27221,1.297935,-29.67116,-0.3929875543181205,-0.0644165248337828,0.3375516840716415,65.78607,40.26569,165.3373,0.351721,-0.4688401,0.7580807,10
7.96,-30.18257,1.484005,-29.61912,-0.3317942102549831,-0.073295640329569,0.3692089728730425,68.85521,37.24529,162.2157,0.3430499,-0.4886088,0.7443529,10
7.98,-30.01491,1.161962,-29.49689,-0.2708145506100061,-0.0823598065691522,0.4019953623058061,55.74854,39.67202,168.644,0.3419992,-0.4079581,0.8117517,10
8.0,-29.92621,1.3418,-29.44046,-0.2103282030032396,-0.0947622699165726,0.4357698588302283,58.80498,37.69035,166.6109,0.3336511,-0.4286517,0.8003841,10
8.02,-29.83871,1.518945,-29.38451,-0.1568628187720846,-0.0075684824053243,0.464170728043372,61.81522,35.28741,164.1592,0.3250261,-0.4489883,0.7883835,10
8.04,-29.68269,1.229056,-29.29329,-0.0902434526664412,-0.01209713698409,0.4934735952233073,37.74557,47.15239,174.6784,0.3918206,-0.2785785,0.8603145,10
8.06,-29.58942,1.401001,-29.22829,-0.0244859557288306,-0.0174627222576363,0.5241180017541858,41.094,46.31397,173.9221,0.3848248,-0.3027222,0.8524132,10
8.08,-29.49777,1.569774,-29.16399,0.0293165304592166,0.0433974326613414,0.5498866679982726,44.43393,45.33218,173.043,0.377263,-0.3266234,0.8438443,10
8.1,-29.40798,1.735471,-29.10048,0.0741941007404891,0.0332848939088921,0.5648444436159474,47.76305,44.21399,172.0246,0.3693683,-0.3502447,0.8345153,10
8.12,-29.38502,1.26373,-29.10864,0.1170422344972919,0.0225159632751095,0.580899557122732,13.83523,52.27878,177.12,0.4399284,-0.09709911,0.889575,10
8.14,-29.28736,1.431559,-29.03749,0.1521685426735173,0.0782905862542561,0.5972408146065198,17.37626,51.83587,176.8941,0.4355912,-0.1241038,0.8869845,10
8.16,-29.19169,1.595808,-28.96723,0.1841956188819833,0.0641276207858075,0.6092126114435463,20.9155,51.36897,176.6346,0.4308352,-0.1509898,0.8835324,10
8.18,-29.13044,1.279373,-28.92792,0.2115398067559351,0.0493166053324639,0.6212675770771483,354.4151,55.76483,178.3667,0.466442,0.04971554,0.8830948,10
8.2,-29.03282,1.444354,-28.85386,0.2458700056238734,0.1027810978696688,0.6387362619810433,357.985,55.37966,178.4299,0.4643562,0.02193376,0.8853682,10
8.22,-28.93736,1.60567,-28.78086,0.2744485907810481,0.0846017494950822,0.6508091711565962,1.554219,54.99892,178.4691,0.4618173,-0.005861468,0.8867709,10
8.24,-28.83925,1.296114,-28.70926,0.2973056106349614,0.0657359054006781,0.6628907308259655,353.4736,55.78308,179.458,0.4667976,0.05251887,0.8825178,10
8.26,-28.74364,1.457124,-28.62991,0.3150759499190463,0.1136227168973629,0.6730534349890385,357.057,55.38575,179.67,0.4645112,0.0240758,0.8851902,10
8.28,-28.65035,1.61437,-28.55185,0.3253133060361008,0.1584087414449926,0.6815356747035595,0.6408649,55.00254,179.8568,0.461767,-0.004383537,0.8869829,10
8.3,-28.55954,1.768027,-28.47525,0.3116430069673557,0.104286034913915,0.667369883195787,4.224846,54.63041,180.0201,0.4585678,-0.03283071,0.8878947,10
8.32,-28.61953,1.254673,-28.53921,0.2918585847786894,0.0498578143934047,0.652834631555256,357.4436,55.48133,181.1111,0.4655241,0.01523002,0.8847012,10
8.34,-28.52697,1.419215,-28.46124,0.2901987591730486,0.0895302622492699,0.6480440425591611,1.004394,55.09997,181.3362,0.4623825,-0.01316353,0.8865607,10
8.36,-28.43651,1.580187,-28.38446,0.2703138997562053,0.0557323669828709,0.6283923181062798,4.565508,54.73185,181.5382,0.4587908,-0.04153558,0.8875501,10
8.38,-28.43988,1.237786,-28.39099,0.2455123933348399,0.0231081593593668,0.6085385146219648,6.188901,55.50608,182.5655,0.4637967,-0.0581693,0.884014,10
8.4,-28.34611,1.405092,-28.31186,0.2319781135790215,0.0641878117563612,0.5958948193558165,9.827742,55.16394,182.8168,0.45931,-0.08723864,0.8837999,10
8.42,-28.25433,1.568723,-28.23385,0.197199353578537,0.0286762403822042,0.5668636746650932,13.46692,54.83406,183.0491,0.4543567,-0.1162103,0.8826802,10
8.44,-28.28737,1.208647,-28.25797,0.1577763227545863,-0.0043775187915445,0.537623719544492,13.46627,55.23698,183.5205,0.4569764,-0.1179783,0.8811973,10
8.46,-28.19506,1.383228,-28.18127,0.1340717327067184,0.0377621489445063,0.5154222652471656,17.07951,54.92203,183.7523,0.451474,-0.1466235,0.8792586,10
8.48,-28.10435,1.554282,-28.10538,0.1053851427456309,0.0786466708061729,0.4925302801605871,20.69289,54.6162,183.968,0.44552,-0.1751128,0.876433,10
8.5,-28.01542,1.721929,-28.03045,0.0451435534810302,0.0140592046923404,0.4449648205877694,24.30611,54.31751,184.1681,0.4391209,-0.203416,0.8727241,10
8.52,-28.13033,1.175724,-28.12436,-0.0186596994884502,-0.0481993892995553,0.3977949311259579,18.75718,53.78403,184.0304,0.4408778,-0.1609381,0.881987,10
8.54,-28.04047,1.358564,-28.05053,-0.0478330928415244,-0.0068543788704694,0.3684462386895726,22.31998,53.45932,184.1724,0.434691,-0.1888156,0.8788383,10
8.56,-27.95177,1.538081,-27.97719,-0.0980040688197707,-0.0475127826320345,0.3240968368733194,25.88247,53.13561,184.2959,0.4280828,-0.2165003,0.8748298,10
8.58,-28.01144,1.145458,-28.02048,-0.149929171667043,-0.0846457181985788,0.2811728902810078,24.61902,50.51752,184.032,0.4098563,-0.2073557,0.8862516,10
8.6,-27.92438,1.336486,-27.94893,-0.1752023686041122,-0.0380477472649922,0.2510399012539657,28.12548,50.12123,183.9805,0.4029901,-0.2342467,0.8817562,10
8.62,-27.83806,1.524386,-27.87756,-0.2125450520443754,-0.0748960666771733,0.2128441242233725,31.63013,49.70756,183.899,0.3957473,-0.2609059,0.8764271,10
8.64,-27.85818,1.12487,-27.88643,-0.2502822012590413,-0.1084159177485185,0.1765985190803278,32.10722,46.3858,183.5122,0.3705027,-0.265667,0.8862618,10
8.66,-27.7738,1.32208,-27.81632,-0.2640841871115102,-0.05504480839315,0.1514289335894911,35.54731,45.8391,183.1991,0.3628577,-0.2914004,0.8800673,10
8.68,-27.68984,1.516319,-27.74615,-0.2772222841879665,-0.002308755204735,0.1283483262711842,38.98371,45.24312,182.8292,0.3548843,-0.3168595,0.873067,10
8.7,-27.60644,1.70761,-27.67603,-0.3036401598418785,-0.06385383466985,0.092219369571953,42.4157,44.58607,182.3916,0.3465903,-0.3420209,0.8652683,10
8.72,-27.63948,1.115622,-27.71959,-0.3291091721914561,-0.1238204795924818,0.058654703853505,41.885,44.96583,182.3356,0.3503408,-0.337474,0.8655608,10
8.74,-27.55651,1.315701,-27.65112,-0.3253312667024612,-0.069630222445691,0.0403808410588877,45.26454,44.26555,181.8578,0.3419172,-0.3620501,0.8572194,10
8.76,-27.47383,1.51292,-27.58249,-0.3201854137390829,-0.1007067634236055,0.0222672664233041,48.63834,43.4775,181.2866,0.3331941,-0.3862969,0.8481178,10
8.78,-27.42472,1.112969,-27.55346,-0.3132161280041576,-0.1297085728564057,0.0070087745546776,48.09131,43.71215,179.5137,0.3415723,-0.3767307,0.8469294,10
8.8,-27.34355,1.313488,-27.48585,-0.292538937498136,-0.0713219067483321,0.0014839293802419,51.40859,42.8695,178.8943,0.3331591,-0.4005318,0.8371549,10
8.82,-27.26264,1.51125,-27.41805,-0.253918003731457,-0.0982124117325814,0.0103821098893481,54.71816,41.8979,178.1411,0.3244635,-0.4239807,0.8266627,10
8.84,-27.09971,1.102204,-27.29353,-0.2144279527846224,-0.124420809899642,0.0213960382382003,59.70756,39.98417,174.0134,0.3205443,-0.4516692,0.805036,10
8.86,-27.02056,1.295946,-27.22735,-0.1734728549904294,-0.0632345268224459,0.0336755268951933,62.93435,38.43919,172.673,0.3117006,-0.473967,0.7927742,10
8.88,-26.94196,1.487077,-27.16125,-0.131906381381329,-0.0036661273497163,0.0479359983449745,66.13898,36.51542,170.9508,0.3026014,-0.4958598,0.7798557,10
8.9,-26.86402,1.675628,-27.09531,-0.0808868096926285,-0.049225649292774,0.0699727497071069,69.31218,34.04076,168.675,0.2932543,-0.5173324,0.7662902,10
8.92,-26.72867,1.128991,-26.98979,-0.0301860220238983,-0.096622863657272,0.09409052184981,60.94501,30.64765,166.6775,0.2829678,-0.4593724,0.8100737,10
8.94,-26.65136,1.313255,-26.92192,0.0144746904779489,-0.032861491946141,0.1147872340110671,63.98518,28.11919,164.241,0.2745447,-0.4808409,0.7972981,10
8.96,-26.49391,1.178345,-26.80041,0.0716684803880518,-0.0373006598777834,0.1433416377095602,52.0458,34.66968,171.2003,0.2990885,-0.3970281,0.845247,10
8.98,-26.4166,1.356448,-26.72987,0.1275726947386544,-0.0424874060224152,0.173958813647574,55.14976,33.16879,169.7912,0.2914732,-0.4193814,0.8344082,10
9.0,-26.34052,1.531872,-26.66,0.170098482154628,0.0242567233019969,0.195901932859551,58.22781,31.39583,168.1083,0.2836297,-0.4413939,0.822907,10
9.02,-26.26576,1.704699,-26.59088,0.2204592840828949,0.0223272526279184,0.2168689710253768,61.27163,29.26792,166.069,0.2755683,-0.4630475,0.8107542,10
9.04,-26.08656,1.250846,-26.51521,0.2692945696673852,0.0194104687165164,0.2394144403067173,26.09,43.80127,176.0065,0.3704486,-0.1966388,0.9004055,10
9.06,-25.99978,1.420327,-26.43606,0.3058180846687897,0.0820611259295836,0.2579064348517117,29.5422,43.25555,175.6192,0.3651928,-0.223214,0.8946286,10
9.08,-25.91474,1.586429,-26.35794,0.3383230901664902,0.1416618213789127,0.2756143495609207,32.99058,42.66203,175.1783,0.3596014,-0.2495796,0.888022,10
9.1,-25.87201,1.268277,-26.35711,0.3600183145147193,0.1057940837199369,0.2795901523382129,8.0763,48.20337,177.5459,0.4086267,-0.0555438,0.9097316,10
9.12,-25.78204,1.435559,-26.27613,0.3788908948052762,0.068224286391832,0.2837505840866976,11.61966,47.82252,177.4465,0.4052011,-0.08353126,0.9083387,10
9.14,-25.69398,1.599259,-26.19629,0.404376156923742,0.1211429187176585,0.2984069931884621,15.16128,47.43003,177.3213,0.401387,-0.1114301,0.9060674,10
9.16,-25.59389,1.285448,-26.14387,0.4277090079129615,0.1046360738012997,0.3087078944950558,353.3021,51.77043,178.7038,0.4352018,0.05748222,0.8983653,10
9.18,-25.50277,1.449043,-26.06086,0.4468449711951794,0.0870748402650373,0.3186113811315256,356.8788,51.39587,178.8418,0.4331957,0.0289205,0.9008319,10
9.2,-25.41376,1.608931,-25.97917,0.4662901135963415,0.1371931513822724,0.3322210719121274,0.45522,51.03082,178.9562,0.4307653,0.0003385728,0.9024094,10
9.22,-25.32588,1.282689,-25.93152,0.4746799857074499,0.1122504397210445,0.3338631236101452,353.7853,52.55519,179.7401,0.4419584,0.04960759,0.8953936,10
9.24,-25.23665,1.444831,-25.84703,0.4782240134397231,0.0871903210592626,0.3343160164150922,357.3487,52.17414,179.9911,0.4396172,0.02081249,0.8978874,10
9.26,-25.14956,1.603293,-25.76395,0.4759031999763166,0.1292983521650584,0.3332540267209989,0.912541,51.8094,180.2181,0.4368474,-0.007994525,0.8994986,10
9.28,-25.06477,1.758239,-25.68243,0.4674427985392695,0.1688383724149429,0.3289843641750578,4.476747,51.4581,180.4229,0.4336519,-0.03678558,0.9002264,10
9.3,-25.095,1.250412,-25.74865,0.4360532252586577,0.110454425767849,0.3014089218792319,359.42,52.99183,181.3571,0.4461507,-0.0007537277,0.8948653,10
9.32,-25.00579,1.415266,-25.66577,0.4005324701562687,0.0521683560700726,0.2718691141006473,3.007231,52.637,181.6114,0.4428335,-0.02975,0.8961097,10
9.34,-24.9186,1.5765,-25.58419,0.3828913313993438,0.0906918188960834,0.2608758014626842,6.595212,52.29667,181.8444,0.4390788,-0.05870981,0.8964618,10
9.36,-24.91796,1.232043,-25.60046,0.3457873902799098,0.054610577590911,0.2322459584669483,8.269128,53.36042,182.8713,0.4460874,-0.07562242,0.8917326,10
9.38,-24.82747,1.400892,-25.51827,0.305911132522771,0.020241119514321,0.2023054649886968,11.90312,53.04667,183.1302,0.4414556,-0.1048712,0.8908625,10
9.4,-24.73885,1.566092,-25.43723,0.276776979530092,0.0596731764264663,0.1830430838676306,15.53735,52.74538,183.3724,0.436377,-0.1340041,0.8890833,10
9.42,-24.76126,1.199552,-25.46706,0.2277306354324784,0.0210300518341665,0.1462244779636221,14.78403,53.58985,183.6556,0.4431615,-0.1290436,0.8866068,10
9.44,-24.67178,1.376184,-25.38846,0.1763649026284799,-0.0147288450149714,0.1079529943332389,18.38365,53.2999,183.8941,0.4376724,-0.1577316,0.8842118,10
9.46,-24.58378,1.54934,-25.31064,0.1409002390861293,0.0274680037961242,0.0831119177070132,21.98331,53.01965,184.1185,0.4317491,-0.1862532,0.8809323,10
9.48,-24.4974,1.719133,-25.23377,0.10311827042666,0.0685880499812099,0.0570209608100586,25.5827,52.74732,184.3292,0.4253979,-0.2145775,0.8767733,10
9.5,-24.59771,1.168205,-25.32601,0.036174245641555,0.0021071270745288,0.0063731341770081,20.16398,51.72796,184.0548,0.4236585,-0.1726182,0.8880845,10
9.52,-24.51021,1.353049,-25.25072,-0.0314903669077026,-0.0619502880616189,-0.0447019250707758,23.71325,51.4094,184.1566,0.4174863,-0.2004033,0.8844696,10
9.54,-24.42375,1.534618,-25.17588,-0.069709278461882,-0.0200959858695486,-0.071228550891579,27.26187,51.08875,184.2393,0.4109133,-0.2279853,0.8799977,10
9.56,-24.46856,1.139028,-25.21319,-0.1246149754850791,-0.0611942925591542,-0.1110888330363137,26.31934,48.59948,183.9616,0.3932923,-0.2212217,0.8901792,10
9.58,-24.38351,1.33176,-25.14046,-0.17858584858612,-0.0988214327146349,-0.1500068898905469,29.81069,48.19691,183.8617,0.3864318,-0.2479657,0.8851677,10
9.6,-24.29911,1.521405,-25.06786,-0.2096933910936544,-0.0508578651128695,-0.1707609161783789,33.29988,47.77217,183.7289,0.3792136,-0.2744665,0.8793274,10
9.62,-24.29555,1.121809,-25.06436,-0.2464665615575008,-0.0868971561065047,-0.1976964498231566,34.74745,45.09663,183.2422,0.3580198,-0.2860196,0.884308,10
9.64,-24.21248,1.319804,-24.99354,-0.2811122185846639,-0.1199318929325578,-0.2229534244069744,38.17204,44.52763,182.8813,0.3503233,-0.3115164,0.8774145,10
9.66,-24.12979,1.514856,-24.92263,-0.2979199756025279,-0.0656365868171372,-0.2347023225977653,41.59247,43.90111,182.4567,0.3423127,-0.3367228,0.8697248,10
9.68,-24.04761,1.706986,-24.85177,-0.321612282583088,-0.0958281330134475,-0.2548139951014048,45.00794,43.20297,181.9548,0.3339954,-0.361616,0.8612468,10
9.7,-24.06227,1.115058,-24.88726,-0.3422126561555814,-0.1236488973857164,-0.2723798153613597,43.29528,44.3898,181.7205,0.3459474,-0.3467968,0.8625956,10
9.72,-23.98044,1.315402,-24.81809,-0.3598414278848487,-0.1525046045440968,-0.2875839222940302,46.66162,43.69952,181.2436,0.3377333,-0.3712761,0.85382,10
9.74,-23.89888,1.512909,-24.74874,-0.359144183688727,-0.1536251965576107,-0.2843937980274869,50.02237,42.91903,180.6713,0.329226,-0.395421,0.8442942,10
9.76,-23.82331,1.109977,-24.69951,-0.355138961350375,-0.1517586656155389,-0.2777888088592397,50.70852,42.90266,178.7052,0.3349666,-0.3947914,0.8392555,10
9.78,-23.74305,1.309466,-24.63171,-0.3479411550478057,-0.1503083882634172,-0.267976959884515,54.00895,41.99543,178.0044,0.3265961,-0.418284,0.8288465,10
9.8,-23.66308,1.506229,-24.56378,-0.3326805727360118,-0.0634718086602809,-0.2492189178896056,57.30061,40.93438,177.1455,0.3179512,-0.4414129,0.8177333,10
9.82,-23.47218,1.104506,-24.41551,-0.3142938705592373,-0.0895685009965627,-0.2208826373740402,61.2353,36.84095,171.1569,0.3083783,-0.4608085,0.8016545,10
9.84,-23.39375,1.295725,-24.3489,-0.2931622639662601,-0.1153636677205462,-0.1893826295777203,64.41198,34.91234,169.3841,0.2997659,-0.4827591,0.7889191,10
9.86,-23.31598,1.484351,-24.28247,-0.2817349222029595,-0.053574543319811,-0.1634758073135547,67.55441,32.47397,167.0994,0.2909097,-0.5043007,0.7755361,10
9.88,-23.23896,1.670423,-24.21632,-0.2655471246682643,-0.0646043118306434,-0.1225200292686117,70.647,29.28726,164.0643,0.2818174,-0.5254187,0.7615151,10
9.9,-23.09823,1.144406,-24.10896,-0.2480738090899668,-0.0758881186236585,-0.0790506072264647,58.36884,31.12754,167.7856,0.282896,-0.4421548,0.8223493,10
9.92,-23.0211,1.326439,-24.04009,-0.2293493683992093,-0.0906492507048855,-0.0333834011569367,61.41875,28.93686,165.6581,0.2748569,-0.4638049,0.8100626,10
9.94,-22.94501,1.505857,-23.97174,-0.2138538905247671,-0.0679664136033568,0.0107914812085128,64.41985,26.24838,163.0318,0.2666009,-0.4850758,0.7971277,10
9.96,-22.77357,1.212096,-23.8593,-0.1969112082496811,-0.0448094845466577,0.0571595126432775,43.03078,38.76723,173.9526,0.3265844,-0.329194,0.8699439,10
9.98,-22.69349,1.386347,-23.78526,-0.1907714035210861,0.0231921886646391,0.0971982492410834,46.26572,37.83331,173.1198,0.3198895,-0.3530877,0.8607202,10
10.0,-22.61482,1.557687,-23.71204,-0.184350943942285,0.0884258072577969,0.1375971220809546,49.48891,36.76765,172.1529,0.3129321,-0.3766803,0.8507819,10
10.02,-22.46377,1.257283,-23.64924,-0.1855280022535228,0.058144785980341,0.1558571236950494,20.00472,45.44749,176.5715,0.3850393,-0.148755,0.905945,10
10.04,-22.37458,1.425559,-23.5686,-0.1843843936036822,0.0257610350124393,0.1764924299441022,23.53409,44.998,176.2966,0.3805181,-0.1762073,0.9014768,10
10.06,-22.28721,1.590281,-23.48906,-0.1969076630637123,0.0817861239290988,0.1979299926038349,27.06231,44.51639,175.982,0.3756319,-0.2034965,0.8961376,10
10.08,-22.20183,1.751605,-23.4108,-0.2146875858304149,0.0673275317534896,0.2034305115306747,30.58693,43.99611,175.6223,0.3703875,-0.230582,0.8899363,10
10.1,-22.16423,1.275766,-23.42316,-0.2322353057651942,0.0521795428540856,0.2095734784829694,358.3769,50.57336,178.1722,0.4268463,0.01961733,0.9040727,10
10.12,-22.07308,1.44153,-23.34169,-0.2436944856637684,0.1055803652892717,0.2272595660523193,1.942502,50.22739,178.2116,0.4245428,-0.008724038,0.9051148,10
10.14,-21.98392,1.603642,-23.26144,-0.255566260791038,0.0896045840161127,0.2335923126907721,5.507288,49.88283,178.2297,0.4218272,-0.03704916,0.9052715,10
10.16,-21.8796,1.293871,-23.20476,-0.2678336180236451,0.0724682981716518,0.240426410149614,352.8316,52.44218,179.2493,0.4405951,0.05896993,0.895503,10
10.18,-21.78847,1.455439,-23.12027,-0.2828516052592631,0.1224390578404232,0.2511335573920026,356.4175,52.07712,179.4629,0.438625,0.03014114,0.8981144,10
10.2,-21.69953,1.61324,-23.03721,-0.2999379232571444,0.1688021164192697,0.2606196279293811,0.003789501,51.72648,179.6532,0.4362227,0.001290454,0.8998338,10
10.22,-21.6522,1.262058,-23.0278,-0.3367994200864581,0.1152239939011329,0.2360278752075535,355.7576,53.08654,180.5661,0.4467255,0.03090557,0.8938915,10
10.24,-21.56331,1.425964,-22.94522,-0.3739544948172746,0.1333682642961911,0.2162849868695855,359.31,52.73141,180.8246,0.4441182,0.00219968,0.8959191,10
10.26,-21.47647,1.586281,-22.86398,-0.4121769806866324,0.1508877681312137,0.1954610421107609,2.862773,52.39223,181.0612,0.4410807,-0.02649979,0.897072,10
10.28,-21.39183,1.743165,-22.78422,-0.4634768062717227,0.0944536876871873,0.1524340023993464,6.415911,52.06643,181.2778,0.4376165,-0.05516546,0.8973498,10
10.3,-21.4263,1.240615,-22.84535,-0.5142027349468199,0.0381279261275928,0.1090224205215442,4.004761,53.57428,182.0558,0.44977,-0.03926639,0.892281,10
10.32,-21.33558,1.406983,-22.76294,-0.5476897252792337,0.0779680474041408,0.0867019771693757,7.631142,53.25871,182.3227,0.4459261,-0.06853846,0.8923647,10
10.34,-21.24683,1.56968,-22.68179,-0.5979863394638048,0.0421179179594429,0.0436154240823087,11.25851,52.95731,182.5718,0.4416321,-0.09773679,0.8915412,10
10.36,-21.26753,1.217331,-22.71203,-0.6469953280268657,0.0083020165234956,0.0006466734665062,11.90888,53.84546,183.3503,0.4474493,-0.1056195,0.8878018,10
10.38,-21.17679,1.389808,-22.63209,-0.6822987507163685,0.0489435717412686,-0.0281259288079791,15.52997,53.56353,183.6018,0.4424508,-0.1345879,0.88602,10
10.4,-21.08773,1.558707,-22.55313,-0.7171876530846513,0.0881130455989921,-0.0572253453173474,19.15112,53.29311,183.8394,0.4370081,-0.1634113,0.8833417,10
10.42,-21.1161,1.183122,-22.58564,-0.7797965287637698,0.0226413951786654,-0.1150223249010902,17.42243,53.51767,183.9075,0.4401731,-0.1503292,0.884421,10
10.44,-21.02689,1.363867,-22.50951,-0.8238208203991286,0.0385384979957436,-0.1557250445162727,20.99729,53.2417,184.1038,0.4344682,-0.1785668,0.881385,10
10.46,-20.93893,1.541235,-22.43398,-0.8655976739839959,0.0554669452093973,-0.1951490331744447,24.57193,52.9722,184.2864,0.4283394,-0.2066202,0.8774814,10
10.48,-20.85237,1.715321,-22.35922,-0.926150233808782,-0.0099613993669233,-0.252867833609633,28.14602,52.70733,184.4553,0.4217928,-0.2344592,0.8727159,10
10.5,-20.95536,1.153048,-22.44798,-0.9835643298728752,-0.0729293419064668,-0.3090292735685858,23.0841,50.63589,184.0374,0.4123621,-0.1955156,0.8881336,10
10.52,-20.86846,1.342016,-22.37471,-1.010280751657862,-0.0289483711937464,-0.3386865762492124,26.60527,50.2986,184.042,0.405973,-0.2227378,0.8838158,10
10.54,-20.78238,1.527805,-22.30172,-1.0483698346952814,-0.0682048427860808,-0.3795761566407165,30.12503,49.95061,184.0228,0.3992016,-0.2497374,0.8786573,10
10.56,-20.81601,1.128743,-22.32704,-1.0820949179403043,-0.1040585640234251,-0.4176746698044096,30.06128,47.14228,183.6999,0.3783314,-0.2500415,0.8880926,10
10.58,-20.73153,1.324563,-22.25586,-1.0921376006780354,-0.0536619297569122,-0.4364945846342878,33.51979,46.68476,183.4736,0.3711951,-0.2761374,0.8822109,10
10.6,-20.64753,1.517372,-22.18471,-1.0972105811342767,-0.0038826807297833,-0.451906048967492,36.97559,46.1906,183.2029,0.3637205,-0.3019707,0.8755167,10
10.62,-20.61707,1.117165,-22.16928,-1.113662252572159,-0.0682177336239929,-0.4819056557242933,39.64505,45.00612,182.6683,0.352663,-0.3215862,0.8719046,10
10.64,-20.53393,1.316594,-22.10012,-1.112399516075785,-0.0429193738337018,-0.4980394452882732,43.03951,44.37701,182.2266,0.3446635,-0.3464194,0.8639287,10
10.66,-20.45109,1.513133,-22.03083,-1.1049748846920386,-0.0162803170382448,-0.5100717690232281,46.42889,43.67238,181.7043,0.3363601,-0.3709354,0.8551824,10
10.68,-20.43738,1.11459,-22.03584,-1.0962677021519784,-0.0756262704799639,-0.5259789828171568,44.69413,43.85068,181.0804,0.3420143,-0.3559557,0.8593014,10
10.7,-20.35643,1.315256,-21.96664,-1.0815902832393487,-0.1339659539628765,-0.5381761551329114,48.0379,43.14966,180.5765,0.3339673,-0.3802058,0.850158,10
10.72,-20.27572,1.513118,-21.89727,-1.0467140965915465,-0.0775343709130794,-0.5309469484886864,51.37585,42.35217,179.9715,0.3256344,-0.404118,0.8402779,10
10.74,-20.2088,1.107332,-21.83359,-0.9944883751616214,-0.1074508387734585,-0.5129298298150928,53.31922,38.77658,177.564,0.3056058,-0.4168423,0.8396508,10
10.76,-20.13194,1.305963,-21.76289,-0.9369369027100128,-0.136338902651235,-0.4915176848884517,56.58853,37.68241,176.6373,0.2974024,-0.4400653,0.8284937,10
10.78,-20.05542,1.501901,-21.69211,-0.8734565409673873,-0.0779161215667281,-0.463904785106191,59.84493,36.3801,175.4996,0.2889564,-0.462911,0.81664,10
10.8,-19.97932,1.695165,-21.62136,-0.8050080944665421,-0.0210227845459895,-0.4329268517903015,63.08441,34.79279,174.0741,0.2802708,-0.4853599,0.8041006,10
10.82,-19.90548,1.109377,-21.50628,-0.7241946344797547,-0.0724521531824544,-0.394861138023062,62.63156,26.53313,167.6615,0.2492798,-0.4818854,0.8138832,10
10.84,-19.83414,1.298355,-21.43244,-0.655861189770389,-0.036155775629221,-0.3659257484818243,65.70975,23.95805,165.1724,0.2413756,-0.5037648,0.8003553,10
10.86,-19.76351,1.484754,-21.35894,-0.5844394159539275,0.0004669273035504,-0.3348302620057306,68.72791,20.67159,161.9709,0.2332796,-0.5252244,0.786176,10
10.88,-19.67406,1.162048,-21.1964,-0.4980653470793359,-0.0333590175125178,-0.2954013530954231,55.73502,21.4321,168.624,0.2090885,-0.4407239,0.8557231,10
10.9,-19.60836,1.342166,-21.11593,-0.4092953415807998,-0.0691021957709495,-0.2540055136257071,58.75801,19.39055,166.593,0.2021951,-0.4631412,0.8434315,10
10.92,-19.54366,1.519645,-21.03622,-0.3280386236759964,-0.0035106706846899,-0.2171299380041613,61.73484,16.92941,164.142,0.1951447,-0.4851834,0.8304721,10
10.94,-19.44987,1.229007,-20.93904,-0.2340672785117887,-0.006024177260931,-0.180966790564355,37.76716,30.83496,174.673,0.2657687,-0.2999734,0.9071456,10
10.96,-19.37939,1.401111,-20.85067,-0.1376807740703838,-0.0096448641154539,-0.1428217753204173,41.09713,30.04286,173.9486,0.2602457,-0.3257244,0.8983156,10
10.98,-19.31029,1.570091,-20.76346,-0.0536974157117189,0.0530861985682008,-0.1097654496992972,44.41761,29.14878,173.1203,0.2544982,-0.3511829,0.8887003,10
11.0,-19.24267,1.73604,-20.67756,0.0302299067749518,0.1126567990891335,-0.0768924713677776,47.72805,28.12947,172.1653,0.2485333,-0.3763394,0.8783036,10
11.02,-19.23191,1.263653,-20.74929,0.1050574417842664,0.0767425323626317,-0.0597636188480334,13.87154,38.01656,177.1616,0.3260498,-0.1061292,0.9372907,10
11.04,-19.15569,1.431457,-20.65568,0.1700559973223141,0.1092637126645575,-0.0404639275996574,17.40781,37.63852,176.9854,0.3225263,-0.1348011,0.9340323,10
11.06,-19.08111,1.595685,-20.56348,0.233267428688165,0.1405859160156748,-0.0221149416445394,20.94308,37.2409,176.7802,0.3186947,-0.1633443,0.9298734,10
11.08,-19.03807,1.279244,-20.58294,0.2947932140479459,0.1015650796087898,-0.0097339628270738,354.4355,44.15218,178.4271,0.3747418,0.05013018,0.9257564,10
11.1,-18.95854,1.44412,-20.48965,0.3546473765058735,0.0606516583980227,0.0020461026723355,358.0015,43.81434,178.5531,0.3728131,0.02088894,0.9276568,10
11.12,-18.88084,1.605326,-20.39789,0.4192910810247938,0.1100468161605164,0.0261832354033075,1.567137,43.48476,178.658,0.3705226,-0.008364033,0.9286489,10
11.14,-18.8001,1.295975,-20.3846,0.4741971087492072,0.0855042630474073,0.0391947038830995,353.4647,46.78919,179.5226,0.3961945,0.0539652,0.9163863,10
11.16,-18.71928,1.456859,-20.29003,0.526064179522518,0.0605638055521997,0.0512853321349284,357.0442,46.43755,179.8019,0.3940704,0.02438354,0.9187168,10
11.18,-18.64047,1.613971,-20.19719,0.5719185419433361,0.1026595215487008,0.0653545014733363,0.6242623,46.10411,180.0587,0.3915589,-0.005213295,0.9201369,10
11.2,-18.56383,1.767483,-20.10624,0.6129018161702402,0.1419455658870017,0.0767911945429653,4.204693,45.78621,180.2953,0.3886629,-0.03479671,0.920646,10
11.22,-18.61283,1.254619,-20.24569,0.6312783574223029,0.0830947962869115,0.0641376150788111,357.4266,48.85877,181.1702,0.4136544,0.01622149,0.9100999,10
11.24,-18.53101,1.419046,-20.15638,0.6524975244560696,0.0998431282588861,0.060826981045666,0.9821253,48.52752,181.46,0.4107898,-0.01304817,0.9116009,10
11.26,-18.45108,1.579895,-20.06854,0.6699603064281172,0.1160354473194614,0.0558634678468079,4.538251,48.21363,181.7299,0.4075267,-0.04229698,0.9122102,10
11.28,-18.45625,1.237715,-20.12807,0.6670717440139136,0.0575861124659302,0.0328327330200144,6.169863,50.64214,182.6129,0.4258504,-0.05837046,0.9029056,10
11.3,-18.37039,1.404918,-20.0403,0.6615767604778657,-0.0003513795985256,0.0085868287037165,9.803642,50.35845,182.9191,0.421788,-0.08810151,0.902305,10
11.32,-18.28637,1.568441,-19.95387,0.6706676927006949,0.0377432348029482,0.0036589053002917,13.43782,50.0913,183.2107,0.4172983,-0.1177342,0.9007832,10
11.34,-18.32142,1.208643,-20.0111,0.6575896795881442,-0.0017633850480723,-0.020107156628605,13.45414,50.98798,183.547,0.4239762,-0.1189124,0.8975475,10
11.36,-18.23538,1.383147,-19.92726,0.641984264106539,-0.0386444990589588,-0.0448868239157307,17.06494,50.73216,183.8107,0.4189671,-0.1480775,0.8952076,10
11.38,-18.15084,1.554116,-19.8444,0.6396304259243166,0.0008912697092353,-0.0544998323324996,20.67576,50.48883,184.0629,0.41354,-0.177085,0.8919677,10
11.4,-18.06796,1.721673,-19.76269,0.634123682788545,0.0392299878186273,-0.065033384545547,24.2864,50.25655,184.3043,0.4077001,-0.2059032,0.8878323,10
11.42,-18.18367,1.175739,-19.87984,0.5965321603581448,-0.0289192297301979,-0.1012407705611369,18.74763,49.78575,184.0437,0.4098314,-0.1623035,0.8968453,10
11.44,-18.09925,1.358525,-19.79966,0.5746527062790934,-0.0135692820855199,-0.1210162526781624,22.30971,49.51804,184.204,0.4041706,-0.1906306,0.8932942,10
11.46,-18.01594,1.537981,-19.72008,0.5512986432885358,0.0030252095452526,-0.1401206100014156,25.8714,49.25416,184.3504,0.3981189,-0.2187633,0.8888718,10
11.48,-18.08041,1.145458,-19.77698,0.5064024209421476,-0.0640827092420573,-0.1748086319161155,24.61124,47.03272,184.0475,0.3826993,-0.2090701,0.8983234,10
11.5,-17.99802,1.336428,-19.69988,0.4605579170171476,-0.1287084549691168,-0.2086432603818342,28.11799,46.69583,184.0162,0.3763912,-0.2363635,0.8934409,10
11.52,-17.91634,1.524263,-19.62305,0.4417112316632818,-0.0840740426415324,-0.2174444957309571,31.6231,46.34495,183.9595,0.3697318,-0.2634225,0.8877164,10
11.54,-17.9422,1.124865,-19.64324,0.4116887516882468,-0.1231879874740504,-0.2337057603497174,32.09667,43.14127,183.524,0.3452483,-0.2678296,0.8964258,10
11.56,-17.86203,1.322031,-19.56813,0.3817122965898403,-0.1591608001465241,-0.2481427671572103,35.53791,42.65369,183.2267,0.3381968,-0.2939193,0.8898559,10
11.58,-17.78226,1.516217,-19.49302,0.3693153113173444,-0.1080323979288035,-0.2462857493594925,38.97583,42.12075,182.8779,0.3308401,-0.3197327,0.8824739,10
11.6,-17.70302,1.707446,-19.41802,0.3573935994431265,-0.0576302757348584,-0.2420388323776841,42.40992,41.53172,182.4676,0.3231852,-0.3452468,0.8742872,10
11.62,-17.73816,1.115565,-19.46836,0.3413062734060974,-0.1218454514785909,-0.2435441605232737,41.87136,42.84342,182.3689,0.3341692,-0.3396153,0.8719723,10
11.64,-17.65822,1.315564,-19.39617,0.333312646516267,-0.0962114354784746,-0.234609044281818,45.25359,42.21959,181.9292,0.3263459,-0.3644544,0.8632985,10
11.66,-17.57856,1.512695,-19.32385,0.3256136992943024,-0.069318263894039,-0.2230364424185515,48.63094,41.5163,181.4054,0.3182374,-0.3889632,0.8538614,10
11.68,-17.5319,1.11291,-19.30597,0.3178844440729436,-0.0445310040144253,-0.2090648667915551,48.08207,42.42485,179.5522,0.3319214,-0.3784939,0.8507942,10
11.7,-17.4527,1.313359,-19.23586,0.3190567431989042,-0.0487567805326834,-0.1850531143884657,51.40244,41.66388,178.9743,0.3240602,-0.4024431,0.8407485,10
11.72,-17.37373,1.511042,-19.16561,0.3203660914381092,-0.0502301804140772,-0.158538757070394,54.7162,40.78456,178.2741,0.3159251,-0.4260402,0.8299842,10
11.74,-17.21669,1.102155,-19.05021,0.3215141825464731,-0.0523424004596104,-0.1297514000365733,59.68574,39.34106,174.0684,0.3158277,-0.4528493,0.8070149,10
11.76,-17.13857,1.295855,-18.98261,0.3411112213479923,-0.0483154796635903,-0.0865382988863889,62.91711,37.89109,172.7793,0.3074822,-0.4751907,0.794537,10
11.78,-17.06096,1.486937,-18.91512,0.3595590929769547,-0.0426569207465898,-0.0422980610419272,66.12827,36.08009,171.1267,0.2988837,-0.497126,0.781404,10
11.8,-16.98399,1.675431,-18.84785,0.3765844231512909,-0.0386617906224973,0.002704284709484,69.31094,33.74426,168.9471,0.2900408,-0.5186417,0.7676247,10
11.82,-16.85357,1.128878,-18.75285,0.4089692067467223,-0.1090529827971139,0.059299984256588,60.95478,30.45059,166.7071,0.2814524,-0.4599108,0.8105743,10
11.84,-16.77656,1.313105,-18.68439,0.4390374888462054,-0.0670145614792531,0.1094085913480236,64.00166,28.0049,164.3083,0.2734646,-0.4813605,0.797635,10
11.86,-16.70049,1.494736,-18.6164,0.4668385670693662,-0.0255825169041487,0.1585149620079189,66.9912,24.93689,161.2863,0.2652599,-0.502415,0.7840546,10
11.88,-16.53985,1.195532,-18.50364,0.4921709449673579,0.0121488201930098,0.2063140937200565,48.29916,37.11973,173.1615,0.3130529,-0.36983,0.8557177,10
11.9,-16.46245,1.371993,-18.43225,0.5175750396315077,0.029348448351146,0.2342917844074534,51.43022,36.01245,172.1277,0.3061751,-0.3925544,0.8456081,10
11.92,-16.3863,1.545738,-18.36161,0.5421644294671049,0.0471970573411126,0.2602247988967674,54.54586,34.72559,170.9126,0.2990598,-0.4149631,0.8348346,10
11.94,-16.22941,1.250201,-18.30095,0.5657011629234205,0.0625998910568089,0.2836848473573408,26.1992,44.06313,176.0026,0.3724611,-0.197224,0.8993407,10
11.96,-16.14039,1.418979,-18.22081,0.5862748088088532,0.0754935707731538,0.2955279242978199,29.71824,43.56704,175.6179,0.367533,-0.2242438,0.8932454,10
11.98,-16.05315,1.58424,-18.14178,0.605200029714708,0.0889896164085569,0.3034427757486919,33.23431,43.02384,175.1817,0.3622537,-0.251049,0.8862916,10
12.0,-15.96783,1.746112,-18.06401,0.6221866095834134,0.1001170087023266,0.3069438311654724,36.74699,42.42371,174.6847,0.3566289,-0.2776166,0.8784851,10
12.02,-15.94601,1.271927,-18.09483,0.6408297603062416,0.0390158929368368,0.3036237387335991,2.373231,49.96833,177.9391,0.4225464,-0.0111738,0.9059262,10
12.04,-15.85447,1.438509,-18.01419,0.666153306938454,0.07008763317768,0.3192891447944679,5.936293,49.65306,177.9268,0.4200906,-0.03940197,0.905824,10
12.06,-15.76485,1.601452,-17.93475,0.6883443338652318,0.0994718386456284,0.3298482441081529,9.498199,49.33466,177.8946,0.4172282,-0.06758346,0.9048388,10
12.08,-15.67351,1.291557,-17.889,0.7070895007862528,0.1243969553720383,0.3347776530970217,352.2175,52.61422,179.0299,0.4416299,0.06457555,0.8945875,10
12.1,-15.58126,1.453753,-17.80576,0.7161508523811249,0.1239604961064645,0.3369202365729371,355.8071,52.2811,179.2183,0.4400456,0.03584251,0.8972043,10
12.12,-15.49116,1.612183,-17.72393,0.7219188966327186,0.1239594753019277,0.3346151211385013,359.3968,51.96099,179.3853,0.4380274,0.007081929,0.8989304,10
12.14,-15.44727,1.269768,-17.7113,0.7240927947763816,0.1215933591928882,0.3273429533163141,354.1025,53.31203,179.9923,0.448036,0.04600538,0.8925343,10
12.16,-15.35787,1.433096,-17.62884,0.7124201634926743,0.1124057499693717,0.313170806518531,357.648,52.98022,180.2606,0.4459901,0.01735496,0.8947998,10
12.18,-15.27052,1.592815,-17.54775,0.6970961516511525,0.1047629078439265,0.2939364099206718,1.193922,52.66553,180.5081,0.443514,-0.01130413,0.8961961,10
12.2,-15.18537,1.749085,-17.46819,0.6778473918237009,0.0958926104201231,0.2691605345604477,4.740131,52.3655,180.7367,0.4406106,-0.03994402,0.8967225,10
12.22,-15.22522,1.246109,-17.53875,0.6438524195109256,0.0121059132466928,0.2274667898004414,1.395577,53.86012,181.5818,0.4526759,-0.017108,0.8914852,10
12.24,-15.13404,1.411325,-17.45686,0.6257446347175764,0.0274748040763794,0.2147496797113586,5.010352,53.56388,181.8506,0.4494767,-0.0462852,0.8920765,10
12.26,-15.04486,1.57287,-17.37627,0.6044753278896842,0.0428803210986722,0.1980258899708489,8.626054,53.28281,182.1021,0.445827,-0.07541148,0.8917677,10
12.28,-15.07225,1.226265,-17.40998,0.5797663192960731,0.0555351436911524,0.1768551903766304,10.34077,54.03542,183.1606,0.4500315,-0.09272901,0.888033,10
12.3,-14.98057,1.396689,-17.32975,0.5372155570810648,0.0406340915642383,0.1496130187008477,13.9708,53.77861,183.4146,0.4454803,-0.1217939,0.8865075,10
12.32,-14.89065,1.563483,-17.2506,0.4926052619567103,0.0289022333127348,0.1195494426687653,17.60083,53.53431,183.656,0.4404798,-0.1507267,0.884082,10
12.34,-14.93241,1.190908,-17.29472,0.4456797838577886,0.0174191031036549,0.086296516005428,16.09238,54.3832,183.7686,0.4481305,-0.1393128,0.882354,10
12.36,-14.84208,1.369604,-17.21837,0.3941403592128514,0.0034312599732533,0.055008591382019,19.67914,54.1463,184.0045,0.4428425,-0.1677399,0.87951,10
12.38,-14.75308,1.54487,-17.14275,0.3415594097986469,-0.0068158654531682,0.0218867269397085,23.26571,53.91982,184.2301,0.4371192,-0.1959921,0.8757951,10
12.4,-14.66558,1.716807,-17.06798,0.2877051225994966,-0.0163708554181838,-0.0133826789272175,26.85176,53.70254,184.446,0.4309663,-0.2240388,0.8712146,10
12.42,-14.78151,1.160801,-17.16663,0.2152100449934919,-0.1093410875070709,-0.0639627357907073,21.58125,51.90916,184.0908,0.4236376,-0.183575,0.8856043,10
12.44,-14.69323,1.347745,-17.09345,0.1717332250099392,-0.0936723381935334,-0.0869447504399389,25.11671,51.62396,184.1487,0.4176383,-0.2109952,0.8815409,10
12.46,-14.60587,1.531454,-17.02064,0.128638227903129,-0.0760380442672815,-0.1105794845587015,28.65135,51.33406,184.1884,0.411242,-0.2382049,0.8766327,10
12.48,-14.65877,1.132767,-17.06099,0.08573070842472,-0.0595650590475693,-0.1351490391726593,28.03654,48.80669,183.9375,0.3930383,-0.2342312,0.8864555,10
12.5,-14.57294,1.327218,-16.99024,0.0427906011644041,-0.0708084738516445,-0.1573963675605412,31.51205,48.42521,183.788,0.3863131,-0.2605645,0.8809632,10
12.52,-14.48763,1.518617,-16.91957,0.0022325033786101,-0.0779990336843276,-0.178833051206066,34.98548,48.01752,183.6044,0.3792332,-0.2866475,0.8746545,10
12.54,-14.47977,1.118747,-16.91462,-0.0361071458347674,-0.0844524308515707,-0.1997096579987078,37.40392,45.95009,183.0044,0.3618544,-0.304801,0.875044,10
12.56,-14.39534,1.317524,-16.84612,-0.0563742145176666,-0.0058041484333779,-0.2057781811845551,40.81286,45.38477,182.5939,0.3541989,-0.3297876,0.8675135,10
12.58,-14.31122,1.513382,-16.77754,-0.083819165180627,-0.0405463399854881,-0.2219782009581092,44.21733,44.75414,182.1138,0.3462287,-0.3544701,0.8592041,10
12.6,-14.22755,1.706336,-16.70899,-0.1079529172194815,-0.0727554058949337,-0.2369413928798078,47.61646,44.04177,181.5479,0.3379512,-0.3788268,0.8501242,10
12.62,-14.17481,1.11376,-16.69624,-0.1289012433485135,-0.1058397204942995,-0.2509001208485772,46.39672,45.57815,180.3546,0.3548965,-0.3642654,0.8478637,10
12.64,-14.09164,1.314291,-16.62959,-0.1272167633642604,-0.1110174791039697,-0.2452529256322135,49.74125,44.87889,179.825,0.3469005,-0.3881974,0.8383192,10
12.66,-14.00869,1.512012,-16.56281,-0.122136000290814,-0.1130529022636465,-0.2378994592747148,53.07994,44.07564,179.1876,0.3386071,-0.4117854,0.8280491,10
12.68,-13.9261,1.706935,-16.49597,-0.1137965566948451,-0.1153478289293562,-0.2290619041885799,56.41126,43.13687,178.4111,0.3300241,-0.435009,0.817063,10
12.7,-13.85147,1.103735,-16.4523,-0.0974402959974116,-0.0321374463833921,-0.2107935399449374,56.51535,43.05925,176.1893,0.3377121,-0.4294142,0.8131407,10
12.72,-13.77006,1.299827,-16.3876,-0.0693778841023151,-0.061614688225223,-0.1858077892282454,59.77725,41.90114,175.184,0.329284,-0.4519359,0.801477,10
12.74,-13.68906,1.493259,-16.32291,-0.0387447453172933,-0.0906413620233864,-0.1595745031355069,63.02513,40.49019,173.9233,0.3205838,-0.4740687,0.7891462,10
12.76,-13.48913,1.118016,-16.17684,-0.0174527680613116,-0.0319694950365726,-0.1390848913531048,61.82025,33.97865,167.1929,0.3039227,-0.4602497,0.7986717,10
12.78,-13.4091,1.30448,-16.11212,0.0201586020134167,-0.0458872833887942,-0.1081103353024235,64.89858,31.56662,164.8342,0.2956587,-0.481519,0.7856907,10
12.8,-13.32991,1.488351,-16.04775,0.0586319987248689,-0.0599200815001311,-0.0765952943066166,67.92246,28.50805,161.8282,0.2871583,-0.5023904,0.7720738,10
12.82,-13.13107,1.178205,-15.90536,0.0978297069308649,-0.0772897064694818,-0.0447666851178816,52.07774,36.60622,171.1848,0.3133625,-0.3938545,0.8399228,10
12.84,-13.05114,1.356335,-15.83771,0.1437068864534829,-0.0569693330272247,-0.0129044592036891,55.17952,35.17573,169.7838,0.3060516,-0.4158907,0.8290413,10
12.86,-12.97241,1.531782,-15.77071,0.1899218781696576,-0.0360156450827595,0.0192638881278894,58.25669,33.47985,168.1168,0.2985021,-0.4375907,0.8175063,10
12.88,-12.89499,1.704627,-15.70447,0.2362817195221305,-0.0175493342883436,0.0514387706646841,61.30148,31.43709,166.1023,0.2907222,-0.4589374,0.8053277,10
12.9,-12.77889,1.239864,-15.67301,0.2697702597810665,0.0671128792202748,0.0765321183775058,31.98459,44.19957,175.3472,0.3717244,-0.2403753,0.8857306,10
12.92,-12.69004,1.41024,-15.59771,0.2978247004050178,0.0577338912929247,0.0878264342739461,35.4143,43.61454,174.8352,0.3662499,-0.2661549,0.8784636,10
12.94,-12.60286,1.577295,-15.5234,0.3264517485466951,0.0476622459787651,0.099009470053254,38.83866,42.96343,174.2546,0.3604425,-0.2916857,0.8703921,10
12.96,-12.49744,1.26815,-15.49249,0.3430982335264305,0.1038160153819775,0.111113679331984,8.134431,50.63529,177.553,0.427831,-0.05499165,0.9008212,10
12.98,-12.40369,1.435322,-15.4153,0.3561852747833642,0.089807497425669,0.1152689697896245,11.6858,50.32059,177.4674,0.4248765,-0.08277322,0.8992433,10
13.0,-12.31186,1.598888,-15.33923,0.3671688259083132,0.0754466822179345,0.1175716974924225,15.23566,49.99601,177.3603,0.4215134,-0.1104669,0.896795,10
13.02,-12.1948,1.285367,-15.27816,0.3757485048642035,0.0578412661366354,0.1176434519551239,353.3128,54.23137,178.7063,0.4543976,0.05704688,0.8888165,10
13.04,-12.09978,1.448931,-15.19936,0.3933113497552012,0.0630583026318326,0.1290534790229223,356.8912,53.9198,178.8527,0.4529352,0.02871446,0.8910746,10
13.06,-12.00688,1.608773,-15.12182,0.4076719625154839,0.0682467003979374,0.1387864326152421,0.4693229,53.61814,178.9794,0.4510298,0.0003616265,0.8924552,10
13.08,-11.91625,1.765055,-15.04571,0.4184869253081529,0.070587632834985,0.1463967433322011,4.047028,53.32395,179.0876,0.4486833,-0.02798344,0.8929577,10
13.1,-11.90179,1.282794,-15.06437,0.4248791396580678,0.1377367907547754,0.1563181101119306,353.7827,55.05825,179.7415,0.4614097,0.04913038,0.8855255,10
13.12,-11.80853,1.444907,-14.98415,0.4062560152953671,0.1060816825255048,0.1414937964412577,357.3461,54.74041,179.9998,0.4596148,0.0205657,0.8878165,10
13.14,-11.71743,1.603329,-14.90528,0.3844485704731955,0.0749568176975025,0.1243443753312416,0.9098597,54.43923,180.2381,0.4573724,-0.008011074,0.8892376,10
13.16,-11.69398,1.250433,-14.91957,0.3657903008769498,0.1161624904064078,0.114642002181287,359.4022,55.78981,181.363,0.4678668,-0.0009542969,0.8837038,10
13.18,-11.60056,1.415257,-14.84129,0.3308916027261341,0.0843226585362985,0.08945562631925,2.988743,55.49841,181.6289,0.4650689,-0.02969333,0.8847765,10
13.2,-11.50917,1.576455,-14.76426,0.2938120765267831,0.0535224279706948,0.0621460181453983,6.575784,55.22249,181.8775,0.4618124,-0.05839544,0.884971,10
13.22,-11.49486,1.232084,-14.7659,0.2542954437955331,0.0208967659470389,0.0323431058153136,8.251863,56.13078,182.872,0.4675213,-0.0752283,0.8806963,10
13.24,-11.40018,1.400905,-14.68839,0.2305210645586173,0.0820430887460811,0.0219716520508568,11.88541,55.88128,183.1382,0.4633592,-0.1041925,0.8796849,10
13.26,-11.30737,1.566067,-14.61197,0.1796834193434904,0.0423720318916793,-0.0110915686058759,15.519,55.64569,183.3922,0.4587288,-0.1330425,0.8777784,10
13.28,-11.2166,1.727711,-14.5368,0.1276374863092788,0.0052814460483998,-0.045873899494597,19.15298,55.42263,183.6351,0.4536346,-0.1617518,0.8749792,10
13.3,-11.31634,1.199623,-14.62624,0.0913444279343298,0.0435479139002117,-0.0657381474842411,14.7725,56.35649,183.657,0.4644435,-0.1282058,0.8756602,10
13.32,-11.22291,1.376224,-14.55216,0.0356692980569522,0.0028661151663669,-0.1008888024698015,18.37165,56.13155,183.9021,0.4593863,-0.1565956,0.873144,10
13.34,-11.13093,1.54934,-14.47885,-0.0204508523932882,-0.0344752710853357,-0.1373645242852721,21.97062,55.91821,184.1376,0.4538742,-0.184821,0.8697572,10
13.36,-11.17947,1.168253,-14.51839,-0.0577132373696525,0.0088934233797699,-0.1570956847228579,20.15136,54.7397,184.0614,0.4468527,-0.1713064,0.8766623,10
13.38,-11.08801,1.353052,-14.44768,-0.0952359518341436,0.0515312998458876,-0.1775059444810061,23.70066,54.48817,184.1751,0.4410777,-0.1987734,0.8729631,10
13.4,-10.99758,1.534564,-14.37741,-0.1610568430038061,-0.0153793741455576,-0.2192223362801064,27.24935,54.23729,184.2746,0.4348798,-0.2260399,0.8684206,10
13.42,-11.02973,1.139076,-14.39873,-0.2256435050680926,-0.0796200374466116,-0.2609407516967599,26.30499,51.55267,183.9645,0.4161111,-0.2194271,0.8797745,10
13.44,-10.94091,1.331776,-14.33035,-0.258835647469101,-0.035647714657506,-0.2769784759717568,29.79665,51.21604,183.872,0.4096116,-0.2458279,0.8747144,10
13.46,-10.85271,1.521379,-14.26212,-0.3044216717768614,-0.0749677968941706,-0.3023916854823425,33.28634,50.86021,183.7516,0.4027333,-0.2719884,0.868838,10
13.48,-10.76528,1.707926,-14.19415,-0.3471490514251735,-0.1108272067072267,-0.3264961387603375,36.7743,50.48005,183.599,0.3954824,-0.2978873,0.8621508,10
13.5,-10.83457,1.121828,-14.24564,-0.3662580657246846,-0.0596147142700901,-0.3325813178093753,34.72578,48.0217,183.2462,0.3804913,-0.2834907,0.874935,10
13.52,-10.7479,1.319802,-14.17896,-0.3865971964395751,-0.0925575700348221,-0.3429475488927938,38.15069,47.51965,182.8926,0.3731093,-0.3086271,0.8680342,10
13.54,-10.66158,1.514822,-14.11223,-0.4030712789706454,-0.1226316246704401,-0.3513119921332523,41.57184,46.96406,182.481,0.365393,-0.3334766,0.8603486,10
13.56,-10.57574,1.706908,-14.04556,-0.4042785542955606,-0.0649650423925659,-0.3480255875361959,44.9886,46.342,181.9988,0.3573498,-0.358017,0.8518861,10
13.58,-10.56126,1.114538,-14.05812,-0.4012560380804886,-0.007946513869236,-0.3422681968342529,44.70488,47.44876,181.1127,0.3687085,-0.3517606,0.8481492,10
13.6,-10.47606,1.315114,-13.99311,-0.4031524101848922,-0.0664444290805199,-0.3426545570008377,48.06824,46.81839,180.6438,0.3607453,-0.3757904,0.8390258,10
13.62,-10.39107,1.512849,-13.92795,-0.4006477634895123,-0.1239608520820439,-0.3406632299412628,51.42661,46.09909,180.0822,0.3524701,-0.3994842,0.82917,10
13.64,-10.2887,1.107187,-13.86229,-0.3892907297564534,-0.0665053626724527,-0.3281105212152186,53.31254,45.32687,177.6658,0.3527245,-0.4068951,0.821013,10
13.66,-10.2052,1.305643,-13.79908,-0.3595853254638862,-0.0941723359660117,-0.3039593593828933,56.59765,44.3704,176.8519,0.344406,-0.4296756,0.8100783,10
13.68,-10.122,1.501393,-13.7358,-0.3266279531133144,-0.1210078660638545,-0.2779688688432635,59.87226,43.22886,175.8503,0.3358009,-0.452083,0.7984639,10
13.7,-10.03923,1.694455,-13.67255,-0.2905624847161135,-0.1503630400735457,-0.2503350440673098,63.13358,41.83488,174.5939,0.3269162,-0.4741021,0.7861786,10
13.72,-9.896989,1.109109,-13.57493,-0.2504006239269554,-0.0662272209804979,-0.2177772780108733,62.64738,36.50773,167.8354,0.3183787,-0.4625812,0.7894362,10
13.74,-9.81522,1.297859,-13.51245,-0.1865542939484584,-0.0830123542625309,-0.1697405511514405,65.75731,34.14795,165.5361,0.3099425,-0.4837666,0.776357,10
13.76,-9.73419,1.484018,-13.45024,-0.1207820922851287,-0.1003038693934845,-0.1203859917663261,68.8159,31.12218,162.5698,0.3012567,-0.5045471,0.7626474,10
13.78,-9.549884,1.161668,-13.31987,-0.0711485280435152,-0.0364252840477974,-0.0821491383836843,55.77991,34.86893,168.7511,0.3072781,-0.4181832,0.8254485,10
13.8,-9.4686,1.341516,-13.25471,-0.0209461760550365,0.0257750492922189,-0.0437797080654376,58.83725,33.00111,166.8745,0.299606,-0.4395967,0.8137643,10
13.82,-9.388446,1.518708,-13.19013,0.0346922121412835,-0.0067190998657014,-0.0085269709128181,61.85544,30.74078,164.6054,0.2916993,-0.4606539,0.8014352,10
13.84,-9.209032,1.228659,-13.09689,0.0738716287122693,0.0325699042488745,0.0162051490724477,37.82831,43.61008,174.7256,0.3648686,-0.2844723,0.8718513,10
13.86,-9.121459,1.400651,-13.02522,0.1130406035195069,0.0711833419775713,0.0405972747498717,41.16671,42.90409,174.0672,0.35885,-0.3090577,0.8634868,10
13.88,-9.035453,1.569511,-12.95445,0.1553876492177874,0.0394486055970222,0.058338221888563,44.49725,42.10568,173.3149,0.3525209,-0.333366,0.8543689,10
13.9,-8.951147,1.735335,-12.88468,0.1988879336551293,0.0057959617775275,0.0764335179972626,47.81958,41.19288,172.4468,0.3458858,-0.3573856,0.844502,10
13.92,-8.89677,1.263598,-12.90197,0.2373056170568106,0.0623751616449749,0.0996661587941627,13.91623,50.16397,177.1615,0.423381,-0.09926428,0.897484,10
13.94,-8.802332,1.431387,-12.82662,0.2754147802575195,0.048646348586627,0.1176485187091997,17.45305,49.8322,176.9919,0.419882,-0.1266199,0.8944405,10
13.96,-8.709764,1.595594,-12.75233,0.3124858071774437,0.0343722183180884,0.1345037639138953,20.98907,49.48221,176.7963,0.4159813,-0.1538546,0.8905362,10
13.98,-8.623494,1.279268,-12.71858,0.3452236065713018,0.0875744418813938,0.15622080597787,354.4601,54.86491,178.4019,0.4595215,0.0493049,0.8867419,10
14.0,-8.527195,1.444186,-12.64258,0.3746542286169384,0.1376375026706268,0.1757083939713934,358.0272,54.57298,178.5073,0.4581339,0.02126886,0.8886212,10
14.02,-8.432946,1.605428,-12.56777,0.3922404414072489,0.0940214986658856,0.1822372920353747,1.593787,54.28795,178.5945,0.4563015,-0.006780045,0.8896322,10
14.04,-8.323673,1.296027,-12.50953,0.4035078282829992,0.1196546470464,0.1897263897743852,353.4639,55.90024,179.4863,0.4677101,0.05245515,0.8820304,10
14.06,-8.227827,1.456972,-12.43017,0.4109078568637895,0.1437825778863134,0.1950461217761363,357.0454,55.59556,179.7343,0.4661432,0.02388674,0.8843306,10
14.08,-8.134222,1.614141,-12.35221,0.4021215824910488,0.0911912835198694,0.1835798231473875,0.6271387,55.30702,179.9628,0.4641181,-0.004697138,0.8857564,10
14.1,-8.04303,1.767707,-12.27577,0.3902971944554182,0.0381368808494477,0.1701632506791615,4.20894,55.03233,180.1739,0.4616373,-0.03326834,0.8863071,10
14.12,-8.094621,1.254714,-12.35027,0.3862634017557511,0.077068645013872,0.168442949751304,357.4212,56.4414,181.1305,0.472922,0.0151625,0.8807619,10
14.14,-8.000646,1.419189,-12.27374,0.3782676564930252,0.1136678414269449,0.1638411716408743,0.9799606,56.15477,181.3873,0.4705207,-0.01324251,0.8822647,10
14.16,-7.908718,1.580079,-12.19843,0.3500776644212703,0.0520725203871305,0.1408187392148607,4.538887,55.88357,181.627,0.4676629,-0.04162652,0.8829058,10
14.18,-7.906481,1.237786,-12.21253,0.3296956426954019,0.0672372947743352,0.1295090994273455,6.157468,57.09008,182.5791,0.4759771,-0.05790627,0.8775294,10
14.2,-7.810384,1.405026,-12.13595,0.3066231005468194,0.0825982127050786,0.1162746815823434,9.794182,56.84657,182.8578,0.4722246,-0.08687853,0.8769857,10
14.22,-7.716248,1.56858,-12.06052,0.2635538493041547,0.0207136223899624,0.0869134276385508,13.43094,56.61831,183.1242,0.4679937,-0.1157537,0.8755481,10
14.24,-7.624241,1.72859,-11.98637,0.2301633637678588,0.0359067668329051,0.067343918774458,17.06839,56.40395,183.3798,0.4632884,-0.1445079,0.8732182,10
14.26,-7.702012,1.199582,-12.05493,0.1945340649727468,0.052174766191379,0.0459005942021337,14.77552,57.39929,183.6666,0.4723797,-0.1279648,0.871398,10
14.28,-7.607194,1.376107,-11.98224,0.1563788945442008,0.0666560585239262,0.0222566655602645,18.38006,57.19136,183.9228,0.4674059,-0.1563169,0.8688574,10
14.3,-7.51385,1.549134,-11.91031,0.0870337705115117,-0.0248462899690642,-0.0251161018421339,21.98438,56.99619,184.1708,0.4619678,-0.1845044,0.8654484,10
14.32,-7.547818,1.16826,-11.93546,0.0452989220694842,-0.0116069716625903,-0.0494210671759216,20.15028,55.63577,184.0617,0.4536949,-0.170908,0.8731428,10
14.34,-7.455169,1.353042,-11.86616,0.0034026541445644,0.0031918332892932,-0.0741517498101529,23.70134,55.39855,184.1768,0.4479954,-0.1982843,0.8694314,10
14.36,-7.363549,1.534531,-11.79729,-0.0589271701571231,-0.064563085120881,-0.1135526663153021,27.25177,55.16249,184.2787,0.441866,-0.2254608,0.8648799,10
14.38,-7.273118,1.712806,-11.72898,-0.0997601075057028,-0.0467342412713335,-0.1363665319680018,30.80111,54.92568,184.367,0.4353132,-0.2524077,0.8594944,10
14.4,-7.380549,1.139095,-11.80516,-0.1392529514217445,-0.0269932619192578,-0.1584690790873741,26.3013,52.33979,183.9628,0.4221517,-0.2189168,0.8769005,10
14.42,-7.290723,1.331792,-11.73804,-0.1900870506797719,-0.0913367699708071,-0.1886692174335895,29.79322,52.01683,183.8696,0.4157237,-0.2452168,0.8718354,10
14.44,-7.201509,1.521389,-11.67105,-0.2210461707779814,-0.0669270704343194,-0.2045841238014549,33.28317,51.67514,183.7494,0.4089113,-0.2712773,0.8659569,10
14.46,-7.216169,1.121831,-11.6783,-0.2495110618701914,-0.0406794384181183,-0.2191210254356612,34.71925,48.91518,183.2489,0.3873033,-0.2826881,0.8719587,10
14.48,-7.128465,1.319794,-11.61289,-0.2756862284159809,-0.0158681813643722,-0.2325002209508895,38.14477,48.42886,182.8987,0.3799763,-0.3077221,0.8650672,10
14.5,-7.041099,1.5148,-11.54745,-0.2997643709818236,-0.0107946708437027,-0.2449394580213697,41.56663,47.89004,182.4919,0.372309,-0.3324701,0.8573942,10
14.52,-6.989414,1.115052,-11.52701,-0.316715939268308,-0.0189178794238399,-0.2553017861445543,43.28002,48.29077,181.733,0.3750906,-0.3422213,0.8503802,10
14.54,-6.903012,1.315368,-11.46325,-0.3294282022707512,-0.0232053713940556,-0.2631238378528715,46.64763,47.68513,181.2687,0.3671603,-0.366226,0.8416358,10
14.56,-6.816827,1.512833,-11.39936,-0.3380723321606206,-0.0270654995827734,-0.2686026433290835,50.01036,46.99613,180.7176,0.3589115,-0.3899024,0.832155,10
14.58,-6.730993,1.707457,-11.33544,-0.3426586660938644,-0.118752762940749,-0.273483565858813,53.36712,46.20031,180.0565,0.3503518,-0.4132298,0.8219466,10
14.6,-6.709074,1.110008,-11.33095,-0.3329987221725883,-0.0934438411005349,-0.2647282429821618,50.68063,46.63789,178.7148,0.3621468,-0.3889962,0.8280044,10
14.62,-6.624427,1.309495,-11.26834,-0.3192866248634888,-0.0670342768431382,-0.2534628906902212,53.98166,45.81318,178.0223,0.353998,-0.4120097,0.8176384,10
14.64,-6.540027,1.506244,-11.20562,-0.2835505351780177,-0.1256233537976664,-0.228151336947759,57.27473,44.84284,177.1814,0.3455525,-0.4346665,0.8065807,10
14.66,-6.357019,1.104467,-11.0804,-0.2479205763511894,-0.0949385094422989,-0.2015977608591541,61.22314,40.6992,171.19,0.3350707,-0.4530371,0.7909412,10
14.68,-6.274119,1.295685,-11.01906,-0.209941333938096,-0.0640637128535582,-0.1736273110729012,64.40224,38.86539,169.4389,0.3265794,-0.4744934,0.7782748,10
14.7,-6.191842,1.484298,-10.95792,-0.169790356904373,-0.0362509935176615,-0.1444328218924138,67.54918,36.53691,167.1917,0.3178229,-0.4955495,0.7649724,10
14.72,-6.110304,1.670344,-10.89704,-0.1200000825885476,-0.1118314324010704,-0.1099894481432759,70.64921,33.48162,164.2167,0.3088086,-0.5161912,0.7510437,10
14.74,-5.882828,1.161628,-10.73951,-0.0773733582941913,-0.0744652575197329,-0.0795036912580553,55.78807,35.44798,168.7251,0.3115358,-0.4170453,0.8238008,10
14.76,-5.800361,1.341457,-10.67541,-0.0336123446999883,-0.0371058265452238,-0.0482425709141665,58.84834,33.56998,166.8206,0.3038442,-0.4383681,0.8121077,10
14.78,-5.719029,1.518616,-10.61188,0.0232554386231657,-0.0685487936003537,-0.0141240522090837,61.86864,31.29477,164.519,0.2959133,-0.459334,0.7997685,10
14.8,-5.638949,1.693182,-10.54901,0.0660830050748271,-0.0263347375288397,0.0111188864194449,64.83481,28.4888,161.687,0.2877522,-0.4799263,0.7867945,10
14.82,-5.524947,1.228624,-10.50843,0.1090666689466251,0.0150979149025935,0.0363417611626353,37.83707,44.13622,174.719,0.3688781,-0.2837775,0.8701335,10
14.84,-5.436492,1.400612,-10.43772,0.1520045517697351,0.0527396741956015,0.061261428857563,41.17653,43.44042,174.0551,0.3629127,-0.3082792,0.8617499,10
14.86,-5.349609,1.569462,-10.36789,0.183809493885861,0.0642980176941422,0.0745486062332105,44.50817,42.65225,173.2978,0.3566331,-0.3325042,0.8526145,10
14.88,-5.240568,1.263579,-10.34161,0.2146406582986939,0.0766873001118193,0.0869009591726639,13.92516,50.89633,177.1633,0.4291043,-0.09886838,0.8947516,10
14.9,-5.145119,1.431354,-10.26745,0.244193108460884,0.0869400063361835,0.0979701963647823,17.46277,50.57886,176.997,0.4256918,-0.1261427,0.891677,10
14.92,-5.051547,1.595544,-10.19436,0.2756868866507995,0.0251027434836829,0.1057876307638361,20.99963,50.24366,176.8059,0.421872,-0.1532962,0.8877446,10
14.94,-4.949653,1.279256,-10.14847,0.310494333357759,0.0555405582817253,0.125417904270914,354.4734,55.50264,178.4006,0.4644528,0.04915191,0.8841752,10
14.96,-4.852399,1.444175,-10.07365,0.3423225076657579,0.0844874548560202,0.1432259876206291,358.0407,55.2241,178.506,0.4631778,0.02119044,0.8860047,10
14.98,-4.757203,1.605415,-9.999998,0.3708157439339821,0.1091728552350077,0.1588216242831047,1.607447,54.95244,178.594,0.4614531,-0.006783649,0.886969,10
15.0,-4.664235,1.763129,-9.927654,0.3849656683695784,0.1086540541830018,0.1654990784933804,5.173567,54.68555,178.6653,0.4592806,-0.03474332,0.8870679,10
15.02,-4.631649,1.296023,-9.929896,0.3958236637493414,0.1087498614222071,0.1707270917001758,353.4612,56.47383,179.4843,0.4721176,0.05236903,0.8796776,10
15.04,-4.534894,1.456974,-9.851631,0.4030466670804979,0.1066598371713511,0.1741027921485661,357.0426,56.18275,179.7319,0.4706678,0.02386667,0.8819301,10
15.06,-4.440383,1.614147,-9.774738,0.3936117796739883,0.0979291483686043,0.1653526537423668,0.6240526,55.90778,179.961,0.4687556,-0.004651119,0.8833112,10
15.08,-4.432949,1.254736,-9.799626,0.3804967337604661,0.0909191097005448,0.1541282512621355,357.4145,57.18891,181.1314,0.4786574,0.01508386,0.8776566,10
15.1,-4.337952,1.419199,-9.724311,0.3633928713582255,0.0828570169407275,0.1400468929264011,0.9731391,56.91547,181.3922,0.4763674,-0.01325432,0.8791215,10
15.12,-4.245008,1.580075,-9.650212,0.3307082653305021,5.674473760400312e-05,0.1125909351375735,4.531929,56.65772,181.6366,0.4736153,-0.0415714,0.8797286,10
15.14,-4.154285,1.737521,-9.577473,0.316360655889364,0.0166131631435796,0.1050458730642599,8.090752,56.41379,181.8665,0.470404,-0.06984006,0.8794775,10
15.16,-4.178698,1.232125,-9.613282,0.2991700792902838,0.033381283901973,0.0955319779568738,8.238995,57.79313,182.8773,0.4802506,-0.07497355,0.873828,10
15.18,-4.081869,1.400959,-9.538567,0.2788330289690102,0.0475737213638803,0.0836908260232606,11.86828,57.57242,183.1519,0.4762893,-0.1037474,0.8727657,10
15.2,-3.986918,1.566138,-9.464912,0.268205177762978,0.1163567362730265,0.0823942748947165,15.4975,57.36657,183.4163,0.4718478,-0.1324078,0.8708184,10
15.22,-4.014244,1.199661,-9.490266,0.2192131490735119,0.0754351197538629,0.0515180337582983,14.76559,58.04412,183.6595,0.4772914,-0.1276675,0.8687322,10
15.24,-3.918606,1.376248,-9.418986,0.1690767343052332,0.0373879794030488,0.0194314947217439,18.36366,57.84758,183.9096,0.472407,-0.1558691,0.8661786,10
15.26,-3.824437,1.549348,-9.348452,0.1175754697498651,-0.0007361682487263,-0.0141275617550158,21.96143,57.6636,184.1521,0.4670552,-0.183907,0.8627631,10
15.28,-3.731906,1.719072,-9.278797,0.067746193787707,-0.0175182803262963,-0.0437566158654559,25.55869,57.49142,184.3882,0.4612416,-0.2117511,0.8584905,10
15.3,-3.842148,1.168283,-9.360283,0.0181870143851684,-0.0302332485678375,-0.0734925066161692,20.1466,56.23732,184.0591,0.4582796,-0.1706011,0.8707523,10
15.32,-3.748737,1.353079,-9.292075,-0.0313395389988603,-0.0419651205271625,-0.1035772471861835,23.69545,56.01286,184.1725,0.4526638,-0.1978781,0.8670233,10
15.34,-3.65635,1.534585,-9.224297,-0.0806678995857542,-0.0550095401318894,-0.1320031392614084,27.24364,55.78981,184.2736,0.4466142,-0.224956,0.862458,10
15.36,-3.706705,1.139101,-9.255877,-0.1285126592087879,-0.0636602490063179,-0.1596187646731953,26.29755,53.10009,183.9656,0.4279594,-0.2184293,0.8740883,10
15.38,-3.616015,1.331787,-9.189876,-0.175078887079623,-0.0711419954962139,-0.1866330148132184,29.78923,52.79206,183.8763,0.4216028,-0.2446423,0.8690155,10
15.4,-3.525933,1.521371,-9.124021,-0.2205556487238827,-0.0806298815492401,-0.2132464657357179,33.27903,52.46614,183.7613,0.4148566,-0.2706166,0.8631327,10
15.42,-3.524706,1.121836,-9.119041,-0.2576521691046002,-0.0922560144366594,-0.2334697428892511,34.71514,49.61181,183.2492,0.3926017,-0.2820519,0.8695979,10
15.44,-3.436185,1.319797,-9.054688,-0.2911131799793758,-0.0996994116604474,-0.2516195754910325,38.14063,49.13911,182.8999,0.3853333,-0.3069941,0.8627072,10
15.46,-3.347995,1.514798,-8.990294,-0.3211267081291766,-0.1062992202992216,-0.2678916073487187,41.56255,48.61469,182.4952,0.3777198,-0.3316512,0.8550377,10
15.48,-3.260278,1.70686,-8.925963,-0.3324024207828762,-0.0274217443448853,-0.2713784975283082,44.98035,48.02619,182.023,0.3697685,-0.3560013,0.8465965,10
15.5,-3.173176,1.789352,-8.861802,-0.3496920838423378,-0.0618545081523909,-0.2828440453966451,48.39319,47.35725,181.4673,0.3614867,-0.3800226,0.8373925,10
15.52,-3.215327,1.114545,-8.914746,-0.3625762891103397,-0.0936622802488474,-0.29179866076111,44.69894,48.88551,181.113,0.379321,-0.3498751,0.8434779,10
15.54,-3.128453,1.315119,-8.851863,-0.3659285264515628,-0.037478323646448,-0.2916735440518372,48.06214,48.28206,180.6441,0.3714405,-0.3737099,0.8343698,10
15.56,-3.041774,1.512849,-8.788847,-0.3588830415492855,-0.067165352172259,-0.2861363408455178,51.42056,47.59165,180.0851,0.3632391,-0.397211,0.8245343,10
15.58,-2.954324,1.107193,-8.736752,-0.3481458123599603,-0.0950995379095094,-0.2784520482300926,53.3025,46.83587,177.6724,0.3634958,-0.4043116,0.8163452,10
15.6,-2.869159,1.305645,-8.675668,-0.333879034820487,-0.1246743109207913,-0.2687904544008188,56.58799,45.91103,176.8644,0.355233,-0.4268998,0.8054349,10
15.62,-2.784283,1.501387,-8.614527,-0.2873749377511102,-0.1208645287432591,-0.2360895345372771,59.8634,44.80477,175.8727,0.3466746,-0.4491177,0.7938499,10
15.64,-2.571409,1.109078,-8.470417,-0.2382150509210375,-0.1153828680129364,-0.201719289288897,62.64205,38.09938,167.8558,0.3292351,-0.4591137,0.7850071,10
15.66,-2.487886,1.297827,-8.410159,-0.18657985565652,-0.1115269366459573,-0.165872970705011,65.7537,35.77609,165.5674,0.320812,-0.4800977,0.771965,10
15.68,-2.405095,1.483981,-8.350165,-0.1474872074267191,-0.0231651537515036,-0.1381145289556513,68.81505,32.79295,162.6187,0.3121305,-0.5006801,0.7582967,10
15.7,-2.323154,1.667585,-8.290524,-0.0991315547170315,-0.0323743392617164,-0.1058519082903959,71.80172,28.83723,158.6968,0.3031978,-0.5208472,0.7440126,10
15.72,-2.188188,1.16161,-8.201519,-0.0494623157416892,-0.041512691475008,-0.072548859567487,55.78844,36.26023,168.7449,0.3172952,-0.4155017,0.8216097,10
15.74,-2.105163,1.341467,-8.138479,0.0013738011677073,-0.0537712045907394,-0.0384038507490775,58.84544,34.41768,166.8669,0.3096682,-0.4367095,0.8099471,10
15.76,-2.023268,1.518665,-8.076004,0.0312267610476333,0.0315539030199664,-0.018158168842238,61.86376,32.18479,164.5988,0.3017989,-0.4575638,0.7976437,10
15.78,-1.85689,1.228583,-7.998028,0.0727621350525823,0.0255779539116342,-0.0004655804229166,37.84882,45.09645,174.7249,0.3761333,-0.2825188,0.8669879,10
15.8,-1.767357,1.400577,-7.928747,0.1149125945479184,0.0191743930815353,0.0175684377704364,41.18726,44.41918,174.0701,0.3702114,-0.3069031,0.8586099,10
15.82,-1.679398,1.569436,-7.860337,0.1574404021676709,0.0092364436897946,0.0356559816761654,44.51818,43.65133,173.3241,0.3639695,-0.3310124,0.849484,10
15.84,-1.593148,1.735256,-7.792908,0.1964962598466887,0.0207848821715652,0.0520200297028843,47.84129,42.77141,172.4652,0.3574118,-0.3548355,0.8396146,10
15.86,-1.479256,1.26827,-7.77367,0.2348054595316366,0.0330628325536969,0.067564021023765,8.142569,53.193,177.5542,0.4478279,-0.05393937,0.8910437,10
15.88,-1.382376,1.435613,-7.701214,0.2720551091680278,0.0431060096298281,0.0819484471019962,11.67741,52.91969,177.4737,0.445159,-0.0812783,0.889387,10
15.9,-1.287406,1.599369,-7.629808,0.3043799921371253,0.1187740772361324,0.1012322274217788,15.21157,52.63744,177.3745,0.4420661,-0.1085374,0.8868783,10
15.92,-1.169775,1.285374,-7.571141,0.3256284064326225,0.1013205311676475,0.1087925962513358,353.3147,56.72109,178.7045,0.4735999,0.05666637,0.8787359,10
15.94,-1.071268,1.448992,-7.496874,0.3447810631753285,0.0832795225836371,0.1152812384622047,356.8885,56.4497,178.8534,0.4724957,0.02865084,0.8808582,10
15.96,-0.9748914,1.608893,-7.423815,0.3599411145993557,0.1333488170916162,0.124227932760407,0.4618523,56.18826,178.9851,0.4709307,0.000615235,0.8821167,10
15.98,-0.8808229,1.765237,-7.352106,0.3625001928148199,0.1099486237598889,0.1213715904157156,4.034768,55.93464,179.1008,0.4689068,-0.02741295,0.8825113,10
16.0,-0.8693768,1.2829,-7.368464,0.3617994425586835,0.0866305097097631,0.1170028830995135,353.7791,57.50693,179.7399,0.4802239,0.04866038,0.8754632,10
16.02,-0.7725274,1.445016,-7.292572,0.3575361849622676,0.0605746116013894,0.1107630953857262,357.3411,57.22908,180.0008,0.4787859,0.02036391,0.8776252,10
16.04,-0.6778569,1.603438,-7.21798,0.3581455247867534,0.1222490870158107,0.1132884682256814,0.903258,56.96798,180.2442,0.4768825,-0.007944481,0.8789291,10
16.06,-0.6572032,1.250464,-7.230987,0.340563491557431,0.0862390577718793,0.097881761021545,359.3893,58.18851,181.3616,0.4862619,-0.001120938,0.8737162,10
16.08,-0.560333,1.415285,-7.156935,0.3202105743249153,0.0514859740683046,0.0803726561133294,2.97509,57.93719,181.6301,0.4837949,-0.02959649,0.8746809,10
16.1,-0.4655218,1.576476,-7.084077,0.3095134566199251,0.0921318160654127,0.0754656280604313,6.561234,57.70169,181.8838,0.4808514,-0.05803546,0.8747793,10
16.12,-0.4530351,1.232118,-7.084388,0.2806678440210145,0.0585070891723927,0.0569629484378048,8.239371,58.50754,182.8708,0.485693,-0.07486786,0.8708161,10
16.14,-0.3549896,1.400924,-7.011048,0.2499404524059384,0.026946282977551,0.0368887607506055,11.87265,58.29851,183.1402,0.4818176,-0.1035658,0.8697248,10
16.16,-0.2588334,1.566066,-6.938754,0.2170836730618012,-0.0054600326111764,0.0149601926510619,15.50581,58.10419,183.4001,0.4774556,-0.1321503,0.86775,10
16.18,-0.1647422,1.727684,-6.867647,0.1987986100510305,0.0573811744964009,0.0069734594260467,19.13918,57.92359,183.6517,0.4726112,-0.1605952,0.8648945,10
16.2,-0.07289064,1.779277,-6.797866,0.1481970900046056,0.0174961487008448,-0.0242469365998576,22.77223,57.75609,183.8972,0.4672903,-0.188869,0.8611617,10
16.22,-0.2252426,1.190911,-6.91885,0.0966607462029299,-0.0193667437563061,-0.05660194483056,16.08916,58.78275,183.7775,0.4816604,-0.137881,0.8645087,10
16.24,-0.1290189,1.369504,-6.84941,0.0620020156864072,0.0230420777940393,-0.0756593277533216,19.68305,58.60465,184.0272,0.4766807,-0.1659051,0.8616253,10
16.26,-0.03415841,1.544642,-6.780632,0.0263094463732052,0.0644843239889629,-0.0954768613627801,23.27658,58.43936,184.2708,0.4712308,-0.1937562,0.857887,10
16.28,-0.09574722,1.160843,-6.822643,-0.0386509134299531,-0.002632241436856,-0.1350529084306587,21.57199,56.40122,184.0963,0.4580205,-0.1814124,0.8683362,10
16.3,-0.001849756,1.347733,-6.756425,-0.1031528640614112,-0.0669143129049982,-0.1748440781244541,25.10998,56.17416,184.1644,0.4522836,-0.2083472,0.864287,10
16.32,0.09113668,1.531374,-6.690557,-0.1371966645990453,-0.0239076010402072,-0.192497594789666,28.64716,55.94492,184.2187,0.4461164,-0.2350743,0.8594101,10
16.34,0.05237682,1.132823,-6.711401,-0.1861581135878803,-0.0637265159699642,-0.2194234819814825,28.02249,53.0626,183.9359,0.4257027,-0.2313707,0.8712737,10
16.36,0.1434133,1.327252,-6.647164,-0.2331703796274612,-0.0997645011219937,-0.2454309070815101,31.49896,52.73635,183.7889,0.4191905,-0.25719,0.8658362,10
16.38,0.2339405,1.518618,-6.583013,-0.2571527378549026,-0.049201132078063,-0.2558631906011348,34.9735,52.38628,183.612,0.4122934,-0.2827626,0.8595982,10
16.4,0.323809,1.706955,-6.519053,-0.2783551776894809,0.0011155046969797,-0.2647462193380631,38.44602,52.00661,183.3998,0.4050181,-0.3080661,0.8525658,10
16.42,0.2571073,1.118789,-6.564277,-0.3152169508519041,-0.0622632858376999,-0.2866669024400703,37.37902,49.90219,183.0008,0.3918561,-0.3008958,0.8621036,10
16.44,0.3462559,1.317563,-6.50175,-0.3353119118435638,-0.0356400296228721,-0.2977233902419177,40.78788,49.39028,182.5891,0.3843497,-0.3253694,0.8546669,10
16.46,0.4351234,1.513406,-6.439156,-0.351228658187831,-0.0072960527637347,-0.3064903246738046,44.19263,48.81591,182.1121,0.3765019,-0.3495439,0.8464651,10
16.48,0.5235672,1.706336,-6.376597,-0.3631839899199349,0.0194210635795389,-0.3131708290463482,47.59243,48.16364,181.5546,0.3683202,-0.3733979,0.837506,10
16.5,0.5406809,1.113775,-6.386855,-0.37748841161974,-0.070235858623249,-0.323963084314156,46.38068,49.41751,180.359,0.3831092,-0.3589354,0.8355553,10
16.52,0.6282634,1.314302,-6.325836,-0.3879202974981778,-0.143840709342474,-0.3328569690481485,49.72552,48.77376,179.8315,0.3751904,-0.3823821,0.826109,10
16.54,0.7156587,1.512011,-6.264692,-0.3753179321546891,-0.0906988880215619,-0.3224681616065897,53.06494,48.03041,179.2017,0.3669502,-0.4054907,0.8159494,10
16.56,0.8451944,1.103755,-6.184906,-0.3439036169170686,-0.1225189477259917,-0.301341237006657,56.48917,46.89894,176.2047,0.364744,-0.4223058,0.801501,10
16.58,0.9308877,1.299856,-6.12569,-0.3090767753370356,-0.1533515203607546,-0.2783674844914905,59.75218,45.80181,175.2081,0.3563117,-0.444356,0.7899572,10
16.6,1.016191,1.493286,-6.0665,-0.2711773910131815,-0.0964522337159265,-0.2520785178164265,63.00193,44.45972,173.9647,0.3475853,-0.4660247,0.7777575,10
16.62,1.237832,1.117941,-5.920235,-0.2111586037483434,-0.1152439882197615,-0.2124276481320967,61.82674,37.59223,167.1921,0.328952,-0.4524772,0.7886616,10
16.64,1.322056,1.304421,-5.860795,-0.1490852303897206,-0.1343110630026255,-0.1713878143943014,64.90554,35.23405,164.8343,0.3206449,-0.4732643,0.775795,10
16.66,1.405446,1.4883,-5.801689,-0.1043988577858805,-0.0691083287371923,-0.141602980199872,67.93105,32.23593,161.8364,0.3120814,-0.4936612,0.7623029,10
16.68,1.487883,1.669635,-5.743006,-0.0590725344695536,-0.0052554463330166,-0.1114320688197585,70.87824,28.3152,157.9157,0.3032697,-0.5136499,0.7481975,10
16.7,1.625077,1.178066,-5.658249,-0.0132604780041252,0.0391096450304895,-0.0810552652342196,52.10955,40.02521,171.162,0.3383328,-0.3877929,0.8300372,10
16.72,1.709273,1.356212,-5.595762,0.0414236230285234,-0.0210300557756855,-0.0517107069063147,55.21086,38.64546,169.7585,0.3310792,-0.4093611,0.8192194,10
16.74,1.79226,1.531666,-5.533887,0.0894878699525176,0.018664231214406,-0.0255994293593818,58.28833,37.00409,168.0936,0.3235676,-0.4305996,0.8077575,10
16.76,1.87392,1.704509,-5.472713,0.1379053986879586,0.0578001442060504,0.0006138331147695,61.33455,35.02087,166.0872,0.3158065,-0.4514921,0.7956614,10
16.78,2.042293,1.250649,-5.423421,0.1896852999211875,0.0265016027870865,0.0208215058808954,26.19644,49.45604,176.002,0.4143605,-0.1915035,0.8808275,10
16.8,2.137019,1.420134,-5.353683,0.2302057700383716,0.0630425628796705,0.0394400270705329,29.64764,49.03356,175.6291,0.4097339,-0.2173135,0.8748695,10
16.82,2.229989,1.586228,-5.284898,0.2697837631506928,0.0986919477496259,0.0572456164529915,33.09591,48.56866,175.2117,0.4047323,-0.2429208,0.8681067,10
16.84,2.332782,1.272056,-5.25066,0.3081008758015776,0.1305597321865515,0.0739054915781294,2.416958,55.47061,177.938,0.4655446,-0.01029229,0.8845904,10
16.86,2.431489,1.438839,-5.17985,0.3455110342460211,0.0669141295623241,0.0838070580054655,5.960662,55.22316,177.9325,0.4636042,-0.03771356,0.8843328,10
16.88,2.528234,1.602013,-5.110086,0.3782105966406849,0.0950133413967007,0.1001615006170476,9.5033,54.97355,177.9114,0.4612206,-0.06509077,0.8832249,10
16.9,2.622842,1.761721,-5.041505,0.4079397549088119,0.1218295559707572,0.1149346366399515,13.0448,54.71975,177.8742,0.4583962,-0.09239759,0.8812689,10
16.92,2.662443,1.29155,-5.040321,0.4334864012034072,0.0763859717208401,0.123731302057484,352.2233,57.97517,179.0257,0.4829828,0.06342565,0.8729593,10
16.94,2.762385,1.453824,-4.966646,0.4524649919158675,0.1007187193017087,0.1329832743135264,355.8068,57.70913,179.2174,0.4820348,0.03533526,0.8753614,10
16.96,2.860114,1.612335,-4.894219,0.4669005913744245,0.1239982143842852,0.1399272439246405,359.3901,57.456,179.3919,0.4806138,0.007217984,0.8769002,10
16.98,2.894776,1.269906,-4.891101,0.4764279962740682,0.1435227436790208,0.1441769719528315,354.0973,58.80961,179.9936,0.4903232,0.04488231,0.8700187,10
17.0,2.992018,1.433225,-4.817937,0.4615971636921676,0.0639655592626899,0.1275656202122817,357.6408,58.54441,180.2696,0.4888967,0.01680748,0.8720957,10
17.02,3.087141,1.59293,-4.745993,0.4558178166141554,0.0786260983605757,0.1221651721720308,1.184467,58.29669,180.529,0.4869997,-0.01127569,0.873329,10
17.04,3.179974,1.74918,-4.675408,0.446362924444339,0.0930842655079576,0.1143839826310277,4.728193,58.06451,180.7738,0.4846343,-0.03933993,0.8737179,10
17.06,3.175957,1.240722,-4.710431,0.4328978739070048,0.1046285585723298,0.1038557735565415,3.965956,59.63383,182.0596,0.4963126,-0.03894792,0.8672683,10
17.08,3.274974,1.407161,-4.638515,0.4057603502355482,0.094872060849457,0.0873422818875426,7.580241,59.41804,182.343,0.4932342,-0.06751148,0.8671426,10
17.1,3.371985,1.569938,-4.567707,0.3763318502489826,0.0876627804982357,0.0692819954762524,11.19516,59.21836,182.6152,0.489662,-0.09600251,0.8661444,10
17.12,3.362163,1.21747,-4.579417,0.3442835822560326,0.0801300173418502,0.0493516343933032,11.88343,59.81532,183.3512,0.4930891,-0.104194,0.8633138,10
17.14,3.461114,1.389925,-4.509701,0.3015275118593106,0.0704259863162451,0.0238204884174738,15.50086,59.63366,183.6127,0.4887535,-0.1324779,0.86138,10
17.16,3.558362,1.558793,-4.440857,0.2569384428184718,0.0642176203625727,-0.003278337541653,19.11799,59.46608,183.8673,0.483929,-0.1606203,0.8585801,10
17.18,3.653728,1.724202,-4.373022,0.2102226063505773,0.0585603692576795,-0.032214803061433,22.73485,59.31192,184.1162,0.4786206,-0.1885925,0.8549178,10
17.2,3.540918,1.18323,-4.45527,0.1611164910902008,0.0505666030621004,-0.0632423666687437,17.40211,59.46858,183.9083,0.4855059,-0.1480025,0.8604008,10
17.22,3.637892,1.363932,-4.388936,0.0782831120972886,-0.0475652093195958,-0.1165256936879268,20.97548,59.2938,184.1145,0.4803972,-0.175555,0.8572528,10
17.24,3.733616,1.541244,-4.323161,0.031365362922188,-0.0321086196000893,-0.1427241260097516,24.54837,59.12871,184.3142,0.4748208,-0.2029273,0.8532656,10
17.26,3.82792,1.71526,-4.258071,-0.015245020188384,-0.0150711233033427,-0.1690811916991931,28.12045,58.97262,184.5081,0.4687825,-0.2300897,0.8484447,10
17.28,3.723174,1.145514,-4.326076,-0.0618284582968053,0.000515337255906,-0.1958368385945627,24.60264,56.15677,184.0517,0.4529401,-0.2041169,0.8650537,10
17.3,3.817178,1.336396,-4.262696,-0.1127281763340697,-0.0108713153156905,-0.2230361340809444,28.11945,55.9061,184.0315,0.4468764,-0.2304516,0.8603454,10
17.32,3.910484,1.524112,-4.199521,-0.1612006394262035,-0.0180845072802334,-0.2490500573750545,31.63471,55.64521,183.9924,0.4403936,-0.2565575,0.8548248,10
17.34,3.888485,1.124907,-4.207061,-0.2074691806138588,-0.0243740583369949,-0.2740693432556775,32.07158,52.35849,183.5312,0.4161748,-0.2608474,0.8658447,10
17.36,3.97983,1.322021,-4.145417,-0.2434556426895473,-0.0281682769935837,-0.2934227093747127,35.51649,51.95902,183.2463,0.4092437,-0.285888,0.8595585,10
17.38,4.070812,1.516135,-4.083765,-0.2758387993376148,-0.0281240556382673,-0.3110611744205377,38.95861,51.51917,182.9173,0.4019427,-0.3106607,0.8524897,10
17.4,4.161283,1.707272,-4.022207,-0.3048263731692497,-0.0275933452285617,-0.3271614149414606,42.39752,51.02956,182.5352,0.3942786,-0.3351431,0.8446452,10
17.42,4.122331,1.115616,-4.062448,-0.3306181367459728,-0.0298787849661396,-0.3418986353511156,41.84578,51.23432,182.3577,0.3971371,-0.3302484,0.8452448,10
17.44,4.212328,1.315624,-4.002775,-0.3358502768132145,-0.0313612014259479,-0.3453680910631191,45.22844,50.68515,181.9089,0.3892767,-0.3540533,0.8369046,10
17.46,4.302116,1.512748,-3.942996,-0.3366542013890139,-0.0294146783898626,-0.3465484523602483,48.60665,50.06053,181.3822,0.3810759,-0.3775385,0.8278271,10
17.48,4.391554,1.707,-3.883208,-0.3332121898634852,-0.027438851024146,-0.3456008867584654,51.97944,49.33998,180.7571,0.3725423,-0.4006834,0.8180206,10
17.5,4.437341,1.110001,-3.865922,-0.3257000823163691,-0.0289440565703987,-0.34268628436163,50.67363,49.7073,178.7334,0.3841407,-0.3840825,0.818063,10
17.52,4.525329,1.309449,-3.807438,-0.3015705584045438,-0.0306330222687972,-0.3276806839443711,53.98418,48.93492,178.0599,0.3760009,-0.4068012,0.8077495,10
17.54,4.613089,1.50614,-3.748869,-0.2733155229980986,-0.0300081487020582,-0.3104539561887944,57.28739,48.02298,177.2447,0.3675445,-0.4291667,0.7967507,10
17.56,4.801206,1.10442,-3.633745,-0.2411308067680717,-0.0304210587823281,-0.2911675194640371,61.21351,43.80717,171.2233,0.3562784,-0.4464369,0.7816778,10
17.58,4.887401,1.295634,-3.576806,-0.1955213502798849,-0.0225498659805816,-0.2645384814602981,64.3969,42.02543,169.4887,0.3477171,-0.4675338,0.7691129,10
17.6,4.97298,1.484232,-3.520044,-0.1474094352334494,-0.0131146852266421,-0.2363562281407458,67.54916,39.75743,167.267,0.3388731,-0.4882359,0.7559199,10
17.62,5.191855,1.144113,-3.382332,-0.0969876375140061,-0.005360376129255,-0.2067860884597376,58.4144,38.17163,167.78,0.3328733,-0.4281476,0.8032109,10
17.64,5.277324,1.326136,-3.323504,-0.0649656117820267,0.0816456385213272,-0.1890689608075166,61.46975,36.11031,165.6737,0.3249099,-0.4488895,0.791087,10
17.66,5.361751,1.505524,-3.265142,-0.0158233309063211,0.0752096980112275,-0.1661998629040171,64.47959,33.56546,163.0843,0.3166904,-0.4692661,0.7783338,10
17.68,5.445015,1.682347,-3.207331,0.0341169840275006,0.0685327303430161,-0.1427022792507402,67.426,30.35705,159.8318,0.3082234,-0.489261,0.7649627,10
17.7,5.527005,1.750019,-3.150154,0.0846607726439203,0.0584794268687496,-0.1187721691323718,70.28124,26.21178,155.6427,0.2995139,-0.5088593,0.7509844,10
17.72,5.66789,1.228786,-3.101241,0.1374827352513703,0.0752208569512229,-0.1057849685905122,37.83929,47.22235,174.7133,0.3921877,-0.2793075,0.85987,10
17.74,5.759409,1.401129,-3.036382,0.1913764518931469,0.092475697226798,-0.092857778744176,41.1438,46.56512,174.0518,0.3863089,-0.3031332,0.8516272,10
17.76,5.849366,1.570393,-2.972326,0.2460069281046544,0.1071697595799196,-0.0802292246609086,44.4409,45.81894,173.3013,0.3801027,-0.3266926,0.8426574,10
17.78,5.960357,1.263622,-2.950557,0.3010591840441161,0.1162901295266798,-0.0681280468075531,13.95694,54.04468,177.1598,0.4535161,-0.09702284,0.8825907,10
17.8,6.059697,1.431501,-2.882152,0.3430172656032551,0.1888957639050831,-0.0551073929289225,17.48468,53.7646,176.996,0.450306,-0.1238058,0.8794706,10
17.82,6.15714,1.595808,-2.814724,0.3750294597409931,0.1663339104324708,-0.0733311332098706,21.012,53.46778,176.8099,0.4466677,-0.1504727,0.8755101,10
17.84,6.2525,1.756693,-2.748405,0.4065352142855889,0.143524109149658,-0.0934655712824699,24.53732,53.15085,176.5989,0.4426057,-0.1769883,0.8707153,10
17.86,6.350157,1.285396,-2.72078,0.4353427482942644,0.1891174037446816,-0.1106283140073526,353.3152,59.1959,178.7,0.4924638,0.05628476,0.8683044,10
17.88,6.45187,1.449076,-2.651169,0.4632689969442403,0.1657077425044277,-0.1543934547704393,356.8845,58.94859,178.847,0.4915882,0.02861389,0.8703454,10
17.9,6.551424,1.609046,-2.582687,0.4895445380905763,0.1416650296094926,-0.2005610508104633,0.4532683,58.71103,178.9784,0.4902346,0.0009229933,0.871536,10
17.92,6.642784,1.282942,-2.543988,0.5136567157275158,0.1141567705597152,-0.2491877466011247,353.7771,60.14093,179.7417,0.5002189,0.04810074,0.8641934,10
17.94,6.74311,1.445058,-2.472734,0.5308648257732285,0.1020740744260245,-0.3203208688168432,357.338,59.88637,180.0064,0.4990075,0.02010011,0.8662864,10
17.96,6.841217,1.603481,-2.4027,0.5459213650650601,0.0915867783234849,-0.3948408367645274,0.8988395,59.64874,180.2551,0.4973114,-0.007912039,0.8675339,10
17.98,6.936924,1.758373,-2.334022,0.5583285417621575,0.0799324514401957,-0.4726846014779614,4.459686,59.42613,180.4896,0.4951326,-0.03590848,0.8679355,10
18.0,6.894759,1.254233,-2.392783,0.5767293223884677,0.1390174986370926,-0.5435780299470304,359.3799,60.78598,181.3611,0.5059406,-0.00134183,0.8624697,10
18.02,6.995008,1.419055,-2.323342,0.5727279735385413,0.1013105729473775,-0.6444191741271361,2.96484,60.55841,181.6316,0.5036764,-0.02951518,0.8633879,10
18.04,7.093161,1.580246,-2.255018,0.5675837731390454,0.0652145588913746,-0.7490045674466059,6.550042,60.34688,181.8888,0.5009162,-0.05765215,0.8634521,10
18.06,7.189037,1.737962,-2.187943,0.5608633153422573,0.027869657525165,-0.8571009435605232,10.13512,60.14997,182.1348,0.4976636,-0.08572422,0.862663,10
18.08,7.140142,1.242097,-2.234162,0.5663289463142474,0.0856958172970546,-0.9528414898481712,10.31212,61.35249,183.17,0.5057896,-0.09131802,0.8575242,10
18.1,7.241462,1.412475,-2.166277,0.532401369547423,0.0435566835664334,-1.0647004957858972,13.93959,61.17762,183.4427,0.5017471,-0.1195854,0.8559493,10
18.12,7.340946,1.579215,-2.099307,0.4978762902262208,0.0041571910472192,-1.1802638657979518,17.5668,61.01788,183.7085,0.4971996,-0.1477237,0.8535087,10
18.14,7.298282,1.216459,-2.133859,0.4780780065143366,0.0413428331979567,-1.287024014317097,16.07455,61.81973,183.7752,0.5044159,-0.1366492,0.8514538,10
18.16,7.397952,1.395102,-2.069856,0.4569155823335864,0.0775126348440273,-1.3963556270700457,19.66021,61.66482,184.0247,0.4995448,-0.1642412,0.8486145,10
18.18,7.496244,1.570302,-2.006455,0.3989175382687397,0.0082189594456459,-1.5150488812184266,23.24543,61.52325,184.2697,0.4941833,-0.1916628,0.8449376,10
18.2,7.592983,1.742163,-1.943779,0.3410594939263103,-0.0582574812595344,-1.6370650743483148,26.82988,61.39462,184.5116,0.4883369,-0.2188835,0.8404288,10
18.22,7.467944,1.196548,-2.022935,0.3140157289558489,-0.0195081413341071,-1.739693768054358,21.56261,59.45077,184.0963,0.4809742,-0.1797506,0.8558531,10
18.24,7.565238,1.383436,-1.961857,0.2651032152030335,-0.0621016843834436,-1.8442893793316588,25.09796,59.24803,184.1665,0.475313,-0.2062886,0.8518647,10
18.26,7.661616,1.567076,-1.901096,0.2175807515917185,-0.100719896033279,-1.950851826190287,28.63245,59.04401,184.2247,0.4692003,-0.2326215,0.8470625,10
18.28,7.75691,1.747535,-1.840763,0.1712255863207448,-0.1385401909982432,-2.0590530495536377,32.16574,58.83683,184.27,0.4626428,-0.2587212,0.841453,10
18.3,7.65765,1.17582,-1.896404,0.1554582524771264,-0.067596689937684,-2.148705920657432,30.03647,55.45408,183.7139,0.4416997,-0.243813,0.8583975,10
18.32,7.751854,1.371552,-1.837616,0.114956751384676,-0.1074050985912295,-2.2358689487792147,33.50396,55.11584,183.5077,0.434983,-0.2689668,0.8526037,10
18.34,7.845627,1.564239,-1.778859,0.0776529166037007,-0.1438261961835704,-2.323554252663695,36.9693,54.74749,183.267,0.4278687,-0.2938654,0.8460251,10
18.36,7.858767,1.173211,-1.777402,0.0605123919572743,-0.0925932299971735,-2.400908598643704,39.61239,53.51722,182.6847,0.4163949,-0.312394,0.8434337,10
18.38,7.951372,1.372581,-1.720773,0.0472010398911559,-0.0422544817305693,-2.477452634729213,43.0108,53.01049,182.2641,0.4086489,-0.336197,0.8356634,10
18.4,8.043744,1.569039,-1.664058,0.0223294560737075,-0.104534480832709,-2.555402387919848,46.4051,52.43732,181.7746,0.4005424,-0.3596935,0.8271506,10
18.42,8.135733,1.762598,-1.607349,0.0013828165211013,-0.1651803385081421,-2.632614537430062,49.79453,51.78053,181.1994,0.3920828,-0.382863,0.8179033,10
18.44,8.186063,1.181034,-1.595008,0.0035269740836114,-0.1106016455731697,-2.69358490794228,48.06636,52.64126,179.5514,0.4063821,-0.3634549,0.8179109,10
18.46,8.277056,1.381479,-1.539872,0.0151623981342829,-0.1418241408666743,-2.758228078035993,51.39706,51.96755,178.9675,0.3982779,-0.3862303,0.8082599,10
18.48,8.367875,1.579124,-1.484617,0.0304740013962465,-0.1710904998269572,-2.8203421336877126,54.72171,51.1814,178.2692,0.3898349,-0.4086671,0.7979168,10
18.5,8.458384,1.772852,-1.429329,0.0493003965143283,-0.2017725402468762,-2.879688120619361,58.03883,50.24759,177.4214,0.3810607,-0.4307464,0.7868908,10
18.52,8.563293,1.17992,-1.378481,0.0779643375514866,-0.1200713356032814,-2.929660527994317,59.64285,49.29541,174.0933,0.3846205,-0.4327473,0.776801,10
18.54,8.652361,1.373644,-1.325399,0.1327392256913355,-0.1457459652307221,-2.9891310553754424,62.87749,47.94033,172.8074,0.375834,-0.453923,0.7647892,10
18.56,8.740932,1.564729,-1.272403,0.1897408445853736,-0.1711418573899001,-3.044144831147656,66.09324,46.23695,171.172,0.366739,-0.4747119,0.7521484,10
18.58,8.942435,1.202435,-1.161317,0.2336806869419487,-0.1101758315468788,-3.102964583582644,60.96897,40.4934,166.7163,0.351275,-0.4382713,0.7827871,10
18.6,9.030596,1.386667,-1.10742,0.278720138317108,-0.0506427334912125,-3.157153884600128,64.01987,38.1515,164.3321,0.342823,-0.4585104,0.7703013,10
18.62,9.117805,1.568286,-1.053879,0.3285928569710263,-0.0878805165213729,-3.212598231887516,67.01614,35.20009,161.3388,0.3340988,-0.4783744,0.7571989,10
18.64,9.203936,1.741701,-1.000775,0.3598322768010655,-0.0473528858314049,-3.2751235859392027,69.93352,31.38663,157.4838,0.3251109,-0.4978463,0.7434925,10
18.66,9.404692,1.276573,-0.913276,0.3909832669428956,-0.0063084668263956,-3.3334323758501805,43.11262,48.76601,173.9409,0.401109,-0.3138839,0.8379011,10
18.68,9.496746,1.450969,-0.8551333,0.4218773312493724,0.0322447852435275,-3.38732337118901,46.33374,47.96114,173.118,0.3945549,-0.3363773,0.8288952,10
18.7,9.587344,1.622462,-0.7976445,0.4524425605306994,-0.0241588902182512,-3.449101273756539,49.54478,47.03388,172.1728,0.3876805,-0.3585883,0.8192119,10
18.72,9.748672,1.314947,-0.7918392,0.4850308858680796,-0.0672230044537753,-3.5068997670524773,20.12382,58.7593,176.6214,0.4873268,-0.1379359,0.8550861,10
18.74,9.85365,1.483147,-0.7330362,0.510347536693629,-0.0111906833747219,-3.5592845916600107,23.65161,58.45808,176.4167,0.4832959,-0.1638128,0.850606,10
18.76,9.956683,1.64779,-0.6750405,0.5299637081908268,-0.0254414729025618,-3.612308336361724,27.17921,58.1333,176.1834,0.4788023,-0.189534,0.8453124,10
18.78,10.05757,1.809026,-0.6179588,0.5497341607357915,-0.0396336385211785,-3.6624878885973606,30.70468,57.78082,175.9189,0.4738541,-0.215068,0.8392126,10
18.8,10.15612,1.814046,-0.5618972,0.5659358507220285,0.014216127666178,-3.703358629203692,34.22757,57.39488,175.6177,0.4684564,-0.2403893,0.8323131,10
18.82,10.20529,1.330094,-0.7111104,0.5795557899860546,0.0657263587578199,-3.7414401112782287,354.4818,72.86358,178.5555,0.5926417,0.04620325,0.8039284,10
18.84,10.3184,1.494868,-0.6643194,0.5878556464137157,0.0234199086953362,-3.781117897363521,358.0279,72.62283,178.8156,0.5919111,0.01998588,0.8057534,10
18.86,10.42924,1.655982,-0.6181779,0.5946208562299458,-0.0199703875872911,-3.817983500037439,1.574042,72.39848,179.0602,0.5906103,-0.006240431,0.8067985,10
18.88,10.55186,1.345641,-0.743129,0.5988325179729195,0.0270301776034382,-3.84619361138267,353.4296,80.86047,179.654,0.6473213,0.04557576,0.7600542,10
18.9,10.67066,1.506447,-0.7066907,0.5991806282550882,0.0714383069086588,-3.871685396103688,356.9857,80.60258,180.0704,0.6465955,0.01966196,0.7623794,10
18.92,10.78689,1.663485,-0.6707451,0.5672999330182111,0.0161188426378448,-3.886651349834984,0.5424322,80.37112,180.4702,0.6452377,-0.006263797,0.7639563,10
18.94,10.81422,1.305232,-0.8470372,0.5343107163638132,0.0335808197893015,-3.895539875212367,357.3688,88.6515,181.3029,0.6986944,0.008480981,0.7149617,10
18.96,10.93342,1.469576,-0.8269498,0.4982660051251144,0.0515057686805349,-3.9030279646638,0.8952796,88.42248,181.7407,0.6971191,-0.01619092,0.7167522,10
18.98,11.05026,1.630359,-0.8070192,0.4419668812092807,-0.0041250306929506,-3.903838365278389,4.42253,88.21989,182.1628,0.6948726,-0.04082488,0.71785,10
19.0,11.16452,1.78773,-0.7872613,0.3840363070553179,-0.0585005393174853,-3.904202519103822,7.950161,88.04237,182.5748,0.6919576,-0.06541211,0.7182543,10
19.02,11.14341,1.284728,-0.9577621,0.3445105678737441,-0.0161195175773888,-3.8850951173842088,8.184557,96.85201,183.0612,0.7446609,-0.06727041,0.6630847,10
19.04,11.26522,1.453384,-0.9548304,0.3025850831779051,0.0251696290985573,-3.864734169784592,11.77635,96.71156,183.5287,0.7408915,-0.09102368,0.6630443,10
19.06,11.3849,1.618412,-0.9517028,0.2292378283496059,-0.0351452245455744,-3.831081001992082,15.36818,96.59947,183.9938,0.7363818,-0.1146783,0.6623386,10
19.08,11.50222,1.779947,-0.9484067,0.1552069844599535,-0.0927245931906077,-3.797616883892663,18.96101,96.51546,184.458,0.7311342,-0.1382031,0.6609707,10
19.1,11.36085,1.255399,-1.039556,0.1016745310147002,-0.0529659661285859,-3.747495276035129,14.72844,101.6654,183.7991,0.7658043,-0.106397,0.6293268,10
19.12,11.4794,1.431767,-1.049603,0.0265688547417424,-0.092008105436747,-3.687245876420692,18.30083,101.5581,184.1975,0.7606592,-0.1284977,0.6283588,10
19.14,11.59635,1.604664,-1.059285,-0.0488465366260855,-0.1267672268371827,-3.627622388175233,21.87282,101.4753,184.5977,0.7547664,-0.1504644,0.6267705,10
19.16,11.71148,1.774202,-1.068598,-0.1037065866802251,-0.081353519989626,-3.553608607108372,25.44444,101.4174,185.002,0.748131,-0.1722703,0.6245654,10
19.18,11.57698,1.221535,-1.127344,-0.1585884534220185,-0.0358128667809575,-3.479320345143966,21.55734,103.9166,184.2329,0.768884,-0.1437388,0.6103888,10
19.2,11.69005,1.408095,-1.147841,-0.2137548152609611,-0.0111834697178926,-3.404865348265063,25.0883,103.7818,184.4471,0.7622752,-0.1637408,0.6086057,10
19.22,11.80221,1.591405,-1.167965,-0.307021274459732,-0.1051666260575145,-3.3112611677984662,28.6187,103.6578,184.6585,0.7549408,-0.1835799,0.6062409,10
19.24,11.75426,1.198382,-1.191725,-0.3653968880348039,-0.0891036835839411,-3.1980216737491127,28.00959,103.3108,184.0537,0.7551946,-0.1769569,0.6082856,10
19.26,11.86268,1.39251,-1.217347,-0.4206253128190491,-0.0702525370186851,-3.0852196078857523,31.48543,103.0823,184.0348,0.7472748,-0.1951743,0.6057312,10
19.28,11.97066,1.58358,-1.242682,-0.472901068321526,-0.051803368201174,-2.973067187203932,34.96011,102.8423,183.9963,0.7386664,-0.2131951,0.6026205,10
19.3,12.07804,1.771623,-1.267676,-0.5426265285317524,-0.1473064705388228,-2.852290538713833,38.43361,102.5885,183.9374,0.7293797,-0.2310137,0.5989536,10
19.32,11.99502,1.189867,-1.276241,-0.5796167586227385,-0.1280280279601283,-2.715984847833488,37.36434,102.3395,183.0892,0.7322794,-0.220663,0.6004881,10
19.34,12.09961,1.388428,-1.306596,-0.6114288413158864,-0.1062624033108532,-2.5806259646321967,40.77707,101.9225,182.7739,0.7225357,-0.2369865,0.5967638,10
19.36,12.20404,1.584057,-1.336716,-0.6460810485411965,-0.1698102296525989,-2.444529378197418,44.18686,101.4563,182.4065,0.712149,-0.2530932,0.5925058,10
19.38,12.30817,1.773095,-1.366551,-0.6635966556701716,-0.1438807290783263,-2.3015532869989133,47.59321,100.9284,181.9748,0.7011294,-0.2689684,0.5877181,10
19.4,12.30492,1.191696,-1.413475,-0.6753735222774591,-0.1157667324987717,-2.1598323899434657,46.37492,104.0189,180.4469,0.7234991,-0.2451834,0.5670158,10
19.42,12.40606,1.392054,-1.447672,-0.6815619466025051,-0.0888387693426602,-2.0197242624802256,49.72406,103.4808,180.0158,0.712406,-0.2604419,0.561883,10
19.44,12.50717,1.589592,-1.481668,-0.6725333504533428,-0.1799959360587621,-1.8880102403955423,53.06916,102.8602,179.4997,0.7007014,-0.2754705,0.5562655,10
19.46,12.64256,1.18049,-1.558183,-0.6528590135736367,-0.1556498627592558,-1.7516310304956764,56.46949,102.7957,176.2885,0.6977094,-0.2727109,0.5374132,10
19.48,12.74017,1.376491,-1.594707,-0.6284438990182291,-0.1301129014103503,-1.6170138832155478,59.73845,101.8083,175.381,0.6851087,-0.2866873,0.5308316,10
19.5,12.83751,1.569821,-1.630954,-0.5994337621678896,-0.1067051659480536,-1.4845656759933328,62.99613,100.5972,174.2482,0.6719398,-0.3004123,0.5238125,10
19.52,12.93445,1.752375,-1.666866,-0.5577547587164484,-0.1922905499290579,-1.3595005791038512,66.23912,99.07316,172.8013,0.6582153,-0.3138824,0.5163577,10
19.54,13.18973,1.199396,-1.796363,-0.5141254825392676,-0.1623664534931437,-1.23649835566905,60.98333,93.41514,166.7439,0.6631712,-0.2732249,0.5443106,10
19.56,13.28632,1.383537,-1.833837,-0.4665080440107392,-0.1317541064788874,-1.1162905065089128,64.04767,91.11116,164.3909,0.650104,-0.2856716,0.536756,10
19.58,13.38203,1.565053,-1.870775,-0.4150399654210623,-0.1036461380007112,-0.999292804240104,67.05888,88.20252,161.4338,0.6365162,-0.297883,0.5287693,10
19.6,13.47673,1.740696,-1.907131,-0.3642409586214721,-0.0887933201089859,-0.9046466094292964,69.99303,84.43453,157.6176,0.6224189,-0.3098454,0.5203602,10
19.62,13.59785,1.261055,-1.986073,-0.3103286794438276,-0.0721283830270435,-0.8146254025941546,48.36712,100.4425,173.1524,0.7154762,-0.2197747,0.5638283,10
19.64,13.69662,1.437465,-2.02354,-0.2534770965414128,-0.0567733763384795,-0.7296465425179636,51.50447,99.45603,172.1447,0.7048297,-0.2331242,0.5581413,10
19.66,13.79414,1.611142,-2.060311,-0.1930322928091863,-0.1112975705625854,-0.6581110276957708,54.62828,98.30054,170.9682,0.693634,-0.2462865,0.5520169,10
19.68,13.89024,1.782172,-2.096334,-0.1453305641840252,-0.0726018188057995,-0.5984380624123683,57.73467,96.92828,169.5752,0.6818995,-0.2592506,0.545461,10
19.7,13.98531,1.317488,-2.220035,-0.0955165734474432,-0.0345345797860653,-0.5469645638003645,20.12123,109.8176,176.5865,0.8082899,-0.07638588,0.561532,10
19.72,14.09623,1.485887,-2.265696,-0.0457633363019223,-0.0673178793895836,-0.5073693517291762,23.63501,109.5142,176.3471,0.8027632,-0.09263707,0.5591957,10
19.74,14.20532,1.650751,-2.310348,-0.0041616343556141,-0.0300234611984775,-0.4696887801454504,27.14819,109.1852,176.0788,0.7964749,-0.1087982,0.5563283,10
19.76,14.27809,1.331123,-2.381592,0.0365913507372672,0.006713928588475,-0.441928116246389,358.4531,115.5761,178.1885,0.8457857,0.02056772,0.5331178,10
19.78,14.39035,1.496897,-2.430233,0.076110726147093,0.0400930466544787,-0.4244959117352407,2.013364,115.363,178.2558,0.8450037,0.003468824,0.534255,10
19.8,14.50062,1.659011,-2.477732,0.1140523584028305,0.0522951483894968,-0.4177955569253374,5.572817,115.1533,178.3101,0.8434042,-0.01362871,0.5348734,10
19.82,14.6087,1.817614,-2.524008,0.1365509589196372,-0.014666606780881,-0.4195866995118887,9.131411,114.9456,178.3516,0.8409895,-0.03070794,0.5349727,10
19.84,14.69773,1.34483,-2.601424,0.1667993001443752,0.0123863252970197,-0.4032249052399336,353.4515,117.9743,179.4798,0.8555107,0.03331166,0.5146059,10
19.86,14.81239,1.505832,-2.649701,0.1949554170124705,0.038417249634458,-0.3968778801890485,357.029,117.7411,179.7282,0.8556798,0.01543146,0.5168507,10
19.88,14.92476,1.663058,-2.69672,0.2028148305951642,-0.0118342451609389,-0.3958266977863944,0.6063889,117.5239,179.9618,0.8550091,-0.002458855,0.5185861,10
19.9,15.03463,1.816679,-2.742399,0.2071999558581136,0.0080703231085659,-0.3807898184359686,4.183601,117.3209,180.1823,0.8534999,-0.02034177,0.5198109,10
19.92,14.9441,1.298202,-2.73247,0.207830459228246,0.0282188102873823,-0.3749871134367383,357.3976,118.7918,181.1287,0.8605556,0.003085255,0.5087547,10
19.94,15.0554,1.462665,-2.780634,0.2042575499670018,0.0459198772530183,-0.3787634488743847,0.9543074,118.5762,181.3954,0.8596009,-0.01472158,0.5107533,10
19.96,15.16465,1.623537,-2.827628,0.1885651377788764,0.0420649556386394,-0.3525090288207213,4.510974,118.3768,181.6495,0.8578117,-0.03250906,0.5122537,10
19.98,15.1525,1.276433,-2.83667,0.1699643964939934,0.0410266685717841,-0.3339424338716702,6.130913,119.6225,182.5794,0.8623129,-0.04631136,0.5030441,10
20.0,15.26473,1.443645,-2.886973,0.1479943859577925,0.0399265764380699,-0.3233117963790148,9.766237,119.4515,182.8692,0.8591434,-0.06444378,0.5039932,10
20.02,15.37502,1.607162,-2.936135,0.1023595680499447,-0.0386935640739845,-0.3114092574500693,13.40135,119.2973,183.1516,0.855103,-0.08250555,0.504429,10
20.04,15.48316,1.767128,-2.98407,0.0740004083190055,-0.017308937775831,-0.2805752120552285,17.03684,119.1592,183.4282,0.8501956,-0.1004795,0.5043516,10
20.06,15.38624,1.231673,-2.945911,0.0419647116025214,0.005667557332274,-0.255470597718861,14.75612,120.129,183.6722,0.8569183,-0.09158579,0.4982048,10
20.08,15.49437,1.408145,-2.997089,0.0058068776580864,0.0273610165411316,-0.2362738005091473,18.35979,119.9953,183.9407,0.8516651,-0.1091199,0.4980899,10
20.1,15.60113,1.581107,-3.047369,-0.0348819010998706,0.029877077913118,-0.2231655310585536,21.963,119.8768,184.2063,0.845565,-0.1265401,0.4974774,10
20.12,15.56297,1.194905,-3.027673,-0.0811885231955704,0.018436610565411,-0.182149432161391,20.13087,118.5039,184.0677,0.842492,-0.1193301,0.5084085,10
20.14,15.66706,1.379633,-3.078615,-0.1284687357971017,0.0115111478877903,-0.1465630764669875,23.68169,118.3417,184.1949,0.8360157,-0.1358458,0.5076875,10
20.16,15.77027,1.561057,-3.1289,-0.1770973125325583,0.0060018507273497,-0.1165491471757038,27.23179,118.1837,184.3145,0.8287359,-0.1522255,0.5064762,10
20.18,15.8724,1.739255,-3.17844,-0.2494266102824553,-0.082944139588418,-0.0798453178264566,30.78075,118.0289,184.4265,0.8206611,-0.1684497,0.5047771,10
20.2,15.97329,1.7864,-3.227152,-0.2853653246564973,-0.0613210281624831,-0.0423292185009254,34.32893,117.8763,184.5315,0.8117992,-0.1845069,0.5025915,10
20.22,15.80694,1.152207,-3.139972,-0.3203809173065668,-0.037340614073101,-0.0094511938052439,28.0181,114.4632,183.9399,0.8108699,-0.1589901,0.5318335,10
20.24,15.90736,1.346575,-3.189244,-0.3548309242718788,-0.0141960577842318,0.0186929809777515,31.5047,114.1855,183.8008,0.8026857,-0.1742041,0.5301481,10
20.26,16.00743,1.537855,-3.238141,-0.3826091224229322,-0.0185972476747806,0.051316184760159,34.98922,113.8865,183.6355,0.7937595,-0.1892507,0.5279695,10
20.28,16.107,1.726082,-3.286583,-0.4078844149436298,-0.0185974880757494,0.0793197288324514,38.47195,113.561,183.4394,0.784099,-0.2041168,0.5253001,10
20.3,16.06285,1.130244,-3.267442,-0.4309641449612087,-0.0175697344437308,0.1026242805326319,39.61147,111.4966,182.6903,0.7729879,-0.2089083,0.5359651,10
20.32,16.16031,1.329584,-3.315935,-0.4574443732238977,-0.1026178791496942,0.1221130692458918,43.01836,111.0154,182.2763,0.7625286,-0.2228225,0.5327567,10
20.34,16.25772,1.525993,-3.364199,-0.4537325068916473,-0.0717737675255104,0.1342658517714413,46.42137,110.4696,181.7958,0.7513912,-0.236533,0.5290719,10
20.36,16.29937,1.121882,-3.398085,-0.4466431269085582,-0.0391748415849428,0.1421402043123573,46.36061,110.9677,180.3723,0.7567196,-0.2255036,0.5219455,10
20.38,16.39481,1.322397,-3.445846,-0.436467344624464,-0.008186066836538,0.1456839068265302,49.70146,110.3768,179.8564,0.7453108,-0.2389817,0.5175871,10
20.4,16.49025,1.520094,-3.493415,-0.4234969430726338,0.0033510690301064,0.144840302734548,53.03733,109.6916,179.2444,0.7332635,-0.2522497,0.5127827,10
20.42,16.58554,1.714984,-3.540719,-0.3930916952377608,-0.0009987405939173,0.1413339868545423,56.36699,108.8837,178.5082,0.7205888,-0.265296,0.5075372,10
20.44,16.74967,1.103627,-3.63315,-0.3592967731984355,-0.0025759752734119,0.1342056959272262,59.63332,106.8733,174.1037,0.7111841,-0.2599698,0.4956271,10
20.46,16.84249,1.297338,-3.680014,-0.3223892223634199,-0.0047594003549242,0.1234372071994366,62.87528,105.5395,172.8183,0.6977638,-0.2723933,0.4891848,10
20.48,16.93496,1.488394,-3.726516,-0.2715913653075907,0.0024109047966637,0.1070016515365082,66.09864,103.8596,171.1859,0.6837685,-0.2845833,0.4823381,10
20.5,17.02695,1.676827,-3.772591,-0.2187809614802502,0.0114953467931196,0.0883236067760137,69.29572,101.6753,169.0484,0.6692095,-0.2965325,0.4750916,10
20.52,17.17642,1.128658,-3.852181,-0.164231855513139,0.0192227443472673,0.0673999484764406,60.97221,97.7012,166.7059,0.6831769,-0.2564794,0.5190229,10
20.54,17.26947,1.312901,-3.897398,-0.1082081517721098,0.0235903418437398,0.0442191876819224,64.02304,95.36958,164.3098,0.669854,-0.2679367,0.511996,10
20.56,17.36169,1.494525,-3.942021,-0.0596974888840287,0.041198752056548,0.0235917221369782,67.01926,92.42802,161.3044,0.6559966,-0.2791746,0.5045583,10
20.58,17.45295,1.673593,-3.985987,-0.0111676444661279,0.0601961237525994,0.0020906863395121,69.93658,88.62411,157.4373,0.6416185,-0.2901844,0.4967163,10
20.6,17.63253,1.211883,-4.099872,0.0370670490774447,0.0774629051708911,-0.0202893124541921,43.12025,105.7197,173.9324,0.7520893,-0.1823217,0.5452318,10
20.62,17.73138,1.386289,-4.145658,0.0882259745073827,0.0240665591113836,-0.0509439531609736,46.34079,104.9309,173.1027,0.7421227,-0.1954281,0.5403145,10
