t,pX,pY,pZ,aX,aY,aZ,reX,reY,reZ,rtX,rtY,rtZ,ID
6.3,-42.09639,1.135031,-35.91474,3.8969013112124378,-0.0244773611858086,1.2294846012365808,11.65578,356.9156,157.8103,-0.006741355,-0.1047589,0.9764103,16
6.32,-41.89114,1.354466,-35.96777,3.888756140041961,-0.0684713303428626,1.2394575077219727,9.846157,359.0176,152.1988,0.01232484,-0.08535387,0.9672741,16
6.34,-41.75108,1.565206,-36.08132,3.8767753585828695,-0.0857437835447796,1.2450237256801584,6.709105,1.050415,148.3567,0.02475706,-0.05380045,0.9602799,16
6.36,-41.71599,1.173538,-36.32148,3.860644867464092,-0.0782261993191967,1.2462696829429305,11.66241,10.89977,161.7379,0.1093364,-0.08486332,0.9762478,16
6.38,-41.56276,1.384302,-36.28751,3.843254353998105,-0.1128932265016421,1.2496482143997143,12.94566,15.68658,158.1611,0.1542941,-0.08396992,0.9635941,16
6.4,-41.4379,1.587509,-36.25119,3.8230456275286633,-0.1223474511074271,1.2494218511009167,14.53365,21.54671,155.5211,0.2075515,-0.082127,0.9473213,16
6.42,-41.2688,1.170856,-36.13292,3.799597238429281,-0.1085289467270066,1.245618308553622,18.02218,33.90947,166.0545,0.3040743,-0.1137455,0.932198,16
6.44,-41.21563,1.368175,-36.11688,3.767169813219634,-0.1394836182935359,1.2432953421050446,18.77496,38.81306,165.7765,0.3443433,-0.112074,0.9166847,16
6.46,-41.16198,1.564941,-36.10444,3.7320131259346567,-0.1456573641090089,1.2381228317072352,19.55255,43.73051,165.5666,0.3839058,-0.1102325,0.899396,16
6.48,-41.01954,1.190795,-36.08159,3.693742424506963,-0.1289758579515409,1.2300795902043058,12.16103,52.96538,169.95,0.450019,-0.05560753,0.8824756,16
6.5,-40.95933,1.38374,-36.06985,3.651976887587768,-0.091282187299495,1.2191466879478146,13.2798,57.97293,170.0912,0.4882893,-0.05919567,0.8607815,16
6.52,-40.89954,1.576026,-36.06203,3.5895390949792763,-0.1232287625109865,1.2091287144199905,14.389,63.00264,170.3346,0.5255573,-0.0627282,0.8373951,16
6.54,-40.59445,1.158288,-35.7706,3.52524292235797,-0.1307768944515379,1.1972438723092873,6.149075,69.03496,181.0075,0.5654316,-0.04916608,0.8230029,16
6.56,-40.45439,1.260144,-35.5188,3.4587415352118347,-0.1158250293049999,1.183406342925287,12.90941,69.84786,186.6449,0.5625615,-0.1249861,0.817076,16
6.58,-40.31947,1.381628,-35.3914,3.37956922392016,-0.1483401705392845,1.1702027412972704,18.19666,71.76862,189.6445,0.5659571,-0.1763177,0.8049686,16
6.6,-40.1895,1.495258,-35.27161,3.2989223028602304,-0.1564688831535505,1.1557885854327727,23.37745,74.05418,192.9406,0.5677223,-0.2271639,0.7905637,16
6.62,-40.08412,1.271026,-35.55336,3.216515621872299,-0.1420905115642508,1.1400317961616349,354.7115,75.24173,180.6022,0.6099674,0.03333624,0.7910653,16
6.64,-39.94152,1.423407,-35.50851,3.1168999190113373,-0.1787427008836977,1.121284760692789,358.9565,76.32044,181.1971,0.6178781,0.000705266,0.7861519,16
6.66,-39.8021,1.570386,-35.46644,3.0168153417357484,-0.1901970682222031,1.1014885703370272,3.191993,77.44366,181.8745,0.6248582,-0.03195521,0.7800702,16
6.68,-39.85397,1.253467,-35.50642,2.916052415643014,-0.1783520522243162,1.080527997123828,359.0747,78.11322,181.423,0.6300967,-0.001554893,0.7763755,16
6.7,-39.74392,1.421966,-35.48103,2.814409761657446,-0.1450238660076362,1.0582887563521792,2.294673,79.22607,181.8264,0.6371447,-0.02558328,0.7703194,16
6.72,-39.69014,1.239837,-35.45896,2.681603864277281,-0.1846957780589223,1.0299436291495816,5.928853,79.86822,182.6357,0.6399657,-0.05438756,0.7663181,16
6.74,-39.57555,1.40959,-35.43548,2.550852431338403,-0.1982029440810655,1.0009813208685054,9.286915,81.02826,183.0447,0.6456397,-0.07872625,0.7588803,16
6.76,-39.46268,1.576024,-35.41364,2.42201748330906,-0.1874860842454535,0.9713040381773296,12.63516,82.22491,183.5278,0.6506844,-0.1029835,0.7507176,16
6.78,-39.35173,1.739247,-35.39344,2.2682540849818045,-0.229024268589304,0.9367985205210614,15.9742,83.46754,184.0901,0.6550928,-0.1271492,0.741837,16
6.8,-39.47558,1.20904,-35.38906,2.118292743616328,-0.2428880475999862,0.901849187209649,13.36593,82.15597,183.6168,0.6495275,-0.1082771,0.7507343,16
6.82,-39.35748,1.384087,-35.36784,1.9721150984388816,-0.2310659816698077,0.8663986247347939,16.86061,83.3682,184.0415,0.6535678,-0.1326168,0.7417318,16
6.84,-39.2409,1.555619,-35.34813,1.805459452862876,-0.2732867731664339,0.827171224267742,20.34468,84.63194,184.5533,0.6569255,-0.156813,0.7319689,16
6.86,-39.31612,1.175731,-35.32589,1.6442551793801297,-0.2862857485922474,0.7877239708616273,18.6993,82.09288,184.1212,0.6431225,-0.1457413,0.7475134,16
6.88,-39.20207,1.358388,-35.29974,1.4886164770175547,-0.2720987660733217,0.7480377095455779,22.06999,84.16005,184.7412,0.6513376,-0.1691514,0.7331689,16
6.9,-39.08857,1.53728,-35.27473,1.3386555982911714,-0.2326908109431427,0.7080953603706304,25.44913,86.3336,185.6003,0.6586776,-0.1930614,0.7179642,16
6.92,-39.13982,1.145114,-35.24931,1.158490882504907,-0.2757420287719508,0.6613598273084982,24.65521,81.94728,184.1281,0.6343715,-0.1841634,0.7421666,16
6.94,-39.02164,1.33543,-35.23461,0.9866162664310912,-0.2879993005585256,0.6150666183188083,28.1856,83.91505,184.3406,0.6411348,-0.2054984,0.7269067,16
6.96,-38.90408,1.522243,-35.22197,0.8232769916126559,-0.2715443337597325,0.5692284902455853,31.70357,85.96292,184.6941,0.6471017,-0.2265197,0.7107896,16
6.98,-38.78743,1.705676,-35.21148,0.6488375816522467,-0.3111776397802276,0.5210798784112365,35.20106,88.10828,185.1944,0.6522593,-0.2471249,0.6938639,16
7.0,-38.91466,1.124464,-35.17054,0.484507731476997,-0.3190284098086874,0.4737709736201347,32.13652,80.58306,183.6625,0.6143493,-0.2308694,0.7383102,16
7.02,-38.79906,1.320761,-35.15512,0.3306334257140584,-0.2972061792132688,0.427337402507435,35.61908,82.4746,183.7088,0.6198191,-0.2501861,0.722099,16
7.04,-38.68373,1.51354,-35.14102,0.1782477776689246,-0.3313461779076003,0.3791431967361784,39.09561,84.5429,183.9472,0.6249719,-0.2692709,0.7046541,16
7.06,-38.68771,1.115266,-35.10511,0.0374297829625227,-0.3332209804935127,0.3320991176852468,41.91734,80.50291,182.4918,0.5973153,-0.2860532,0.7175776,16
7.08,-38.5741,1.314534,-35.09124,-0.0913961213297849,-0.3049458751703001,0.286263465587746,45.33952,82.2986,182.3985,0.6009786,-0.3028639,0.6999779,16
7.1,-38.46051,1.51057,-35.07932,-0.2078083056665027,-0.2485753285211181,0.2416956835668369,48.75269,84.18385,182.4354,0.6039192,-0.3191795,0.6816447,16
7.12,-38.40467,1.112665,-35.03593,-0.3251171727610726,-0.2775639422882644,0.1950851872801591,48.11222,80.59609,179.659,0.5915128,-0.3091376,0.6956608,16
7.14,-38.29297,1.312501,-35.02452,-0.4284730374737915,-0.2741753388362565,0.1501277774900948,51.45119,82.26514,179.4163,0.5942619,-0.3239077,0.6770727,16
7.16,-38.18125,1.509193,-35.01485,-0.5173838368918489,-0.2405018620368346,0.1069017250161854,54.79244,84.04272,179.3225,0.5963415,-0.3383168,0.6577439,16
7.18,-38.09528,1.103457,-34.9827,-0.5776186202216866,-0.2627034897381559,0.0706023380814855,56.55503,79.85519,176.327,0.5765788,-0.3449918,0.665251,16
7.2,-37.98553,1.298928,-34.97722,-0.623411681252569,-0.2535622898957261,0.03579294109384,59.83354,81.21632,175.7533,0.5777944,-0.3574713,0.6455394,16
7.22,-37.86331,1.489727,-34.95903,-0.6542513625936408,-0.2150829837412373,0.0025666453060324,63.59866,81.55767,175.505,0.5703248,-0.3769468,0.6295824,16
7.24,-37.62326,1.113497,-34.85855,-0.6505782208648583,-0.2234677291261144,-0.0214666086761132,62.64178,69.15066,168.175,0.5262998,-0.3758038,0.6692598,16
7.26,-37.50449,1.295952,-34.84034,-0.6317485212187348,-0.2020666787983513,-0.0438414386776946,66.30961,67.56094,166.2357,0.5166073,-0.3955179,0.6544042,16
7.28,-37.38695,1.474819,-34.82238,-0.5972453895806122,-0.1528025264550754,-0.0644757665308199,69.95528,65.36224,163.6944,0.5063868,-0.4148843,0.6387928,16
7.3,-37.27091,1.650229,-34.80476,-0.5465457662202056,-0.0775340111683657,-0.0832838138118496,73.55393,62.14035,160.1344,0.4956318,-0.4338188,0.6224806,16
7.32,-37.18265,1.177835,-34.76222,-0.4756348247548789,-0.0690882654515878,-0.0994676197995305,52.15649,67.30472,170.8217,0.525419,-0.3249311,0.7257831,16
7.34,-37.07085,1.354939,-34.75346,-0.4170602859760999,-0.0652552694164053,-0.1050345702696127,55.3826,66.00314,169.0099,0.517383,-0.3417556,0.7149494,16
7.36,-36.96052,1.528954,-34.74496,-0.362367589693326,-0.0685531304132412,-0.0903830085971648,58.57954,64.39012,166.8958,0.5088935,-0.3582745,0.7034892,16
7.38,-36.82922,1.239362,-34.69171,-0.2931246873905433,-0.0585404337980643,-0.038355756757217,32.02781,72.29505,175.0633,0.5760444,-0.198141,0.7684374,16
7.4,-36.70729,1.408689,-34.67727,-0.2283746127257684,-0.0533868422538709,0.0158194734443402,35.57897,72.01386,174.2706,0.5714264,-0.2188644,0.7603276,16
7.42,-36.58741,1.574325,-34.66325,-0.1648943863479184,-0.0557426364569347,0.0715903432211684,39.12509,71.65627,173.418,0.5662424,-0.2393652,0.7514643,16
7.44,-36.50747,1.268208,-34.61411,-0.1116679174988686,-0.0434881208854457,0.115201454475077,8.089404,76.60621,177.3979,0.6193752,-0.04129909,0.7815939,16
7.46,-36.3852,1.43522,-34.59417,-0.0496548549704458,-0.0345426578068703,0.1626745361635997,11.67688,76.72849,177.1806,0.6192145,-0.06454556,0.7782243,16
7.48,-36.26509,1.598469,-34.57476,0.0208564648650977,-0.0324770466769417,0.2144879630802361,15.26388,76.83891,176.9702,0.6184448,-0.08773408,0.774089,16
7.5,-36.14739,1.758111,-34.55592,0.0863267032081633,0.044752363614175,0.269050815424861,18.8501,76.93739,176.763,0.6170657,-0.1108289,0.7691935,16
7.52,-36.15121,1.285491,-34.51066,0.1459196082439255,0.0255135366475255,0.3248385535362077,353.3096,78.67589,178.6478,0.6322365,0.05259425,0.7724854,16
7.54,-36.02938,1.448992,-34.48401,0.2138609303601306,0.0012336091687693,0.3865649152071917,356.8987,78.82501,178.7631,0.6344041,0.02775616,0.7724525,16
7.56,-35.9099,1.608691,-34.45807,0.2530442558885619,0.0598030164236022,0.4116630640855012,0.4864221,78.98099,178.8876,0.6359463,0.002897536,0.7716607,16
7.58,-35.86464,1.282642,-34.41401,0.2707196856245399,0.053696083314528,0.3992125309110825,353.7908,78.40105,179.7173,0.6310034,0.04352647,0.7738835,16
7.6,-35.74496,1.44475,-34.38212,0.2832203748711173,0.0549037918923537,0.370650999143943,357.3554,78.53943,179.9777,0.6327998,0.01798801,0.7739717,16
7.62,-35.62767,1.603111,-34.35107,0.2903213619543621,0.0616278126953467,0.3259754984699556,0.9183972,78.69372,180.2464,0.6339784,-0.007560825,0.7733064,16
7.64,-35.62033,1.25039,-34.33167,0.2811916057463017,0.0507204601097185,0.3208408259507047,359.4301,78.41292,181.3554,0.6321102,-0.003623099,0.7747724,16
7.66,-35.50197,1.415181,-34.29927,0.2651587229034335,0.0429481459565447,0.3127434813790319,3.016171,78.577,181.6395,0.6326501,-0.0294232,0.7738586,16
7.68,-35.38584,1.57629,-34.26766,0.2416458607662468,0.0358337313740233,0.3017157072708967,6.600556,78.75967,181.9354,0.6325645,-0.05518928,0.7721819,16
7.7,-35.27216,1.733878,-34.23692,0.2383033174884676,0.0957855201851152,0.2997036342760859,10.18287,78.96266,182.2456,0.6318543,-0.08089322,0.7697446,16
7.72,-35.37402,1.232008,-34.24048,0.1984551727653976,0.0567045036025867,0.2892172335514953,8.280107,78.29276,182.8748,0.6280538,-0.07176701,0.7744119,16
7.74,-35.25528,1.400796,-34.20746,0.1659825717074623,0.0707430999522278,0.2794328970367443,11.91139,78.50178,183.1693,0.6268396,-0.09772144,0.771724,16
7.76,-35.13854,1.565865,-34.17518,0.1315336553709007,0.08470809136856,0.2699904645010527,15.54053,78.73326,183.4821,0.6249907,-0.1235702,0.7682565,16
7.78,-35.21299,1.1995,-34.17213,0.0677050840500133,0.0192793486656199,0.2550730901251032,14.78983,78.12221,183.661,0.6213964,-0.1198485,0.7722139,16
7.8,-35.0971,1.376055,-34.13999,0.0029105189281812,-0.0447237732913514,0.2411311619517295,18.38696,78.3584,183.9386,0.6190086,-0.1452058,0.7682329,16
7.82,-34.98273,1.549058,-34.10844,-0.0282834402736069,-0.006803842234853,0.2304435800581989,21.98185,78.61871,184.2385,0.6160066,-0.1704118,0.7634915,16
7.84,-35.04161,1.168145,-34.10032,-0.0846045301210316,-0.0495378087497237,0.216246168026843,20.17097,76.06365,184.0646,0.6013058,-0.1593587,0.7788357,16
7.86,-34.92922,1.352893,-34.06874,-0.1411483815364489,-0.0890582220988837,0.203362481314361,23.7192,76.27486,184.2111,0.5980209,-0.1837389,0.7738858,16
7.88,-34.81783,1.534284,-34.0376,-0.169738314201914,-0.0462596291042332,0.1913587623816637,27.26575,76.50243,184.3766,0.5941614,-0.2079347,0.7681941,16
7.9,-34.70765,1.712394,-34.00695,-0.1976901690676058,-0.0042436947866431,0.1795690105909253,30.8104,76.74969,184.5643,0.5897316,-0.2319227,0.7617667,16
7.92,-34.85351,1.138973,-34.02298,-0.2586170595864869,-0.0734778792559187,0.1609369075176863,26.32778,72.64604,183.9708,0.5700688,-0.2033576,0.7887214,16
7.94,-34.74477,1.331604,-33.9911,-0.2931794972694539,-0.055069427131438,0.1430939536049411,29.81954,72.77634,183.9166,0.5658664,-0.2265977,0.782675,16
7.96,-34.63655,1.521062,-33.95951,-0.3361101281395662,-0.091408372962056,0.1257916045807645,33.30999,72.90765,183.8701,0.5611392,-0.2496191,0.7759033,16
7.98,-34.66965,1.121767,-33.94792,-0.3771029670008503,-0.1247085157975867,0.1112091406233384,34.76225,68.87992,183.2511,0.532513,-0.2615769,0.7915375,16
8.0,-34.56374,1.319648,-33.91572,-0.4164985513336861,-0.1582566859486971,0.0997096066036791,38.18985,68.8503,182.9402,0.527125,-0.2834583,0.7839676,16
8.02,-34.45803,1.514495,-33.88372,-0.4182037112842716,-0.0810787649013067,0.0867825551892007,41.61627,68.79425,182.611,0.5212631,-0.3050784,0.7756942,16
8.04,-34.41854,1.115022,-33.87087,-0.4268067589106028,-0.1173072858116516,0.0727021651399271,43.30101,68.09567,181.7344,0.5156997,-0.313537,0.7731544,16
8.06,-34.31464,1.315245,-33.83912,-0.4324264091109704,-0.1509816692122997,0.0613045625013262,46.6716,67.95663,181.3188,0.5093481,-0.3343655,0.7639133,16
8.08,-34.21081,1.512542,-33.80753,-0.4175675191671453,-0.0972793541492695,0.0493595473258832,50.04036,67.76998,180.8622,0.5025527,-0.3548962,0.7540083,16
8.1,-34.1072,1.706925,-33.77614,-0.406194378997613,-0.1291593471171549,0.038104530904766,53.40701,67.52385,180.352,0.4953201,-0.3751118,0.7434486,16
8.12,-34.10109,1.109931,-33.76884,-0.391523632368461,-0.1591590590814985,0.0298211445992668,50.72413,66.41075,178.7165,0.4988428,-0.3528298,0.7533951,16
8.14,-33.99925,1.309296,-33.73755,-0.3652753190733908,-0.1020172777702998,0.0198566872740038,54.02945,66.06355,178.0836,0.4919279,-0.372629,0.742649,16
8.16,-33.89751,1.505852,-33.70643,-0.3169634693276295,-0.1286397469846694,0.0195881235815411,57.33109,65.61817,177.3581,0.4845988,-0.3921078,0.7312791,16
8.18,-33.69881,1.104491,-33.63933,-0.2669301310423573,-0.1548589505155297,0.0220722769083892,61.24432,60.1714,171.1637,0.464058,-0.4062081,0.7227263,16
8.2,-33.59882,1.295582,-33.60934,-0.2117138584156914,-0.0940480906459893,0.0240254482391861,64.43095,58.82548,169.4788,0.4563208,-0.4243391,0.7098893,16
8.22,-33.49939,1.483994,-33.57965,-0.1353721408630126,-0.1062212023032442,0.0370905228791622,67.59432,57.05618,167.3749,0.4482117,-0.4421145,0.6964765,16
8.24,-33.26593,1.144459,-33.49714,-0.060607851184494,-0.1186981989463699,0.0516842178283214,58.35842,54.47559,167.8148,0.4433547,-0.388621,0.7482175,16
8.26,-33.16581,1.326353,-33.46581,-0.0056412023208687,-0.05003315528609,0.0554542935794266,61.42301,52.86102,165.772,0.4363771,-0.406419,0.7358045,16
8.28,-33.06673,1.505548,-33.43495,0.0461211912228685,0.0173813903089609,0.0600070415441198,64.45267,50.81768,163.3063,0.4290534,-0.4238884,0.7228096,16
8.3,-32.96883,1.682114,-33.4046,0.0978729457815252,-0.0091666521023622,0.0641690265604806,67.4334,48.18392,160.2556,0.4213921,-0.4410162,0.7092438,16
8.32,-32.8476,1.212162,-33.36979,0.1474215248541588,-0.0368546629651286,0.0700291411270148,43.00232,61.9386,173.9723,0.4946305,-0.2886631,0.7867543,16
8.34,-32.74259,1.386293,-33.33567,0.1982738362417788,0.0279976031866732,0.073782405088469,46.24487,61.54752,173.1985,0.4897336,-0.3088965,0.7768633,16
8.36,-32.63905,1.557436,-33.3022,0.2474867235498909,0.0235694006576833,0.0771090061666148,49.48218,61.06396,172.341,0.4844334,-0.3288693,0.7663347,16
8.38,-32.51265,1.257285,-33.28999,0.2954025336917261,0.0183676513850978,0.0837940892951278,19.97711,68.49766,176.5877,0.5582806,-0.1268095,0.8108048,16
8.4,-32.39686,1.42546,-33.2537,0.3381550245318903,0.0784523621405819,0.0871193504334728,23.50947,68.56587,176.3609,0.556534,-0.1507342,0.8048868,16
8.42,-32.28302,1.590013,-33.2182,0.3765024520787245,0.0682481551407862,0.0923051043029516,27.04298,68.6201,176.1318,0.5542533,-0.1745201,0.7981992,16
8.44,-32.18227,1.275747,-33.19232,0.4108161321617687,0.0575440281604121,0.0999308937236893,358.3594,73.65527,178.1887,0.5990923,0.02093172,0.8003961,16
8.46,-32.06435,1.441405,-33.15633,0.44623371532494,0.1137004322931154,0.104673130083265,1.924492,73.8073,178.2749,0.6005207,-0.004389083,0.7992914,16
8.48,-31.94858,1.603346,-33.12118,0.4758935402451785,0.1665477223333729,0.1105471460971285,5.48831,73.96517,178.3708,0.6013654,-0.02969798,0.7974123,16
8.5,-31.83516,1.761719,-33.08694,0.487956273931438,0.125656522276759,0.1146653029156228,9.050836,74.1302,178.4775,0.6016265,-0.05497115,0.7947617,16
8.52,-31.81039,1.293864,-33.07541,0.4953705370596228,0.0828575803323062,0.1210096223846548,352.8341,75.36889,179.2635,0.6097869,0.053377,0.7900719,16
8.54,-31.69132,1.45535,-33.0369,0.5154818497328661,0.1296340653480284,0.1254769757448146,356.4169,75.49598,179.5211,0.6117817,0.02727698,0.7903976,16
8.56,-31.57464,1.613013,-32.99937,0.5136120502457509,0.1003476137159991,0.1251124350074448,-0.001847353,75.63873,179.7861,0.613173,0.001157349,0.7899464,16
8.58,-31.56692,1.262002,-32.99363,0.5068778931064233,0.0712680483636885,0.1257359825135386,355.764,75.90287,180.5813,0.6147132,0.02602425,0.7878683,16
8.6,-31.45084,1.425834,-32.95555,0.5055686939397668,0.1119145360849921,0.1244527373986086,359.3129,76.04068,180.8829,0.6159483,-2.21862e-05,0.7877262,16
8.62,-31.33699,1.586021,-32.91839,0.4852824385866299,0.0794527978780465,0.1200827781296913,2.860062,76.19718,181.1932,0.6165864,-0.02606108,0.7868229,16
8.64,-31.32166,1.240568,-32.90689,0.4606240701226918,0.0479557238988043,0.115757555201899,4.016782,76.42416,182.0744,0.6175943,-0.03872216,0.7855076,16
8.66,-31.20408,1.406849,-32.86922,0.4472559677499252,0.0907138570507839,0.1130072670377693,7.639772,76.60635,182.3884,0.6172216,-0.06515733,0.7836892,16
8.68,-31.08862,1.5694,-32.83242,0.4286500491911753,0.1312766465107704,0.1097684722844576,11.2613,76.81052,182.7171,0.6162256,-0.09152272,0.7810813,16
8.7,-30.97552,1.72838,-32.79655,0.3705643314246196,0.0713930574665401,0.097633231061863,14.88047,77.039,183.064,0.614608,-0.1177878,0.7776876,16
8.72,-31.09853,1.217257,-32.81857,0.3093564236549628,0.0127419131973437,0.085581166346552,11.9157,76.58078,183.3649,0.6136429,-0.09952734,0.7821928,16
8.74,-30.98211,1.389651,-32.78222,0.2766176800489983,0.0508095761315414,0.078579842856155,15.53324,76.80116,183.6626,0.6117591,-0.1255201,0.7787843,16
8.76,-30.86745,1.558398,-32.74659,0.2150579429787664,0.0102936418996268,0.0658914900688323,19.14855,77.04562,183.9808,0.6092606,-0.1513791,0.7745953,16
8.78,-30.94499,1.183049,-32.75349,0.151381952592732,-0.0271865807942608,0.0532177840917125,17.42922,76.14195,183.9217,0.6050802,-0.1400637,0.7809002,16
8.8,-30.83173,1.3637,-32.71881,0.1136092401415833,0.0145663553788546,0.0447923804433836,21.00144,76.37112,184.1644,0.6022511,-0.1652399,0.7764325,16
8.82,-30.71972,1.540902,-32.68468,0.0518140514850253,-0.0250085383469554,0.0324030878305405,24.57162,76.62285,184.4291,0.5988337,-0.1902472,0.7712079,16
8.84,-30.77773,1.152961,-32.68145,-0.0106566647470764,-0.0611209218582948,0.0203467042937974,23.09353,73.29014,184.0534,0.5787313,-0.1811846,0.7898436,16
8.86,-30.6679,1.34182,-32.64746,-0.0483516795369824,-0.0143143020758121,0.0120209282552981,26.61458,73.46202,184.1083,0.5750148,-0.2052156,0.7843659,16
8.88,-30.55882,1.52742,-32.61384,-0.08599523515467,0.0318394021295604,0.0039922701639332,30.13409,73.64343,184.1772,0.5707555,-0.2290435,0.7781493,16
8.9,-30.45066,1.709816,-32.58065,-0.1540615880492781,-0.0338764787103812,-0.0100985241239754,33.65235,73.83688,184.2622,0.5659576,-0.2526484,0.7711996,16
8.92,-30.57787,1.128685,-32.59825,-0.2209345531870612,-0.0971995202092788,-0.0233770904157655,30.07221,69.70141,183.7138,0.544687,-0.2306687,0.7969347,16
8.94,-30.4713,1.324389,-32.56422,-0.2486389192832803,-0.0491348488363713,-0.0289353167124417,33.53259,69.75716,183.5384,0.5399627,-0.2534413,0.7902101,16
8.96,-30.43775,1.118714,-32.54294,-0.2853715214413124,-0.0852616454395051,-0.0371675993924629,37.42403,67.4269,183.0036,0.5185274,-0.2805451,0.7922525,16
8.98,-30.33307,1.317426,-32.50949,-0.3190589921301248,-0.1184966644582542,-0.0444352719049989,40.82877,67.33904,182.6302,0.5127831,-0.3021429,0.7842122,16
9.0,-30.22855,1.513147,-32.47622,-0.3288492195823354,-0.0643396060339644,-0.0478171669191542,44.23192,67.21525,182.2286,0.5065832,-0.3234653,0.7754766,16
9.02,-30.12435,1.705895,-32.44318,-0.3383242236218895,-0.0948848656712935,-0.0508758888393048,47.63341,67.04819,181.7908,0.4999334,-0.3444942,0.7660536,16
9.04,-30.08994,1.113739,-32.43406,-0.3441601070389493,-0.1231598242351119,-0.0530188492804555,46.40958,66.77459,180.3549,0.5047567,-0.3305586,0.7680908,16
9.06,-29.98729,1.314179,-32.401,-0.3367127352315173,-0.0638641650575438,-0.0514496349632578,49.75539,66.56374,179.8738,0.4982251,-0.351134,0.7581539,16
9.08,-29.88469,1.511736,-32.36808,-0.3253714203462086,-0.0055467250039991,-0.0489166338047768,53.09886,66.29008,179.3357,0.4912653,-0.3714014,0.7475672,16
9.1,-29.83146,1.107126,-32.3489,-0.308105628375789,-0.0639394085898924,-0.0442719483196718,53.33712,65.14236,177.6691,0.4886701,-0.3683753,0.7480023,16
9.12,-29.73065,1.305482,-32.31695,-0.2877934686618566,-0.1224955370753841,-0.0389820158427021,56.61889,64.67536,176.9198,0.4815316,-0.3878828,0.7367719,16
9.14,-29.63001,1.501072,-32.28518,-0.250100010566777,-0.0663057302306213,-0.0295003335225541,59.89522,64.07764,176.0448,0.4739929,-0.4070584,0.724931,16
9.16,-29.39697,1.109143,-32.2056,-0.1905194348621544,-0.0888194373694669,-0.0120533669526823,62.66315,56.2617,167.8207,0.4491051,-0.413254,0.7230126,16
9.18,-29.29749,1.29777,-32.17483,-0.1285770704372741,-0.1116727845545593,0.0058699602172476,65.78193,54.40912,165.6017,0.4413861,-0.4310549,0.709818,16
9.2,-29.19869,1.483737,-32.1444,-0.0791257612286844,-0.048874091664137,0.0187930603513297,68.86143,51.96792,162.7984,0.4333109,-0.4484984,0.6960524,16
9.22,-28.96135,1.161853,-32.05952,-0.0113516977001273,-0.0552323016998753,0.0381566086421933,55.7524,54.49825,168.7771,0.443436,-0.3741074,0.7611629,16
9.24,-28.86107,1.341581,-32.02695,0.0569621285425538,-0.0622472205247101,0.0577727201677138,58.82022,53.11958,166.9657,0.4368448,-0.3921876,0.7492394,16
9.26,-28.76193,1.518583,-31.99488,0.1053593240587784,0.0057116297863643,0.0696106695251987,61.85972,51.40131,164.8213,0.4299096,-0.4099527,0.7367275,16
9.28,-28.66409,1.692934,-31.96337,0.1522975375831405,0.0715448474599306,0.080773767274108,64.86071,49.22787,162.2277,0.4226383,-0.4273898,0.723637,16
9.3,-28.54242,1.228988,-31.94087,0.1975479778185054,0.04260975649224,0.0862702612410233,37.74386,63.21881,174.7493,0.5080482,-0.2524602,0.797249,16
9.32,-28.43393,1.400852,-31.90497,0.2437051092369371,0.0114926176509984,0.0921185853653066,41.08846,62.9784,174.1419,0.5037707,-0.2738672,0.788096,16
9.34,-28.32708,1.569516,-31.86978,0.2867039648049334,0.0716413015370927,0.0974654284447869,44.42994,62.67507,173.4814,0.4990556,-0.2950308,0.7782604,16
9.36,-28.21486,1.263642,-31.8573,0.325035456149354,0.061677664539469,0.0996455979180419,13.84416,69.76091,177.182,0.5699572,-0.08487844,0.8124266,16
9.38,-28.0988,1.431339,-31.82053,0.3628674549402979,0.0508781589464198,0.1015089547277474,17.38268,69.87169,177.0549,0.5690794,-0.1092921,0.8078886,16
9.4,-27.98472,1.595397,-31.78457,0.3961096732226661,0.1064789518926485,0.1060312327693626,20.92164,69.97625,176.9322,0.567656,-0.1336021,0.8025786,16
9.42,-27.87092,1.279284,-31.75093,0.4281108365028911,0.0926888596338506,0.1107154104961027,354.4152,74.28991,178.4149,0.6025219,0.04717185,0.7964948,16
9.44,-27.75295,1.444116,-31.71424,0.4567900585084641,0.0779396918272939,0.1148889486379891,357.981,74.42497,178.5581,0.6044545,0.02163822,0.7963457,16
9.46,-27.63717,1.605215,-31.67841,0.48331044555571,0.1306711483538709,0.1197355932111232,1.545516,74.56875,178.7096,0.6057988,-0.003908978,0.7954241,16
9.48,-27.52378,1.762736,-31.64352,0.5044009560915756,0.1797781409206337,0.1235643058938844,5.108566,74.72235,178.8705,0.6065542,-0.02944487,0.7937313,16
9.5,-27.49275,1.296031,-31.62984,0.4983420815005654,0.1309935464417659,0.1202289035358123,353.4699,75.29967,179.5014,0.6096407,0.04774759,0.7906175,16
9.52,-27.37406,1.456904,-31.59014,0.4881953897896514,0.0810225115884254,0.1166468845686301,357.0482,75.41989,179.7887,0.611423,0.02150377,0.7908828,16
9.54,-27.25779,1.613953,-31.55144,0.486482036843801,0.1204518889636263,0.115969228853324,0.6249205,75.55776,180.083,0.6126034,-0.004754141,0.7903715,16
9.56,-27.25739,1.254614,-31.55184,0.4655739260441587,0.0860471274994731,0.1095514568648341,357.4378,75.81842,181.1489,0.6144045,0.01147997,0.7886109,16
9.58,-27.14155,1.419024,-31.51377,0.4405083349619394,0.0522707171913942,0.102373198776291,0.9938062,75.95792,181.4447,0.6152138,-0.01459329,0.7882119,16
9.6,-27.02791,1.579803,-31.4766,0.4268211409997589,0.09207731709753,0.0989323618313799,4.547988,76.11609,181.75,0.6154251,-0.04064493,0.7870485,16
9.62,-27.0089,1.237728,-31.45928,0.3910832745232353,0.0581417151706884,0.0910938124138938,6.183619,76.33374,182.5967,0.6159351,-0.05637611,0.7856237,16
9.64,-26.89121,1.404906,-31.42123,0.3521323874299078,0.0256041824625346,0.0824978662972837,9.81743,76.52103,182.9139,0.6150591,-0.08285394,0.7834178,16
9.66,-26.77561,1.568345,-31.38404,0.3240028157634267,0.0669040747019033,0.0767529368643025,13.44908,76.73129,183.2474,0.6135589,-0.1092401,0.7804188,16
9.68,-26.66231,1.728188,-31.34776,0.2644650830066939,0.0319157479423256,0.062803291185836,17.07913,76.96708,183.6004,0.6114357,-0.1355124,0.7766295,16
9.7,-26.79014,1.208584,-31.37117,0.2022270014029663,-0.0007613994697308,0.0481541001102598,13.46301,76.59634,183.5517,0.6123353,-0.1110206,0.7812632,16
9.72,-26.67451,1.383025,-31.33499,0.1369440462085105,-0.0340588804171403,0.0327384703119717,17.07142,76.81748,183.85,0.6101324,-0.1368787,0.7775795,16
9.74,-26.56052,1.553865,-31.29949,0.0795882640854577,-0.0486981663046123,0.0204632619230542,20.6776,77.06331,184.1696,0.6073198,-0.1625927,0.7731209,16
9.76,-26.62764,1.175666,-31.30274,0.0210715740383609,-0.0595136434833976,0.0078674360926251,18.75395,75.56641,184.0597,0.5995485,-0.1500989,0.7828205,16
9.78,-26.51527,1.358353,-31.26814,-0.0389420404013383,-0.0695281087505985,-0.0051052306772008,22.31415,75.78131,184.2671,0.5964465,-0.175033,0.7781566,16
9.8,-26.40401,1.537638,-31.23404,-0.072223451923413,-0.0006156038222057,-0.0122403613804826,25.87252,76.0164,184.4951,0.5927666,-0.19979,0.7727404,16
9.82,-26.45236,1.1454,-31.22845,-0.1418605338497864,-0.0406298253471572,-0.0275276285423808,24.6185,72.48566,184.0568,0.5711699,-0.1922772,0.7919453,16
9.84,-26.34351,1.33628,-31.19431,-0.2103495657912804,-0.0774018584042623,-0.0423268380463852,28.12533,72.63201,184.0673,0.5671797,-0.2160499,0.786229,16
9.86,-26.23528,1.523948,-31.16051,-0.2526624664131685,-0.0298352206439683,-0.0521293100126305,31.63074,72.78425,184.0887,0.5626589,-0.2396112,0.7797784,16
9.88,-26.12785,1.708451,-31.1271,-0.3126118100054413,-0.0659023478592605,-0.0650128236638312,35.13509,72.94421,184.1225,0.5576116,-0.2629414,0.7725996,16
9.9,-26.23427,1.124812,-31.13873,-0.3698291756597873,-0.0989162191493022,-0.0770939918035074,32.10418,68.64542,183.5391,0.5345591,-0.2449872,0.7981105,16
9.92,-26.12842,1.321862,-31.10457,-0.4245580657389762,-0.1321782967277063,-0.0884133578920254,35.54787,68.64917,183.2924,0.5295016,-0.2674243,0.7910573,16
9.94,-26.02282,1.51585,-31.07063,-0.4509767518680632,-0.1384581738302082,-0.0946077994378717,38.99052,68.63393,183.0345,0.5239644,-0.2896123,0.7832887,16
9.96,-26.00115,1.115564,-31.06186,-0.4729688140097461,-0.1410372768861469,-0.0997530072767522,41.88334,67.42973,182.3638,0.512153,-0.3079329,0.7807918,16
9.98,-25.89724,1.315492,-31.02872,-0.4798760487081144,-0.0835432928218333,-0.102026168059417,45.26812,67.29161,181.9595,0.5058318,-0.329072,0.7718962,16
10.0,-25.7934,1.512471,-30.99573,-0.4820417324380943,-0.0269117094464759,-0.1032362956398511,48.65113,67.10836,181.5167,0.4990668,-0.3499157,0.7623242,16
10.02,-25.71529,1.11292,-30.96692,-0.4933260570442175,-0.0858959223166497,-0.10733935843046,48.09094,66.19867,179.5401,0.5000699,-0.3393363,0.7641302,16
10.04,-25.61334,1.313303,-30.93397,-0.4997292756070823,-0.1440748348680996,-0.1102493847271848,51.41385,65.9239,178.9965,0.4933996,-0.3596383,0.753893,16
10.06,-25.51145,1.510841,-30.90116,-0.491049887394162,-0.0875590006176267,-0.1084591154661054,54.73384,65.57254,178.3819,0.4863107,-0.3796285,0.7430175,16
10.08,-25.40977,1.705545,-30.86854,-0.4634448601866969,-0.1162904718801162,-0.1003791532722959,58.05022,65.12196,177.6731,0.4788094,-0.3992903,0.7315133,16
10.1,-25.29201,1.102153,-30.82763,-0.4319148665248846,-0.1443741647439766,-0.091551167960914,59.702,62.62927,174.0546,0.4722262,-0.4012879,0.7265636,16
10.12,-25.19209,1.295764,-30.79648,-0.3893301209001456,-0.0852542957325193,-0.079991525132018,62.93816,61.68518,172.8198,0.4644852,-0.41995,0.7141049,16
10.14,-25.09258,1.486678,-30.76559,-0.3236503199103282,-0.1021018639559311,-0.0600735279068325,66.16124,60.44991,171.2978,0.4563626,-0.4382572,0.7010629,16
10.16,-24.86406,1.128915,-30.68385,-0.2549948415698528,-0.1195762314383674,-0.0394745850884885,60.95247,53.41378,166.712,0.4371528,-0.4052163,0.7383532,16
10.18,-24.76462,1.313043,-30.65205,-0.2035223616547914,-0.0532181924934085,-0.0254582842579451,64.00998,51.48074,164.3762,0.4297535,-0.4229146,0.7254816,16
10.2,-24.66611,1.494499,-30.62066,-0.1506745628829446,0.0114174634765291,-0.0112157572068611,67.02294,48.99239,161.4902,0.4220113,-0.4402687,0.7120332,16
10.22,-24.44713,1.195614,-30.54535,-0.0930836932877197,-0.0197683959432226,0.0036839751992676,48.28011,59.73423,173.1767,0.4747396,-0.3269787,0.7778241,16
10.24,-24.34611,1.371982,-30.5114,-0.0542873936120766,0.0228794592192229,0.0111718767592767,51.41747,59.11948,172.1912,0.4691584,-0.3461918,0.7673459,16
10.26,-24.24639,1.545564,-30.47803,-0.0153521908399647,0.0650066894179718,0.018480401158273,54.54614,58.36574,171.0738,0.4632114,-0.365129,0.7562714,16
10.28,-24.14814,1.716444,-30.44529,0.0270650991471832,0.0374017222679144,0.0223730933972001,57.6636,57.43534,169.7865,0.456906,-0.3837766,0.7446098,16
10.3,-24.0514,1.250223,-30.4481,0.0710920912238659,0.007682019001184,0.0267205015817566,26.17551,66.54731,176.016,0.5406451,-0.1706304,0.8095322,16
10.32,-23.9365,1.418911,-30.41078,0.1125831940748329,0.0680803442134911,0.032677231463738,29.69822,66.52589,175.6752,0.5378731,-0.1941302,0.8023587,16
10.34,-23.82352,1.584013,-30.37425,0.151264073870402,0.0581816224166972,0.0365882176508955,33.22111,66.47831,175.3194,0.5345864,-0.2174464,0.7944205,16
10.36,-23.73503,1.271917,-30.35657,0.189457931805594,0.0475194418925329,0.0402583984896356,2.344449,72.41489,177.9533,0.5907875,-0.005956618,0.8063703,16
10.38,-23.61769,1.438408,-30.31986,0.2256640198615591,0.1038415286414717,0.0468641321640781,5.90762,72.55486,177.982,0.5915495,-0.03113027,0.8044287,16
10.4,-23.50244,1.601199,-30.28398,0.2585510932633563,0.1569046131623753,0.0527276616923861,9.46969,72.6977,178.0198,0.5917381,-0.05626683,0.8017095,16
10.42,-23.37089,1.291566,-30.24091,0.2755583822275196,0.1159599928579683,0.0542496122883466,352.2119,74.87295,179.0419,0.606006,0.05899312,0.7925122,16
10.44,-23.25193,1.453682,-30.20223,0.2902754595891257,0.1445867790945592,0.0561109943145958,355.7993,74.98672,179.2691,0.6080627,0.03295774,0.793017,16
10.46,-23.13533,1.611976,-30.1645,0.3012603170697336,0.1714638253942775,0.0575963947107345,359.3853,75.11424,179.5028,0.6095191,0.006897233,0.7927414,16
10.48,-23.02131,1.766616,-30.12778,0.2930801018466002,0.1224868200124135,0.0538124869081708,2.969653,75.25645,179.7448,0.6103746,-0.01916272,0.7916859,16
10.5,-23.05998,1.269674,-30.13465,0.2817192001938635,0.072550238575857,0.0500164134116052,354.103,75.56023,180.0065,0.6118242,0.0406205,0.7893198,16
10.52,-22.94406,1.43294,-30.09544,0.2787513260221126,0.1119439550463057,0.0491285250796567,357.6449,75.67496,180.3151,0.6133367,0.01454347,0.7895496,16
10.54,-22.83038,1.592547,-30.05717,0.2574693634454648,0.0777416453807296,0.0433290813431308,1.185046,75.80856,180.6306,0.6142572,-0.01154043,0.7890192,16
10.56,-22.81448,1.24606,-30.05203,0.2329505123598756,0.0444205521063536,0.036894661202099,1.404882,76.09566,181.5965,0.6160784,-0.01823925,0.7874662,16
10.58,-22.69724,1.411196,-30.01365,0.2217680540226503,0.0860862121903512,0.035409596647665,5.016769,76.24963,181.9073,0.6161266,-0.04468969,0.7862549,16
10.6,-22.58217,1.572609,-29.97616,0.2068019894550028,0.125420515951967,0.0331626049582256,8.627328,76.42436,182.2298,0.6155565,-0.07109027,0.7842566,16
10.62,-22.59196,1.226213,-29.96291,0.1546934073803423,0.0655022991445652,0.0214457308150399,10.35032,76.11269,183.1732,0.6117215,-0.08799574,0.7854342,16
10.64,-22.47509,1.396561,-29.92537,0.1149172972736018,0.0813511839188212,0.0124064479604246,13.97748,76.31093,183.4678,0.6100315,-0.1141876,0.7824122,16
10.66,-22.36011,1.563219,-29.88859,0.0727602477593643,0.0975510038151441,0.0028682174383738,17.60253,76.53216,183.7808,0.6077259,-0.140257,0.7786019,16
10.68,-22.43824,1.199605,-29.90295,0.0009503797365586,0.0348703411172351,-0.013615798467534,14.77201,76.42867,183.6622,0.6099315,-0.1205556,0.7813262,16
10.7,-22.32375,1.37622,-29.86731,-0.0721364140941847,-0.0257893666867846,-0.0303615824120129,18.35976,76.64372,183.9403,0.6074719,-0.1461319,0.777435,16
10.72,-22.21075,1.549303,-29.83229,-0.1109874688170267,0.0140031716475747,-0.0386128735605355,21.94542,76.88236,184.2393,0.6044132,-0.1715568,0.7727784,16
10.74,-22.26748,1.168185,-29.83032,-0.1744557890927907,-0.0267339825361484,-0.051625296447622,20.15995,74.62037,184.0694,0.5914552,-0.1603075,0.7863618,16
10.76,-22.15612,1.352928,-29.79574,-0.2376338744627268,-0.0641207962603541,-0.0644234788929503,23.70538,74.81192,184.2198,0.588097,-0.1849339,0.7814817,16
10.78,-22.04576,1.534323,-29.7616,-0.2739082343373598,-0.0194023269548282,-0.0713494915970112,27.24924,75.01949,184.388,0.5841746,-0.2093756,0.7758538,16
10.8,-21.93659,1.712445,-29.72798,-0.3091853671334732,0.0245546818814089,-0.0779000478519535,30.79116,75.24619,184.5769,0.5796929,-0.2336068,0.7694843,16
10.82,-22.08021,1.139002,-29.75123,-0.3768809250959113,-0.0427727374681806,-0.0916730125270661,26.31667,71.39578,183.976,0.5614361,-0.204469,0.7949151,16
10.84,-21.97232,1.331615,-29.71684,-0.4184768602462627,-0.0224243041097095,-0.1003148215966271,29.80789,71.50694,183.9258,0.5571615,-0.2279449,0.7889245,16
10.86,-21.86495,1.521062,-29.68275,-0.4566054226742158,-0.0005823775983854,-0.1079823761876075,33.29776,71.61864,183.8819,0.5523707,-0.2512001,0.7822037,16
10.88,-21.89718,1.121776,-29.67451,-0.5068032599907744,-0.0638087277034129,-0.1185589666850512,34.74347,67.79322,183.2576,0.524999,-0.2628554,0.796598,16
10.9,-21.792,1.319645,-29.64021,-0.5533806278932238,-0.1251582703675606,-0.1280627700065419,38.17114,67.74493,182.9503,0.5195461,-0.2849544,0.7890725,16
10.92,-21.68703,1.514484,-29.6061,-0.5646248819588457,-0.0732066381683597,-0.1298398086470173,41.59757,67.66946,182.6234,0.5136261,-0.3067904,0.7808392,16
10.94,-21.64675,1.115016,-29.59451,-0.5772117043190166,-0.1058154276595314,-0.1326357635709243,43.29509,67.13159,181.741,0.5091697,-0.3151552,0.7774923,16
10.96,-21.54348,1.315233,-29.56097,-0.5849112504015594,-0.1360680197662581,-0.1341976399184692,46.66586,66.97342,181.3279,0.5027595,-0.3361793,0.7682883,16
10.98,-21.44028,1.512528,-29.52757,-0.5754339768603796,-0.0786678674723309,-0.1308428838260624,50.03473,66.76656,180.8722,0.4959116,-0.3569041,0.758417,16
11.0,-21.3373,1.706913,-29.49436,-0.5606989850859492,-0.0222381290673066,-0.1261074773899499,53.40135,66.49875,180.3609,0.4886326,-0.3773116,0.7478874,16
11.02,-21.33073,1.109944,-29.4889,-0.5456668787913874,-0.0824188948309182,-0.1212145483483446,50.70651,65.54638,178.726,0.4931509,-0.3545766,0.7572126,16
11.04,-21.22945,1.309315,-29.45603,-0.5220001711726066,-0.0533657193534636,-0.1145092847322994,54.012,65.18021,178.0953,0.4861859,-0.374557,0.7465047,16
11.06,-21.12827,1.505878,-29.42332,-0.4933450012581497,-0.023670340963538,-0.1066580238780807,57.31369,64.71452,177.3702,0.4788117,-0.3942162,0.73517,16
11.08,-20.93005,1.104465,-29.35505,-0.4427114864503831,-0.0766008519758054,-0.0911006251913515,61.23526,59.41177,171.1866,0.4591907,-0.4082983,0.7258859,16
11.1,-20.83056,1.29557,-29.32362,-0.3886360740547729,-0.130919310006648,-0.0748485182559068,64.42236,58.04918,169.5061,0.4514136,-0.4266039,0.7130795,16
11.12,-20.73163,1.484,-29.29249,-0.3338458286110723,-0.07064196516765,-0.0592349037819635,67.58603,56.26169,167.4049,0.4432688,-0.4445523,0.699695,16
11.14,-20.49875,1.144337,-29.20863,-0.2589916824311884,-0.0814079279718128,-0.0362675770664573,58.3777,53.75631,167.8094,0.4386449,-0.3906367,0.7508915,16
11.16,-20.39914,1.326247,-29.17595,-0.1819461032302114,-0.0928537556785125,-0.0126277633420794,61.44226,52.11917,165.7648,0.4316086,-0.4085945,0.7385098,16
11.18,-20.30056,1.505462,-29.14374,-0.1224138287577436,-0.0262738647653775,0.0039456764119529,64.47144,50.05029,163.2941,0.4242304,-0.4262221,0.7255442,16
11.2,-20.20316,1.682051,-29.11203,-0.0625283850449527,0.0383104048551898,0.0203832322178074,67.45098,47.38675,160.2339,0.4165184,-0.4435061,0.7120058,16
11.22,-20.08163,1.212046,-29.07752,-0.001919851890082,0.0082473203342878,0.033068750055694,43.03872,61.25708,173.9678,0.4899081,-0.2902655,0.7895651,16
11.24,-19.97715,1.386194,-29.04205,0.0426687814449397,0.0477025642024808,0.0398855396729538,46.28047,60.84364,173.192,0.4849229,-0.3106328,0.7797292,16
11.26,-19.87415,1.557358,-29.00722,0.0873345230048139,0.0860523989289569,0.0464647058705858,49.51678,60.3361,172.3305,0.4795389,-0.3307386,0.7692537,16
11.28,-19.74716,1.257241,-28.99535,0.1293039012675985,0.053519723416973,0.0491406719251896,20.01697,67.86618,176.5845,0.5537825,-0.1277485,0.8138099,16
11.3,-19.63188,1.42542,-28.95764,0.1722864565190867,0.018920692268855,0.0519113684694212,23.54926,67.91315,176.3563,0.5519158,-0.1517922,0.8079734,16
11.32,-19.51854,1.58998,-28.92073,0.2158787897672516,0.0743393681170226,0.0598893298863574,27.08265,67.94541,176.1241,0.54952,-0.175696,0.8013647,16
11.34,-19.41768,1.275723,-28.89548,0.2568042598128133,0.0598176096876118,0.0670142011398993,358.3842,73.06223,178.1875,0.5949464,0.02074192,0.8034861,16
11.36,-19.30024,1.441389,-28.85812,0.2956780078386436,0.0445216760965366,0.0738000436305048,1.949305,73.19379,178.2723,0.5962333,-0.004668001,0.8024895,16
11.38,-19.18493,1.60334,-28.8216,0.3353739425949089,0.0966384816662992,0.0828101176818578,5.513172,73.33106,178.3656,0.5969413,-0.03006648,0.8007159,16
11.4,-19.07198,1.761725,-28.786,0.3709663998988606,0.1452380536737592,0.0910881519387327,9.075773,73.47516,178.4683,0.59707,-0.05542868,0.7981675,16
11.42,-19.04691,1.293848,-28.77597,0.3844447037543581,0.0979480988358994,0.0932423399446089,352.8299,74.80214,179.2621,0.6058696,0.05357677,0.7930769,16
11.44,-18.92832,1.455341,-28.73612,0.3923380896092014,0.119379493317438,0.0943235394409018,356.4129,74.90891,179.5182,0.6077229,0.02740112,0.7935211,16
11.46,-18.81212,1.613012,-28.69725,0.3955529393637309,0.1395375730603078,0.0946389633305253,-0.005664255,75.03135,179.7804,0.6089773,0.001206018,0.7931854,16
11.48,-18.80392,1.262041,-28.69294,0.3774685058489568,0.0840136772383993,0.0882941572336979,355.7553,75.36526,180.5784,0.611008,0.02622467,0.7907417,16
11.5,-18.6883,1.425873,-28.6536,0.3556323924831972,0.0281229615820235,0.0814663816520302,359.3043,75.48272,180.8788,0.6121057,0.0001063987,0.7907158,16
11.52,-18.5749,1.586062,-28.61519,0.3521267954928535,0.0662691278548479,0.0804157763059274,2.851591,75.61877,181.1868,0.6126103,-0.02600422,0.7899258,16
11.54,-18.55937,1.240583,-28.60495,0.3277685384221223,0.0309405890900619,0.0745985946448755,4.004748,75.90466,182.0714,0.6140317,-0.03865692,0.7883011,16
11.56,-18.44222,1.406863,-28.56608,0.3006775366320342,-0.0032698836705217,0.068164150515122,7.62778,76.06636,182.384,0.6135305,-0.06516849,0.7865924,16
11.58,-18.32719,1.569414,-28.52807,0.2847322604938969,0.036160374089692,0.0658080462582151,11.24949,76.24973,182.7099,0.6124098,-0.09161019,0.7840917,16
11.6,-18.21452,1.728395,-28.491,0.2647849662213553,0.0736001827764434,0.0625573950937341,14.86902,76.45695,183.0526,0.6106719,-0.117952,0.7808021,16
11.62,-18.337,1.217319,-28.51555,0.2116836412401528,0.0081704270652927,0.0515941719867116,11.90496,76.06944,183.3633,0.6101559,-0.09962929,0.7849286,16
11.64,-18.22099,1.389701,-28.47805,0.1745658637856451,0.0203084711952332,0.0435732699536006,15.5227,76.26913,183.6593,0.6081502,-0.1257042,0.7816223,16
11.66,-18.10673,1.55844,-28.44128,0.1348213639215902,0.0334755688016255,0.0348439912576132,19.13836,76.49242,183.9744,0.6055341,-0.1516456,0.777533,16
11.68,-18.18406,1.183101,-28.45006,0.0920083804530496,0.0447807775349482,0.0253011112128964,17.42011,75.65314,183.9204,0.6017545,-0.140279,0.7834814,16
11.7,-18.07117,1.363742,-28.41434,0.039337090479937,0.0281265444645823,0.0138948092462949,20.9925,75.86168,184.1618,0.5988079,-0.1655403,0.7791098,16
11.72,-17.95952,1.540936,-28.37917,-0.0135084696328937,0.0153103382008947,0.0025497898214381,24.56293,76.09212,184.4237,0.5952767,-0.1906325,0.7739793,16
11.74,-18.01753,1.153023,-28.37744,-0.066900532425725,0.0032443085539553,-0.0088032546777503,23.08144,72.81282,184.0533,0.5754519,-0.1814811,0.7922618,16
11.76,-17.90805,1.341871,-28.3425,-0.1196593802694037,-0.010275730143233,-0.0199344157664844,26.6026,72.96403,184.1068,0.5716205,-0.2056013,0.7868729,16
11.78,-17.79931,1.527462,-28.30793,-0.1710751037949469,-0.0196126347074771,-0.0305885282936406,30.12227,73.12396,184.1727,0.5672497,-0.229518,0.7807429,16
11.8,-17.69151,1.709853,-28.27379,-0.2214724722011491,-0.0279909875341939,-0.0408337638394882,33.64068,73.29486,184.253,0.562344,-0.2532106,0.7738779,16
11.82,-17.81849,1.128711,-28.29335,-0.2843252931771385,-0.1216674605212985,-0.0527868220807938,30.05947,69.22546,183.7146,0.5413899,-0.2310911,0.7992126,16
11.84,-17.71226,1.324412,-28.25845,-0.3083447930712071,-0.101507003841708,-0.0558127857279648,33.51984,69.26038,183.5376,0.5365548,-0.2539573,0.7925668,16
11.86,-17.60636,1.51702,-28.22378,-0.3294469295555768,-0.0795800616614818,-0.0581686089744835,36.97929,69.28333,183.3555,0.5312296,-0.2765848,0.7851985,16
11.88,-17.60847,1.117133,-28.21633,-0.3479404739414189,-0.0591618076716049,-0.0599208193183247,39.64232,66.98774,182.6839,0.512389,-0.2948593,0.7887055,16
11.9,-17.5044,1.316443,-28.18217,-0.3616432177166746,-0.0660349281361359,-0.0639186085889842,43.04046,66.85955,182.2965,0.5062714,-0.316351,0.7802768,16
11.92,-17.40044,1.512781,-28.14817,-0.3709323196708582,-0.0692834138927635,-0.066905933306578,46.43684,66.69022,181.8747,0.499706,-0.337556,0.7711591,16
11.94,-17.34152,1.113737,-28.1297,-0.3760867503052587,-0.0723098430062639,-0.0689520788120647,46.39142,66.34621,180.364,0.5018901,-0.3312761,0.7700413,16
11.96,-17.23936,1.314183,-28.09591,-0.3676144667548109,-0.0746049764887716,-0.0663328100319606,49.73152,66.11746,179.8854,0.4952806,-0.3519255,0.7601854,16
11.98,-17.13726,1.511758,-28.06224,-0.3550616963435766,-0.0738095334664576,-0.0628000492744815,53.06924,65.82497,179.3484,0.4882472,-0.3722676,0.74968,16
12.0,-17.03537,1.706475,-28.02876,-0.3387002275296706,-0.0733273540663346,-0.0584179011796077,56.40403,65.45085,178.7348,0.4807964,-0.3922847,0.7385353,16
12.02,-16.96679,1.103703,-28.00365,-0.2975621448464911,-0.1591895150397165,-0.0455517227856439,56.52297,63.75278,176.2019,0.4782074,-0.3864529,0.7392654,16
12.04,-16.86668,1.299694,-27.97134,-0.2400836965447852,-0.1289898433592425,-0.0283642487555355,59.78828,63.08369,175.2652,0.4706775,-0.4056687,0.7274631,16
12.06,-16.76688,1.492954,-27.93924,-0.179937250718037,-0.099001584710418,-0.0108068245379908,63.04544,62.22327,174.1414,0.4627583,-0.4245392,0.7150615,16
12.08,-16.54533,1.118031,-27.86053,-0.1174090001774184,-0.0724776511063196,0.0070633882399984,61.81884,54.36175,167.2041,0.4404055,-0.4104362,0.7323315,16
12.1,-16.4462,1.304399,-27.82848,-0.0588414943691704,-0.0603393592074555,0.024116845156251,64.90703,52.44128,164.9149,0.4327908,-0.4282936,0.7193258,16
12.12,-16.34787,1.488104,-27.79679,0.0009678237985097,-0.046762049306275,0.0414157800754186,67.95276,49.94385,162.0534,0.4248285,-0.4458005,0.7057438,16
12.14,-16.12921,1.178222,-27.71815,0.0617551249729202,-0.0349302489360621,0.058899667813149,52.07093,56.8618,171.2026,0.4561293,-0.3520425,0.7717986,16
12.16,-16.0289,1.356257,-27.68406,0.1151961469734443,-0.0147624549721995,0.0700908074867809,55.18113,55.90475,169.8577,0.4499694,-0.3707955,0.7606303,16
12.18,-15.92983,1.531538,-27.65051,0.1685781216643376,0.0062170663951299,0.0811932027062782,58.27512,54.72714,168.2991,0.443457,-0.3892517,0.7488679,16
12.2,-15.83213,1.704148,-27.61755,0.2215587201239406,0.0249123084778758,0.092094860547689,61.34763,53.26171,166.4588,0.4366001,-0.407398,0.736521,16
12.22,-15.73156,1.239863,-27.61032,0.2775942948407344,-0.0283507424417223,0.1003284925916538,31.97091,64.4504,175.3626,0.5216345,-0.2120407,0.8066397,16
12.24,-15.62023,1.410145,-27.57274,0.3304112261626364,0.0113993746316657,0.1082589152741064,35.4053,64.31778,174.8971,0.5180216,-0.2345963,0.7984834,16
12.26,-15.51069,1.577044,-27.53591,0.381773032531721,0.0496694525246637,0.1155190639046055,38.83808,64.14309,174.3999,0.5139368,-0.2569347,0.7896018,16
12.28,-15.41997,1.268144,-27.5249,0.4312412160719392,0.0835234432064278,0.1219738384511939,8.11647,70.63662,177.5629,0.5777665,-0.0454689,0.8128529,16
12.3,-15.30361,1.435238,-27.48714,0.4622163538484174,0.0907385443281915,0.1263346220452157,11.66863,70.7534,177.5134,0.5776135,-0.07036711,0.8096719,16
12.32,-15.18929,1.598668,-27.45021,0.4902393960155369,0.098477186067865,0.1299726657467821,15.21987,70.86861,177.4707,0.5769043,-0.09519054,0.8057134,16
12.34,-15.0767,1.285364,-27.41511,0.5148003318349734,0.1038766490295815,0.1327499874538231,353.3093,74.13753,178.7176,0.6011872,0.05329318,0.7968969,16
12.36,-14.95861,1.448849,-27.37641,0.5357553285339458,0.1094652620599298,0.1361735850962753,356.886,74.24675,178.901,0.6030751,0.02745,0.7971643,16
12.38,-14.84278,1.60856,-27.33861,0.5523307867650842,0.1150984183224428,0.1391005045729443,0.4613376,74.36715,179.0909,0.6043724,0.001587421,0.7966526,16
12.4,-14.72945,1.764656,-27.30179,0.563989239018063,0.1179704374489704,0.1413574104462722,4.035256,74.49958,179.2887,0.6050783,-0.02426943,0.7953634,16
12.42,-14.7424,1.282731,-27.30315,0.5571516057972719,0.0428661229626933,0.1379734138512804,353.7826,74.99554,179.7552,0.6077416,0.04432362,0.7922784,16
12.44,-14.62548,1.444779,-27.26265,0.5587552173291759,0.0594156456476888,0.1378168319452055,357.3429,75.09692,180.0527,0.609277,0.01810238,0.7926187,16
12.46,-14.5109,1.603088,-27.22313,0.5547681629983665,0.0753384571464291,0.1363807051800405,0.9015627,75.21657,180.3561,0.6102186,-0.008129012,0.7921882,16
12.48,-14.5127,1.250404,-27.22514,0.5447273496651681,0.0879493783756157,0.1335195815463006,359.4071,75.50751,181.3728,0.6122661,-0.003244068,0.7905445,16
12.5,-14.39653,1.415164,-27.1859,0.5185521360843826,0.0780133270891615,0.1268873823469092,2.990993,75.63786,181.6742,0.6125927,-0.02956932,0.7898331,16
12.52,-14.28255,1.57625,-27.14755,0.4889418663195257,0.0698868500496807,0.1194776727865432,6.573329,75.78771,181.9851,0.6123147,-0.05585858,0.7883439,16
12.54,-14.28773,1.232043,-27.13658,0.4554277442619698,0.0607204932655169,0.1111455585928551,8.258093,75.77582,182.884,0.6109008,-0.07222178,0.7880288,16
12.56,-14.17082,1.400793,-27.09777,0.4318978026041571,0.1230607068128583,0.1058409870163199,11.88877,75.9528,183.1886,0.6095201,-0.09863118,0.7854953,16
12.58,-14.05588,1.56583,-27.05977,0.3711128077711216,0.0844935784838053,0.0914942513718872,15.51742,76.15241,183.5094,0.6075227,-0.1249334,0.7821686,16
12.6,-13.94316,1.727295,-27.02266,0.307510949041555,0.0483585680667143,0.0764069273910488,19.14429,76.37728,183.8498,0.6049105,-0.151104,0.7780523,16
12.62,-14.0355,1.190795,-27.03373,0.2407314297132547,0.0117218299497274,0.0604925135624512,16.10243,76.04298,183.7903,0.6059032,-0.1304441,0.7824413,16
12.64,-13.92171,1.369326,-26.9971,0.1815461348844862,-0.0060539988895831,0.0476622111147158,19.69402,76.25436,184.0772,0.6031428,-0.1560844,0.7783189,16
12.66,-13.8093,1.544345,-26.96106,0.1210064168921098,-0.0198685666399049,0.0344150965688943,23.2835,76.49043,184.3856,0.5997863,-0.181563,0.7734288,16
12.68,-13.69849,1.715959,-26.92566,0.0587633471824948,-0.032745760470082,0.0206803039005807,26.87045,76.75482,184.7192,0.5958374,-0.2068514,0.767777,16
12.7,-13.83732,1.160748,-26.95113,0.0229419494230564,0.0334377708470697,0.0131121061898924,21.58461,73.55308,184.107,0.5823542,-0.1709595,0.7903211,16
12.72,-13.72694,1.347575,-26.91594,-0.0494283114180187,-0.0091369106644853,-0.0031999844709367,25.12152,73.71704,184.2111,0.5786961,-0.1953994,0.7852346,16
12.74,-13.61743,1.531092,-26.88114,-0.1209124646591719,-0.0483278358106844,-0.0191328533146508,28.65709,73.89343,184.3301,0.5744866,-0.219646,0.7794009,16
12.76,-13.67649,1.132742,-26.87909,-0.1665480783062085,-0.0030438754900365,-0.0298075198675369,28.0384,70.08757,183.9456,0.5499417,-0.2173913,0.7986454,16
12.78,-13.56965,1.327098,-26.84396,-0.2300865399765022,-0.0412482024332963,-0.0439362137192,31.51567,70.15505,183.8352,0.5453399,-0.240631,0.7924005,16
12.8,-13.46322,1.518327,-26.80909,-0.291198514737671,-0.0762557889429485,-0.0573684532881442,34.99191,70.21703,183.7255,0.5402361,-0.2636413,0.785427,16
12.82,-13.4505,1.118728,-26.7891,-0.3501350631041104,-0.111368323668723,-0.0701538257717149,37.40615,66.91595,183.0112,0.515002,-0.2811552,0.7946064,16
12.84,-13.34605,1.317411,-26.75451,-0.3811636314949638,-0.119356156261235,-0.0776700382724597,40.81813,66.805,182.6422,0.5091106,-0.3029382,0.7866374,16
12.86,-13.24175,1.513095,-26.7201,-0.4081088559717392,-0.1234997387805378,-0.0842324860649466,44.22849,66.65711,182.2433,0.5027652,-0.3244443,0.7779683,16
12.88,-13.13778,1.705799,-26.6859,-0.4312282658567858,-0.1271753444050627,-0.0899043142414615,47.63698,66.46462,181.8062,0.4959721,-0.3456548,0.7686073,16
12.9,-13.16416,1.114513,-26.69874,-0.4346458874019236,-0.0452852906652492,-0.0907037999581885,44.69939,66.83662,181.1211,0.506246,-0.3223595,0.7739837,16
12.92,-13.06156,1.31501,-26.66478,-0.4472450865565813,-0.0777068030049487,-0.0945917278714869,48.05609,66.65305,180.6999,0.4997139,-0.3432823,0.7645017,16
12.94,-12.95902,1.512612,-26.63094,-0.4550743352153144,-0.1080151856993023,-0.0972985305334765,51.41074,66.41678,180.2315,0.4927507,-0.3639025,0.7543613,16
12.96,-12.85586,1.107155,-26.5941,-0.4516528170498215,-0.0507497839735194,-0.0965789006036188,53.31935,64.57995,177.6756,0.485007,-0.3695411,0.7504663,16
12.98,-12.75526,1.305519,-26.56118,-0.4296508773070271,-0.0785670004181787,-0.0896081755470996,56.60616,64.08228,176.9202,0.4777364,-0.3892113,0.739301,16
13.0,-12.65483,1.501113,-26.52843,-0.4040352834232761,-0.105560420405525,-0.0819652119360743,59.88723,63.45005,176.0348,0.4700679,-0.4085476,0.7275217,16
13.02,-12.40449,1.109095,-26.44146,-0.3750588511141535,-0.1350793596495346,-0.0737021928871781,62.65365,55.75663,167.8477,0.4458298,-0.4147174,0.7251022,16
13.04,-12.30534,1.297739,-26.40973,-0.3190158014351272,-0.1255125599655696,-0.0560931518574299,65.77396,53.87753,165.6276,0.4380011,-0.4326723,0.711971,16
13.06,-12.20687,1.483725,-26.37832,-0.2604925809806031,-0.1147761134482719,-0.0379211656125471,68.85441,51.40578,162.819,0.4298187,-0.4502681,0.6982671,16
13.08,-12.10924,1.667097,-26.34728,-0.1997508526672854,-0.1061064686711159,-0.0192501391724198,71.87564,48.05504,159.1348,0.4212888,-0.4674933,0.6840001,16
13.1,-11.95226,1.161693,-26.28632,-0.1553723850375681,-0.0178595155349098,-0.0071688759347345,55.77524,53.97565,168.7685,0.4399616,-0.375553,0.7630652,16
13.12,-11.85239,1.341443,-26.25275,-0.1067628980751713,-0.0238399014375769,0.0051962523542261,58.84264,52.56639,166.9518,0.4332456,-0.3937673,0.7512085,16
13.14,-11.75366,1.518472,-26.21967,-0.056616445737211,-0.0301396682503518,0.0180865153953693,61.88108,50.81368,164.7979,0.4261885,-0.4116653,0.7387618,16
13.16,-11.57045,1.228728,-26.17625,-0.0233976040072497,0.0337512420571272,0.0243089800176261,37.80703,62.61205,174.74,0.5037678,-0.2539576,0.7997466,16
13.18,-11.46247,1.400627,-26.13914,0.0128414680724203,0.029279762042192,0.0267222201994243,41.15064,62.34182,174.1267,0.4993451,-0.2754797,0.7906767,16
13.2,-11.35613,1.569332,-26.10273,0.0501401505962814,0.0240980526662291,0.0293087264228675,44.49076,62.00645,173.4574,0.4944889,-0.2967563,0.7809223,16
13.22,-11.22489,1.263593,-26.08379,0.0881118758955606,0.0151051159653642,0.0319395543257505,13.89446,69.18246,177.1763,0.5658319,-0.08565754,0.8152392,16
13.24,-11.10931,1.431297,-26.04572,0.1257334810029488,0.0944180206995846,0.0382615291845662,17.43297,69.26685,177.0462,0.5647871,-0.1101718,0.8108119,16
13.26,-10.99571,1.595365,-26.00846,0.1571474230253569,0.0800860943030614,0.0411936584911556,20.97189,69.34424,176.9185,0.5632012,-0.1345813,0.8056101,16
13.28,-10.88432,1.755946,-25.97206,0.1873500199555038,0.0652018641610298,0.0437495003117796,24.50994,69.41491,176.7928,0.561077,-0.1588552,0.7996405,16
13.3,-10.86267,1.279259,-25.96846,0.2184281808555502,0.1177220540726557,0.0495552813467643,354.4489,73.73164,178.4125,0.5986452,0.04703853,0.7994301,16
13.32,-10.74518,1.444105,-25.93046,0.2475541638136149,0.101080543490984,0.0554287764632599,358.0146,73.84145,178.5531,0.6003966,0.02143351,0.7994152,16
13.34,-10.62988,1.605222,-25.89332,0.2736373096495988,0.0834940351256992,0.0611710508620033,1.578942,73.95987,178.7004,0.6015644,-0.004184857,0.7986252,16
13.36,-10.52562,1.296015,-25.85703,0.296126863088075,0.1331091422103661,0.0667677216084583,353.4644,74.6748,179.4972,0.6053167,0.04797845,0.7939291,16
13.38,-10.40746,1.456897,-25.81589,0.3133927152872122,0.1792930410685569,0.0714024337947045,357.0432,74.77003,179.7806,0.6069257,0.02166209,0.7943375,16
13.4,-10.29172,1.613959,-25.77575,0.299087371788842,0.1257609547359937,0.0655413399754185,0.6204954,74.88273,180.0695,0.6079376,-0.004668221,0.7939662,16
13.42,-10.27118,1.254676,-25.77075,0.2812654570730631,0.0717658127889022,0.0593301800244758,357.4237,75.23951,181.1439,0.6104113,0.01171376,0.7917026,16
13.44,-10.15584,1.419084,-25.73132,0.2780922648823283,0.1096748987289074,0.0582298187033538,0.9798288,75.35374,181.4378,0.6110523,-0.01443537,0.7914448,16
13.46,-10.0427,1.579863,-25.69279,0.2546594814554839,0.07461990850687,0.0519916080747426,4.534319,75.4865,181.7396,0.6110996,-0.04056323,0.7904194,16
13.48,-9.931958,1.737167,-25.65522,0.2284851121053492,0.0406807202705119,0.0451503337131407,8.08702,75.63892,182.0517,0.6105537,-0.06664423,0.7886283,16
13.5,-10.00401,1.237754,-25.66993,0.2162395697612662,0.0811352850016868,0.0436532088436067,6.165742,75.78752,182.5923,0.6121935,-0.05630319,0.7885545,16
13.52,-9.886806,1.404931,-25.63059,0.1796170232690114,0.0461001789211159,0.0366474311670348,9.799343,75.94921,182.9078,0.611158,-0.08286147,0.7864836,16
13.54,-9.771691,1.568372,-25.59211,0.1409140270984473,0.0132820501350797,0.0291414147172983,13.43095,76.13345,183.2378,0.6095031,-0.109328,0.7836167,16
13.56,-9.658875,1.72822,-25.55454,0.1172978319552098,0.0550375159158104,0.0250108788767682,17.06111,76.34257,183.5855,0.6072299,-0.1356806,0.7799568,16
13.58,-9.775323,1.199536,-25.57274,0.0907803404287753,0.0954793807761966,0.0200836220162612,14.77835,75.95734,183.6766,0.6066917,-0.1208985,0.7838305,16
13.6,-9.660866,1.37599,-25.53549,0.0258861808528937,0.0315349029474898,0.005090306294051,18.38025,76.15829,183.9693,0.6041138,-0.1467276,0.7800007,16
13.62,-9.547923,1.548887,-25.49887,-0.040009377092406,-0.0300923201403276,-0.0101862627677618,21.98005,76.38359,184.2823,0.600935,-0.1724031,0.7753968,16
13.64,-9.605018,1.168216,-25.49909,-0.076765697898701,0.0117814046679045,-0.0187043767150973,20.15315,74.16493,184.0733,0.5883275,-0.160591,0.7887159,16
13.66,-9.493904,1.352912,-25.4634,-0.1392366717522349,-0.0277451119186476,-0.0327032283421315,23.70294,74.33952,184.2273,0.5848614,-0.1853502,0.7839086,16
13.68,-9.383791,1.534253,-25.42816,-0.2011750140445062,-0.0639083364649756,-0.0464867900221115,27.25117,74.52993,184.3981,0.5808334,-0.2099236,0.7783494,16
13.7,-9.274877,1.712318,-25.39343,-0.2628557780089886,-0.0998525262580281,-0.0601059075021379,30.79744,74.73902,184.5882,0.576248,-0.2342846,0.7720451,16
13.72,-9.418421,1.13904,-25.41907,-0.2873511459638425,-0.03013133663478,-0.0645763134233909,26.30654,70.94141,183.9771,0.5582916,-0.2048211,0.7971507,16
13.74,-9.310829,1.331639,-25.38377,-0.3337240460751269,-0.0717820002733901,-0.0727862986137912,29.79907,71.03432,183.9268,0.5539143,-0.2283966,0.7912314,16
13.76,-9.20376,1.521071,-25.34876,-0.3775811920410197,-0.1099791426889455,-0.0801828512330624,33.29028,71.12711,183.8816,0.5490237,-0.2517512,0.7845793,16
13.78,-9.236128,1.121795,-25.34156,-0.3940246464949977,-0.061199874042492,-0.0819648880889492,34.7276,67.3461,183.2591,0.5219093,-0.2633127,0.7986746,16
13.8,-9.131262,1.319662,-25.30645,-0.4068680678445704,-0.0129588920345258,-0.0829218270153049,38.15565,67.27905,182.9507,0.5163599,-0.2855067,0.7912136,16
13.82,-9.026601,1.514501,-25.27152,-0.4375471935526992,-0.0787468529836773,-0.0905375420419565,41.58238,67.18389,182.6213,0.5103469,-0.3074377,0.7830428,16
13.84,-8.986556,1.115021,-25.26029,-0.4500443578322446,-0.0546637500703012,-0.0948518329799115,43.28444,66.68436,181.7453,0.5061396,-0.3158498,0.7795087,16
13.86,-8.883589,1.31524,-25.22598,-0.4576187680145864,-0.0291149478171446,-0.0980224458721834,46.65527,66.50674,181.3302,0.4996407,-0.3369694,0.7703637,16
13.88,-8.78069,1.512539,-25.1918,-0.4650016177787389,-0.0898377696138884,-0.1012263456453572,50.02407,66.27896,180.8706,0.4927071,-0.357789,0.7605497,16
13.9,-8.678022,1.706932,-25.1578,-0.4679631017055462,-0.1495736892366913,-0.1033813081433181,53.39049,65.98826,180.353,0.4853453,-0.3782907,0.7500757,16
13.92,-8.671666,1.109967,-25.15294,-0.4472312767812149,-0.0945695416774461,-0.0975186370675329,50.68738,65.09917,178.7318,0.4902107,-0.3554089,0.7592047,16
13.94,-8.57068,1.30935,-25.11933,-0.4050377882718934,-0.1246700614952764,-0.0843880433114288,53.99289,64.71352,178.0992,0.4831672,-0.375491,0.7485525,16
13.96,-8.469803,1.505928,-25.08585,-0.3590543587182098,-0.153960337438918,-0.0704937335492119,57.29443,64.22651,177.3699,0.4757175,-0.3952506,0.7372718,16
13.98,-8.272161,1.104445,-25.01664,-0.3096513636785728,-0.0957511225425557,-0.0563645976202011,61.22652,58.98649,171.2042,0.4564455,-0.4094541,0.7276686,16
14.0,-8.172976,1.295569,-24.98445,-0.2567430990942793,-0.0390542834982855,-0.041522829605606,64.41357,57.60572,169.5233,0.4486008,-0.4278682,0.7149084,16
14.02,-8.074347,1.484022,-24.95253,-0.1927641472013836,-0.0872941849870073,-0.0220641130315009,67.5769,55.79785,167.4193,0.440391,-0.4459245,0.7015684,16
14.04,-7.841959,1.144254,-24.86749,-0.1483590355023454,-0.0494978373339677,-0.0100223857291275,58.39088,53.31018,167.8033,0.4357237,-0.3918778,0.7525228,16
14.06,-7.742674,1.326179,-24.834,-0.1024894249262226,-0.0112984655121459,0.0023100331209744,61.45498,51.65114,165.7543,0.4286124,-0.4099405,0.7401817,16
14.08,-7.644423,1.505412,-24.80096,-0.0433097841466269,-0.0422701585980738,0.0181156839316023,64.48314,49.55737,163.276,0.4211618,-0.4276721,0.7272558,16
14.1,-7.547352,1.682022,-24.76842,0.017316690922337,-0.0750288858985612,0.0345438190352438,67.46099,46.86472,160.2037,0.41338,-0.4450587,0.7137557,16
14.12,-7.425913,1.211957,-24.73371,0.070077741099304,-0.0098110627455998,0.0469651279850982,43.06736,60.80037,173.9628,0.4867344,-0.2913561,0.791416,16
14.14,-7.321813,1.386121,-24.69734,0.1225993533690203,0.0531510999755285,0.059081458407399,46.30829,60.36652,173.1837,0.4816584,-0.3118136,0.7816347,16
14.16,-7.219186,1.557305,-24.66162,0.1788928489378649,0.0222324376638372,0.066985763400992,49.54351,59.83686,172.3167,0.4761864,-0.3320083,0.7712128,16
14.18,-7.092175,1.257193,-24.64966,0.2237958371235937,0.0588981092281401,0.0736908333939827,20.06164,67.4145,176.5798,0.5505475,-0.1285235,0.8159187,16
14.2,-6.977267,1.42538,-24.61096,0.2672651956813653,0.0944726405533464,0.0798457869818687,23.59376,67.44257,176.3491,0.5485688,-0.1526477,0.8101516,16
14.22,-6.864301,1.589949,-24.57306,0.3092644045685397,0.0586130217816457,0.0848362763220818,27.12697,67.45525,176.1131,0.5460644,-0.176632,0.8036102,16
14.24,-6.753502,1.751055,-24.53602,0.3461670784167205,0.091763564191683,0.0919175678321364,30.65922,67.45137,175.8698,0.5430388,-0.200441,0.7963039,16
14.26,-6.670665,1.279267,-24.51788,0.3793933616960909,0.123624324225427,0.0981253865009192,354.4546,73.52506,178.4098,0.5972039,0.04704516,0.8005099,16
14.28,-6.553346,1.444132,-24.47951,0.4084348933192572,0.1514203469173591,0.1033216559850895,358.0194,73.62948,178.5475,0.5989166,0.02142962,0.8005247,16
14.3,-6.438207,1.605271,-24.44199,0.4217167186462719,0.0846409655240509,0.1040135875425902,1.582857,73.74234,178.6917,0.6000476,-0.004199322,0.7997637,16
14.32,-6.314148,1.296013,-24.39936,0.4452057840861974,0.1102038718432375,0.1094220712807296,353.463,74.50683,179.4965,0.6041517,0.04803739,0.7948154,16
14.34,-6.196149,1.456901,-24.35784,0.4645072214543639,0.134092755620251,0.11438205985525,357.0415,74.59654,179.7794,0.605722,0.02170137,0.7952555,16
14.36,-6.080562,1.613969,-24.31731,0.4632613754819694,0.0811164128403399,0.1127640405433019,0.6186153,74.70367,180.0675,0.6066965,-0.004648549,0.7949154,16
14.38,-5.967607,1.76739,-24.27786,0.4597783071294367,0.0975155816835521,0.110926209415846,4.194061,74.82898,180.3629,0.6070749,-0.03098617,0.7937957,16
14.4,-6.040189,1.254696,-24.30578,0.4512772524836927,0.1135313052433447,0.1078782472809685,357.4193,75.10911,181.143,0.6095098,0.01177318,0.7923961,16
14.42,-5.924987,1.419107,-24.26604,0.4243601598035218,0.0558795783916165,0.1002653355043081,0.9749936,75.21767,181.4371,0.6101128,-0.01439264,0.7921699,16
14.44,-5.811976,1.57989,-24.22718,0.4074835043481351,0.0755548430340167,0.096850872413245,4.529071,75.3447,181.7387,0.6101232,-0.0405373,0.7911759,16
14.46,-5.812788,1.237762,-24.21783,0.3864532104849195,0.0951558266046746,0.0924852782295948,6.160328,75.58082,182.5896,0.6107738,-0.05627863,0.7896585,16
14.48,-5.695735,1.404938,-24.17808,0.3607940235782058,0.1119078534349995,0.0870185139632369,9.794266,75.73673,182.9033,0.6097052,-0.0828632,0.7876167,16
14.5,-5.580765,1.568377,-24.13917,0.3300683748853957,0.1080218370777956,0.0803139537299255,13.42624,75.91499,183.2312,0.6080183,-0.1093561,0.7847775,16
14.52,-5.61548,1.208683,-24.13474,0.279484976568388,0.0914282296016855,0.0686501939787587,13.44593,75.79657,183.5477,0.606886,-0.1112182,0.7855269,16
14.54,-5.50045,1.383108,-24.09685,0.2267813911327233,0.0781586082649079,0.0564611444055533,17.05496,75.98602,183.8419,0.6045009,-0.1372007,0.7819953,16
14.56,-5.387059,1.553935,-24.05963,0.1715453637321451,0.0652923914033588,0.0436407270126073,20.66193,76.19922,184.1552,0.6015122,-0.1630386,0.7776843,16
14.58,-5.275518,1.721286,-24.02316,0.0868050515227193,-0.0277963789242759,0.0238505269760436,24.26655,76.43938,184.491,0.5979235,-0.1887041,0.7725994,16
14.6,-5.41382,1.175741,-24.05224,0.0346810982650133,-0.0160834107399646,0.0119132267354475,18.73967,74.86642,184.0587,0.5947725,-0.1504348,0.7864811,16
14.62,-5.301989,1.358412,-24.01616,-0.0180623411274933,-0.0028209488284382,-0.0001846820845678,22.29987,75.05031,184.265,0.591492,-0.1754958,0.7819604,16
14.64,-5.191283,1.537684,-23.98056,-0.0948736494999259,-0.0720457916725187,-0.0172529905716523,25.85837,75.25347,184.4896,0.5876389,-0.2003797,0.7766838,16
14.66,-5.259464,1.14547,-23.98312,-0.1464098962856657,-0.055768313781954,-0.0287794450446021,24.60482,71.7337,184.0549,0.5659822,-0.1928132,0.7956926,16
14.68,-5.151143,1.336341,-23.94758,-0.1969184674369153,-0.0375940165692512,-0.039977497745359,28.11174,71.84804,184.0619,0.5618179,-0.2167201,0.7901065,16
14.7,-5.043449,1.524005,-23.91235,-0.246739670588084,-0.02066973267884,-0.0509214356571638,31.61718,71.96691,184.0775,0.5571286,-0.2404144,0.7837824,16
14.72,-4.936563,1.70851,-23.87749,-0.3251806220019202,-0.1167736036313288,-0.0688495511414704,35.12161,72.09172,184.1026,0.5519186,-0.2638772,0.7767268,16
14.74,-4.99577,1.121789,-23.87258,-0.3640885352718516,-0.099015967559327,-0.0770897098232583,34.7304,67.24848,183.2633,0.5212146,-0.2634723,0.7991183,16
14.76,-4.890792,1.31963,-23.83711,-0.399329620791047,-0.079438185080908,-0.0843700175227835,38.16616,67.17814,182.9585,0.515625,-0.285755,0.7916552,16
14.78,-4.786022,1.514431,-23.80182,-0.4429718921484076,-0.1448998537206451,-0.0950917259015144,41.60057,67.0797,182.6326,0.5095704,-0.3077731,0.783479,16
14.8,-4.681634,1.706214,-23.76675,-0.4621467172151695,-0.1205632216850824,-0.1006363634606346,45.0335,66.94786,182.2794,0.5030565,-0.3295068,0.7745976,16
14.82,-4.727162,1.115018,-23.78433,-0.4765515368947504,-0.0946654751999822,-0.105046419828954,43.28502,66.61861,181.7478,0.5056843,-0.3159743,0.7798015,16
14.84,-4.624207,1.315231,-23.74985,-0.486476203361992,-0.070549563980076,-0.1084009788713884,46.65787,66.43649,181.3342,0.4991515,-0.3371317,0.7706698,16
14.86,-4.521321,1.512522,-23.71549,-0.4852967906463202,-0.074663639893663,-0.1077099751622183,50.02864,66.20403,180.8757,0.4921842,-0.3579887,0.7608679,16
14.88,-4.450068,1.109975,-23.68911,-0.4794989562512465,-0.0754992889068814,-0.1058438570826569,50.68471,64.93552,178.7308,0.4891343,-0.3557273,0.7599105,16
14.9,-4.349154,1.309362,-23.65525,-0.4693416658306121,-0.0764622963726755,-0.1028697150082633,53.99076,64.54217,178.0952,0.4820645,-0.3758419,0.7492727,16
14.92,-4.24835,1.505945,-23.62152,-0.4339918826944063,-0.1635755768897651,-0.0911447618162339,57.29282,64.04646,177.3619,0.4745892,-0.3956338,0.7380054,16
14.94,-4.032709,1.104433,-23.54588,-0.381750083461096,-0.1344355968723444,-0.0746695540441755,61.22195,58.86931,171.2144,0.4556724,-0.4097781,0.728181,16
14.96,-3.933606,1.295565,-23.51345,-0.326264878611385,-0.1053171399381299,-0.0575883970421138,64.40937,57.48407,169.5345,0.4478068,-0.4282269,0.7154338,16
14.98,-3.835062,1.484025,-23.4813,-0.2678059604371726,-0.0794738187413608,-0.0399635209051609,67.57301,55.67136,167.431,0.4395769,-0.4463173,0.7021066,16
15.0,-3.737216,1.669854,-23.44948,-0.2127040663097471,-0.0678260611614909,-0.0230328269790942,70.70218,53.22803,164.7001,0.4309891,-0.4640376,0.6882089,16
15.02,-3.584816,1.144191,-23.39003,-0.1557455956942749,-0.0545475250268949,-0.0056296372027002,58.40084,53.20159,167.7999,0.4350104,-0.3922189,0.7528852,16
15.04,-3.485628,1.326126,-23.35633,-0.0971810733862697,-0.0428236269089266,0.0121776463811702,61.46469,51.53612,165.75,0.4278741,-0.4103096,0.7405571,16
15.06,-3.387474,1.505371,-23.32308,-0.0452744805610926,-0.0225626103161195,0.0238323435470451,64.49243,49.43491,163.2698,0.420399,-0.4280687,0.727644,16
15.08,-3.204978,1.211893,-23.26742,0.0072264460372669,-0.0012959524395956,0.0356178399150568,43.08831,60.62592,173.9583,0.4855145,-0.2918318,0.792085,16
15.1,-3.101007,1.386068,-23.23076,0.0599952173064425,0.0178802987377795,0.0474176789509521,46.32875,60.18453,173.1764,0.4804097,-0.3123149,0.7823177,16
15.12,-2.998507,1.557264,-23.19473,0.1165896796649935,-0.0347004879816692,0.0566540469052454,49.56346,59.64658,172.3057,0.4749101,-0.3325354,0.7719091,16
15.14,-2.897636,1.72557,-23.15939,0.1706267601682911,0.0059338134838868,0.0659070021836365,52.79158,58.98879,171.3223,0.4690206,-0.3524814,0.7608659,16
15.16,-2.768165,1.263668,-23.15174,0.2239268559902566,0.0452792133865263,0.0747063072997913,13.90883,68.82814,177.1737,0.5633044,-0.08602178,0.8169687,16
15.18,-2.653225,1.431503,-23.11303,0.2760678323702802,0.0803991557348463,0.0829113619571364,17.43548,68.90118,177.0426,0.5621989,-0.1105131,0.8126036,16
15.2,-2.540243,1.595718,-23.07511,0.3227533985428225,0.1636096009084336,0.0938548972015755,20.96325,68.96691,176.913,0.560558,-0.1349047,0.8074667,16
15.22,-2.426549,1.279272,-23.0414,0.3515580124962065,0.1460904359136925,0.0983506317550331,354.4632,73.36285,178.4107,0.5960734,0.04700549,0.8013566,16
15.24,-2.309439,1.444157,-23.00262,0.378213829599029,0.1282087128470393,0.1024543311026895,358.0261,73.4619,178.5496,0.5977468,0.02137206,0.8014002,16
15.26,-2.194506,1.60532,-22.96471,0.4022622197221484,0.107088960437762,0.1060276635929899,1.587757,73.56945,178.6945,0.5988402,-0.004274658,0.8006678,16
15.28,-2.081966,1.762914,-22.92772,0.4197782152117444,0.1062019360414329,0.109529434386848,5.148101,73.68632,178.8466,0.599353,-0.02990993,0.799161,16
15.3,-2.050615,1.296018,-22.91554,0.4337283955355845,0.1059309617424026,0.1127784406124159,353.4614,74.36938,179.497,0.6031973,0.04808269,0.7955385,16
15.32,-1.932776,1.456916,-22.87367,0.443614899970994,0.1034784625233206,0.115603018330066,357.0392,74.45363,179.7802,0.6047294,0.02173096,0.7960096,16
15.34,-1.817346,1.613996,-22.8328,0.4340459688394316,0.0943891264909175,0.1118662037576627,0.6155264,74.55534,180.0682,0.605667,-0.004634777,0.7956999,16
15.36,-1.816533,1.254713,-22.83513,0.4200341927774559,0.0870216976863568,0.1070473072477833,357.4159,74.89947,181.1406,0.6080587,0.01184903,0.7935097,16
15.38,-1.701485,1.419124,-22.79496,0.4011176573469126,0.0786052373652821,0.1009843048881458,0.9717723,75.00275,181.4332,0.6086269,-0.01434063,0.793313,16
15.4,-1.588629,1.579909,-22.75568,0.3768764804110975,0.0664308410278763,0.0935335738070373,4.526019,75.12442,181.7329,0.6086041,-0.04050885,0.7923473,16
15.42,-1.569668,1.237767,-22.73998,0.3453746422115568,0.0545176316029916,0.0860842700531305,6.156744,75.41487,182.5891,0.6096317,-0.05627297,0.7905432,16
15.44,-1.452759,1.404941,-22.69984,0.3115031856789604,0.0448529686775339,0.0782112737300848,9.790621,75.5655,182.9027,0.6085303,-0.08288372,0.7885284,16
15.46,-1.337932,1.568381,-22.66055,0.2748083090939143,0.0345707213208723,0.0697691551035961,13.42255,75.73839,183.2302,0.6068121,-0.1094025,0.7857156,16
15.48,-1.225401,1.728229,-22.62218,0.251588531428814,0.0957887136797887,0.0649122159545028,17.05313,75.93581,183.5747,0.6044785,-0.1358075,0.7821079,16
15.5,-1.115384,1.777995,-22.58481,0.1901362526546586,0.0550915756336032,0.0499687692968717,20.68142,76.16075,183.9399,0.6015332,-0.1620676,0.7777096,16
15.52,-1.301158,1.199571,-22.62838,0.1271109940633856,0.0172691811440081,0.0346410126491418,14.77265,75.67473,183.6773,0.6047612,-0.120996,0.7853289,16
15.54,-1.186946,1.376018,-22.59048,0.0842755169968192,0.0573103430843051,0.0238757896390744,18.37429,75.86493,183.9704,0.60212,-0.1468759,0.7815509,16
15.56,-1.074247,1.548909,-22.5532,0.0145591259216565,0.0177793055716436,0.0068817338657272,21.97388,76.07928,184.2832,0.5988802,-0.1726023,0.7769974,16
15.58,-1.151385,1.168247,-22.56077,-0.0555709049646595,-0.0183782004987823,-0.0101831707972279,20.14746,73.8428,184.0725,0.5861157,-0.1607653,0.7903721,16
15.6,-1.040505,1.352938,-22.52446,-0.1264200620645656,-0.054238263575336,-0.027380500752963,23.69725,74.00605,184.2253,0.5825887,-0.1855773,0.7856127,16
15.62,-0.930626,1.534277,-22.48858,-0.1819326470612365,-0.0681770990065664,-0.039139126358533,27.24554,74.18471,184.3938,0.5785021,-0.2102035,0.7800996,16
15.64,-0.9850785,1.139071,-22.48661,-0.2359917677685817,-0.0774932924191704,-0.0503355075614737,26.29923,70.57738,183.976,0.5557687,-0.205096,0.7989299,16
15.66,-0.8777224,1.331666,-22.45066,-0.2888881420362388,-0.0853862595000007,-0.061032772319379,29.79212,70.65871,183.9238,0.5513346,-0.2287344,0.7930512,16
15.68,-0.7708898,1.521096,-22.41499,-0.3142577220944894,-0.009770404739194,-0.0656422286961948,33.28364,70.73935,183.8757,0.5463898,-0.2521512,0.786438,16
15.7,-0.6647592,1.707402,-22.37965,-0.3627136062320389,-0.0459336470200195,-0.076112246000596,36.77423,70.81976,183.8317,0.5409383,-0.2753271,0.7790964,16
15.72,-0.7645525,1.121803,-22.39543,-0.4078371045501902,-0.0788286247816462,-0.0856354964410335,34.71786,67.07812,183.2615,0.5200505,-0.2635896,0.7999158,16
15.74,-0.659899,1.319666,-22.35981,-0.4498766176457191,-0.1117831244863272,-0.0942653625686875,38.14582,67.00092,182.9541,0.5144469,-0.2858439,0.7924915,16
15.76,-0.5554529,1.514503,-22.32436,-0.464301494052568,-0.0328457993146316,-0.0976231438065684,41.57243,66.89516,182.6248,0.5083814,-0.3078347,0.7843562,16
15.78,-0.5345647,1.115025,-22.31973,-0.4871571718667936,-0.0671409640681149,-0.1049434183811581,43.27938,66.36168,181.7464,0.503949,-0.3163567,0.7809459,16
15.8,-0.4318103,1.315247,-22.28489,-0.5056391856618507,-0.0988045389350243,-0.1111886251405369,46.65009,66.17188,181.3292,0.4974005,-0.3375374,0.7718334,16
15.82,-0.3291254,1.512552,-22.25016,-0.5199901782342836,-0.1312450499764213,-0.1164267266205922,50.0187,65.93095,180.8663,0.4904196,-0.3584177,0.7620505,16
15.84,-0.2266731,1.706951,-22.21561,-0.5011683880121605,-0.1360169498106083,-0.110218319372116,53.38487,65.62579,180.3439,0.4830126,-0.3789799,0.7516065,16
15.86,-0.1439229,1.107149,-22.18451,-0.477973516096375,-0.1378072662780069,-0.1029588424249925,53.31802,64.0211,177.688,0.4813039,-0.3708234,0.7528548,16
15.88,-0.0434807,1.305488,-22.15036,-0.4506616536014544,-0.1399948719032202,-0.0947111195944883,56.61446,63.51296,176.9398,0.4739741,-0.3906914,0.7416816,16
15.9,0.05679323,1.501044,-22.11636,-0.4147717475403354,-0.0563605286287971,-0.0843619693168062,59.90551,62.86963,176.0606,0.4662467,-0.4102248,0.7298874,16
15.92,0.3059203,1.109048,-22.02804,-0.3663394890606455,-0.0821830006532703,-0.0692496448347785,62.64836,55.22812,167.8713,0.4424024,-0.4162518,0.7272398,16
15.94,0.4047665,1.297693,-21.99525,-0.3144425130246784,-0.1075853035334732,-0.0533648793165557,65.77184,53.33548,165.6542,0.4345303,-0.4343516,0.7141228,16
15.96,0.5029223,1.483678,-21.96279,-0.2766048698100589,-0.046568428002401,-0.0430868632225438,68.85526,50.84814,162.8463,0.4263066,-0.4520905,0.7004302,16
15.98,0.6002462,1.667048,-21.93069,-0.2221471927079812,-0.055883038675347,-0.0264380826963011,71.87907,47.47861,159.1596,0.4177385,-0.4694566,0.6861724,16
16.0,0.7566127,1.161559,-21.86924,-0.1661485241172643,-0.0651270424874942,-0.0093101691625059,55.79434,53.42609,168.7623,0.4362956,-0.3770419,0.7650748,16
16.02,0.8561023,1.341321,-21.83464,-0.1088538975646775,-0.0774877837586505,0.0082274292575363,58.86227,51.99747,166.9423,0.4295222,-0.3953773,0.7532423,16
16.04,0.9544466,1.518362,-21.80054,-0.0588005429011246,0.0102433785637505,0.0219117771326167,61.90078,50.22295,164.7823,0.4224111,-0.4133953,0.740818,16
16.06,1.137391,1.228569,-21.75623,0.0022030647368941,0.0065677004591045,0.0339870372000046,37.848,62.06855,174.735,0.499934,-0.2551986,0.8020107,16
16.08,1.244927,1.400486,-21.71803,0.0647196536382043,0.0022680134087308,0.0465799167049878,41.19103,61.78028,174.1193,0.4954334,-0.2768216,0.7929848,16
16.1,1.350822,1.569214,-21.68052,0.1155670939393237,0.0647421058779454,0.0561296549454946,44.53043,61.42565,173.4459,0.4905032,-0.2981984,0.7832729,16
16.12,1.482226,1.263556,-21.66124,0.1656039420555921,0.0571502150497998,0.0632625555571069,13.93085,68.64621,177.1724,0.5619984,-0.08631362,0.8178391,16
16.14,1.597376,1.431266,-21.622,0.2154811613985843,0.0490866320781381,0.0701211548950406,17.46935,68.71385,177.0403,0.5608529,-0.1109184,0.8134783,16
16.16,1.710548,1.595341,-21.58357,0.2648007224166361,0.0375239175828168,0.0765748696554537,21.00821,68.77405,176.9097,0.5591705,-0.1354176,0.8083406,16
16.18,1.821522,1.755931,-21.54602,0.3086347310924726,0.1136178351127771,0.0865458184921754,24.5462,68.82687,176.7796,0.5569538,-0.1597806,0.8024325,16
16.2,1.930097,1.806529,-21.5094,0.3384573354120024,0.0966271356145018,0.0920195369091305,28.08326,68.87215,176.6493,0.5542054,-0.1839842,0.7957604,16
16.22,1.941414,1.285393,-21.51022,0.3657994677659962,0.079032713122566,0.0972494865174455,353.3115,73.5789,178.7083,0.5972917,0.05345349,0.799821,16
16.24,2.058876,1.448983,-21.47049,0.3897505988662472,0.129554276129809,0.102583308020673,356.8819,73.66682,178.8831,0.5990278,0.02761609,0.8002068,16
16.26,2.174083,1.608815,-21.43166,0.4089779605701312,0.1768950982188731,0.1070080917326152,0.4509502,73.76539,179.0631,0.6001797,0.001759254,0.7998138,16
16.28,2.234864,1.282863,-21.40876,0.4068143492926542,0.1256636386080336,0.104784877121026,353.7786,74.3631,179.7493,0.6033561,0.04455438,0.7956204,16
16.3,2.35122,1.44493,-21.36693,0.4009727164260406,0.073827087105938,0.1022936599810435,357.3378,74.44301,180.0416,0.6047415,0.01827856,0.7960828,16
16.32,2.465251,1.603264,-21.32608,0.4028545042561479,0.1117143424791058,0.1029759352331205,0.8955386,74.54089,180.3384,0.6055385,-0.008007445,0.7957721,16
16.34,2.483102,1.250448,-21.3222,0.3859936910523066,0.0763740741004671,0.0979554908700088,359.3896,74.91034,181.3699,0.608139,-0.003041681,0.7937227,16
16.36,2.598745,1.415215,-21.28162,0.36538761107108,0.0422786239500837,0.092035728419705,2.972906,75.01876,181.669,0.6083221,-0.02944031,0.7931327,16
16.38,2.712202,1.576311,-21.24194,0.3574242893799563,0.0835299018191627,0.0913939889174022,6.554801,75.14643,181.9762,0.6079056,-0.05580302,0.7917621,16
16.4,2.823258,1.733895,-21.20324,0.3451587102038026,0.1228182096619403,0.0897301469192211,10.13492,75.29465,182.2942,0.60689,-0.08210307,0.7896126,16
16.42,2.726781,1.232099,-21.22515,0.2954514005433497,0.0632369355436652,0.0774717623143557,8.238674,75.2067,182.881,0.6069921,-0.07219288,0.7910596,16
16.44,2.843207,1.400842,-21.18505,0.257439998348573,0.0797990457809598,0.0681985605795567,11.86913,75.36146,183.184,0.6054769,-0.09868746,0.7886397,16
16.46,2.957648,1.565875,-21.14576,0.2165148561041806,0.097080082137024,0.0581933875893989,15.49768,75.53841,183.5018,0.6033497,-0.1250747,0.7854237,16
16.48,3.069888,1.727338,-21.10735,0.1722090429080525,0.1122636375285419,0.0473161999277134,19.12461,75.73998,183.8374,0.6006125,-0.1513303,0.7814154,16
16.5,2.93748,1.190881,-21.13424,0.0891692730032854,0.0222505725155847,0.0262022207399645,16.08992,75.38583,183.787,0.6014221,-0.1306861,0.7859111,16
16.52,3.050788,1.369401,-21.09629,0.004689263083084,-0.0499046743340586,0.0047210440671738,19.68182,75.5743,184.0702,0.5985368,-0.1564251,0.7818921,16
16.54,3.16271,1.544413,-21.05892,-0.0374851054111761,-0.0125291151619221,-0.0051850958900598,23.27168,75.78662,184.3732,0.5950602,-0.1820018,0.7771018,16
16.56,3.094649,1.16082,-21.06355,-0.1055119534315203,-0.0560893936055297,-0.0210237774166914,21.57284,72.81937,184.1039,0.5773011,-0.1713964,0.7940447,16
16.58,3.204536,1.347636,-21.02697,-0.1731369964689618,-0.0958397832075972,-0.0366400032311871,25.11028,72.96024,184.2041,0.5735251,-0.1959549,0.7890484,16
16.6,3.313552,1.531145,-20.99078,-0.2124110504560453,-0.0523767667460416,-0.0454643585393599,28.64642,73.11248,184.3173,0.5692025,-0.2203193,0.7833014,16
16.62,3.2741,1.132795,-20.98397,-0.2681961985742458,-0.0917234946798299,-0.0570701444749057,28.02394,69.41504,183.9454,0.5452663,-0.2179423,0.8018818,16
16.64,3.380471,1.32714,-20.94759,-0.3221051145124027,-0.1272878839285787,-0.0679906540015955,31.50141,69.46048,183.8339,0.5405524,-0.2413081,0.7957155,16
16.66,3.486424,1.518361,-20.91145,-0.3499026819690543,-0.0763219112890505,-0.073264110530558,34.97782,69.49943,183.7212,0.5353411,-0.264444,0.7888176,16
16.68,3.591784,1.706493,-20.8756,-0.3748528349132622,-0.0256273968347494,-0.0778208329075567,38.4533,69.53136,183.6064,0.5296377,-0.2873297,0.7811954,16
16.7,3.517958,1.118755,-20.88557,-0.3972882392615371,0.0065141389350462,-0.0817520038658941,37.3821,66.28324,183.0135,0.5106422,-0.2818573,0.7974946,16
16.72,3.621957,1.317434,-20.84986,-0.4426509261673099,-0.0883725933132798,-0.0937126605255076,40.79385,66.15041,182.6438,0.5046486,-0.3037682,0.7895946,16
16.74,3.725796,1.513119,-20.81429,-0.4537512656424454,-0.0669228858639509,-0.0970090786881745,44.20386,65.9794,182.2423,0.4982055,-0.3254016,0.7809922,16
16.76,3.829305,1.705827,-20.77893,-0.4597865776616709,-0.0437138257803295,-0.0990078525233011,47.61186,65.76213,181.8004,0.4913192,-0.3467386,0.7716955,16
16.78,3.844077,1.113757,-20.77775,-0.4655537366097346,-0.1064620636823616,-0.1010440564292598,46.38,65.55457,180.3683,0.4965673,-0.3326819,0.7735309,16
16.8,3.94595,1.314206,-20.74259,-0.454279793352776,-0.0791993723361274,-0.0973099388712883,49.72767,65.29318,179.8826,0.4898158,-0.3535343,0.7637348,16
16.82,4.047766,1.511777,-20.70754,-0.4377972531858702,-0.0505216248640641,-0.0921627639596311,53.07269,64.96477,179.3348,0.4826435,-0.3740763,0.7532835,16
16.84,4.197973,1.103735,-20.65393,-0.4163769169440958,-0.0237867183351472,-0.0856786760877028,56.4896,62.91746,176.2172,0.4728186,-0.3882874,0.74289,16
16.86,4.297611,1.299757,-20.6202,-0.3722932704855164,-0.112819203308374,-0.0709516605534759,59.7571,62.2165,175.2747,0.4651867,-0.4076932,0.7311492,16
16.88,4.396951,1.493049,-20.58666,-0.3220418645074097,-0.0849721374767197,-0.0550218725432465,63.01601,61.3201,174.1406,0.45717,-0.4267515,0.7188054,16
16.9,4.495848,1.683636,-20.55335,-0.2684065004396117,-0.0567655267242667,-0.0384096456438407,66.26376,60.14975,172.7359,0.4487751,-0.4454493,0.7058678,16
16.92,4.653837,1.117923,-20.49342,-0.1937402182431584,-0.1028953580683394,-0.0136499797857698,61.82859,53.59016,167.2093,0.4354336,-0.4126564,0.7352521,16
16.94,4.752429,1.304317,-20.45995,-0.1392590680950387,-0.0632409437119981,0.003453742008459,64.91698,51.639,164.9164,0.427727,-0.4306982,0.7222967,16
16.96,4.850217,1.488053,-20.42685,-0.0840607849229244,-0.023415783497517,0.020633315191354,67.96226,49.10615,162.0461,0.4196772,-0.4483874,0.7087625,16
16.98,5.049779,1.178054,-20.352,-0.0283938402444623,0.0134786573457691,0.037816471256816,52.10863,56.0061,171.1783,0.4503809,-0.354211,0.7749887,16
17.0,5.149471,1.356113,-20.31639,0.0263610480427483,-0.0454985582798493,0.0558651984596241,55.21789,55.01404,169.8243,0.4441064,-0.3731305,0.7638795,16
17.02,5.247933,1.531423,-20.28131,0.0738536661137914,-0.0047309298893678,0.0707403133269077,58.31025,53.79731,168.2519,0.4374843,-0.3917515,0.7521737,16
17.04,5.345021,1.704065,-20.24681,0.1216486837994428,0.0354589651138404,0.0859950809510103,61.38033,52.28733,166.3921,0.4305228,-0.4100606,0.739881,16
17.06,5.518775,1.250661,-20.22182,0.1694331437702683,0.0720641600708007,0.1014618246556326,26.18137,65.22353,176.0115,0.5312593,-0.1724016,0.815707,16
17.08,5.630465,1.420078,-20.18247,0.1936846392510423,0.0827526149813986,0.1214279740404289,29.63535,65.16275,175.6711,0.5283565,-0.1956815,0.8088231,16
17.1,5.740323,1.586056,-20.14389,0.2169627028083842,0.0945028506274638,0.1420941794388115,33.08867,65.07506,175.3134,0.5249689,-0.2187802,0.8011995,16
17.12,5.850716,1.272045,-20.11906,0.2388765291710126,0.104347936278233,0.1631701322653893,2.406772,71.1451,177.9469,0.5818177,-0.006659409,0.8128508,16
17.14,5.966424,1.438764,-20.07975,0.2474366679661388,0.1129478399293633,0.1964009567755775,5.950421,71.24521,177.9712,0.5823145,-0.03188682,0.8111129,16
17.16,6.080078,1.601828,-20.04126,0.2527462952452495,0.1222729692155643,0.2303326263560201,9.493002,71.3476,178.0019,0.5822536,-0.05707652,0.8086,16
17.18,6.191472,1.761381,-20.00367,0.2543831574180351,0.1294721976192733,0.2645901986009482,13.03452,71.45309,178.0395,0.5816354,-0.08220455,0.805315,16
17.2,6.231017,1.291537,-19.99086,0.251964147355953,0.1317576314453521,0.298813450737672,352.2217,73.64734,179.0362,0.5974963,0.05932099,0.7989541,16
17.22,6.348742,1.453748,-19.94943,0.2227754749193109,0.0525186340733112,0.331113251820021,355.8035,73.72199,179.2595,0.5992717,0.03316733,0.799682,16
17.24,6.464129,1.612155,-19.90894,0.2049841220547037,0.0723623589655032,0.3701631839406052,359.3839,73.8103,179.4868,0.6004581,0.006988647,0.7996257,16
17.26,6.576959,1.766923,-19.86949,0.1828797475966777,0.0911758597330575,0.4096607973226986,2.962816,73.91283,179.7199,0.601055,-0.01918939,0.7987857,16
17.28,6.572878,1.262113,-19.87057,0.1560808800171591,0.1062585486701389,0.4491708248531614,355.7371,74.39684,180.5717,0.6042991,0.02661094,0.7958735,16
17.3,6.687718,1.42592,-19.82899,0.1068459350206489,0.0934395065146398,0.484110686058008,359.288,74.48141,180.8705,0.6051733,0.0003492972,0.7960333,16
17.32,6.800342,1.586083,-19.78834,0.0540343373274554,0.0825899653069492,0.5195449019524623,2.837377,74.58453,181.1748,0.6054615,-0.02590529,0.7954236,16
17.34,6.815611,1.240617,-19.77953,-0.0026717179154382,0.0709092119660531,0.5550177859056316,3.975297,74.93031,182.0635,0.6073186,-0.03847147,0.7934972,16
17.36,6.931959,1.406884,-19.73845,-0.0707007964943553,0.0603432237852809,0.588206852099491,7.599005,75.05882,182.3732,0.6066111,-0.06512691,0.791964,16
17.38,7.046186,1.569424,-19.69825,-0.141593797245056,0.052490069195121,0.6221335320319072,11.22156,75.20848,182.6941,0.6052917,-0.09171254,0.7896335,16
17.4,7.15807,1.728398,-19.659,-0.2156435061851265,0.0444765765837236,0.6563500690482305,14.84219,75.38121,183.0294,0.6033626,-0.1181982,0.7865087,16
17.42,7.03635,1.217423,-19.68735,-0.293106049726765,0.0334893617000418,0.6904296477656682,11.88718,75.0806,183.3598,0.6033764,-0.0998382,0.7901733,16
17.44,7.151592,1.389788,-19.64771,-0.3729463277008931,0.0157138741855579,0.7175594195663715,15.50543,75.2468,183.6525,0.6011765,-0.1260671,0.7870266,16
17.46,7.265072,1.558513,-19.60879,-0.4543233666326678,0.0020111471167336,0.7454896109293196,19.12171,75.43571,183.9619,0.5983737,-0.1521618,0.7830915,16
17.48,7.376575,1.723727,-19.57067,-0.5374653225472978,-0.0105804255185446,0.7738426818160642,22.73595,75.65017,184.2915,0.5949709,-0.1780954,0.7783731,16
17.5,7.238842,1.175731,-19.59878,-0.6225693590217769,-0.024966084015862,0.8022547717400608,18.74059,74.24984,184.0643,0.5905236,-0.1508506,0.7896726,16
17.52,7.350456,1.358317,-19.56117,-0.7054416510196959,-0.0433529003959578,0.819096572139423,22.31005,74.42078,184.2765,0.5871564,-0.1761089,0.785195,16
17.54,7.460938,1.53749,-19.52405,-0.7873726538001795,-0.0573731522498137,0.837502935619836,25.8778,74.6111,184.5065,0.583218,-0.2011884,0.7799549,16
17.56,7.392386,1.145524,-19.52848,-0.8685699070777848,-0.0701448880184782,0.8571432834353168,24.59446,71.12126,184.0561,0.5617332,-0.1932622,0.7987212,16
17.58,7.500348,1.336366,-19.49169,-0.9434528732727624,-0.0836288829342476,0.870848685671699,28.1043,71.22098,184.0641,0.5574929,-0.2173033,0.7931827,16
17.6,7.60768,1.523997,-19.4552,-1.0156274105437548,-0.0925632550979066,0.8865333812114828,31.61264,71.32478,184.0795,0.5527311,-0.2411307,0.7869025,16
17.62,7.588414,1.124886,-19.44186,-1.0852738391500745,-0.100203006623029,0.9039023836742794,32.07164,67.21465,183.5388,0.5246036,-0.2463808,0.804783,16
17.64,7.693307,1.321925,-19.40515,-1.1304444573541184,-0.0229502213216558,0.927002891326394,35.51634,67.17049,183.2871,0.5193152,-0.2690899,0.7978829,16
17.66,7.797943,1.515909,-19.36862,-1.1869223889565472,-0.0582004894381295,0.9402599286234912,38.95985,67.10478,183.0203,0.5135568,-0.2915484,0.7902613,16
17.68,7.902148,1.706861,-19.33233,-1.2393818054007746,-0.0902385880224031,0.9552541327840448,42.40207,67.01382,182.734,0.5073339,-0.3137362,0.7819256,16
17.7,8.005752,1.788153,-19.29634,-1.2879709660587215,-0.1224386012847242,0.9717267035134212,45.84292,66.89272,182.4229,0.5006526,-0.3356335,0.772884,16
17.72,7.930876,1.115019,-19.32132,-1.3098257009040066,-0.1261125471487562,0.9943160009925696,43.28069,65.93871,181.7542,0.5010391,-0.3170983,0.78281,16
17.74,8.033527,1.31522,-19.28553,-1.326610144511151,-0.1258687602629296,1.0183378706266888,46.65921,65.74232,181.3414,0.4944499,-0.3384257,0.7736884,16
17.76,8.136107,1.512492,-19.24985,-1.33848145305835,-0.1251140517538137,1.043551174652686,50.03565,65.49461,180.8825,0.4874288,-0.3594508,0.7638919,16
17.78,8.206557,1.109995,-19.2232,-1.3455930908640694,-0.1272052613030969,1.069715921624236,50.66803,64.25719,178.7373,0.484639,-0.3570468,0.7628595,16
17.8,8.307072,1.309389,-19.18813,-1.3348539128914587,-0.0332421532561386,1.101684741293187,53.97574,63.84856,178.1011,0.4775311,-0.3773021,0.7522411,16
17.82,8.407475,1.505978,-19.15319,-1.3163887748870895,-0.066731574499807,1.1390700226539772,57.27929,63.33608,177.3653,0.470021,-0.3972327,0.7409905,16
17.84,8.50761,1.699776,-19.11843,-1.2930631266740864,-0.098986568303013,1.1766314606938253,60.57752,62.68604,176.4959,0.4621159,-0.4168224,0.7291176,16
17.86,8.734593,1.109004,-19.03455,-1.2723425174058556,-0.0429357915234491,1.211333913520483,62.64834,54.69585,167.8832,0.4389762,-0.4177772,0.7293199,16
17.88,8.833281,1.297632,-19.00074,-1.2364330726635668,-0.0619342319157471,1.2595316619075403,65.77801,52.78923,165.6614,0.4310861,-0.4360145,0.7161783,16
17.9,8.931276,1.48359,-18.96726,-1.196971511972967,-0.0805715581840686,1.306858602768385,68.8672,50.28385,162.8446,0.4228461,-0.453888,0.7024574,16
17.92,9.155196,1.1615,-18.88085,-1.1541238344296574,-0.1020981418532875,1.3530813167016724,55.80333,52.78834,168.7556,0.4320427,-0.3786696,0.7674389,16
17.94,9.254333,1.341259,-18.84514,-1.1064120208725423,-0.0831256955224161,1.404613681817104,58.87243,51.34463,166.9292,0.4252584,-0.3971201,0.7556,16
17.96,9.352325,1.518295,-18.80993,-1.0562189148971923,-0.0629098761106635,1.4547434246600268,61.91172,49.5525,164.7602,0.4181392,-0.4152511,0.7431669,16
17.98,9.44903,1.692685,-18.77528,-1.0037228712322943,-0.0445789461016146,1.503193983022547,64.9105,47.29348,162.1295,0.4106937,-0.4330492,0.7301496,16
18.0,9.536169,1.228638,-18.73467,-0.9644957225608488,0.0424670801457858,1.5433720605104533,37.86279,58.16494,174.6648,0.4724734,-0.2618252,0.8184135,16
18.02,9.641503,1.400715,-18.69091,-0.9178127045160512,0.0372342763971099,1.5813926652551,41.19564,57.81976,173.9749,0.4680886,-0.2837563,0.8093503,16
18.04,9.745241,1.569604,-18.64792,-0.8693532166198237,0.031603203638205,1.6178294525660482,44.52395,57.39931,173.2189,0.4632985,-0.3054353,0.7995873,16
18.06,9.847215,1.735399,-18.60576,-0.8193574871211158,0.0224762769820892,1.6523324591202484,47.84823,56.88845,172.3811,0.4581089,-0.326858,0.7891279,16
18.08,9.874052,1.268529,-18.52164,-0.7797742585241492,0.1003468180624702,1.685895058384173,8.16606,60.12183,177.4407,0.5009007,-0.05045117,0.8622849,16
18.1,9.982703,1.436113,-18.46694,-0.7513125209169416,0.0842114051493908,1.7063726535451649,11.69406,60.18607,177.2697,0.5007554,-0.07623325,0.8592499,16
18.12,10.08949,1.600063,-18.41328,-0.7237476405853946,0.0679995246809327,1.72485775990845,15.22213,60.24059,177.1017,0.5001343,-0.1019482,0.8553982,16
18.14,10.14096,1.285584,-18.29426,-0.6977792656496815,0.1203035281538106,1.742935498007781,353.3174,60.00496,178.6131,0.49854,0.05651208,0.8648211,16
18.16,10.24735,1.449401,-18.2307,-0.6748441200220561,0.169882255015647,1.7580783772300048,356.8884,60.09125,178.6969,0.5002053,0.02919181,0.8654066,16
18.18,10.35173,1.609463,-18.16847,-0.6611275759804653,0.1243876418478761,1.7649208801553282,0.4583756,60.18254,178.786,0.5013835,0.00185083,0.8651512,16
18.2,10.45391,1.765929,-18.1077,-0.6500801456235039,0.0778014790911064,1.7698931886369056,4.027137,60.27952,178.8809,0.5020738,-0.02548408,0.8640558,16
18.22,10.39545,1.283119,-18.05943,-0.631583263039758,0.1211769908855769,1.7762293767959714,353.7779,57.91255,179.6689,0.4832894,0.04888383,0.8737723,16
18.24,10.49658,1.445378,-17.98852,-0.626986029073094,0.0902104886099924,1.768756670359122,357.338,57.98897,179.8839,0.4845739,0.02080811,0.8744416,16
18.26,10.59573,1.603912,-17.91914,-0.6258068219747897,0.0602378446294314,1.7590674558637027,0.8967893,58.07858,180.1033,0.4853881,-0.007279706,0.8742635,16
18.28,10.6927,1.758884,-17.85142,-0.6283553193145321,0.0284559303728998,1.746855643591652,4.454196,58.182,180.3289,0.4857315,-0.03535257,0.8732393,16
18.3,10.60907,1.246438,-17.83084,-0.6177761702517279,0.0905488374648677,1.7377453293620655,1.358758,55.69384,181.5201,0.4668979,-0.01667877,0.8841324,16
18.32,10.70628,1.411918,-17.75602,-0.6333315216749575,0.0560978818324661,1.7042432501421243,4.956955,55.79948,181.7549,0.466848,-0.04537227,0.8831474,16
18.34,10.80172,1.573714,-17.6827,-0.6512368514997771,0.0233206068176995,1.669459842332459,8.553957,55.92087,181.9994,0.4663356,-0.07402008,0.8812879,16
18.36,10.74526,1.226469,-17.66247,-0.6575705973529637,0.0646669174339139,1.6377453053733235,10.31415,53.91904,183.1133,0.4491827,-0.09235452,0.8884985,16
18.38,10.84004,1.396971,-17.58488,-0.6673374370295164,0.1044818949625056,1.60410880294523,13.93935,54.06095,183.3487,0.4477553,-0.1212237,0.8854166,16
18.4,10.93332,1.563797,-17.50866,-0.706951127410566,0.0418885007287355,1.5441223214301478,17.56293,54.22092,183.5977,0.4458778,-0.1499631,0.8814458,16
18.42,11.02493,1.727082,-17.43393,-0.7485659923807875,-0.0183415611980755,1.4836948506419356,21.18494,54.40155,183.864,0.4435532,-0.1785487,0.8765902,16
18.44,10.90609,1.18329,-17.46934,-0.7577765968221626,0.0208165335377279,1.432657607854242,17.40755,52.01034,183.8756,0.4285563,-0.1505826,0.8901401,16
18.46,10.99604,1.36397,-17.39218,-0.7882497316285291,-0.0191470958349196,1.3640109325070862,20.98779,52.16657,184.0707,0.4262409,-0.178833,0.8854208,16
18.48,11.08502,1.541196,-17.31597,-0.8195610654460979,-0.0552685815985735,1.2958226185300472,24.56643,52.34024,184.2816,0.4235084,-0.2069002,0.8798363,16
18.5,11.17287,1.715062,-17.24084,-0.8519940509776902,-0.0906008291865536,1.2280020220786028,28.14309,52.53445,184.512,0.4203632,-0.2347568,0.8733928,16
18.52,11.03319,1.153215,-17.31501,-0.8487441497168615,-0.0216596721639412,1.170272445580137,23.06078,48.1279,184.0194,0.3928809,-0.1964141,0.8969718,16
18.54,11.11867,1.34212,-17.23827,-0.867297921399026,-0.0626227880928959,1.09514313710385,26.58334,48.22613,184.0349,0.3899609,-0.2237136,0.8910469,16
18.56,11.2036,1.527769,-17.16214,-0.885067312872734,-0.0995271340386278,1.021783611545352,30.10452,48.32886,184.0583,0.3866737,-0.2507924,0.8842822,16
18.58,11.13931,1.128846,-17.17907,-0.8756762217076686,-0.0504115338149844,0.9563284218230416,30.02849,43.58852,183.6866,0.3506772,-0.2519528,0.8994544,16
18.6,11.2205,1.32461,-17.10231,-0.8645271348115391,-0.0013509818146092,0.8928542011856535,33.48786,43.56868,183.4753,0.3471041,-0.2781745,0.8920503,16
18.62,11.30147,1.517285,-17.02587,-0.8699947975401383,-0.0651829813766444,0.8130049058620501,36.94616,43.53199,183.2534,0.3432142,-0.3041346,0.8838329,16
18.64,11.38209,1.706903,-16.94989,-0.8543846306696641,-0.0390061454748948,0.7394694163907574,40.40334,43.47583,183.0177,0.3390113,-0.3298096,0.8748107,16
18.66,11.35702,1.115639,-16.95253,-0.8356430420048047,-0.0109093780025993,0.6689164727468737,41.85013,40.57499,182.3489,0.3169294,-0.3415585,0.8784586,16
18.68,11.43523,1.315594,-16.87628,-0.8141479990967586,0.0157773073992374,0.601334287914999,45.24238,40.36932,181.9184,0.3124138,-0.3662956,0.8684788,16
18.7,11.5134,1.512593,-16.80018,-0.7983187105996914,-0.0729875807115076,0.5264275850802473,48.63236,40.11168,181.4414,0.3076228,-0.3907018,0.8577342,16
18.72,11.56479,1.112979,-16.73798,-0.7799394426043607,-0.1452096335849847,0.4549599423136719,48.05864,38.85159,179.5359,0.3053159,-0.3827896,0.8607881,16
18.74,11.64051,1.313409,-16.66227,-0.7326378284052482,-0.0906355190633113,0.3960989005841238,51.38238,38.50714,178.9656,0.3008339,-0.4065741,0.8494164,16
18.76,11.71623,1.510997,-16.58667,-0.6725180737684582,-0.1217705605800269,0.3490800079466885,54.70262,38.07794,178.3153,0.2960965,-0.4300054,0.8373246,16
18.78,11.79182,1.705755,-16.51131,-0.6098776079800461,-0.151280051020789,0.3052492999187206,58.0185,37.53868,177.5591,0.2911078,-0.4530643,0.8245234,16
18.8,11.86716,1.791039,-16.43629,-0.540297759646845,-0.0929897844156023,0.2660204712677096,61.3288,36.85237,176.6595,0.2858724,-0.475731,0.8110245,16
18.82,11.9591,1.104415,-16.32855,-0.4684272725410343,-0.0356732357990023,0.2302618125920066,61.21533,31.79167,171.2176,0.2725307,-0.4702007,0.8146557,16
18.84,12.03286,1.295568,-16.2546,-0.3780870524824875,-0.0838541329007068,0.2144346173653386,64.4074,30.36484,169.5127,0.2676811,-0.4919249,0.8004522,16
18.86,12.10623,1.48404,-16.18115,-0.2871046624959077,-0.1335208403481508,0.2017471889994224,67.57471,28.50131,167.3747,0.2626134,-0.5132363,0.7855963,16
18.88,12.25591,1.144071,-16.01075,-0.2149380851871338,-0.0706731020620423,0.1848655750812964,58.4215,25.75385,167.7745,0.2440715,-0.452332,0.8344607,16
18.9,12.32857,1.326038,-15.93527,-0.1439060619105783,-0.0089754964933752,0.1709037285825332,61.48388,24.04772,165.7002,0.2398809,-0.4737849,0.8208316,16
18.92,12.4005,1.505314,-15.86065,-0.071732800581036,-0.0425527325436514,0.1622562933078728,64.50893,21.89842,163.1879,0.2355001,-0.4948544,0.8065531,16
18.94,12.54647,1.211782,-15.71149,-0.0196791650347427,-0.001691971139127,0.1498125652114526,43.12704,32.97638,173.944,0.2822012,-0.3379837,0.8850117,16
18.96,12.62159,1.385989,-15.63089,0.0293478410924823,0.0392191929070333,0.1406887324969368,46.36587,32.50679,173.1497,0.2794057,-0.3618879,0.8743538,16
18.98,12.69569,1.55722,-15.55151,0.079128853888212,0.0109747311678839,0.1321361673603351,49.59853,31.93776,172.2634,0.2763807,-0.3854874,0.8629794,16
19.0,12.76865,1.725565,-15.47349,0.1266131992102208,-0.0188214507918324,0.1286642033735179,52.8242,31.24529,171.2605,0.2731295,-0.4087685,0.8508958,16
19.02,12.88956,1.263631,-15.39041,0.1725788338662037,0.0420845765898906,0.1292468493023049,13.95804,40.96301,177.1628,0.350024,-0.1051917,0.9285069,16
19.04,12.97311,1.431482,-15.30254,0.2137095531345663,0.1004288135549942,0.1332279749990963,17.48457,41.01466,177.0234,0.3498378,-0.1333171,0.9240505,16
19.06,13.05528,1.595716,-15.21627,0.2459452524897654,0.0643987151996415,0.1331010002799164,21.01217,41.05806,176.8842,0.3493181,-0.161323,0.9187161,16
19.08,13.13591,1.756488,-15.13177,0.2738938765069094,0.0270271497164202,0.1376848058906121,24.53887,41.09311,176.7442,0.3484665,-0.1891679,0.9125115,16
19.1,13.152,1.279254,-15.11741,0.3080576672720432,0.0797860927437922,0.1404857616001056,354.4978,45.37483,178.4044,0.384605,0.04964313,0.921728,16
19.12,13.23718,1.44416,-15.02825,0.3359366581979763,0.063704177870409,0.1416706419385005,358.0607,45.45527,178.5372,0.386065,0.02053848,0.9222282,16
19.14,13.32083,1.605347,-14.94085,0.3579382532746713,0.046985140032872,0.1460022595662753,1.622347,45.54387,178.675,0.3871503,-0.008577833,0.9218355,16
19.16,13.40278,1.762969,-14.85537,0.3815209927593392,0.0980258207428636,0.1433408169514036,5.18276,45.6413,178.8188,0.3878602,-0.0376776,0.9205513,16
19.18,13.44188,1.282899,-14.80741,0.398082371341486,0.1459779723829285,0.1410925907010189,353.7826,46.43602,179.739,0.3935362,0.05073506,0.9177055,16
19.2,13.52534,1.444916,-14.71597,0.407077061787112,0.1731476035379338,0.1390265422914736,357.3477,46.50286,180.0216,0.3946652,0.02118988,0.9185336,16
19.22,13.60717,1.603191,-14.62646,0.3719940797596206,0.0930762395768662,0.100458372510457,0.9112939,46.58714,180.308,0.3954089,-0.008367216,0.9184669,16
19.24,13.61943,1.25047,-14.61415,0.3555793114980665,0.1075273660430248,0.066709850599429,359.3784,46.88994,181.3639,0.3978932,0.0002403976,0.9173385,16
19.26,13.7025,1.415226,-14.52401,0.334490576982112,0.1219889784806814,0.034116415070835,2.963573,46.98439,181.6576,0.3981061,-0.02947741,0.9168609,16
19.28,13.78404,1.576311,-14.43567,0.3082344193846174,0.1337493952705056,0.0024376906592455,6.547372,47.09771,181.9586,0.3979259,-0.05915924,0.91548,16
19.3,13.86391,1.733882,-14.34932,0.2426356170714814,0.0465437415812039,-0.0534534412866296,10.12947,47.23108,182.2694,0.3973534,-0.08877411,0.9131981,16
19.32,13.78804,1.232141,-14.41366,0.2005465609356931,0.0593426945775891,-0.0991045003959703,8.225436,47.1099,182.876,0.3968239,-0.07572536,0.914748,16
19.34,13.87185,1.400877,-14.32346,0.155691045686853,0.072912699322212,-0.1426863959927391,11.85661,47.25017,183.1751,0.3958323,-0.1056342,0.9120845,16
19.36,13.95428,1.565904,-14.23489,0.0775683579183481,0.0087242229074623,-0.2073052610774326,15.48594,47.41215,183.4879,0.3944404,-0.1354276,0.9085001,16
19.38,14.03516,1.727363,-14.14814,0.0201141381959506,0.0228195080499128,-0.2606730053333086,19.11375,47.59815,183.8176,0.3926494,-0.1650788,0.9039986,16
19.4,13.9304,1.190931,-14.23408,-0.0386654267965305,0.0385186390423951,-0.3113829121321096,16.08333,47.22241,183.784,0.3921415,-0.1412058,0.9086297,16
19.42,14.01237,1.369446,-14.14717,-0.0991763705237045,0.0529278586336865,-0.3597212548184731,19.67567,47.39607,184.0638,0.3902103,-0.1703948,0.9040793,16
19.44,14.09338,1.544454,-14.06141,-0.1988257200960141,-0.0403468165208685,-0.4416498848602506,23.26607,47.59303,184.3622,0.3878937,-0.1994069,0.8986371,16
19.46,14.03517,1.160883,-14.0978,-0.2662992858421025,-0.0254861824277598,-0.5038477708396096,21.56218,44.62353,184.1017,0.3665132,-0.1862881,0.9107617,16
19.48,14.11472,1.347688,-14.01367,-0.3316758372037074,-0.0085304323124869,-0.562575503978443,25.09981,44.74974,184.1995,0.3639582,-0.2144099,0.9050436,16
19.5,14.19368,1.531189,-13.93028,-0.3953895052581275,0.0074492855907744,-0.6180495248242825,28.63619,44.88671,184.3092,0.3610564,-0.2423189,0.8984643,16
19.52,14.2719,1.711453,-13.84779,-0.4947407610576255,-0.0878273909917929,-0.7047916359286226,32.17085,45.0366,184.4327,0.3578112,-0.2699853,0.8910316,16
19.54,14.1959,1.128759,-13.89367,-0.5571199578579717,-0.0709455498665056,-0.7640698632944951,30.03372,40.55611,183.7222,0.3266708,-0.2537876,0.9084265,16
19.56,14.27237,1.324409,-13.81184,-0.6148139222858293,-0.0517682109732764,-0.8175210102367134,33.50332,40.55134,183.5478,0.3233032,-0.2805069,0.9008902,16
19.58,14.34862,1.516958,-13.73035,-0.668216444148519,-0.0335105898942072,-0.8653732400628062,36.9719,40.53311,183.3654,0.3196391,-0.306961,0.8925286,16
19.6,14.42453,1.706435,-13.64933,-0.7289140952957127,-0.0420059785821338,-0.922187007104848,40.43948,40.4994,183.1725,0.3156821,-0.333126,0.8833502,16
19.62,14.37265,1.117119,-13.69835,-0.7833517994887673,-0.0460845613404671,-0.9707407425469454,39.6084,39.05404,182.7064,0.3068537,-0.3266577,0.8891688,16
19.64,14.44827,1.316383,-13.61918,-0.831832874038275,-0.0491279882416947,-1.0113200069268566,43.00983,38.89512,182.3344,0.302661,-0.3519045,0.8796085,16
19.66,14.52383,1.512679,-13.54017,-0.894040992908423,-0.138509901847107,-1.0598307486349454,46.4094,38.6946,181.9263,0.2982007,-0.3768321,0.869271,16
19.68,14.59921,1.706022,-13.46146,-0.9350368029406022,-0.1104239438509636,-1.0876080197944022,49.80685,38.44287,181.472,0.2934766,-0.4014185,0.8581657,16
19.7,14.61735,1.112892,-13.45594,-0.9696681267240592,-0.0805518570420529,-1.106166801429285,48.06626,38.71505,179.5827,0.3041248,-0.3831366,0.8611823,16
19.72,14.69232,1.313225,-13.37916,-1.0040783004655824,-0.1377015128985607,-1.114783580868533,51.40126,38.40418,179.0622,0.2997053,-0.4071026,0.8497449,16
19.74,14.76727,1.510703,-13.3025,-1.0292359430145623,-0.1053121683673037,-1.112538815843784,54.73321,38.01587,178.4687,0.29503,-0.4307134,0.8375838,16
19.76,14.90841,1.102108,-13.17089,-1.048788270320402,-0.0719688127296257,-1.101752763794834,59.64265,36.00428,174.1408,0.2919497,-0.4586299,0.8161747,16
19.78,14.98322,1.295716,-13.09778,-1.0629542974314132,-0.0409802004189372,-1.0828323834644065,62.88547,35.04364,172.9474,0.2869703,-0.4807026,0.8023773,16
19.8,15.05775,1.486631,-13.02505,-1.0719469419842804,-0.0306834279090189,-1.056176131317216,66.11527,33.79492,171.4692,0.2817534,-0.5023676,0.787924,16
19.82,15.13187,1.674885,-12.95282,-1.088771571620292,-0.1246662172216474,-1.0236775496486736,69.3271,32.12716,169.5747,0.2763048,-0.5236119,0.7728248,16
19.84,15.32274,1.144043,-12.76527,-1.103490239089579,-0.0904867667237693,-0.987892513692193,58.42772,26.52191,167.7578,0.2497234,-0.4509999,0.8327498,16
19.86,15.39666,1.326,-12.69082,-1.1137255056202378,-0.0558029977472131,-0.9445658620664468,61.49215,24.79466,165.6642,0.2453743,-0.4723882,0.8191459,16
19.88,15.46985,1.505258,-12.61723,-1.127252091002926,-0.0903779518731246,-0.8948580820366003,64.5185,22.61917,163.1275,0.2408302,-0.4933933,0.8048919,16
19.9,15.54218,1.681887,-12.54459,-1.148071601280634,-0.0477901577995979,-0.8514489995235655,67.49146,19.82684,159.9784,0.2360975,-0.513998,0.7900003,16
19.92,15.63221,1.211733,-12.45667,-1.1654883789378618,-0.0052846536797965,-0.8015991414081141,43.1378,34.15686,173.9484,0.2912844,-0.3365028,0.8820296,16
19.94,15.70886,1.385921,-12.37749,-1.179596119523469,0.0341150136998476,-0.7458618013977003,46.37851,33.68685,173.1598,0.2883563,-0.3603163,0.8714019,16
19.96,15.78446,1.557131,-12.29952,-1.2123213257962364,0.0490364082379341,-0.7099057728422717,49.61307,33.11775,172.2794,0.2851911,-0.3838263,0.8600596,16
19.98,15.88837,1.257107,-12.2425,-1.2426629316301678,0.0651087128984386,-0.6673318701064828,20.1354,40.93438,176.5742,0.3490285,-0.1534119,0.9202074,16
20.0,15.97377,1.425296,-12.15649,-1.270715355661864,0.079312727988697,-0.6188799039504307,23.66789,40.9328,176.3415,0.3481851,-0.181109,0.9142091,16
20.02,16.05776,1.58987,-12.07205,-1.306728310755184,0.0211044608170326,-0.5777315943736221,27.20132,40.91478,176.1014,0.3470076,-0.2086401,0.9073368,16
20.04,16.14017,1.750984,-11.98933,-1.3477188278537398,0.0544060036497866,-0.530865306488417,30.73371,40.87886,175.8517,0.3454987,-0.2359647,0.8996004,16
20.06,16.19578,1.2792,-11.96091,-1.3887155837257907,0.0868146361178323,-0.4800124145744551,354.5107,47.56444,178.4157,0.4021545,0.04938334,0.9142149,16
20.08,16.28405,1.444062,-11.87472,-1.429836914591044,0.1155506754270749,-0.4259933524740746,358.0752,47.64004,178.5595,0.403583,0.02044019,0.9147028,16
20.1,16.37072,1.605202,-11.79024,-1.4711740614410758,0.1228172924371481,-0.3695925775022448,1.638505,47.72447,178.708,0.4046193,-0.008514523,0.9143041,16
20.12,16.45486,1.29594,-11.73364,-1.5207003164652382,0.1211005953819488,-0.3338791109528516,353.4528,49.76145,179.5171,0.419822,0.05357357,0.9057986,16
20.14,16.54386,1.456795,-11.6458,-1.5707668379660396,0.120376767859276,-0.2937170230421877,357.0302,49.82087,179.8208,0.4210223,0.02416144,0.9066787,16
20.16,16.63108,1.613833,-11.55987,-1.621436838718282,0.1178456416741271,-0.2499675725117569,0.6060628,49.89909,180.1278,0.4218085,-0.005265777,0.906669,16
20.18,16.71635,1.767226,-11.47602,-1.683611766662252,0.0389502482227309,-0.2322576408675543,4.180513,49.99662,180.4404,0.4221802,-0.03467962,0.9057698,16
20.2,16.79952,1.810498,-11.39438,-1.7398676997941256,0.0541905561484408,-0.2044514664180317,7.753339,50.11435,180.761,0.4221373,-0.06405105,0.9039832,16
20.22,16.62574,1.250546,-11.5732,-1.7967425009235956,0.0694753620704944,-0.1738287269881935,359.3644,50.32795,181.3756,0.4252335,-8.410402e-05,0.9049872,16
20.24,16.71349,1.415396,-11.48812,-1.8542734810347588,0.0820952892545336,-0.1412406244886204,2.938353,50.4183,181.6807,0.4253978,-0.02943954,0.9045246,16
20.26,16.79961,1.576596,-11.40474,-1.91667957944014,0.0719144914488808,-0.1362938069056829,6.510782,50.52817,181.993,0.4251448,-0.05875782,0.9031759,16
20.28,16.88396,1.734301,-11.32322,-1.9791277377340009,0.064628635164794,-0.1270608421757344,10.08154,50.6587,182.315,0.4244751,-0.08801032,0.9009435,16
20.3,16.72785,1.226444,-11.41997,-2.0416567165028185,0.0573645427932502,-0.1143738065390069,10.30684,48.01191,183.1278,0.4027968,-0.09308122,0.9104691,16
20.32,16.81377,1.396886,-11.3326,-2.1145908462950147,-0.0284130564972351,-0.1337288124565157,13.93317,48.14852,183.3788,0.401468,-0.1226293,0.9073416,16
20.34,16.89834,1.563652,-11.24674,-2.16397720012172,-0.014124329709079,-0.126329234691783,17.55783,48.30413,183.6432,0.3997352,-0.1520457,0.9033024,16
20.36,16.76889,1.191141,-11.32398,-2.212653007165588,0.0019750453340811,-0.1150207799456795,16.07217,46.25447,183.7275,0.3845305,-0.1411428,0.9119086,16
20.38,16.85047,1.369844,-11.2371,-2.2606903200345183,0.0170117318411086,-0.1005715623797425,19.65866,46.40606,183.9489,0.3825705,-0.1701877,0.9074023,16
20.4,16.9311,1.545059,-11.15137,-2.3081363107786683,0.0130915405929714,-0.083716988772754,23.24347,46.57637,184.1861,0.3802347,-0.1990569,0.9020059,16
20.42,17.01062,1.716885,-11.06692,-2.34134753995415,-0.0041590488006336,-0.0967359557751266,26.82627,46.76854,184.4428,0.3775266,-0.2277222,0.8957247,16
20.44,16.82696,1.152862,-11.23642,-2.371827151022046,-0.0168663950635303,-0.1037330911825624,23.05153,50.05279,184.1796,0.4076274,-0.1960441,0.8903332,16
20.46,16.91178,1.34136,-11.15892,-2.399713487628312,-0.0281480346495335,-0.1053953760575501,26.57257,50.21324,184.3634,0.4047256,-0.2236732,0.884356,16
20.48,16.99603,1.526604,-11.08206,-2.410731936132224,-0.0398882291429992,-0.1128989283545398,30.09198,50.39194,184.5645,0.401441,-0.2510813,0.8775444,16
20.5,17.07957,1.708659,-11.00596,-2.417423175787302,-0.0469077043629359,-0.1139198951571238,33.60964,50.59092,184.7839,0.3977733,-0.278235,0.8699081,16
20.52,16.90134,1.12881,-11.17354,-2.419989943600602,-0.0524592445826351,-0.1090872858539306,30.02216,44.10068,183.7075,0.3546548,-0.2516649,0.8979031,16
20.54,16.98282,1.324519,-11.0971,-2.4186246186043685,-0.059744623063374,-0.0990175860227293,33.48317,44.08332,183.517,0.3510113,-0.2779041,0.8905221,16
20.56,17.06407,1.51714,-11.02097,-2.3903570614089,-0.0677765823415406,-0.0843862621536364,36.94312,44.05077,183.3168,0.3470476,-0.3038818,0.8823293,16
20.58,17.14495,1.706703,-10.94528,-2.3559408219551528,-0.0714598334193589,-0.0640362889781398,40.40195,44.00071,183.1043,0.3427674,-0.3295744,0.8733327,16
20.6,16.98846,1.115916,-11.06959,-2.3156813551175595,-0.0741664906070665,-0.0385419367730814,41.83246,35.33696,182.2238,0.2768547,-0.3455998,0.8919756,16
20.62,17.06164,1.316148,-10.9887,-2.264632545496461,-0.1629673607283462,-0.0134838493538551,45.20985,35.02834,181.6558,0.272497,-0.3705321,0.8819607,16
20.64,17.13481,1.51343,-10.90793,-2.18847907149684,-0.134670302495966,0.0347050219318931,48.58374,34.64912,181.0237,0.2678999,-0.3951308,0.8711714,16
20.66,17.07073,1.113258,-10.93796,-2.10563311385713,-0.1045718565862688,0.0873778086280343,48.03474,29.60545,179.3978,0.2354365,-0.3922735,0.8825482,16
20.68,17.13577,1.31397,-10.85312,-2.016488424688036,-0.0760226035170445,0.1440154913854527,51.33989,29.13241,178.6697,0.2315285,-0.4166031,0.871011,16
20.7,17.20082,1.511849,-10.76838,-1.921433933516473,-0.0674004838521931,0.2041062490905613,54.63964,28.54942,177.8369,0.2274248,-0.4405722,0.8587378,16
20.72,17.22415,1.102475,-10.67623,-1.7996824616816878,-0.0719909392141203,0.2787837302024684,59.60714,21.90504,173.9157,0.1905304,-0.4785374,0.8457165,16
20.74,17.28224,1.296463,-10.58945,-1.671944868676256,-0.0739254858955156,0.3560171545728876,62.81675,20.69853,172.4459,0.1867629,-0.5014424,0.8315986,16
20.76,17.34012,1.487762,-10.50308,-1.538704291905852,-0.0765398655230859,0.4353398453228074,66.00763,19.14423,170.6324,0.1828488,-0.5239301,0.8168002,16
20.78,17.39772,1.676406,-10.41725,-1.3949345331481449,-0.0668186807832508,0.5201920315408385,69.17171,17.08446,168.3166,0.1787869,-0.5459816,0.8013341,16
20.8,17.45495,1.755771,-10.33209,-1.2473750107766897,-0.0549672282764918,0.6054537308689777,72.29478,14.25653,165.2354,0.1745788,-0.5675785,0.7852143,16
20.82,17.42118,1.144377,-10.25835,-1.0965538949701,-0.0442033716795243,0.6907018795844501,58.39006,8.280642,167.5742,0.1153091,-0.4768324,0.8617609,16
20.84,17.47114,1.326707,-10.16635,-0.942987557753856,-0.0376951259948764,0.7755276662464934,61.40701,6.367567,165.2693,0.1127146,-0.4994791,0.8477751,16
20.86,17.52063,1.506349,-10.07535,-0.786213228978883,-0.0196363707475641,0.8497649725870581,64.37778,3.970906,162.4862,0.1100314,-0.5217227,0.8331195,16
20.88,17.5156,1.212081,-9.990483,-0.6283909259033389,-0.0001304555643827,0.9220765611988022,43.12038,12.28362,173.7904,0.119147,-0.3594435,0.921207,16
20.9,17.56087,1.38667,-9.890242,-0.4701119886435565,0.0177352551357564,0.991994304315182,46.32957,11.68786,172.8284,0.117902,-0.3847117,0.9103037,16
20.92,17.60557,1.558292,-9.791464,-0.3021677150614241,-0.0358175612823804,1.0563119933370764,49.52985,10.97136,171.754,0.1165605,-0.4096575,0.898657,16
20.94,17.64962,1.727032,-9.694293,-0.136519240733699,0.004277581384372,1.1162589949475732,52.71998,10.10657,170.5392,0.1151286,-0.4342687,0.8862739,16
20.96,17.61787,1.263867,-9.69656,0.0278857934304874,0.0435039233503802,1.1723692468065454,13.97503,16.35994,177.0587,0.14427,-0.1167512,0.9817065,16
20.98,17.66034,1.431992,-9.583134,0.1903526483398514,0.0789275936443094,1.224115766004442,17.49171,16.37472,176.8141,0.1448841,-0.1465311,0.9773188,16
21.0,17.70215,1.5965,-9.47169,0.3457878537678716,0.1628575806749959,1.2739393546168518,21.00961,16.37424,176.5668,0.1453627,-0.1761844,0.9720043,16
21.02,17.67127,1.279418,-9.450626,0.4929654890071124,0.1464216883136293,1.3016486621267016,354.5104,18.44448,178.3327,0.1593758,0.04959293,0.9859489,16
21.04,17.70901,1.444504,-9.333312,0.6359368938003711,0.1300349451847181,1.324356419881334,358.0725,18.52129,178.3961,0.1606551,0.01885058,0.9867681,16
21.06,17.74614,1.605875,-9.218238,0.7739434960025688,0.1108232183295659,1.3415462796725488,1.633627,18.60195,178.4643,0.1617782,-0.0119012,0.9866331,16
21.08,17.78257,1.763685,-9.105618,0.9082158401415978,0.1122978305823395,1.3525506715737472,5.19358,18.68708,178.5377,0.1627442,-0.0426327,0.9855452,16
21.1,17.81825,1.811435,-8.995658,1.035694751939126,0.1147936733419435,1.3577837395407304,8.752402,18.77738,178.6171,0.1635523,-0.07331427,0.9835061,16
21.12,17.73048,1.28315,-9.118857,1.155575886254708,0.115513804207113,1.356710845700803,353.7809,16.95296,179.6704,0.1470314,0.05407542,0.9876392,16
21.14,17.7602,1.445329,-8.998798,1.267196841611251,0.1817574409922661,1.3527328267966712,357.3466,17.01665,179.8877,0.147891,0.0230435,0.9887323,16
21.16,17.7894,1.603773,-8.881201,1.359219931413068,0.1502046226036322,1.3228834804970928,0.9109222,17.09372,180.1088,0.148606,-0.008001991,0.9888642,16
21.18,17.74117,1.250582,-8.97002,1.4422632894324878,0.1201305514329497,1.2863135744487884,359.373,15.98941,181.3184,0.1391326,0.003818097,0.9901919,16
21.2,17.76753,1.415438,-8.850368,1.5155555147143995,0.0887385304490125,1.2425853856104756,2.959744,16.07473,181.567,0.1394095,-0.02748097,0.9898038,16
21.22,17.79348,1.576624,-8.733032,1.5672832026174053,-0.002071640002643,1.1780960832821683,6.545277,16.17614,181.8229,0.1395488,-0.05874665,0.9884412,16
21.24,17.81896,1.734297,-8.618238,1.6476127130098923,0.0138151364534143,1.1457676242797703,10.12929,16.29464,182.0875,0.1395502,-0.08994561,0.9861065,16
21.26,17.74223,1.226434,-8.789585,1.7185387056662615,0.0305452543252818,1.1076380535557,10.30471,14.65353,183.1287,0.1245337,-0.09250537,0.9877722,16
21.28,17.76589,1.396847,-8.669277,1.7792594544972775,0.0453232362354089,1.063296217944361,13.93349,14.78647,183.381,0.1241244,-0.1240005,0.9843966,16
21.3,17.78926,1.563578,-8.55098,1.8289983727066368,0.0403362607246081,1.012363056609952,17.56062,14.93845,183.6465,0.1235897,-0.1553619,0.9800307,16
21.32,17.73939,1.1911,-8.68038,1.8726500257074608,0.0218114952269266,0.948298691778249,16.06861,14.16436,183.7518,0.1174769,-0.1426217,0.9826674,16
21.34,17.76157,1.369736,-8.563271,1.9079540943781743,0.0073571613012438,0.879670145457024,19.6547,14.31974,183.9984,0.1168269,-0.1735301,0.9777904,16
21.36,17.78355,1.544881,-8.447635,1.9341570827523724,-0.0060054809024401,0.8061364191546107,23.23903,14.49567,184.2617,0.1160616,-0.2042588,0.9719531,16
21.38,17.80529,1.716639,-8.333685,1.962768507572756,-0.0201755974000974,0.7329441722314525,26.82123,14.6952,184.5451,0.1151825,-0.2347757,0.9651629,16
21.4,17.82676,1.778459,-8.221625,1.984043182727308,-0.0297977940857863,0.6561559926424896,30.40142,14.92205,184.8527,0.1141899,-0.2650531,0.9574264,16
21.42,17.74941,1.153076,-8.516182,1.9972839479802904,-0.0379930758355479,0.5754700205615398,23.05703,12.98119,184.0893,0.1036043,-0.2023999,0.9737315,16
21.44,17.77307,1.341771,-8.403605,2.001810145602908,-0.0478290129700964,0.490599132330502,26.58532,13.09762,184.1777,0.1025944,-0.2323187,0.9671718,16
21.46,17.79664,1.527202,-8.291859,2.015381461329561,-0.06043890422764,0.420648782755271,30.11231,13.22412,184.2772,0.101487,-0.2620074,0.9596968,16
21.48,17.77536,1.128617,-8.383704,2.0213427499198584,-0.0682479301616449,0.3500890677032298,30.01928,12.32751,183.7885,0.09513939,-0.2607718,0.9606931,16
21.5,17.80216,1.324122,-8.275248,2.018999575568148,-0.0745406622046948,0.2787165393310042,33.48354,12.35078,183.6825,0.09375768,-0.2895492,0.9525602,16
21.52,17.82894,1.516541,-8.167194,2.0014183999748627,-0.1661033812407358,0.1990136272922242,36.94684,12.367,183.5737,0.09229019,-0.3180536,0.9435585,16
21.54,17.85564,1.705904,-8.059723,2.013688889445278,-0.1420241578986409,0.1548012506005113,40.40918,12.37531,183.4608,0.09073821,-0.3462592,0.9336969,16
21.56,17.88325,1.115223,-8.088646,2.018407609175597,-0.1157446449958934,0.1113691996855269,41.83912,16.15091,182.5435,0.1233387,-0.3563416,0.9257058,16
21.58,17.91842,1.314766,-7.985472,2.0148982065506065,-0.090581350025619,0.0685327151804046,45.23722,16.07702,182.3221,0.1213403,-0.3833536,0.9149176,16
21.6,17.95361,1.511366,-7.882459,2.002492253790826,-0.0848775201623365,0.0261139767046099,48.63411,15.97842,182.0795,0.1192352,-0.4100202,0.9033261,16
21.62,18.02588,1.112591,-7.815217,2.004203713343411,-0.0921226599247424,0.0013797015066556,48.05227,19.70538,179.7383,0.1572059,-0.4007902,0.8997274,16
21.64,18.06851,1.312649,-7.717257,1.9994688535067504,-0.0955370459093139,-0.0217081719009151,51.38286,19.5156,179.3867,0.1550132,-0.426429,0.8876992,16
21.66,18.11115,1.509881,-7.619423,1.9877024684159184,-0.0985344538454244,-0.0433523294634604,54.7116,19.27515,178.9879,0.1526889,-0.4516985,0.8749213,16
21.68,18.15374,1.704297,-7.521868,1.999029682233823,-0.0994501443864951,-0.0368743085031797,58.03823,18.96905,178.5263,0.1502353,-0.4765777,0.861405,16
21.7,18.19622,1.789257,-7.424739,2.00388431418471,-0.0977003945114504,-0.029924123250514,61.3623,18.5751,177.9796,0.1476546,-0.5010458,0.8471624,16
21.72,18.32786,1.104036,-7.323074,2.001745287032413,-0.0966313949787157,-0.0227388455565666,61.22543,18.05153,171.4973,0.1719258,-0.4915344,0.8417118,16
21.74,18.37797,1.294862,-7.231766,1.998343641613736,-0.0088659060369009,-0.0166941562504122,64.44247,16.89612,170.1114,0.1692808,-0.5147299,0.8269511,16
21.76,18.42783,1.483027,-7.141049,2.003736336508586,-0.0210509492413934,0.0055987294916047,67.64258,15.3792,168.3667,0.1664929,-0.5374933,0.8115203,16
21.78,18.58669,1.143731,-6.964905,2.0014314806660463,-0.0327808681784628,0.0265533383448273,58.45984,15.08579,167.9327,0.1648031,-0.4693671,0.8535858,16
21.8,18.64139,1.325477,-6.875745,1.9909868502521024,-0.0472791180320011,0.0459166781910731,61.54991,13.53082,166.048,0.1621774,-0.49205,0.8395642,16
21.82,18.69555,1.504542,-6.78759,1.984182507339208,-0.117338540679008,0.0718460078459031,64.60883,11.56695,163.7591,0.1594231,-0.5143352,0.8248798,16
21.84,18.74909,1.680998,-6.70057,1.982385970175508,-0.0723298215603782,0.0982143031562872,67.62353,9.03246,160.9033,0.1565375,-0.5362006,0.8095471,16
21.86,18.93323,1.228471,-6.560917,1.9732886321150176,-0.0279275089990251,0.1219505345464094,37.88999,26.8721,174.805,0.233858,-0.3054899,0.9155793,16
21.88,18.99656,1.400607,-6.467498,1.95648651329662,0.0128384141381217,0.1427072007898286,41.20639,26.61105,174.2734,0.2322611,-0.3312593,0.905731,16
21.9,19.05897,1.569623,-6.375571,1.939683966965441,0.1026169313387861,0.1609070217142323,44.51975,26.29247,173.6914,0.2304664,-0.3567396,0.8951151,16
