t,pX,pY,pZ,aX,aY,aZ,reX,reY,reZ,rtX,rtY,rtZ,ID
5.94,-45.30571,1.101702,-38.82837,-0.5906500344411558,-0.0987105036034196,1.4565624546535352,14.63782,356.3559,163.6092,-0.01306371,-0.1305227,0.9818045,13
5.96,-45.30647,1.301532,-38.82785,-0.5080656880567647,-0.0979597492875547,1.5165991436451094,14.65499,356.3617,163.6321,-0.01301844,-0.1306601,0.9818143,13
5.98,-45.30723,1.501359,-38.82734,-0.4204295183861228,-0.0728068606977243,1.5756911253732495,14.67229,356.3676,163.6552,-0.01297283,-0.1307985,0.9818242,13
6.0,-45.30799,1.701187,-38.82682,-0.3206955212856659,-0.1177519178533558,1.637613933873414,14.68954,356.3734,163.6782,-0.01292727,-0.1309367,0.9818341,13
6.02,-45.27988,1.155075,-38.7854,-0.2155902503359321,-0.1360884825492331,1.6986660290886508,14.81952,4.200177,163.6748,0.05426959,-0.1224127,0.9802727,13
6.04,-45.28092,1.354814,-38.78447,-0.1056887856035322,-0.1296392207755404,1.758420929764303,14.84552,4.20914,163.7098,0.05433965,-0.1226406,0.9802827,13
6.06,-45.20138,1.159214,-38.69251,0.0133293880584988,-0.1676206811146081,1.817970347584449,18.58203,8.025515,166.4371,0.08759497,-0.1517716,0.9762402,13
6.08,-45.21242,1.352653,-38.65939,0.1375009591276592,-0.1800096775528026,1.876669205191492,19.53233,8.189542,166.9394,0.08915725,-0.1600935,0.9752374,13
6.1,-45.22343,1.545777,-38.62636,0.2661591147776185,-0.1686596385797456,1.93403417498374,20.48332,8.363788,167.4487,0.09071504,-0.16842,0.974148,13
6.12,-45.06265,1.188181,-38.52427,0.3972349853572563,-0.2040974114832505,1.9917430192547905,12.60213,15.61308,169.9712,0.1439956,-0.09651898,0.9796755,13
6.14,-45.05082,1.378608,-38.47411,0.5329351219042948,-0.2143557254928375,2.047832034781152,14.14917,15.62863,170.0384,0.1450122,-0.1098421,0.9780049,13
6.16,-45.03904,1.568374,-38.4242,0.6725344276372907,-0.2013017842620491,2.1018386844466628,15.69856,15.64565,170.1045,0.1460015,-0.1231634,0.9761515,13
6.18,-44.90344,1.210044,-38.319,0.8047771998871154,-0.2345936322361114,2.1528447547852787,3.814911,22.62909,173.0637,0.1977017,-0.02071656,0.9778318,13
6.2,-44.86934,1.387533,-38.22753,0.9411224026541128,-0.2434084319056845,2.2027903758465044,6.724494,22.63935,173.1754,0.1990205,-0.045743,0.9764389,13
6.22,-44.8424,1.565244,-38.14626,1.08080831013691,-0.2296241832923604,2.2511326535351577,9.241689,23.27034,173.5423,0.2051489,-0.06745845,0.9738033,13
6.24,-44.72691,1.28063,-38.02991,1.195850588493828,-0.2635535726619103,2.2894519149301784,355.0386,29.6402,179.3572,0.2553065,0.04327539,0.9658749,13
6.26,-44.69511,1.454336,-37.9455,1.3061074739767644,-0.2700706590364533,2.3230242219038786,357.2245,33.37524,180.9229,0.2872469,0.02088556,0.9575167,13
6.28,-44.66085,1.626466,-37.86478,1.4117064236490204,-0.2508559840566776,2.3517547548657776,359.3066,37.16057,182.6246,0.3186752,-0.001563176,0.9475682,13
6.3,-44.57213,1.260975,-37.8883,1.512721727063984,-0.2075322037917294,2.375533687584851,355.7358,38.65841,181.1158,0.3310925,0.03188407,0.9428146,13
6.32,-44.62286,1.46394,-37.88337,1.605110609298885,-0.2482376276179498,2.385907528224198,354.9226,39.97692,182.7084,0.3423837,0.03354374,0.9382192,13
6.34,-44.68705,1.668417,-37.87779,1.6984297858767308,-0.2623454048719775,2.394700424075765,353.769,40.72366,184.4744,0.3491575,0.03735174,0.9346767,13
6.36,-44.99692,1.297435,-37.9873,1.7898259312022766,-0.2511069235138475,2.401241000177915,352.8781,40.54813,187.8751,0.3490265,0.03437614,0.9325469,13
6.38,-45.35828,1.500197,-38.08571,1.864743823048584,-0.291962889578759,2.392820874041928,344.1817,40.43675,193.9962,0.3554936,0.08645621,0.9167376,13
6.4,-45.71427,1.679262,-38.24075,1.9403744772048104,-0.3051405719386577,2.382858759041147,334.0162,41.13508,199.1331,0.3725386,0.150665,0.8864795,13
6.42,-45.79006,1.244138,-38.22509,2.0163554151043908,-0.2924480705640196,2.3711112873208107,6.475927,42.48428,185.5089,0.3587839,-0.06996804,0.930478,13
6.44,-45.833,1.444425,-38.21935,2.076856837034182,-0.3350546503539257,2.34445660386275,5.221091,47.40835,187.2289,0.3981694,-0.066939,0.9140181,13
6.46,-45.87595,1.644511,-38.21314,2.1382347783691715,-0.3486401795521929,2.3165273035083684,3.821003,52.27871,188.8312,0.4366999,-0.06373969,0.8956939,13
6.48,-45.75337,1.196189,-38.18955,2.200147557025635,-0.3350623598056265,2.287167960092555,14.93721,51.09599,183.9936,0.4232624,-0.1321019,0.8959804,13
6.5,-45.7341,1.386033,-38.13425,2.2622546183885595,-0.296121696179011,2.2562325741496183,16.01802,55.24295,185.6049,0.4525213,-0.1457487,0.8794968,13
6.52,-45.71432,1.575214,-38.08094,2.2993403229612825,-0.339826454233345,2.2044927822378293,16.98162,59.45941,187.3046,0.4813098,-0.1591999,0.8617769,13
6.54,-45.78772,1.163782,-38.11485,2.3381559463854087,-0.3531385704249773,2.152489291197658,20.28285,54.81215,184.4294,0.4467232,-0.1737095,0.8763756,13
6.56,-45.76386,1.356844,-38.06324,2.378360015621566,-0.3379833799487622,2.1001421972649696,21.43488,58.37553,185.7225,0.4704649,-0.1860691,0.861255,13
6.58,-45.74421,1.549694,-38.01523,2.3997715693982986,-0.3796475453658755,2.0356738877841094,22.33312,62.15252,187.1248,0.4951216,-0.1970131,0.8448542,13
6.6,-45.76203,1.740797,-37.95108,2.4232216445600807,-0.3896923809173933,1.9717980064780944,22.67404,64.29785,189.3562,0.5064266,-0.2084351,0.8359134,13
6.62,-45.88176,1.128902,-37.9917,2.4484053705282847,-0.3701022331247737,1.90849036160736,25.72841,53.73354,186.1005,0.4293821,-0.2217716,0.8737916,13
6.64,-45.89135,1.321392,-37.92296,2.4632526790740954,-0.4066515899450937,1.8401508760311645,26.78819,54.23587,188.2161,0.4275155,-0.2374188,0.8711998,13
6.66,-45.90111,1.512697,-37.85458,2.4806920652171867,-0.4108396864817615,1.7731244458038722,27.83252,54.78699,190.3614,0.4254883,-0.2529893,0.8682787,13
6.68,-45.85519,1.116833,-37.85967,2.500406973315612,-0.384719918308485,1.707418755017799,36.77264,45.59261,183.7784,0.357891,-0.3027473,0.8783805,13
6.7,-45.82161,1.313769,-37.79446,2.522072808945442,-0.3302874493905474,1.6430460670351064,38.94492,46.03808,184.738,0.3556732,-0.3217873,0.8723779,13
6.72,-45.79409,1.112387,-37.75253,2.529071796108588,-0.3602975011667139,1.5687601470095889,42.39787,43.95271,182.7496,0.3407544,-0.3436069,0.8675837,13
6.74,-45.76539,1.310194,-37.68653,2.5389465639965705,-0.3574892546938653,1.497247641961252,44.44087,45.09715,183.9136,0.3428558,-0.3611794,0.8594208,13
6.76,-45.74793,1.506212,-37.62328,2.5513805775292617,-0.3239665966884867,1.42853215247969,46.12846,46.88955,185.4353,0.3486089,-0.3763726,0.8505503,13
6.78,-45.73192,1.701052,-37.55987,2.562143790629591,-0.346536984481122,1.362656292763497,47.75681,48.75834,187.1287,0.3537905,-0.3914549,0.8416493,13
6.8,-45.66208,1.107951,-37.53536,2.5750569722960988,-0.3364235157384739,1.2997507514955045,50.07611,42.35278,179.7329,0.3282124,-0.3938773,0.8444868,13
6.82,-45.6173,1.305764,-37.46324,2.589818220551149,-0.2957104690768679,1.2398786737679997,52.62595,43.53043,180.5795,0.3302977,-0.4133493,0.8333043,13
6.84,-45.57764,1.501501,-37.39154,2.619134247242277,-0.3089566558600247,1.1967624646599253,55.04092,45.10445,181.7936,0.3334074,-0.4320025,0.8217025,13
6.86,-45.418,1.104304,-37.24335,2.6490137871666164,-0.2908089575664939,1.155831675121786,60.69096,36.54747,172.6119,0.3009449,-0.4613034,0.8075646,13
6.88,-45.36621,1.296075,-37.17484,2.679133164324152,-0.2432565472426521,1.1171821648252696,63.33496,37.34666,172.7572,0.303372,-0.4791475,0.7940794,13
6.9,-45.3143,1.486037,-37.10698,2.7091608661234723,-0.1682257070369843,1.080918636702025,65.97794,38.24035,173.0044,0.3056158,-0.4967203,0.7801462,13
6.92,-45.13501,1.145945,-36.92531,2.739902574217748,-0.1643456598375183,1.054209084250452,57.95975,30.75768,168.9535,0.2758806,-0.4426559,0.8271837,13
6.94,-45.07694,1.329986,-36.8567,2.770348733910766,-0.1305820181963709,1.030322137303358,60.66363,30.88594,168.3251,0.2781461,-0.4608748,0.8139626,13
6.96,-45.01901,1.512052,-36.78907,2.800159497397207,-0.0688485114933296,1.0093588833537082,63.36762,30.95853,167.6508,0.2802388,-0.4788152,0.800258,13
6.98,-44.96128,1.692181,-36.72251,2.834825956904422,-0.0764053796016133,0.9981903812950604,66.07229,30.95497,166.9088,0.2821494,-0.4964707,0.7860749,13
7.0,-44.85059,1.214123,-36.62772,2.869325269199976,-0.087372397805431,0.9909558251723708,42.67386,37.85542,174.4573,0.3184289,-0.3291665,0.8743547,13
7.02,-44.78126,1.390771,-36.55598,2.9032588998559845,-0.1054480509447046,0.9876936414440064,45.60033,38.3843,174.2602,0.3209943,-0.3503482,0.8631561,13
7.04,-44.71239,1.564988,-36.48562,2.930423629178732,-0.0889275748822484,0.9834845623407532,48.52741,38.92698,174.0924,0.3233339,-0.3712853,0.851368,13
7.06,-44.60946,1.259667,-36.40607,2.95758602474437,-0.075442661199561,0.9840498395994848,19.62806,44.06534,176.8527,0.3738452,-0.1477921,0.9113046,13
7.08,-44.52911,1.430812,-36.32915,2.9722058802193496,-0.0093778813634971,0.9757416635505596,22.83348,44.75793,176.931,0.3779652,-0.1729762,0.9040462,13
7.1,-44.4495,1.598923,-36.25397,2.986702796215936,0.0507508982477627,0.9666058210685744,26.03909,45.47152,177.0518,0.3817671,-0.1980229,0.8960507,13
7.12,-44.38069,1.277812,-36.16544,2.983666593680751,0.0120587977413095,0.9518298857366032,358.1018,48.11761,178.2408,0.407338,0.02138072,0.9129984,13
7.14,-44.29318,1.445931,-36.08861,2.9562009065066457,0.0501307908058364,0.9268980718812774,1.427401,48.7792,178.4064,0.4130249,-0.005601394,0.9105285,13
7.16,-44.20667,1.610715,-36.01367,2.9247615858184526,0.0839291106720894,0.8987120025604414,4.752362,49.45184,178.611,0.4183441,-0.03259093,0.9072612,13
7.18,-44.19582,1.292205,-35.94405,2.880899074781504,0.0441578104695387,0.8701039207356915,352.1407,48.19606,179.0567,0.4068105,0.06590977,0.9109017,13
7.2,-44.10459,1.454971,-35.85994,2.8144313934616685,0.0804017440290849,0.8303561986762267,355.6635,48.8274,179.3293,0.4128176,0.03686829,0.910009,13
7.22,-44.01462,1.613987,-35.77812,2.738911041026673,0.1134822015037323,0.7805610801009335,359.1821,49.47308,179.6398,0.4184133,0.007798155,0.9082234,13
7.24,-44.11867,1.284721,-35.75455,2.63698016975562,0.0675720830218652,0.7164642398058474,352.3109,47.42239,180.6246,0.4015503,0.05920222,0.913363,13
7.26,-44.09005,1.466522,-35.69594,2.513673160585232,0.0875319218384146,0.6381367777049682,353.9454,48.48315,181.6512,0.410663,0.04224181,0.910143,13
7.28,-44.06025,1.647121,-35.63821,2.3800937700933646,0.1051492548167158,0.5493273622117218,355.5835,49.57808,182.6943,0.4196737,0.02512143,0.906553,13
7.3,-44.02961,1.826635,-35.58159,2.2351390581743704,0.1172898163885782,0.4498257821279461,357.2121,50.71206,183.7594,0.4286057,0.007928813,0.9025689,13
7.32,-44.02724,1.251284,-35.58524,2.040805645678362,0.1090489630628111,0.3440722527487123,0.7360946,49.20654,181.888,0.4161714,-0.01269851,0.9091142,13
7.34,-43.95867,1.423112,-35.5094,1.848765822906823,0.0967618940646485,0.2406387332117043,3.612202,50.34374,182.591,0.4243701,-0.0381286,0.9046583,13
7.36,-43.90772,1.596216,-35.43769,1.6610409113522495,0.0764506800192012,0.1393574731610884,6.038522,51.35477,183.5685,0.4310141,-0.06091974,0.9002715,13
7.38,-43.95831,1.231498,-35.4556,1.4873044034924794,0.0573565062386011,0.048269035933564,9.512484,51.13615,183.5164,0.4275997,-0.08795787,0.8996416,13
7.4,-43.89202,1.408613,-35.38377,1.366845932459749,0.0351663960225536,-0.0227053067891125,12.2775,52.19607,184.1926,0.4335803,-0.1119686,0.8940164,13
7.42,-43.82595,1.583407,-35.31344,1.3017712882162442,0.0096302598846677,-0.0641334710218668,15.02934,53.30114,184.9292,0.439258,-0.1359006,0.8877856,13
7.44,-43.86961,1.194122,-35.33589,1.2274349927935138,-0.0076957778019121,-0.1091523801086813,15.30341,52.90358,184.0844,0.4369498,-0.1348677,0.8888875,13
7.46,-43.80198,1.37738,-35.26751,1.166465417823412,-0.0258913089484,-0.1460339991672592,18.07345,54.01199,184.7081,0.4423212,-0.1582422,0.8820873,13
7.48,-43.73445,1.55838,-35.20036,1.1192129704198512,-0.0487494387933689,-0.1747064298026881,20.83085,55.17059,185.3993,0.447386,-0.1815063,0.874694,13
7.5,-43.6671,1.737169,-35.13453,1.061193380054239,0.0172189924301086,-0.1976321918249146,23.57504,56.38686,186.1635,0.4521384,-0.2046496,0.8667125,13
7.52,-43.77599,1.162077,-35.20517,0.9706585924235434,-0.0263128634396594,-0.2359252995480272,20.95299,51.86424,184.3385,0.4235181,-0.1796837,0.8866971,13
7.54,-43.70416,1.351345,-35.13922,0.8855102883298365,-0.0688450667170975,-0.2713134700041681,23.83622,52.93661,184.7237,0.4281062,-0.2026817,0.8789335,13
7.56,-43.63229,1.538276,-35.07427,0.8196282600927134,-0.0240753971459137,-0.2909282595813591,26.71168,54.05532,185.1781,0.432384,-0.2255322,0.8705524,13
7.58,-43.70081,1.132799,-35.09321,0.7359347613881679,-0.0635264077809586,-0.3155287142013794,27.52288,49.14472,184.1445,0.3958184,-0.2308005,0.8863305,13
7.6,-43.62811,1.328083,-35.0279,0.6590855005055305,-0.1012437640111573,-0.3351511278990493,30.46318,50.1382,184.2903,0.3996327,-0.2531084,0.8775328,13
7.62,-43.55515,1.521009,-34.96337,0.5947081475789036,-0.1408280443409604,-0.352338398882007,33.40281,51.17056,184.4991,0.4031434,-0.2752406,0.8681014,13
7.64,-43.56523,1.118464,-34.93919,0.5464518924844519,-0.1490851905295959,-0.3561742970349746,37.12552,46.78691,183.1233,0.3682847,-0.3023244,0.8731734,13
7.66,-43.48658,1.317316,-34.87336,0.5113862816972148,-0.1531776265007761,-0.3573484604250483,40.23673,47.58958,182.9356,0.3706586,-0.3243236,0.8624398,13
7.68,-43.40756,1.513553,-34.80824,0.4898882306927437,-0.1567573261897649,-0.3560684494999102,43.34871,48.41725,182.7984,0.3727294,-0.3460557,0.8510193,13
7.7,-43.3283,1.707189,-34.74392,0.4739501691539134,-0.0755301131771988,-0.3415790779471099,46.46104,49.27927,182.7188,0.3744957,-0.3675055,0.8389214,13
7.72,-43.36414,1.114309,-34.76017,0.4479314653417754,-0.1077233499766068,-0.3324698320710824,44.62928,47.59082,181.1939,0.3696173,-0.3512855,0.848021,13
7.74,-43.28043,1.31463,-34.6926,0.4307492268438047,-0.0781143744873964,-0.3162184679284121,47.90476,48.31636,180.9299,0.3709952,-0.3734441,0.8351654,13
7.76,-43.19629,1.512072,-34.62574,0.4222948568493843,-0.0469625992299151,-0.2964441346983819,51.1814,49.06734,180.7137,0.3720405,-0.3952678,0.8215778,13
7.78,-43.13948,1.107023,-34.55958,0.4298042068705987,-0.1029567944803946,-0.2646708879847748,53.32806,45.58441,177.7251,0.3543369,-0.4067636,0.82026,13
7.8,-43.05479,1.305185,-34.49362,0.447623992846899,-0.1591160291931305,-0.2300712918173157,56.59922,46.00609,177.1245,0.3549152,-0.4276148,0.8055649,13
7.82,-42.96978,1.500486,-34.42843,0.4678433497340437,-0.1010645685644859,-0.1869943856115745,59.87197,46.39895,176.5133,0.3551725,-0.4480821,0.7901614,13
7.84,-42.79251,1.109086,-34.26751,0.5070283501872268,-0.1213465142633394,-0.1268901838721516,62.67139,37.14674,167.8787,0.3225854,-0.4614856,0.7876341,13
7.86,-42.70641,1.29751,-34.20534,0.5520729263181492,-0.1418034665547997,-0.0662157375012224,65.80797,36.22635,165.8461,0.3226443,-0.4802205,0.7710893,13
7.88,-42.62048,1.483159,-34.14429,0.5849028003964092,-0.0771982488085791,-0.0167181249758412,68.92547,34.86778,163.3892,0.3224169,-0.4985314,0.7538803,13
7.9,-42.53489,1.666083,-34.08444,0.6205530755895019,-0.0143328941691739,0.0326076942422881,72.01331,32.85348,160.2885,0.3219046,-0.5164045,0.7360219,13
7.92,-42.44172,1.161813,-33.97597,0.658972320997762,-0.0486964123028274,0.0879167808334422,55.75322,36.0678,168.8415,0.3155836,-0.4158875,0.8224764,13
7.94,-42.35346,1.341324,-33.91436,0.6812918227937006,-0.0060364381386479,0.1260326215436951,58.84403,35.57726,167.1811,0.3166572,-0.4351228,0.8074441,13
7.96,-42.26578,1.517995,-33.85422,0.7101556497817807,-0.0071752415963784,0.1665331353300159,61.9243,34.84754,165.2998,0.3174565,-0.4539835,0.7917309,13
7.98,-42.13838,1.229015,-33.74727,0.7410447461157741,-0.0096183834262655,0.2065004447394063,37.72571,44.7057,174.7837,0.3731186,-0.2823244,0.8686883,13
8.0,-42.0426,1.400702,-33.68137,0.7735255967136325,-0.0166517724305013,0.2456593814783403,41.07978,45.28453,174.2708,0.3762353,-0.3053963,0.856424,13
8.02,-41.94778,1.56909,-33.61736,0.7991763645317178,0.0669514517697039,0.2793522616172978,44.43678,45.85275,173.7769,0.3789962,-0.3281791,0.8433682,13
8.04,-41.86452,1.263598,-33.54711,0.8178974750779444,0.0573256410161574,0.3106279134543266,13.83259,51.39075,177.211,0.4329445,-0.09800394,0.8930192,13
8.06,-41.76165,1.431144,-33.47887,0.8361739774854087,0.0463760514541159,0.3400403044363829,17.37286,52.27942,177.1619,0.4387321,-0.1247532,0.8855053,13
8.08,-41.66001,1.594967,-33.41277,0.8482852505773426,0.1025353282327383,0.3657388662971588,20.91356,53.18309,177.17,0.4440664,-0.151376,0.8770949,13
8.1,-41.55984,1.755226,-33.34892,0.8452122828008237,0.0881273551967141,0.3844900106862692,24.45271,54.11006,177.2397,0.4489431,-0.1778383,0.8677981,13
8.12,-41.58177,1.279242,-33.31971,0.8393343412088132,0.0724329407238549,0.4003085340006374,354.401,56.1256,178.4441,0.4692492,0.04947448,0.8816103,13
8.14,-41.47661,1.443931,-33.25178,0.8315306704933345,0.1254035370981722,0.4106453532336518,357.9627,57.00935,178.6624,0.4769402,0.02119118,0.8786786,13
8.16,-41.37288,1.604806,-33.18612,0.8092344462963776,0.1066324874917828,0.4171398941782858,1.519653,57.90552,178.9355,0.4841327,-0.007106597,0.874845,13
8.18,-41.32636,1.296007,-33.10001,0.7819567413700081,0.0867893651441387,0.420007445068185,353.4701,56.72303,179.5197,0.474048,0.05210486,0.8786453,13
8.2,-41.2214,1.456775,-33.02917,0.7602526240708158,0.1349823256452156,0.4194839912379193,357.0427,57.58953,179.8714,0.4814876,0.02315433,0.8760724,13
8.22,-41.11802,1.613655,-32.96081,0.7181263357708838,0.1083199784853136,0.4093203241002134,0.6084561,58.47593,180.2766,0.4884185,-0.005812028,0.8725902,13
8.24,-41.14116,1.25456,-32.92997,0.6702469430343561,0.082028679595288,0.3938169924991905,357.441,57.16684,181.1708,0.4784939,0.01471971,0.8777477,13
8.26,-41.03897,1.418863,-32.86086,0.6449174052261455,0.1259943427806805,0.3811139175086695,0.9908424,58.0548,181.5332,0.4850651,-0.01405161,0.8743331,13
8.28,-40.93819,1.579471,-32.79404,0.6231267572863723,0.1645512226262914,0.3658723042553324,4.533514,58.96699,181.9516,0.4911301,-0.04280009,0.8700219,13
8.3,-40.83904,1.736547,-32.72961,0.5758484552128929,0.1019039929690006,0.3374382355486305,8.067952,59.91061,182.4296,0.4966832,-0.07149667,0.8648192,13
8.32,-40.9474,1.237675,-32.74173,0.5341353884179272,0.0356028905857747,0.3079518634391189,6.188593,57.76743,182.623,0.4811212,-0.05829145,0.874693,13
8.34,-40.84381,1.40473,-32.67144,0.5019915343980141,0.0752678706760177,0.2860961718733668,9.815172,58.7111,183.0129,0.4863015,-0.08737852,0.8692015,13
8.36,-40.74155,1.567971,-32.60336,0.4437859040120111,0.037391447910953,0.2515782409255003,13.4337,59.69154,183.469,0.4909539,-0.1163635,0.862782,13
8.38,-40.83403,1.208531,-32.60242,0.3891236716551063,8.26163710310468e-05,0.2142911007323031,13.46563,57.53857,183.5672,0.4745347,-0.1175947,0.8718543,13
8.4,-40.73289,1.382842,-32.53269,0.3529036830086278,0.0404464758295081,0.1872495559153408,17.06881,58.52085,183.93,0.4786442,-0.145966,0.8647268,13
8.42,-40.63269,1.55346,-32.46482,0.2946102797105254,0.0007106680111469,0.1501706804092406,20.66414,59.54784,184.3663,0.4822418,-0.1741739,0.85669,13
8.44,-40.71426,1.175599,-32.46255,0.2387487737998119,-0.03718291309454,0.1110875710703394,18.75655,56.42983,184.0802,0.4610538,-0.1601044,0.8715941,13
8.46,-40.61668,1.358133,-32.39373,0.2014129365609882,0.0077483453368455,0.0835640231701417,22.31262,57.41148,184.3584,0.4644412,-0.1875023,0.863435,13
8.48,-40.51961,1.537159,-32.3264,0.166492895156515,0.0509968146440842,0.0544346088009328,25.86249,58.43896,184.7118,0.4673459,-0.2146994,0.8543941,13
8.5,-40.42326,1.712769,-32.26068,0.0995814333078026,-0.0162265686594103,0.0096724224166506,29.40446,59.52434,185.1496,0.4697656,-0.2416657,0.8444822,13
8.52,-40.58345,1.145317,-32.31239,0.0362812112239367,-0.0821348822491947,-0.0353348881373727,24.62241,53.45574,184.0826,0.4323487,-0.2059702,0.8754759,13
8.54,-40.48985,1.33602,-32.24379,0.0027433263103651,-0.0373805188345527,-0.0603866634462684,28.12805,54.37571,184.1714,0.4350529,-0.2321444,0.8663193,13
8.56,-40.39634,1.523394,-32.17633,-0.0464570594621021,-0.0763320986013234,-0.0909712524591275,31.63044,55.33406,184.3294,0.4373194,-0.2580771,0.8563069,13
8.58,-40.46721,1.124756,-32.17011,-0.0912555801480197,-0.1125529493842913,-0.1204298713650153,32.11125,49.15216,183.5555,0.3916834,-0.2637939,0.8770849,13
8.6,-40.37743,1.321635,-32.10083,-0.1108349487073363,-0.060984859537042,-0.1363938124193318,35.55807,49.933,183.3814,0.3935879,-0.2885516,0.8666856,13
8.62,-40.28741,1.515322,-32.0324,-0.1347680344773794,-0.0937570707101866,-0.1538576533208271,39.00554,50.73614,183.2595,0.3951077,-0.3130244,0.8554556,13
8.64,-40.28194,1.115501,-31.99699,-0.1537236353487561,-0.1241148262458771,-0.1696441740060388,41.89216,47.96346,182.3894,0.3726937,-0.3344723,0.856141,13
8.66,-40.1941,1.315242,-31.92873,-0.1554399474711267,-0.0665943005782325,-0.1778827237319649,45.2821,48.62276,182.0764,0.3735492,-0.3576463,0.8438237,13
8.68,-40.10589,1.511908,-31.8612,-0.1527157932738934,-0.0099962764411535,-0.1846547461655285,48.67342,49.29633,181.8019,0.3740498,-0.3804787,0.8307218,13
8.7,-40.01746,1.705513,-31.7945,-0.1594409572237101,-0.0689407839130321,-0.1950680661954091,52.06572,49.99263,181.572,0.3741958,-0.4029492,0.8168479,13
8.72,-40.05162,1.112842,-31.78828,-0.1618288473548448,-0.1272296598594511,-0.2036543131696566,48.09787,47.02696,179.5761,0.3657136,-0.3723288,0.8367644,13
8.74,-39.96542,1.313023,-31.72109,-0.14285236604029,-0.0707545802555436,-0.1984924768832239,51.42725,47.56866,179.144,0.3663139,-0.3942991,0.8231243,13
8.76,-39.87884,1.510234,-31.65459,-0.109522066419827,-0.0994177282094031,-0.1802801570790047,54.75817,48.10968,178.7317,0.3665772,-0.4159064,0.8087428,13
8.78,-39.75308,1.102096,-31.53025,-0.0730969487509973,-0.1274309125661049,-0.1612458364568016,59.71453,43.25266,174.0839,0.34309,-0.4456853,0.7956762,13
8.8,-39.66735,1.29552,-31.46653,-0.0297834831954277,-0.0682035784963153,-0.1414596271105899,62.96196,43.15513,172.9828,0.3427626,-0.4655147,0.7798092,13
8.82,-39.58158,1.486128,-31.40372,0.0303543489772497,-0.0848227284467211,-0.1052239155896748,66.2064,42.88994,171.7284,0.3421292,-0.4849265,0.7632632,13
8.84,-39.40306,1.128903,-31.23199,0.0921263328575383,-0.102034761928767,-0.0689929169900955,60.95578,34.31507,166.7575,0.3084237,-0.4520862,0.8007263,13
8.86,-39.31655,1.312827,-31.16975,0.1413382871769366,-0.0355143400122144,-0.0473154853977475,64.03619,33.23759,164.5667,0.3085171,-0.4708789,0.7847456,13
8.88,-39.23044,1.493962,-31.10878,0.1904821298878403,0.0292768278824163,-0.0264118390651093,67.09233,31.72351,161.9539,0.3083417,-0.489264,0.7680985,13
8.9,-39.14488,1.672378,-31.04915,0.2396138368906104,-0.0015669269099693,-0.0006114666235221,70.11169,29.58313,158.7275,0.3078998,-0.5072251,0.7508013,13
8.92,-39.05869,1.195585,-30.94625,0.2890154466689356,-0.0343112074488168,0.0252292153886966,48.27385,41.17142,173.2267,0.342921,-0.3631847,0.8443152,13
8.94,-38.96993,1.371755,-30.88354,0.3370853644545217,0.0305618463614202,0.0435917086910957,51.42511,41.36863,172.356,0.3445915,-0.3837745,0.8308157,13
8.96,-38.84069,1.239132,-30.79468,0.3853769446119512,0.0269046721060152,0.063609763609131,32.01922,46.23246,175.3715,0.3873058,-0.2382095,0.8789464,13
8.98,-38.73966,1.408278,-30.72521,0.4338489505789606,0.022288400627356,0.0837274084404313,35.5573,46.8681,174.9659,0.3906388,-0.2632539,0.8675248,13
9.0,-38.63979,1.573748,-30.65778,0.4759310328591617,0.0830454231885512,0.0966003936258435,39.09895,47.50126,174.5912,0.3935676,-0.2880316,0.8552226,13
9.02,-38.54131,1.735679,-30.59249,0.5116876653470745,0.0735997097708346,0.1107794243215676,42.64423,48.13683,174.249,0.3960885,-0.3125215,0.8420511,13
9.04,-38.48227,1.271736,-30.52761,0.5454211257861754,0.0634333445049529,0.1237383438571804,2.336049,54.40092,177.9884,0.457258,-0.0101054,0.8889275,13
9.06,-38.37762,1.437913,-30.45922,0.5781428202857217,0.120187850737987,0.1341649184963369,5.911826,55.26656,178.0962,0.4638888,-0.03798418,0.8842363,13
9.08,-38.27435,1.600284,-30.39298,0.6062720852396009,0.1736891425290753,0.1419320150232534,9.484532,56.14549,178.2596,0.4700351,-0.06581602,0.8786381,13
9.1,-38.2539,1.285197,-30.35077,0.6153008978866925,0.1333269648492855,0.1459636643332178,353.3112,56.96428,178.7681,0.4754939,0.05639182,0.8777174,13
9.12,-38.1481,1.448351,-30.28196,0.6204585207306632,0.0910786733153908,0.1488056672656528,356.8947,57.79596,179.0449,0.4828596,0.02774714,0.875239,13
9.14,-38.04383,1.607636,-30.21544,0.639245267766313,0.1390066651722597,0.1552310453831236,0.4726302,58.64288,179.3732,0.4897169,-0.000917525,0.8718547,13
9.16,-38.0057,1.28255,-30.14746,0.636719981542619,0.1119765513099305,0.1562433639193403,353.7861,57.88829,179.7883,0.4831572,0.04832284,0.8738528,13
9.18,-37.90128,1.444434,-30.0783,0.6296790467237887,0.0848580082734438,0.1559116045869419,357.343,58.71215,180.1619,0.4901321,0.01951468,0.8713389,13
9.2,-37.79844,1.602512,-30.01149,0.6259060726245407,0.1247460223746831,0.1507555984095021,0.8931959,59.55751,180.5861,0.4965961,-0.009305174,0.867932,13
9.22,-37.79499,1.25031,-29.97235,0.6016417338548612,0.0911116219557719,0.1402682235726109,359.4196,58.74562,181.4058,0.4905012,-0.001603169,0.8713395,13
9.24,-37.69096,1.414935,-29.90481,0.5727616913674636,0.0583887701731607,0.1277631212633965,2.997331,59.6038,181.784,0.4964193,-0.03042678,0.8675494,13
9.26,-37.5884,1.575817,-29.83948,0.5574423333322356,0.1006137328750313,0.1184295811132862,6.568194,60.48932,182.2177,0.5018145,-0.05921111,0.8628607,13
9.28,-37.48754,1.733127,-29.77646,0.5371753006324056,0.1405121052079811,0.1064190296868976,10.13076,61.40952,182.7111,0.506682,-0.08792558,0.8572789,13
9.3,-37.59084,1.231936,-29.78947,0.4791066525340142,0.0812791401353451,0.0797702260286778,8.269467,59.48481,182.9202,0.4930544,-0.07519151,0.8666351,13
9.32,-37.48592,1.400547,-29.72213,0.4177183018199928,0.022936976050289,0.0521761736479642,11.89247,60.39925,183.3063,0.4975165,-0.1039312,0.8607734,13
9.34,-37.38231,1.565368,-29.65684,0.3834067096099156,0.0604520759040776,0.0347490799963012,15.50774,61.35228,183.7582,0.5014433,-0.132552,0.8539999,13
9.36,-37.46207,1.199455,-29.65416,0.3189639412325737,0.020007169020471,0.0065192398792124,14.78242,59.60425,183.6956,0.4890207,-0.1274644,0.862151,13
9.38,-37.35966,1.375833,-29.58817,0.2520058128097684,-0.0175387841470907,-0.0224657103005796,18.37285,60.55101,184.0547,0.4925033,-0.1553933,0.8548484,13
9.4,-37.25816,1.548572,-29.52388,0.2110806828895377,0.0227139850475913,-0.0424747677454733,21.95587,61.54314,184.4858,0.4954661,-0.1831518,0.8466576,13
9.42,-37.32424,1.168087,-29.51219,0.1445882709413446,-0.0174719758100603,-0.0707932212355881,20.16497,57.96179,184.0989,0.4712535,-0.1701062,0.8637545,13
9.44,-37.22515,1.352642,-29.44727,0.0768540175045577,-0.0542765543261675,-0.0992168874171763,23.70941,58.88908,184.3279,0.4739984,-0.1969336,0.8554639,13
9.46,-37.12655,1.53374,-29.38369,0.0345984824136085,-0.0090402247537444,-0.1181930337468415,27.24873,59.85913,184.628,0.4762577,-0.2235531,0.8463115,13
9.48,-37.02862,1.711462,-29.32155,-0.0080223336371769,0.0354288943454867,-0.137420949970819,30.78148,60.88349,185.0078,0.4780297,-0.2499358,0.8363078,13
9.5,-37.17227,1.138901,-29.35916,-0.0831391491451167,-0.0312130400649749,-0.1699869775615865,26.32278,55.05982,184.008,0.4427345,-0.2175279,0.8666287,13
9.52,-37.07687,1.331319,-29.29459,-0.1578276628280006,-0.0953680664756684,-0.2014108752340777,29.81486,55.91384,184.0412,0.4447349,-0.2430683,0.8572925,13
9.54,-36.98153,1.520453,-29.23104,-0.1940460639371366,-0.049297094387025,-0.2143139113971939,33.30465,56.80198,184.1379,0.4462942,-0.2683599,0.8471208,13
9.56,-37.02481,1.121704,-29.21052,-0.2432548183362985,-0.0870691994958811,-0.2310657422056237,34.7537,51.31353,183.2817,0.4053403,-0.2809308,0.863615,13
9.58,-36.93246,1.319387,-29.14585,-0.2900664349634132,-0.1218069477424376,-0.2459994468839519,38.18554,52.01447,183.0548,0.4063805,-0.3049169,0.8528208,13
9.6,-36.8399,1.513913,-29.08196,-0.310166633161443,-0.0694169109660571,-0.2501428218153863,41.6184,52.73246,182.8725,0.407029,-0.3286063,0.8412197,13
9.62,-36.81352,1.11495,-29.03927,-0.3335134472831766,-0.1014769257053942,-0.2538827729093351,43.29987,50.72591,181.7695,0.392938,-0.3394818,0.8422076,13
9.64,-36.72305,1.314982,-28.97558,-0.3534501171352149,-0.1311403174871789,-0.2557640809716162,46.67576,51.33301,181.4496,0.3931468,-0.3620666,0.8296921,13
9.66,-36.63224,1.511971,-28.91259,-0.357565849382321,-0.0732373143085034,-0.251034138816943,50.05281,51.95153,181.1634,0.3929877,-0.3843102,0.8164161,13
9.68,-36.54127,1.70593,-28.85039,-0.364617352076876,-0.10091659148808,-0.2464780572807372,53.43081,52.58904,180.9163,0.3924617,-0.4061939,0.8023918,13
9.7,-36.5462,1.109861,-28.82454,-0.3678899211956405,-0.1268314410541325,-0.2401327294298569,50.71824,49.38099,178.7614,0.3816497,-0.3850324,0.8190463,13
9.72,-36.45713,1.309037,-28.76254,-0.3676751178763702,-0.1543803401187964,-0.2320564186577121,54.03097,49.80034,178.2431,0.3813688,-0.4062081,0.8050427,13
9.74,-36.36778,1.505287,-28.70123,-0.3315292063120392,-0.1519637565986518,-0.1986974337015694,57.34492,50.20058,177.724,0.3807425,-0.4270152,0.7903243,13
9.76,-36.20636,1.104423,-28.56049,-0.2919342973637127,-0.1480197286436009,-0.164486816751828,61.24368,43.03026,171.2129,0.350978,-0.4483072,0.7839223,13
9.78,-36.1177,1.295352,-28.50169,-0.2492218342270886,-0.1458594677288734,-0.129495861345585,64.44456,42.47883,169.6638,0.3499936,-0.4673603,0.7679169,13
9.8,-36.02921,1.483491,-28.44386,-0.2095599634140681,-0.0583731427400038,-0.1025742942603171,67.63537,41.62619,167.8269,0.3487017,-0.4860004,0.7512518,13
9.82,-35.84057,1.144347,-28.27502,-0.1653413513758392,-0.0709498463269822,-0.0666593980876375,58.37292,37.39315,167.8482,0.3271777,-0.4297031,0.8057755,13
9.84,-35.75106,1.326079,-28.21656,-0.1188419895607229,-0.0837904988673943,-0.0302376679649123,61.45675,36.55124,165.9225,0.3269847,-0.4485061,0.7904537,13
9.86,-35.66212,1.505008,-28.15939,-0.0843149266317633,-0.0183392355800137,-0.0098429066155429,64.52234,35.37534,163.6785,0.3265113,-0.4669255,0.774469,13
9.88,-35.57391,1.681208,-28.10359,-0.0429522206866943,-0.0200243311312594,0.0174942739900045,67.56117,33.73715,160.9859,0.32576,-0.4849454,0.7578363,13
9.9,-35.48346,1.212025,-28.00904,-0.0002934271088728,-0.0223613998466968,0.0449131300960399,43.03018,45.07098,174.0003,0.3737897,-0.3196186,0.8507504,13
9.92,-35.38923,1.386004,-27.94803,0.043280374017665,-0.0284763790202282,0.07232867404905,46.28255,45.41119,173.3155,0.375471,-0.3412326,0.8379879,13
9.94,-35.29594,1.556904,-27.88865,0.0864747091564606,-0.0100956519126789,0.0948257470001894,49.53666,45.71291,172.6161,0.3768191,-0.3625428,0.8244982,13
9.96,-35.19412,1.257221,-27.81149,0.1306720766373583,0.0084797407779305,0.1170051942424326,20.00017,51.42398,176.6054,0.431703,-0.1437322,0.8846773,13
9.98,-35.09025,1.425271,-27.7458,0.1692223928340084,0.0700840194525177,0.1345763271410014,23.53555,52.18332,176.4438,0.4360407,-0.1697136,0.8760092,13
10.0,-34.98768,1.589618,-27.68209,0.2054083509501048,0.1287353682253149,0.1498530281405887,27.07366,52.95298,176.3296,0.4399327,-0.1955321,0.8664624,13
10.02,-34.9128,1.275694,-27.59836,0.2226475677329844,0.0922251928217096,0.1584961283158432,358.3703,56.59703,178.2085,0.4737638,0.01993047,0.8803985,13
10.04,-34.8067,1.441233,-27.53272,0.2386316652860118,0.0543137231767456,0.1661197099201117,1.933292,57.41427,178.3564,0.4804272,-0.007906983,0.8767552,13
10.06,-34.70207,1.602979,-27.46918,0.2585520665209175,0.1054777375507703,0.1723670002687862,5.492863,58.24322,178.5558,0.4865949,-0.03572913,0.8722222,13
10.08,-34.59914,1.761094,-27.40785,0.2686383752659997,0.0874572296176229,0.1795169988208842,9.048102,59.09047,178.8087,0.492261,-0.06350682,0.866805,13
10.1,-34.59623,1.293812,-27.35583,0.2759059132705115,0.0684266694799415,0.1854192975030586,352.8302,58.50123,179.2871,0.4873258,0.05758744,0.8709568,13
10.12,-34.48931,1.455189,-27.2883,0.2919900342468482,0.116642798088808,0.1932014349400868,356.4078,59.28453,179.61,0.4942446,0.02892311,0.8687512,13
10.14,-34.38406,1.612682,-27.22307,0.2877300862646024,0.0888448012988335,0.1935787136731148,359.9796,60.0856,179.981,0.5006468,0.0002369294,0.8656518,13
10.16,-34.39474,1.261998,-27.182,0.2802026547664411,0.0612642828243726,0.1925182455474585,355.7567,58.81818,180.5969,0.4908668,0.02969403,0.8704323,13
10.18,-34.29092,1.425733,-27.11524,0.2785713851288802,0.1032104919512809,0.1893606927847573,359.3001,59.6138,180.9568,0.4970962,0.001148862,0.8676339,13
10.2,-34.18863,1.585764,-27.05065,0.2727039951345977,0.1426064215499535,0.1834774094249938,2.837166,60.43177,181.3662,0.5028145,-0.02738929,0.8639576,13
10.22,-34.19194,1.24054,-27.00396,0.2343785300923633,0.0845698345103213,0.1640837947351352,4.007244,59.33854,182.0925,0.494053,-0.03940687,0.8685373,13
10.24,-34.08692,1.40671,-26.93657,0.2082962545318434,0.1026890170168088,0.1476604839288926,7.62431,60.18539,182.4686,0.4989359,-0.0682878,0.8638189,13
10.26,-33.98335,1.569082,-26.87128,0.1794761872024484,0.1205228759595271,0.1297384016006946,11.235,61.06447,182.9028,0.5032855,-0.09709298,0.8581915,13
10.28,-33.88146,1.727825,-26.80821,0.1213178933604668,0.0619316053247541,0.1008797321814882,14.83748,61.98388,183.4004,0.5070983,-0.1257875,0.8516623,13
10.3,-34.00966,1.217246,-26.83143,0.0612626011379147,0.0045593352593681,0.0716675319780297,11.90682,59.66897,183.3883,0.4919368,-0.1045626,0.8639361,13
10.32,-33.90574,1.389496,-26.76488,0.029242917730385,0.0437411333934934,0.053134854324174,15.51848,60.56112,183.7536,0.4955316,-0.1328911,0.8574307,13
10.34,-33.80298,1.558022,-26.70017,-0.0293495251804021,0.0043702346245757,0.0244891787914576,19.12297,61.49447,184.1856,0.4985999,-0.1610718,0.8500278,13
10.36,-33.88899,1.183038,-26.70045,-0.0890811808131517,-0.031987490753904,-0.0041742329523564,17.42292,58.99617,183.9388,0.4818965,-0.1484736,0.8623861,13
10.38,-33.78841,1.363547,-26.63495,-0.1230674555114541,0.0107511209142318,-0.023789322388211,20.99091,59.89959,184.2436,0.4847082,-0.1758992,0.8547497,13
10.4,-33.68855,1.540514,-26.57092,-0.1576678244575728,0.0524284617779595,-0.04363245604481,24.55275,60.8469,184.6182,0.4870185,-0.2031371,0.8462425,13
10.42,-33.75645,1.152954,-26.5595,-0.2286257743359292,-0.0144543137068996,-0.0800207913375441,23.0849,56.13134,184.074,0.4544014,-0.192838,0.8673637,13
10.44,-33.65969,1.341647,-26.49429,-0.2741106903318542,0.0036273986333797,-0.1073676051165675,26.60465,56.98302,184.1954,0.4565167,-0.2190794,0.8587514,13
10.46,-33.5632,1.526979,-26.43021,-0.3179507273909463,0.0231121010442267,-0.1334666744752723,30.12094,57.87122,184.3812,0.4581745,-0.2450936,0.849292,13
10.48,-33.46717,1.70901,-26.36737,-0.3830376906846817,-0.0415245605659675,-0.1668432868366922,33.63308,58.8068,184.6396,0.4593733,-0.2708569,0.8389954,13
10.5,-33.59579,1.128632,-26.39793,-0.4463547682519566,-0.1037674980807365,-0.1980563076248112,30.06709,52.7025,183.74,0.420868,-0.2462968,0.8687165,13
10.52,-33.50259,1.324153,-26.3327,-0.4720827873702431,-0.0548196638055886,-0.2123641121916857,33.52965,53.44681,183.6392,0.4221732,-0.2711765,0.8589118,13
10.54,-33.40931,1.516467,-26.26832,-0.5057986298283002,-0.0900116442829068,-0.2290482931740141,36.992,54.21519,183.5903,0.4230678,-0.2957886,0.8482863,13
10.56,-33.42353,1.117079,-26.24106,-0.5360839479089652,-0.1223236820829183,-0.2431071602257799,39.65064,50.21275,182.7037,0.3917959,-0.3164424,0.8550103,13
10.58,-33.3327,1.316224,-26.17633,-0.5424851025875395,-0.0673968589894133,-0.2482777138317078,43.05313,50.80275,182.3935,0.3920264,-0.3397213,0.8434201,13
10.6,-33.24159,1.512277,-26.1123,-0.5444930289655971,-0.0133195475461049,-0.2510067591519842,46.45698,51.40107,182.1153,0.3918865,-0.3626778,0.8310476,13
10.62,-33.19944,1.113681,-26.05787,-0.5594944357310658,-0.0741164353730958,-0.259829932160351,46.3983,49.54128,180.3874,0.3838966,-0.3589838,0.8351265,13
10.64,-33.11057,1.313959,-25.9938,-0.5601703531229378,-0.0452743780377202,-0.2625194115594791,49.74352,50.04394,179.9978,0.3837437,-0.3811073,0.8220987,13
10.66,-33.02138,1.511253,-25.93036,-0.555849249396358,-0.0153147765378774,-0.2622262980105554,53.09,50.54624,179.6275,0.3832395,-0.402881,0.8083324,13
10.68,-32.98047,1.107072,-25.88136,-0.5409252935513353,-0.0727800336289797,-0.250972031236071,53.32888,48.09804,177.71,0.3722951,-0.4024512,0.8122613,13
10.7,-32.89253,1.30526,-25.8194,-0.522233858731092,-0.1303990493283812,-0.2375138504665499,56.61655,48.36484,177.071,0.371592,-0.4232423,0.7979222,13
10.72,-32.80438,1.500579,-25.75813,-0.4856972484738415,-0.0734744209432107,-0.2165597053661487,59.90449,48.58367,176.4002,0.3705581,-0.4436531,0.7828879,13
10.74,-32.61475,1.109084,-25.59392,-0.4313643800071398,-0.0952159113401098,-0.1780055664000062,62.66433,39.04803,167.8628,0.3356774,-0.4571742,0.78217,13
10.76,-32.52667,1.297563,-25.53491,-0.3738255067594207,-0.1173086571081187,-0.1379515550023073,65.79932,37.95221,165.7719,0.3345345,-0.4758837,0.7660069,13
10.78,-32.43888,1.483276,-25.47691,-0.3242209560702314,-0.053891499829853,-0.1084838435252955,68.91142,36.3863,163.2234,0.3331016,-0.4941791,0.7491942,13
10.8,-32.35149,1.666276,-25.42,-0.2726181370219156,0.0078430274207026,-0.078183035603268,71.98846,34.11738,159.9825,0.33138,-0.5120468,0.7317458,13
10.82,-32.24869,1.161746,-25.30303,-0.2189085598963114,-0.0274890821466231,-0.0406274867874159,55.76521,37.29219,168.8049,0.3244785,-0.4134364,0.8189347,13
10.84,-32.1594,1.341329,-25.24347,-0.1783441822135549,0.0140104534151571,-0.0185610588425206,58.84962,36.6367,167.0942,0.3244337,-0.4326645,0.8042712,13
10.86,-32.07079,1.518088,-25.18526,-0.1373330339827969,0.0552446977704902,0.0033971723889294,61.92024,35.72078,165.1396,0.3241141,-0.4515262,0.7889414,13
10.88,-31.93931,1.228837,-25.07401,-0.0920201203385491,0.0274027017776299,0.0283765395432538,37.77464,45.55275,174.7606,0.37955,-0.2814124,0.8657389,13
10.9,-31.84304,1.400594,-25.00941,-0.0451076912315313,-0.0026249824585269,0.0546917915709905,41.12568,45.99013,174.2178,0.3816047,-0.3044652,0.8538713,13
10.92,-31.74784,1.569067,-24.94654,0.0024943887937167,0.0584331991163413,0.0762063699277293,44.47882,46.40675,173.6808,0.3833058,-0.327234,0.8412278,13
10.94,-31.65903,1.263592,-24.87242,0.0451202150542324,0.0494025816628207,0.0980842107672042,13.85941,51.99922,177.197,0.4376849,-0.09776545,0.8906709,13
10.96,-31.55597,1.431176,-24.80493,0.0879825329821599,0.0395119878347354,0.1202241631976086,17.39946,52.76068,177.1279,0.4424738,-0.124455,0.8835948,13
10.98,-31.45424,1.595046,-24.73944,0.129142080404669,0.095884588087337,0.1395913252136216,20.94034,53.53326,177.1073,0.4468133,-0.1510219,0.8756369,13
11.0,-31.35404,1.755361,-24.67605,0.1675386599255013,0.1490873579074376,0.1573839637008034,24.48014,54.32391,177.1387,0.4507004,-0.1774307,0.8668072,13
11.02,-31.36901,1.279234,-24.64472,0.1886745819129109,0.108220752514744,0.1706617392224729,354.4283,56.61569,178.4346,0.4730197,0.049257,0.8796049,13
11.04,-31.26392,1.443956,-24.57719,0.2118040816132906,0.136721374164574,0.1804903468690377,357.991,57.3793,178.637,0.4797744,0.02108695,0.8771362,13
11.06,-31.16032,1.604878,-24.51178,0.2316873843353288,0.163459027998491,0.1889542300934561,1.549582,58.15451,178.8868,0.4860359,-0.007096717,0.8737803,13
11.08,-31.10465,1.296001,-24.42584,0.2330047088147639,0.1155364537307832,0.1927661618291813,353.4664,57.24563,179.5136,0.4780464,0.05205082,0.876474,13
11.1,-30.99982,1.456791,-24.35526,0.2310380729735675,0.0664072325562382,0.1961344818136372,357.0402,57.99219,179.8532,0.4845589,0.02320985,0.8743764,13
11.12,-30.89665,1.613703,-24.287,0.2400181251763609,0.106529337142482,0.2000280076596476,0.6081794,58.75816,180.2387,0.490568,-0.005646812,0.8713844,13
11.14,-30.91054,1.254617,-24.25678,0.2307238767909263,0.0728144352125387,0.1976470879571406,357.4293,57.72803,181.1635,0.4827857,0.01474377,0.8753926,13
11.16,-30.8084,1.418932,-24.18802,0.2179973922634914,0.0396927619087151,0.19422828719643,0.9801659,58.49549,181.5152,0.4884277,-0.01392237,0.8724624,13
11.18,-30.70776,1.57956,-24.1214,0.2184293420832546,0.0800382761860144,0.1929413649576496,4.524916,59.28629,181.9155,0.4935685,-0.04256633,0.8686504,13
11.2,-30.6088,1.736664,-24.05704,0.2150446755184041,0.1178622534152627,0.18969461966633,8.062682,60.10668,182.3677,0.4982031,-0.07115896,0.8639612,13
11.22,-30.70755,1.2377,-24.07059,0.1761271815416472,0.0574889705986886,0.1707696557821378,6.174012,58.38067,182.6166,0.4858044,-0.0581205,0.8721102,13
11.24,-30.6039,1.404767,-24.00086,0.1506741602258272,0.072908171627871,0.1540717275655581,9.8016,59.20269,182.996,0.4900464,-0.0871214,0.8671119,13
11.26,-30.50165,1.56803,-23.93318,0.1226051891367885,0.0884126833868725,0.1362308795172815,13.42227,60.05932,183.4337,0.4937649,-0.1160221,0.8612006,13
11.28,-30.58522,1.20859,-23.93357,0.0645122859001259,0.0255948871869192,0.1055730615938514,13.4556,58.26408,183.5645,0.4800551,-0.11732,0.8688395,13
11.3,-30.4838,1.382908,-23.86473,0.0044829040356244,-0.0354257249256938,0.074894187595627,17.05961,59.12408,183.918,0.4832132,-0.1456186,0.8621997,13
11.32,-30.3834,1.553545,-23.79762,-0.0236516350036781,0.0022738592817296,0.0567837357737492,20.65691,60.02566,184.3366,0.4858627,-0.1737573,0.8546656,13
11.34,-30.45725,1.175648,-23.79628,-0.0774513993319101,-0.0397219797938987,0.0287054913416291,18.74834,57.2318,184.0776,0.4671537,-0.159706,0.8683541,13
11.36,-30.35919,1.358191,-23.72868,-0.1320249155070914,-0.078456528291582,0.0011827384952254,22.30511,58.09064,184.3461,0.4695786,-0.1870363,0.8606706,13
11.38,-30.26171,1.537242,-23.66244,-0.1596486084874797,-0.0359851545979596,-0.0163401737046045,25.85653,58.99132,184.6812,0.4715236,-0.2141694,0.8521203,13
11.4,-30.16502,1.712893,-23.59768,-0.1872707156439519,0.0056076657920192,-0.0334692678247856,29.40117,59.94455,185.0909,0.4729873,-0.2410749,0.8427139,13
11.42,-30.31868,1.145371,-23.64941,-0.2486529715166274,-0.0633632019115429,-0.0665493628131486,24.61235,54.31464,184.0802,0.4389141,-0.2053939,0.8722246,13
11.44,-30.22439,1.336085,-23.58231,-0.2841294649112793,-0.0456439503176218,-0.0900417848708814,28.11827,55.11108,184.1586,0.4406415,-0.2315069,0.8635176,13
11.46,-30.13026,1.523489,-23.51622,-0.3174189597659516,-0.0264342326011314,-0.1118104351796827,31.62142,55.94087,184.297,0.4419332,-0.2573829,0.8539696,13
11.48,-30.19536,1.124783,-23.51103,-0.3667738704140739,-0.0919075490361465,-0.1389949131934735,32.10069,50.09336,183.5542,0.3988904,-0.2629789,0.8738592,13
11.5,-30.1047,1.321681,-23.44349,-0.4140222560179443,-0.1552969023061407,-0.1638556228509569,35.54725,50.7498,183.3695,0.3998002,-0.2876852,0.8638722,13
11.52,-30.01387,1.515408,-23.37671,-0.4258699533519614,-0.1060288938662328,-0.172597572717017,38.99438,51.42198,183.2269,0.4003259,-0.3121118,0.8530692,13
11.54,-30.00368,1.115518,-23.34336,-0.4426919647935277,-0.1410160694255944,-0.1830194104461826,41.87968,48.89603,182.3871,0.3796733,-0.333324,0.8531116,13
11.56,-29.91489,1.315286,-23.27693,-0.4560274990894251,-0.1734505868921901,-0.1907556489472677,45.26891,49.42724,182.0597,0.3795361,-0.3564805,0.8411987,13
11.58,-29.82581,1.511998,-23.21112,-0.4500800434072127,-0.1184245216357488,-0.1904363800129744,48.65923,49.96327,181.7585,0.3790451,-0.3793025,0.8285151,13
11.6,-29.7366,1.70567,-23.14605,-0.4400151205814304,-0.0643329806998166,-0.187563932859625,52.05036,50.5093,181.4866,0.378201,-0.4017691,0.8150735,13
11.62,-29.76777,1.112864,-23.14152,-0.4239841345588102,-0.1267529566494384,-0.1758939805988646,48.08552,47.84426,179.5741,0.3716963,-0.3710411,0.8341721,13
11.64,-29.68073,1.313081,-23.076,-0.3975847439058517,-0.1001202749346657,-0.1609236160581284,51.41394,48.2535,179.1226,0.37132,-0.3930445,0.8209322,13
11.66,-29.59337,1.510349,-23.01109,-0.3677093985758266,-0.0728901198803243,-0.1441929047231629,54.74334,48.64957,178.676,0.3706084,-0.4146914,0.806965,13
11.68,-29.46375,1.102118,-22.88984,-0.3347151788226208,-0.0483847521533741,-0.1257882744257648,59.69186,43.93547,174.089,0.3478336,-0.4441927,0.7937225,13
11.7,-29.37751,1.295597,-22.8274,-0.2864536539265381,-0.0463979106365543,-0.0950141233384909,62.93725,43.69724,172.9611,0.346567,-0.4641348,0.7782415,13
11.72,-29.29129,1.486276,-22.76577,-0.23533884884238,-0.0427684752772571,-0.0629657880080918,66.17813,43.27034,171.6572,0.3449972,-0.4836669,0.7620939,13
11.74,-29.10948,1.128834,-22.59629,-0.1817361687571757,-0.0407827941277594,-0.0297104967451242,60.96,34.73285,166.7445,0.3113901,-0.4511905,0.7995498,13
11.76,-29.02291,1.31282,-22.53474,-0.1312926546741843,-0.0253612189034179,0.002533422678236,64.03535,33.50848,164.52,0.310563,-0.470132,0.7839119,13
11.78,-28.9368,1.494035,-22.47435,-0.0801733628478036,-0.0085425448029984,0.0349260060256546,67.08298,31.8258,161.8503,0.3094709,-0.4886727,0.7676195,13
11.8,-28.8513,1.672547,-22.4152,-0.0287351816225052,0.0065260073406232,0.0674155850806372,70.0894,29.48699,158.5359,0.308117,-0.5067974,0.7506876,13
11.82,-28.76336,1.195505,-22.31181,0.0314458550419933,-0.0487865553833823,0.1075608760231872,48.2954,41.20107,173.2,0.3432066,-0.3632164,0.8441056,13
11.84,-28.67504,1.371732,-22.24907,0.0900451021739998,-0.0052443689545717,0.139598234813314,51.44319,41.25855,172.2992,0.3439683,-0.3839391,0.8309755,13
11.86,-28.5875,1.545084,-22.18779,0.1484284579281567,0.0369721165717653,0.1713261651734301,54.59026,41.23449,171.3359,0.3444432,-0.4043411,0.8171676,13
11.88,-28.47114,1.25016,-22.10572,0.2061394123474369,0.0748574796654706,0.2026286971970607,26.1932,47.70497,176.0302,0.4008067,-0.1934739,0.8870925,13
11.9,-28.37082,1.418735,-22.03584,0.2443334733297528,0.0856112489316043,0.2195534427841159,29.72003,48.31743,175.7492,0.4039839,-0.2191649,0.8774006,13
11.92,-28.27175,1.583651,-21.96791,0.2813822190381034,0.0969852472966026,0.2356426887732512,33.24958,48.93188,175.5022,0.4067534,-0.2446403,0.8668387,13
11.94,-28.20589,1.271867,-21.89642,0.3167486368906265,0.1060195064049825,0.2507458187321445,2.364234,53.57153,177.9697,0.4508154,-0.01043138,0.8922032,13
11.96,-28.10306,1.438246,-21.8266,0.3459263182223959,0.1136253127309023,0.2654205517679595,5.92661,54.31965,178.0538,0.4565793,-0.03824767,0.8880183,13
11.98,-28.00161,1.600858,-21.75882,0.3720234299324341,0.1215348110193951,0.2784471511154924,9.486497,55.07864,178.1857,0.4618769,-0.06601702,0.8829411,13
12.0,-27.90176,1.759855,-21.6932,0.3944450935722243,0.1269019589849067,0.289660792182592,13.04333,55.85472,178.3674,0.4667036,-0.09371241,0.8769779,13
12.02,-27.90209,1.291509,-21.64978,0.4061611032657133,0.0588879106925821,0.3009118924496885,352.2137,56.19222,179.0625,0.4693595,0.06373701,0.8803555,13
12.04,-27.79793,1.453526,-21.57833,0.4309930710427223,0.0832327089930876,0.3156265383860108,355.7967,56.90139,179.3487,0.475891,0.03494877,0.8787212,13
12.06,-27.69537,1.611663,-21.50913,0.4511764114783987,0.1060105178419328,0.3282127567451116,359.3749,57.62585,179.6782,0.4819289,0.006133088,0.876189,13
12.08,-27.69859,1.269703,-21.46446,0.466127766693877,0.1245132004631379,0.3385154015155986,354.1006,56.5658,180.0191,0.4732053,0.04523729,0.8794482,13
12.1,-27.59779,1.432876,-21.39302,0.4576450891856738,0.1129947425351045,0.3310898379997886,357.6378,57.27676,180.3785,0.4792354,0.01650778,0.8774385,13
12.12,-27.49848,1.592338,-21.32377,0.4450047968868591,0.102999723787084,0.321417847385498,1.169315,58.00869,180.7813,0.4847787,-0.01223001,0.8745511,13
12.14,-27.49785,1.246043,-21.28605,0.4276580028128136,0.0917597012411396,0.3093627455303527,1.396238,57.11653,181.6134,0.4778187,-0.01743094,0.8782613,13
12.16,-27.39589,1.411083,-21.21456,0.4030542420369638,0.0825524729512071,0.2941315827795678,5.002779,57.87164,181.9797,0.4826367,-0.04654005,0.8745627,13
12.18,-27.29538,1.57234,-21.1452,0.375229319053481,0.0754023195863547,0.2772515426910411,8.603706,58.65496,182.3964,0.4869465,-0.07559639,0.8699566,13
12.2,-27.19655,1.729986,-21.07808,0.3436497313402755,0.0674442766661303,0.2585881112422181,12.19746,59.47335,182.8681,0.4907441,-0.1045658,0.8644484,13
12.22,-27.3199,1.226191,-21.10943,0.2855346265688028,-0.0186579275006059,0.2295338020420159,10.34072,57.30581,183.1942,0.4751618,-0.0923608,0.8748349,13
12.24,-27.21832,1.396417,-21.03828,0.2536802809400589,-0.0060937954449077,0.2110345577714754,13.96231,58.11251,183.5502,0.478545,-0.1211275,0.8690747,13
12.26,-27.11797,1.562884,-20.96902,0.2187860813544633,0.0075250483069691,0.1909223335279346,17.57747,58.95652,183.9658,0.4814217,-0.149759,0.8624073,13
12.28,-27.20892,1.190834,-20.98344,0.180351681089772,0.0193577776392987,0.1691045518068228,16.09279,57.27805,183.7954,0.4702428,-0.1384979,0.8707613,13
12.3,-27.1104,1.369325,-20.91372,0.1318145072695635,0.0033138518589422,0.1391177241692047,19.67256,58.10971,184.1278,0.4728192,-0.166471,0.8637342,13
12.32,-27.01267,1.544238,-20.84553,0.0823124628331934,-0.0090019695575805,0.1088493583834147,23.24621,58.98383,184.5248,0.474907,-0.1942661,0.8558273,13
12.34,-27.08614,1.160715,-20.846,0.0314021510710325,-0.0206340275663522,0.0782297415959263,21.58317,54.69979,184.1212,0.4450267,-0.1824265,0.875038,13
12.36,-26.99116,1.347424,-20.77711,-0.0198699127430268,-0.0337671764609112,0.0465857305357286,25.11629,55.49062,184.2812,0.4468995,-0.2092701,0.8670304,13
12.38,-26.89654,1.530737,-20.70938,-0.0707167641329014,-0.0427673303312369,0.0156179778495606,28.64591,56.31701,184.5018,0.4483246,-0.2358981,0.8581672,13
12.4,-26.80249,1.710723,-20.64293,-0.1215303012262181,-0.0508213493539274,-0.014741423310423,32.17084,57.18903,184.7904,0.4493014,-0.2622819,0.8484586,13
12.42,-26.94459,1.132679,-20.69285,-0.1890485964595369,-0.1437499059731561,-0.0501078248849173,28.03959,51.46115,183.969,0.4133978,-0.2326916,0.8771291,13
12.44,-26.8534,1.326877,-20.6242,-0.2191963179707006,-0.1238912031411362,-0.0669818883621178,31.51701,52.16446,183.9265,0.414531,-0.2582793,0.8679898,13
12.46,-26.7622,1.517849,-20.55639,-0.2473870642298008,-0.1022049682126736,-0.0823810250776087,34.99354,52.89246,183.9344,0.415262,-0.2836116,0.8580214,13
12.48,-26.79726,1.118686,-20.53934,-0.2739848670712179,-0.0819372291315134,-0.0963841201329858,37.40779,47.98841,183.0278,0.3772942,-0.3030404,0.8684819,13
12.5,-26.7087,1.317219,-20.47103,-0.2944896268561781,-0.0889596848608094,-0.1114113755712717,40.82338,48.51924,182.7245,0.3774055,-0.32703,0.857614,13
12.52,-26.61991,1.512645,-20.40337,-0.3113795922661846,-0.0923001136209909,-0.1242243162028748,44.24004,49.054,182.4484,0.3771611,-0.3507085,0.8459516,13
12.54,-26.59223,1.114468,-20.36496,-0.324982530229907,-0.0953453679465375,-0.1349107929031285,44.70248,47.82804,181.1413,0.3714295,-0.3513546,0.8469679,13
12.56,-26.50559,1.314819,-20.29746,-0.3235278053742036,-0.0128507327605734,-0.138658808481388,48.06341,48.29805,180.796,0.3710595,-0.3741886,0.8345279,13
12.58,-26.41864,1.512171,-20.23053,-0.3250815307068002,-0.0449978519842032,-0.140639948914099,51.4252,48.76865,180.4702,0.3703506,-0.3966787,0.8213392,13
12.6,-26.33153,1.706537,-20.16428,-0.323308194892371,-0.0752147434334854,-0.1404536116053356,54.78766,49.24376,180.1658,0.3693038,-0.418805,0.8074144,13
12.62,-26.22864,1.10364,-20.05387,-0.3185078176530598,-0.1069051079296726,-0.1381639988634022,56.53459,44.77036,176.2329,0.3496282,-0.4266371,0.8080108,13
12.64,-26.14319,1.299455,-19.9892,-0.2789574017319784,-0.1084538626338125,-0.1099785095549008,59.81548,44.78001,175.4005,0.3484168,-0.4473955,0.7932147,13
12.66,-26.05766,1.492429,-19.92526,-0.2365010984203257,-0.1083060140682609,-0.0805981451906499,63.09467,44.68476,174.4768,0.3468983,-0.4677551,0.777734,13
12.68,-25.97219,1.68259,-19.86212,-0.1914791530504609,-0.1097750103967884,-0.0500982825259188,66.3717,44.44505,173.4207,0.3450742,-0.487702,0.7615807,13
12.7,-25.84987,1.117946,-19.73825,-0.1505426567738084,-0.0257281602234798,-0.0270972945344993,61.82827,35.67489,167.2481,0.3154867,-0.4568468,0.7941686,13
12.72,-25.76411,1.304143,-19.67598,-0.1053915177307036,-0.041604269764758,0.004765246659637,64.93687,34.45483,165.0852,0.3143066,-0.4759833,0.7783853,13
12.74,-25.67872,1.487578,-19.61476,-0.058597339169514,-0.057579492187058,0.0374610402252666,68.0192,32.7611,162.4607,0.3128577,-0.494713,0.7619498,13
12.76,-25.5236,1.178153,-19.45994,-0.0248517233172438,0.0049463391796319,0.0546244595940503,52.08011,37.93828,171.2222,0.3229752,-0.3915914,0.8362821,13
12.78,-25.43661,1.356052,-19.39646,0.0154498839422463,0.0004817283267699,0.0786705046896902,55.20275,37.63229,169.9584,0.3231105,-0.4118595,0.8225363,13
12.8,-25.35033,1.531108,-19.33436,0.0563401642895224,-0.0044690973383206,0.1031041547936979,58.31947,37.16837,168.5536,0.3229759,-0.4317836,0.8081185,13
12.82,-25.20282,1.239812,-19.22004,0.0974417447502324,-0.0130333788949728,0.1278232480622225,31.97728,45.5052,175.3818,0.3817243,-0.2388265,0.881498,13
12.84,-25.10628,1.40997,-19.15053,0.1378344550663621,0.0031138034703218,0.147071982187489,35.41759,45.99249,174.9804,0.3840634,-0.2634409,0.8708661,13
12.86,-25.01087,1.576668,-19.08282,0.1784859759580386,0.0196219592830487,0.1662694627579282,38.86005,46.47083,174.5979,0.3860334,-0.2878025,0.8594124,13
12.88,-24.91677,1.74002,-19.01704,0.2189349012046095,0.0334340669072877,0.1852600262917088,42.30558,46.94263,174.234,0.3876316,-0.3118971,0.8471445,13
12.9,-24.90797,1.268095,-18.99356,0.2542663778131477,0.1113875805053661,0.200565753609156,8.123786,51.89729,177.5843,0.437712,-0.0544783,0.8960753,13
12.92,-24.80651,1.435074,-18.92291,0.2709904588448921,0.0952183366820683,0.2077228733759515,11.67606,52.60615,177.5936,0.4426386,-0.08190872,0.8906701,13
12.94,-24.70641,1.598322,-18.85426,0.2856857210609935,0.078717259418431,0.2139087852281092,15.22695,53.32549,177.6486,0.4471179,-0.10925,0.8843789,13
12.96,-24.64155,1.285327,-18.76906,0.3025992305158858,0.1299840831596304,0.2181456098243055,353.3099,55.16183,178.7322,0.4616115,0.05682821,0.8850926,13
12.98,-24.53868,1.448717,-18.69717,0.3098029680226775,0.1122268113730562,0.2223911962904234,356.8837,55.8469,178.9667,0.4678828,0.02824597,0.8833264,13
13.0,-24.43733,1.608271,-18.62744,0.3136377275694277,0.0936212693511195,0.225534572592656,0.4533121,56.5449,179.2434,0.4736738,-0.000356711,0.8806669,13
13.02,-24.38341,1.282717,-18.54598,0.3135692012993067,0.0713393080596168,0.227400796907816,353.7811,55.98082,179.7715,0.4685364,0.04883292,0.8817752,13
13.04,-24.28221,1.444673,-18.47287,0.3085285610273844,0.0637889389164787,0.2243825653302091,357.3369,56.65674,180.1212,0.4744174,0.01995278,0.8799927,13
13.06,-24.18258,1.602839,-18.40199,0.2995823071786874,0.0575484975108284,0.2195828229344814,0.887299,57.35299,180.5124,0.4798141,-0.00893884,0.8773247,13
13.08,-24.08471,1.757387,-18.33347,0.2862140805787616,0.049850185903542,0.2128532407815244,4.431539,58.07481,180.9477,0.4847215,-0.03781321,0.8737748,13
13.1,-24.16271,1.250376,-18.35171,0.2835302273847406,0.11245479802095,0.2074089299312334,359.4018,56.72111,181.3941,0.4750329,-0.001185351,0.8798687,13
13.12,-24.06196,1.415042,-18.27995,0.249931593677851,0.0785058791142108,0.1860929531022406,2.979935,57.4288,181.7533,0.4798765,-0.03014985,0.8768177,13
13.14,-23.96268,1.575981,-18.21027,0.2138419304567969,0.0455967643877733,0.1638029385496562,6.552559,58.16197,182.1583,0.4842244,-0.05907614,0.8728738,13
13.16,-24.00168,1.232026,-18.18549,0.1893278419834119,0.0862047571973356,0.1447986740455169,8.252621,56.73328,182.8981,0.4721278,-0.07527865,0.8782284,13
13.18,-23.90061,1.400675,-18.113,0.1368287985324792,0.0513707457550715,0.1122739001517976,11.87863,57.49379,183.2549,0.4755901,-0.104271,0.8731081,13
13.2,-23.80084,1.565548,-18.04245,0.0821623878594057,0.0187585225396008,0.0789629431280314,15.49849,58.28876,183.6669,0.4785496,-0.1331457,0.8670771,13
13.22,-23.86011,1.199543,-18.03416,0.0248815858214639,-0.0145448244141692,0.0447862898830349,14.77229,56.94727,183.6873,0.468918,-0.1281577,0.8732632,13
13.24,-23.76146,1.375939,-17.96323,-0.0023860627023859,0.0473151847735009,0.0241179023703685,18.36444,57.7408,184.0291,0.471436,-0.156411,0.8666668,13
13.26,-23.66372,1.548714,-17.89389,-0.0634795658276976,0.0044926606592951,-0.0127721649916006,21.95051,58.57512,184.4322,0.4734653,-0.1844955,0.859184,13
13.28,-23.56709,1.717984,-17.82627,-0.1254850762017074,-0.0349866622872781,-0.0495454845280123,25.52932,59.45972,184.9039,0.4750042,-0.2123803,0.8508242,13
13.3,-23.71031,1.168163,-17.87573,-0.160302113587941,0.0061027923178067,-0.0739814838104362,20.15272,55.35127,184.0938,0.4514753,-0.1711784,0.8742775,13
13.32,-23.61479,1.352737,-17.80632,-0.2169264590607706,-0.0345109794534319,-0.1076457574336904,23.69772,56.12451,184.308,0.4532715,-0.1983681,0.8666549,13
13.34,-23.51976,1.533874,-17.73812,-0.2731173579907633,-0.0714580148194477,-0.1403033318719009,27.23865,56.93505,184.5823,0.4546121,-0.225353,0.858173,13
13.36,-23.5986,1.139001,-17.74354,-0.3036750933759653,-0.0246405617434714,-0.1619187244220237,26.30737,51.82926,183.9911,0.4181796,-0.2193763,0.8787796,13
13.38,-23.5071,1.331471,-17.6742,-0.3328646097005534,0.0216868840793524,-0.1825635456146073,29.79985,52.52273,183.9961,0.4192897,-0.2453595,0.8700718,13
13.4,-23.41569,1.520679,-17.60574,-0.3878412070176211,-0.04409024306226,-0.2160922839824559,33.29057,53.24243,184.0519,0.4199923,-0.2710964,0.8605294,13
13.42,-23.44026,1.121742,-17.57767,-0.4408603158959674,-0.1074479167793762,-0.2475085969444508,34.73105,48.28115,183.279,0.3823833,-0.2834204,0.874087,13
13.44,-23.35171,1.319457,-17.5086,-0.4568929657057721,-0.0584469765083073,-0.2595713529059358,38.16238,48.82582,183.0361,0.3825778,-0.3079222,0.8638368,13
13.46,-23.26298,1.51404,-17.44019,-0.4803993791683743,-0.0934671244397191,-0.2748250684545434,41.59446,49.37834,182.8243,0.3824107,-0.3321295,0.8527831,13
13.48,-23.17423,1.705517,-17.37256,-0.5002564296935774,-0.125593914445963,-0.2872795931760137,45.027,49.94437,182.647,0.3818825,-0.3560201,0.8409371,13
13.5,-23.21986,1.114961,-17.38594,-0.497834576714443,-0.0701426880840334,-0.2895121959337245,43.28795,47.81007,181.7716,0.3713931,-0.3429811,0.8519694,13
13.52,-23.13296,1.315023,-17.31817,-0.4937204354317046,-0.0996808165684985,-0.2874226334652023,46.66284,48.25893,181.4358,0.3708138,-0.3661188,0.8399612,13
13.54,-23.04578,1.512068,-17.25097,-0.4855769725988179,-0.1269874585405215,-0.2826525959246331,50.03847,48.70712,181.1182,0.3698947,-0.388918,0.8271962,13
13.56,-22.95846,1.706108,-17.18443,-0.464502694697066,-0.0668727300488246,-0.2709859806623356,53.41472,49.15807,180.8203,0.3686369,-0.4113592,0.8136865,13
13.58,-22.9181,1.107103,-17.12072,-0.4390916073290434,-0.0077186021003343,-0.2567115049566333,53.32914,45.1257,177.7037,0.3511255,-0.4074634,0.8216326,13
13.6,-22.83319,1.305304,-17.05433,-0.4073138798704092,-0.0638285078367684,-0.2340553475647566,56.63133,45.26471,177.039,0.3499708,-0.4289033,0.8075677,13
13.62,-22.74809,1.500625,-16.98855,-0.3720561710612893,-0.1203272542562419,-0.209367956209995,59.9333,45.34037,176.3255,0.3485062,-0.449962,0.7928004,13
13.64,-22.56413,1.109032,-16.81816,-0.3359790205135855,-0.0614085677845098,-0.1894385429374532,62.65766,36.20349,167.8835,0.3160805,-0.4634443,0.7903357,13
13.66,-22.47937,1.297531,-16.75474,-0.285438968221662,-0.0778226780704673,-0.1532555037311809,65.79523,34.98417,165.7736,0.3145794,-0.4827853,0.774437,13
13.68,-22.39489,1.483274,-16.69227,-0.2327522543761389,-0.094250834078531,-0.1160220211025329,68.90736,33.27456,163.1844,0.3128089,-0.50171,0.7578887,13
13.7,-22.31082,1.666312,-16.63084,-0.1782374256802206,-0.113935428266105,-0.0778032337754905,71.98087,30.83211,159.872,0.3107709,-0.5202046,0.7407044,13
13.72,-22.20966,1.161622,-16.51249,-0.1277661669609746,-0.0272516891040651,-0.0478903521389657,55.78335,34.47042,168.795,0.3042437,-0.4190952,0.8265824,13
13.74,-22.12393,1.341231,-16.44838,-0.0658837194358499,-0.0322742510689995,-0.0053736195976503,58.86662,33.69434,167.0673,0.3037739,-0.4389007,0.812207,13
13.76,-22.03885,1.51803,-16.38555,-0.0028675645936373,-0.0379940787342339,0.0380356430876205,61.93385,32.64409,165.0803,0.3030504,-0.4583395,0.7971671,13
13.78,-21.90839,1.228657,-16.272,0.0503845618754099,0.0259803040838321,0.0680314622012017,37.81834,42.82693,174.7544,0.3588368,-0.285577,0.8743922,13
13.8,-21.81597,1.400448,-16.2025,0.1030288979823592,0.0873870876234096,0.0972253675997345,41.16824,43.15149,174.2008,0.360352,-0.3091147,0.8629081,13
13.82,-21.72457,1.56897,-16.13469,0.1447386226384019,0.0535509995314473,0.1194905435747726,44.51946,43.44821,173.6432,0.361538,-0.3323676,0.8506498,13
13.84,-21.6349,1.26355,-16.06049,0.1780954151994507,0.0874150171439467,0.1346600202597312,13.90528,49.32296,177.1906,0.4167603,-0.09982131,0.900597,13
13.86,-21.53575,1.431152,-15.9878,0.2096391115450901,0.1203357797513322,0.1486306226311946,17.4453,49.97647,177.112,0.4208776,-0.1268903,0.8940123,13
13.88,-21.43787,1.595052,-15.91706,0.2323765940311708,0.0820948373247063,0.1615371834186239,20.98621,50.63827,177.0747,0.424573,-0.1538356,0.8865455,13
13.9,-21.34149,1.755406,-15.84838,0.2535626986496453,0.0424210214279839,0.1739182736121514,24.52623,51.31424,177.0813,0.4278438,-0.1806212,0.8782059,13
13.92,-21.35318,1.279214,-15.82257,0.285303045728273,0.0931905983000065,0.1916874785737572,354.4572,53.95726,178.4303,0.4524948,0.04929221,0.8903505,13
13.94,-21.252,1.443959,-15.74973,0.3103982182952416,0.0748553343909762,0.2113772927864732,358.0204,54.61666,178.6232,0.4584928,0.02085922,0.8884491,13
13.96,-21.15227,1.604913,-15.67895,0.3324754128793206,0.0556044459954536,0.2302862956227851,1.580144,55.28724,178.8569,0.4640252,-0.007586706,0.8856586,13
13.98,-21.0961,1.295991,-15.59492,0.3560722722796856,0.1035066019449165,0.2454334585400812,353.4629,54.66042,179.5102,0.4581505,0.05261078,0.887034,13
14.0,-20.9953,1.456797,-15.51905,0.3750324455671494,0.1479817984080237,0.2581706814342477,357.0375,55.30305,179.8412,0.4639056,0.02354031,0.8855064,13
14.02,-20.89609,1.613732,-15.44548,0.3627621214473446,0.0928293688589574,0.2533870191731004,0.6071865,55.96482,180.2116,0.4691845,-0.005545675,0.8830824,13
14.04,-20.90706,1.254658,-15.42004,0.353907248238714,0.1094699670135751,0.245697966430016,357.421,55.16975,181.1583,0.4631228,0.01526594,0.8859509,13
14.06,-20.80877,1.418984,-15.34624,0.3410448343559507,0.1256687108456992,0.2357716022915899,0.9726682,55.83298,181.5012,0.4680289,-0.01363256,0.8835754,13
14.08,-20.71191,1.579631,-15.27454,0.3057027264729708,0.0681797502705984,0.2165002716747943,4.519094,56.51881,181.8862,0.4724606,-0.04250926,0.8803163,13
14.1,-20.6167,1.73676,-15.20506,0.2672825994802394,0.0110290066982393,0.1962344272719518,8.059553,57.23269,182.3165,0.4764136,-0.07133518,0.8761775,13
14.12,-20.70833,1.237713,-15.22914,0.2514357729357943,0.0500809297089308,0.1875085986639446,6.162077,56.07833,182.6153,0.4681907,-0.05813954,0.881698,13
14.14,-20.60826,1.404784,-15.15473,0.2321518988030662,0.0870875123774768,0.1771091166826108,9.790111,56.79567,182.9897,0.4717371,-0.0873986,0.8772188,13
14.16,-20.50955,1.568062,-15.08233,0.1787737854349154,0.0226107717279692,0.1509540243030116,13.41207,57.54604,183.4153,0.4747854,-0.1165579,0.8718251,13
14.18,-20.58555,1.208639,-15.09376,0.1437676880233227,0.0351094681995584,0.1310464801505098,13.44392,56.37413,183.569,0.4656645,-0.1177285,0.8766485,13
14.2,-20.48712,1.382945,-15.02111,0.1066763032708983,0.0486477320487862,0.1102099353309851,17.04798,57.13028,183.9216,0.4681447,-0.1462846,0.8704892,13
14.22,-20.38971,1.553583,-14.95013,0.0450500678317893,-0.0173273252799044,0.0782944699409131,20.64607,57.9258,184.3325,0.470138,-0.1746818,0.863436,13
14.24,-20.29351,1.720679,-14.88094,0.0053615858482554,-0.0015128525419401,0.0553002630387682,24.23712,58.76957,184.8083,0.4716424,-0.2028888,0.8554978,13
14.26,-20.42039,1.168127,-14.91852,-0.0352662342153515,0.0158342149175186,0.0320231386387039,20.15825,54.84836,184.1011,0.4476178,-0.1714668,0.876247,13
14.28,-20.32553,1.352638,-14.84789,-0.0772753103371148,0.031716662785378,0.0083444238226111,23.71124,55.59123,184.3208,0.4491961,-0.198816,0.8687426,13
14.3,-20.23118,1.533704,-14.77847,-0.152868466740164,-0.0624345396563972,-0.0333357313431292,27.26016,56.37098,184.5988,0.4503224,-0.2259591,0.8603761,13
14.32,-20.29061,1.138986,-14.77647,-0.1930524385925087,-0.047190671980082,-0.0565790076981858,26.30662,51.74341,184.0008,0.4175034,-0.2194574,0.8790998,13
14.34,-20.19942,1.331425,-14.70674,-0.2320221996463103,-0.0300612862259714,-0.0784678456396699,29.80156,52.40827,184.0138,0.4183803,-0.2455205,0.8704998,13
14.36,-20.10834,1.520604,-14.63788,-0.2883466496241591,-0.0968718614011383,-0.1072852279490186,33.29465,53.0988,184.0758,0.4188512,-0.2713366,0.861067,13
14.38,-20.01753,1.706568,-14.57,-0.317464414913001,-0.0750577891886619,-0.1232526430800273,36.78583,53.82351,184.1929,0.4189155,-0.2968847,0.8508102,13
14.4,-20.11628,1.121739,-14.60051,-0.3437986856901669,-0.0514335700848556,-0.1371766705484554,34.72554,48.29077,183.2838,0.3824518,-0.2833867,0.8740715,13
14.42,-20.02784,1.319445,-14.53142,-0.3760263356396249,-0.1127600929427398,-0.1533339099160535,38.15741,48.80373,183.043,0.3823996,-0.3079298,0.8639297,13
14.44,-19.93925,1.514028,-14.46297,-0.3885600787341299,-0.0843536559540936,-0.1613665287119039,41.58992,49.32312,182.8308,0.3819874,-0.3321791,0.8529869,13
14.46,-19.92937,1.114991,-14.43459,-0.3976728175351169,-0.0543922977109019,-0.1672777674657337,43.28395,47.2373,181.76,0.3671707,-0.3435914,0.8538131,13
14.48,-19.843,1.315085,-14.36629,-0.4036933813276779,-0.0262127198159331,-0.1711884897772579,46.65844,47.64176,181.4069,0.3663838,-0.3668042,0.841922,13
14.5,-19.75635,1.512167,-14.29852,-0.4069511519934048,-0.0181770051936419,-0.1732044463700872,50.0336,48.04098,181.0667,0.3652626,-0.3896794,0.829275,13
14.52,-19.68952,1.109936,-14.22046,-0.401406854559641,-0.0239127173142536,-0.1681212467308894,50.68744,45.48499,178.7497,0.3536695,-0.3909322,0.8316355,13
14.54,-19.60491,1.309194,-14.15332,-0.3917405389846671,-0.0263495711938162,-0.1602544472011415,53.99808,45.69379,178.19,0.3525189,-0.4128426,0.8182238,13
14.56,-19.52007,1.505556,-14.08672,-0.3782575787525939,-0.0288885499060801,-0.1496979780762328,57.30885,45.86066,177.6032,0.3510568,-0.4343859,0.8041009,13
14.58,-19.43514,1.699038,-14.02077,-0.3496806402478154,-0.1174479046136836,-0.1231920699183177,60.6195,45.97479,176.9771,0.3492846,-0.4555441,0.7892798,13
14.6,-19.33359,1.104392,-13.91402,-0.3116010464517584,-0.0894415392141497,-0.0947598663324582,61.2275,39.49973,171.2413,0.3265652,-0.4556866,0.7944907,13
14.62,-19.24934,1.295384,-13.84994,-0.2706013476812272,-0.0612661266129242,-0.0649580077913902,64.42593,38.75007,169.6692,0.3248197,-0.4755662,0.7789944,13
14.64,-19.16526,1.483616,-13.7867,-0.2151412522713507,-0.10753127217374,-0.0186023690864716,67.61138,37.67006,167.7777,0.3227955,-0.4950344,0.7628434,13
14.66,-19.00029,1.144233,-13.62033,-0.1726820925918468,-0.0682736599190815,0.0128080229521476,58.39242,33.48763,167.8219,0.2996224,-0.4378082,0.8163204,13
14.68,-18.91569,1.326043,-13.55586,-0.1295452454976455,-0.0290379235527544,0.0441842773679783,61.46963,32.4313,165.8538,0.2986303,-0.4574429,0.8014926,13
14.7,-18.83165,1.505074,-13.49256,-0.0860493056695228,0.0070810804949959,0.0754556103836305,64.52413,31.01304,163.5367,0.2973886,-0.4766951,0.7860079,13
14.72,-18.74832,1.681401,-13.43052,-0.042887525756543,-0.0527373035992694,0.1081724668779577,67.54601,29.0945,160.731,0.295901,-0.4955489,0.7698801,13
14.74,-18.59048,1.228889,-13.2822,-0.0011674911031698,-0.0131495063558084,0.1334395783977631,37.79744,42.27412,174.7438,0.3546548,-0.2861437,0.8761563,13
14.76,-18.49952,1.401037,-13.2127,0.040823453850824,0.0256500489281048,0.1585992899714345,41.11299,42.55919,174.1776,0.35599,-0.3095101,0.8648901,13
14.78,-18.40956,1.569979,-13.14483,0.0807020804913114,-0.0058838018584591,0.182661774175288,44.42966,42.81353,173.6034,0.3570069,-0.3325977,0.8528649,13
14.8,-18.32075,1.735818,-13.0787,0.114716143519538,0.0301129934235813,0.1998673108340292,47.74809,43.03395,173.0161,0.3577051,-0.355394,0.8400883,13
14.82,-18.30361,1.263632,-13.0571,0.1476157912798446,0.0650246771676276,0.2159990479083646,13.9025,48.8773,177.1876,0.4132578,-0.1000702,0.9022121,13
14.84,-18.20544,1.431349,-12.98375,0.1789142289476852,0.0959696135230565,0.2308637749007485,17.43264,49.4973,177.1044,0.4171486,-0.1271245,0.8957753,13
14.86,-18.10854,1.595384,-12.91231,0.2022478235864151,0.1021078036413267,0.244544462358405,20.96385,50.12455,177.0601,0.4206246,-0.1540572,0.8884616,13
14.88,-18.05895,1.279251,-12.84076,0.2230510061319717,0.1087577480475334,0.2565683040344078,354.4601,53.08664,178.4208,0.4457141,0.04937892,0.8937645,13
14.9,-17.95898,1.444045,-12.76649,0.2407781280731555,0.1130735056369983,0.266720589565623,358.0215,53.71526,178.6027,0.4514864,0.02090912,0.8920277,13
14.92,-17.86045,1.605057,-12.69428,0.2490707825812974,0.0441690156734387,0.2759283961543817,1.579679,54.3544,178.8235,0.4568025,-0.007573409,0.8894023,13
14.94,-17.78723,1.295991,-12.59832,0.270058603522147,0.0678318719076625,0.2901245233341871,353.4601,53.96965,179.5094,0.452794,0.05276944,0.8897786,13
14.96,-17.68761,1.45681,-12.52106,0.2870510623339963,0.0901247632184965,0.3021403745480664,357.0343,54.58102,179.8383,0.458316,0.02364437,0.8884115,13
14.98,-17.58957,1.613763,-12.44607,0.2995173098153878,0.1083388014698366,0.3117650711125315,0.6036915,55.21147,180.2047,0.4633692,-0.005496092,0.8861479,13
15.0,-17.49332,1.767026,-12.3735,0.2900044250603066,0.0967049204917904,0.3027103581312356,4.167754,55.86575,180.6112,0.4679491,-0.03462268,0.882991,13
15.02,-17.58316,1.254688,-12.40894,0.2770389052073201,0.086789994418944,0.2913821875928628,357.4136,54.62222,181.1579,0.4588842,0.01541643,0.8881521,13
15.04,-17.48585,1.419018,-12.33398,0.2601182668270909,0.0758255171316939,0.2775920844534558,0.9648173,55.25345,181.5007,0.4635555,-0.01353122,0.8859313,13
15.06,-17.38998,1.579673,-12.26111,0.2367039074014107,0.0670806184556456,0.2604792111444298,4.510915,55.90719,181.8835,0.4677586,-0.04245707,0.8828273,13
15.08,-17.42274,1.237746,-12.23948,0.2107874468232968,0.0605869242261441,0.24173951621546,6.154696,54.83829,182.6005,0.4586327,-0.05807523,0.8867143,13
15.1,-17.32422,1.404836,-12.16309,0.1818779050981271,0.0534795356746088,0.2211898824970859,9.784412,55.52234,182.9599,0.4619863,-0.08742618,0.882405,13
15.12,-17.22705,1.568136,-12.08871,0.1282583575351361,-0.0315821329993977,0.1885910932063759,13.40843,56.23805,183.3684,0.4648536,-0.1166772,0.8771783,13
15.14,-17.13142,1.727793,-12.01645,0.1000811597468211,-0.0177698572829621,0.1688154286895908,17.02673,56.99248,183.8311,0.4672315,-0.1458041,0.8710399,13
15.16,-17.2506,1.19954,-12.04479,0.0696050150449558,-0.0027060830014791,0.1475111542301548,14.77231,54.94352,183.69,0.4535742,-0.1287296,0.8813295,13
15.18,-17.15473,1.375884,-11.97007,0.0363700242129108,0.0107680977975268,0.1245451797057832,18.37043,55.67246,184.0309,0.455709,-0.1572797,0.8750287,13
15.2,-17.05975,1.548602,-11.89693,0.0259160562004319,0.0826595284882826,0.1120729006103533,21.96293,56.44077,184.429,0.4573732,-0.1856605,0.8678355,13
15.22,-17.12125,1.168195,-11.89627,-0.0272169210036528,0.040049169879606,0.0753630942213789,20.14878,53.20609,184.0904,0.4350394,-0.1720426,0.8825791,13
15.24,-17.02853,1.352765,-11.82329,-0.0806168083938854,0.000829460530028,0.039062330935438,23.69631,53.91305,184.2971,0.4364835,-0.1995153,0.8752369,13
15.26,-16.93629,1.533905,-11.7515,-0.1346446572096076,-0.0380752460171551,0.0031078726112452,27.24009,54.65487,184.5591,0.4374912,-0.2267824,0.8670313,13
15.28,-16.84473,1.711694,-11.68103,-0.1803553119415673,-0.0539194759569962,-0.0291136591935816,30.77899,55.44061,184.8832,0.4380623,-0.2538137,0.8579723,13
15.3,-16.97883,1.139003,-11.73586,-0.2245560541174536,-0.0653560298065551,-0.0597296434933243,26.30276,50.16115,183.9982,0.4053349,-0.2203456,0.8847855,13
15.32,-16.88968,1.331459,-11.66377,-0.267597223168694,-0.0756037752550009,-0.088830809549421,29.79565,50.79214,184.0062,0.4060858,-0.2465963,0.8763195,13
15.34,-16.80065,1.520664,-11.59252,-0.301581318322943,-0.0849524717180237,-0.1130480096817618,33.28682,51.44717,184.0605,0.4064443,-0.2726006,0.8670183,13
15.36,-16.84046,1.121765,-11.58007,-0.3328815020249374,-0.090107803556176,-0.1351094646850881,34.71935,46.41454,183.2765,0.3681158,-0.2848673,0.8802244,13
15.38,-16.75427,1.319496,-11.50836,-0.3618203056711644,-0.0944025273460876,-0.1551098511600681,38.15041,46.89043,183.025,0.3679801,-0.3096487,0.8701947,13
15.4,-16.66793,1.514107,-11.43726,-0.3887192394252101,-0.1011174831649141,-0.1731313380032249,41.58208,47.37002,182.7987,0.3674992,-0.3341359,0.859361,13
15.42,-16.64047,1.114979,-11.39631,-0.4033310826769325,-0.1085924371708804,-0.1875230227171134,43.28191,45.76377,181.767,0.3561431,-0.3453011,0.8584778,13
15.44,-16.55602,1.315066,-11.32578,-0.4138126702417417,-0.1122263252598612,-0.1986984581076132,46.65643,46.1404,181.4179,0.3552893,-0.3687524,0.8466703,13
15.46,-16.47132,1.512146,-11.25575,-0.420468948947873,-0.1154165844628228,-0.2067558184124671,50.03152,46.51023,181.0794,0.3541124,-0.3918653,0.8341048,13
15.48,-16.38649,1.706231,-11.18634,-0.4118004567417264,-0.0329227226551672,-0.2058846092470212,53.40706,46.87478,180.7513,0.3526137,-0.4146195,0.8207931,13
15.5,-16.30168,1.790684,-11.11765,-0.4009415373260951,-0.0654750888569504,-0.1994757583962159,56.78284,47.23566,180.4336,0.3507949,-0.4369948,0.8067479,13
15.52,-16.31446,1.1071,-11.09735,-0.386348998117878,-0.0962421909526552,-0.1902383549014417,53.3191,43.54356,177.7166,0.3397152,-0.4099952,0.8264598,13
15.54,-16.23165,1.305302,-11.02866,-0.365325380907519,-0.0391534163413272,-0.1798897548215804,56.62138,43.62213,177.0552,0.3383116,-0.4317523,0.812568,13
15.56,-16.14868,1.500634,-10.96051,-0.3283163750383435,-0.0628349428891829,-0.1523498719069627,59.923,43.63188,176.3384,0.3366109,-0.4531282,0.7979746,13
15.58,-15.98373,1.10902,-10.7986,-0.2887265953865021,-0.0860586290499211,-0.123243526435199,62.65143,34.43304,167.8913,0.3038045,-0.4671701,0.7951691,13
15.6,-15.90118,1.297549,-10.73265,-0.2468727638011785,-0.1121254843362479,-0.0926566167733596,65.78711,33.13839,165.7675,0.3020944,-0.4868552,0.7794287,13
15.62,-15.8189,1.483331,-10.6676,-0.1936116175837698,-0.0958232551698702,-0.051707610222238,68.89582,31.34173,163.1521,0.3001279,-0.5061236,0.7630391,13
15.64,-15.65305,1.161554,-10.49548,-0.1391454122539444,-0.0782418701038937,-0.0099885299761316,55.79375,32.52068,168.7828,0.2901771,-0.4228305,0.8315736,13
15.66,-15.56979,1.341194,-10.42848,-0.0837896976419267,-0.062548464783921,0.0324172482658724,58.8746,31.66809,167.0382,0.2894752,-0.4429796,0.8173587,13
15.68,-15.48716,1.518033,-10.36273,-0.0400345257227114,0.0268838936146847,0.0598352556005745,61.93782,30.53209,165.0241,0.2885334,-0.4627609,0.8024803,13
15.7,-15.40531,1.69215,-10.29833,0.0030096590498489,0.0234916357424102,0.0864505384023996,64.97644,29.0158,162.6422,0.2873553,-0.4821589,0.7869507,13
15.72,-15.32709,1.228554,-10.22405,0.0469327406783899,0.0197259260189541,0.1139403845029464,37.84272,41.2729,174.7562,0.3469258,-0.2878949,0.8791127,13
15.74,-15.2371,1.400358,-10.15175,0.0913480394326951,0.0124678241379494,0.1421574340205547,41.19204,41.53451,174.2024,0.3481193,-0.311715,0.8678375,13
15.76,-15.14812,1.568903,-10.08111,0.1245818231194348,0.0925952561844108,0.157834029349978,44.54225,41.76479,173.6393,0.3489971,-0.3352497,0.8557887,13
15.78,-15.07445,1.263536,-10.0183,0.1498184141686012,0.0797128246802655,0.1697130947265336,13.92747,47.58214,177.1847,0.4030313,-0.1010682,0.9067971,13
15.8,-14.97789,1.431156,-9.942437,0.1740695917135333,0.0665610273189199,0.1810939354376585,17.46721,48.17103,177.0981,0.4067485,-0.1283627,0.9004936,13
15.82,-14.8826,1.59508,-9.868488,0.1968749604856894,0.0501535242899187,0.1918061388110359,21.00787,48.76636,177.0483,0.4100609,-0.1555327,0.8933067,13
15.84,-14.78875,1.755464,-9.796596,0.2264275610912636,0.0565115957052843,0.2117087700792931,24.54781,49.37335,177.0376,0.4129658,-0.1825425,0.8852453,13
15.86,-14.73882,1.285379,-9.716467,0.253392931528908,0.0631333626506819,0.2304218095442805,353.3087,52.39622,178.7217,0.4401125,0.05727698,0.8959755,13
15.88,-14.6402,1.448878,-9.639528,0.2772294345395643,0.0671756135062648,0.2477148056342838,356.877,52.98738,178.9409,0.4456892,0.02850866,0.8947254,13
15.9,-14.54304,1.608562,-9.564713,0.3042992457468292,0.1373636105755336,0.2630712112919691,0.4418028,53.5907,179.1964,0.4508149,-0.0002799081,0.8925818,13
15.92,-14.48887,1.282823,-9.484316,0.3051059563436433,0.1109876326293642,0.2638569236438861,353.7776,53.25302,179.7658,0.4474122,0.04943231,0.8926774,13
15.94,-14.39193,1.444811,-9.406033,0.3025979856722089,0.0847204194146119,0.2635663105734317,357.3326,53.83477,180.1055,0.4526016,0.02033653,0.8914087,13
15.96,-14.2965,1.603019,-9.329958,0.2998530007225266,0.1257232924888975,0.2581324663323406,0.8829592,54.4364,180.4809,0.4573341,-0.008771243,0.8892519,13
15.98,-14.20276,1.757617,-9.256227,0.2775549927949463,0.0933332741324076,0.2418882712960298,4.428064,55.06243,180.8945,0.4616053,-0.03786212,0.8862097,13
16.0,-14.27529,1.250416,-9.282598,0.2517732792723384,0.0620065291220977,0.223838520375755,359.3877,53.99753,181.3893,0.4539893,-0.0007432904,0.8909088,13
16.02,-14.17867,1.4151,-9.205694,0.222040901408637,0.0289430703775939,0.203813370801963,2.966115,54.61039,181.7393,0.4581746,-0.02995495,0.8883559,13
16.04,-14.08347,1.576066,-9.130865,0.2155390704716584,0.0907288510972987,0.1975024414508774,6.539729,55.24775,182.1292,0.4618916,-0.0591289,0.8849067,13
16.06,-14.11951,1.232068,-9.111772,0.1788801452987105,0.0542189561900469,0.1760932173188507,8.239511,54.06726,182.8942,0.4515783,-0.07542016,0.8889796,13
16.08,-14.02247,1.400723,-9.034282,0.1401097439867238,0.019787390360705,0.1540415338523849,11.86618,54.73199,183.2428,0.4544299,-0.1046992,0.8843219,13
16.1,-13.92669,1.565612,-8.958706,0.1178634428288882,0.0593927138285168,0.1385755703799605,15.48748,55.42926,183.6403,0.4568057,-0.1338612,0.8787496,13
16.12,-13.98272,1.199601,-8.956559,0.0715167561899161,0.0213889041671397,0.1101767616241448,14.7647,54.30008,183.6842,0.4486306,-0.1288202,0.8838676,13
16.14,-13.88789,1.376003,-8.880941,0.0234034094468968,-0.0133628477356354,0.0811082013414853,18.35765,54.99712,184.0173,0.4505745,-0.1573843,0.877708,13
16.16,-13.79394,1.548795,-8.806869,-0.026847483146654,-0.0478224146232208,0.0512877441101421,21.94528,55.73222,184.4052,0.4520559,-0.1857798,0.8706586,13
16.18,-13.70107,1.718093,-8.734477,-0.0476201006711396,0.0177792336055661,0.0354180714204255,25.52656,56.51391,184.8542,0.4530736,-0.2139758,0.8627276,13
16.2,-13.60946,1.777361,-8.66389,-0.1015837900155287,-0.0229679707265181,-0.0005211550265127,29.10066,57.35262,185.3737,0.4536273,-0.2419465,0.8539237,13
16.22,-13.80331,1.16073,-8.753939,-0.1555524904264047,-0.0602238037912642,-0.0358394189203093,21.58133,51.9058,184.1276,0.4235527,-0.1837132,0.8856329,13
16.24,-13.71216,1.347376,-8.680071,-0.186557529251286,-0.0146442520611061,-0.0599923402375751,25.12432,52.56791,184.2867,0.4246236,-0.2110401,0.8781362,13
16.26,-13.6214,1.530626,-8.60728,-0.2168802851133939,0.0303027762796493,-0.0835277189325121,28.66429,53.26165,184.4973,0.4252729,-0.2381513,0.8697788,13
16.28,-13.70074,1.132755,-8.622751,-0.2744154555350677,-0.0363400079302402,-0.1210912075772233,28.02815,48.16847,183.9578,0.3880631,-0.2346196,0.888658,13
16.3,-13.61369,1.326979,-8.549316,-0.3307432365142277,-0.1001994066056884,-0.1568345711483227,31.50857,48.73445,183.8949,0.3884505,-0.2606772,0.8800015,13
16.32,-13.52666,1.517991,-8.476623,-0.3524069979789006,-0.0524473515029749,-0.1722170278405994,34.9882,49.31816,183.8713,0.3884661,-0.2864789,0.870514,13
16.34,-13.54398,1.118719,-8.450583,-0.3816856922675313,-0.0884471656762841,-0.1915277915840411,37.38553,44.89902,183.0273,0.3537751,-0.3056571,0.8783921,13
16.36,-13.45942,1.317272,-8.377918,-0.4081992074111646,-0.1211731574930562,-0.2083679705191252,40.80143,45.29536,182.7118,0.353198,-0.3301545,0.8679383,13
16.38,-13.37467,1.51274,-8.305801,-0.4129346840999182,-0.0662301137597836,-0.2141323228253029,44.21796,45.68721,182.4115,0.3522929,-0.3543418,0.8566905,13
16.4,-13.28988,1.705142,-8.234351,-0.4139970319109496,-0.0117316940148955,-0.2174204666025736,47.63493,46.07686,182.1269,0.3510611,-0.378197,0.8446597,13
16.42,-13.33117,1.114476,-8.254786,-0.4272670045964142,-0.0717511697488789,-0.2286389328238457,44.68958,44.86095,181.1455,0.3493814,-0.3549263,0.8563443,13
16.44,-13.24831,1.314848,-8.18326,-0.4280311662781428,-0.0417004199565943,-0.2324063550829277,48.05006,45.19474,180.7874,0.3483731,-0.3782819,0.8443018,13
16.46,-13.16518,1.512245,-8.112195,-0.4245935287394276,-0.0101287796971928,-0.2330968735351355,51.41092,45.51828,180.4352,0.3470515,-0.4012941,0.8315117,13
16.48,-13.08193,1.706676,-8.041707,-0.4172613740219821,0.0195984816354508,-0.2308404284160482,54.77208,45.8318,180.0872,0.3454182,-0.4239434,0.8179861,13
16.5,-13.01302,1.103696,-7.95454,-0.3991004789490453,-0.0678123057025653,-0.2153328992222458,56.50286,41.3538,176.2309,0.3254315,-0.432384,0.8181965,13
16.52,-12.93167,1.299585,-7.885355,-0.3782451941630045,-0.140598317056415,-0.1978121573136849,59.78131,41.20784,175.364,0.3237115,-0.4537486,0.8037652,13
16.54,-12.85026,1.492655,-7.816789,-0.3403537474512448,-0.086400791764192,-0.1712050992064027,63.05675,40.93607,174.383,0.3217114,-0.4747145,0.7886496,13
16.56,-12.68161,1.117897,-7.644847,-0.2879371434550404,-0.1077594433632188,-0.1277640616132199,61.83236,31.88992,167.2289,0.2891641,-0.4647391,0.8040968,13
16.58,-12.60043,1.304166,-7.577263,-0.2331232791731299,-0.1293470305342729,-0.0828426229530796,64.9352,30.50501,165.0219,0.2875634,-0.484567,0.7886268,13
16.6,-12.51962,1.487693,-7.510653,-0.1885171347780143,-0.0667973584339931,-0.0507152479654526,68.00797,28.61981,162.3252,0.2857205,-0.5039862,0.7725053,13
16.62,-12.35473,1.178016,-7.337694,-0.1323739321367913,-0.0719915175129519,-0.0059873830601876,52.11111,34.39958,171.2015,0.2970549,-0.3979859,0.8457017,13
16.64,-12.27252,1.355951,-7.268721,-0.075230565173042,-0.0775728485186975,0.0395529720032905,55.23156,33.95358,169.9196,0.2966695,-0.4188965,0.8322959,13
16.66,-12.19099,1.531062,-7.201062,-0.0300046592015259,-0.0109607705204907,0.069577902594572,58.34398,33.33587,168.4808,0.2960405,-0.4394619,0.81822,13
16.68,-12.11029,1.703433,-7.134812,0.0145636880101047,0.053579771483453,0.0986456501745702,61.44515,32.49508,166.8322,0.2951709,-0.4596657,0.8034863,13
16.7,-12.03116,1.239722,-7.069976,0.0581424205264073,0.0980471588561155,0.1266414680030583,32.0284,42.1455,175.3757,0.3557042,-0.243274,0.8921814,13
16.72,-11.9397,1.409914,-6.994463,0.0940852927405173,0.0390755433050674,0.1476608116278724,35.46688,42.50119,174.9635,0.3573652,-0.2684357,0.8820111,13
16.74,-11.84934,1.576665,-6.920709,0.1313623292391288,0.0724645472825652,0.1680908063692001,38.90678,42.84108,174.5594,0.3586878,-0.2933424,0.8710194,13
16.76,-11.76022,1.740086,-6.848828,0.1677089447687607,0.1049701566099173,0.1877595880674566,42.34919,43.16545,174.1615,0.35967,-0.3179809,0.8592132,13
16.78,-11.71271,1.271964,-6.793063,0.1969264743172412,0.0663166968321863,0.2057824540033819,2.414468,49.52968,177.9612,0.4190761,-0.01167709,0.9075326,13
16.8,-11.61641,1.438529,-6.715802,0.2276376545728926,0.0968221317274767,0.2245939442614821,5.963268,50.11719,178.0301,0.4237191,-0.03984208,0.9041365,13
16.82,-11.52142,1.601372,-6.640502,0.2559058217665155,0.1262453838470911,0.2418400388594982,9.510163,50.71339,178.1364,0.4279401,-0.06796,0.8998526,13
16.84,-11.44152,1.291493,-6.541861,0.2812051883965041,0.1518156047469671,0.2572974734093479,352.2227,51.9428,179.0499,0.4363938,0.06458966,0.8971585,13
16.86,-11.34404,1.453602,-6.462268,0.2942961913859807,0.0812511655503316,0.2704210921104357,355.8033,52.49567,179.3168,0.4417547,0.03547372,0.8963688,13
16.88,-11.24808,1.611853,-6.384875,0.3110747079869242,0.1025126102556262,0.2814420309832964,359.3802,53.06319,179.6175,0.4466661,0.006330428,0.8946783,13
16.9,-11.15383,1.766417,-6.309821,0.3239321908225732,0.1227111925067684,0.2902532137577606,2.952777,53.6496,179.9539,0.4511233,-0.02281091,0.8920897,13
16.92,-11.21434,1.269851,-6.320197,0.3202001879535072,0.0674720359526199,0.2903582421646437,354.0958,52.69497,180.0173,0.4432321,0.04608445,0.8949264,13
16.94,-11.1198,1.433041,-6.241202,0.319082440399187,0.0843358228453026,0.2878405003847433,357.6329,53.24811,180.3675,0.4480959,0.01702841,0.8937413,13
16.96,-11.0267,1.592534,-6.164339,0.3138312338964579,0.1010270641281961,0.2824515676022451,1.165383,53.82191,180.7514,0.4525127,-0.012036,0.891676,13
16.98,-11.04024,1.246104,-6.14463,0.3039553125807257,0.1148381081966247,0.2739735107445754,1.376547,53.02771,181.604,0.4461879,-0.01699579,0.8947492,13
17.0,-10.94457,1.411171,-6.065423,0.2633871150413867,0.0304731466290771,0.2470634562611083,4.984242,53.62376,181.9529,0.4499092,-0.04648116,0.8918529,13
17.02,-10.8503,1.572472,-5.988281,0.2445314581735678,0.044840300506086,0.233612394907089,8.587619,54.24588,182.3421,0.4531648,-0.0759146,0.8880444,13
17.04,-10.75762,1.730173,-5.913347,0.2227877199504939,0.0595703640607029,0.2185081105780273,12.18546,54.8996,182.7756,0.4559518,-0.105262,0.8833285,13
17.06,-10.8521,1.217363,-5.930532,0.1976634970770294,0.0718836461884583,0.201544906576282,11.88943,53.12911,183.3783,0.4418771,-0.1057061,0.8905998,13
17.08,-10.75758,1.389616,-5.851899,0.1574312848209462,0.0562031220252476,0.1731135473923818,15.50499,53.78465,183.7208,0.4440391,-0.134793,0.8852215,13
17.1,-10.66412,1.558169,-5.775005,0.1155667224937804,0.0442222608037729,0.1438638017153466,19.11536,54.47543,184.1138,0.4457407,-0.163733,0.8789361,13
17.12,-10.7232,1.183146,-5.779879,0.0716374957332801,0.0329928448581812,0.1136377867666035,17.4046,52.80708,183.9359,0.4346583,-0.1505325,0.8871614,13
17.14,-10.63131,1.363657,-5.703496,0.0254403502334455,0.0203066944041876,0.0806996047702101,20.97447,53.47477,184.2249,0.4360939,-0.1787509,0.8805813,13
17.16,-10.5401,1.540657,-5.628455,-0.0213326987447927,0.0118548076678237,0.0477174873123087,24.53975,54.17928,184.567,0.4370898,-0.2067823,0.8731238,13
17.18,-10.44975,1.714243,-5.554891,-0.0690715526987323,0.0045548985506998,0.0145623921911333,28.09945,54.9291,184.969,0.437645,-0.2345956,0.8647976,13
17.2,-10.58452,1.153069,-5.617718,-0.1181495229743749,-0.0046207276355617,-0.0188709065642256,23.06302,50.15956,184.0727,0.4086278,-0.1957031,0.8898872,13
17.22,-10.49582,1.341775,-5.542828,-0.1999559852882256,-0.1093614692425641,-0.0724568272065552,26.58327,50.77385,184.1773,0.4093972,-0.2227751,0.8822409,13
17.24,-10.40741,1.527155,-5.468904,-0.2394859430527119,-0.0947147396638372,-0.1008742887985341,30.1009,51.4156,184.3288,0.4097669,-0.2496208,0.8737444,13
17.26,-10.31945,1.709267,-5.396074,-0.2774281574626351,-0.0779527594109856,-0.1275796601923419,33.6157,52.09285,184.5334,0.4097369,-0.276217,0.8644063,13
17.28,-10.4264,1.124836,-5.426976,-0.3141472392508884,-0.0622517016124587,-0.1527080848566322,32.08577,45.30351,183.5522,0.3620479,-0.2663886,0.8897948,13
17.3,-10.34182,1.321739,-5.352331,-0.3455736170971381,-0.0734037078467771,-0.1757723945143415,35.54152,45.75912,183.3502,0.361866,-0.2918995,0.8804573,13
17.32,-10.25714,1.515486,-5.278286,-0.3736118508748522,-0.0803100663581296,-0.1960491075939979,38.99751,46.21996,183.1741,0.3613425,-0.3171304,0.8703002,13
17.34,-10.2458,1.115556,-5.248026,-0.3985686710571644,-0.0863273186830185,-0.2136681770109451,41.85108,44.05536,182.3839,0.3433549,-0.3382989,0.868462,13
17.36,-10.16306,1.315361,-5.174903,-0.4131572101509516,-0.0903386115313213,-0.2268733544390387,45.242,44.37945,182.0324,0.3422488,-0.3622739,0.8571473,13
17.38,-10.08008,1.512139,-5.102247,-0.4238773077746612,-0.0904416465635511,-0.2371040771686662,48.6333,44.69275,181.687,0.3408304,-0.3859148,0.8450619,13
17.4,-9.997014,1.705903,-5.03018,-0.4310159519646167,-0.0900420280180306,-0.2444924072352654,52.02486,44.99552,181.3461,0.3391013,-0.4092006,0.8322172,13
17.42,-10.02396,1.112893,-5.031428,-0.4348604326719796,-0.0924941550696842,-0.2491609496463375,48.06622,42.92517,179.5735,0.3355827,-0.3777772,0.849418,13
17.44,-9.942984,1.313164,-4.959352,-0.4113495873841525,-0.0965208031656754,-0.228814701572093,51.39389,43.12272,179.0933,0.3343324,-0.4006363,0.8367584,13
17.46,-9.861753,1.510515,-4.887712,-0.3842482817653233,-0.0977423165505952,-0.2060403938729125,54.72161,43.28741,178.5945,0.3327871,-0.4231392,0.8233718,13
17.48,-9.780403,1.70496,-4.816623,-0.353851386364748,-0.0995170521052471,-0.1809563195031799,58.0491,43.41196,178.0683,0.3309485,-0.4452664,0.8092707,13
17.5,-9.647808,1.104367,-4.672467,-0.3204513230003649,-0.1051513941802325,-0.153667987671719,61.22453,36.03038,171.2483,0.3023399,-0.462541,0.8040385,13
17.52,-9.567636,1.295373,-4.603395,-0.2785882603091685,-0.1020533769827385,-0.1189621502119113,64.42809,35.17197,169.6525,0.30041,-0.483048,0.7887117,13
17.54,-9.487637,1.483621,-4.535103,-0.2339801825967801,-0.0969628212109996,-0.0825232548946423,67.61681,33.96504,167.7181,0.2982247,-0.503139,0.7727253,13
17.56,-9.32812,1.14408,-4.363183,-0.1869292309567921,-0.0931296358364932,-0.0444641720303352,58.41699,30.21379,167.8128,0.2762088,-0.4443148,0.8244233,13
17.58,-9.247761,1.325905,-4.293799,-0.1432786178658004,-0.0764694378920853,-0.0091073371464031,61.49482,29.05867,165.832,0.2749977,-0.4645361,0.8097761,13
17.6,-9.167939,1.504964,-4.225556,-0.098617382496137,-0.058150933254641,0.026774352944352,64.54785,27.52889,163.4884,0.2735588,-0.4843716,0.7944704,13
17.62,-9.015016,1.211774,-4.073384,-0.053236305496387,-0.0412907813342519,0.0630683219985857,43.11563,37.71753,173.9729,0.3184896,-0.3314297,0.8726597,13
17.64,-8.930851,1.38585,-4.000276,-0.0201040501806171,0.0446299343238384,0.083568828357034,46.36293,37.76501,173.2473,0.3189192,-0.3542925,0.8607793,13
17.66,-8.847541,1.556882,-3.928673,0.0173130813097857,0.0388153985298805,0.1056636722274717,49.60947,37.75178,172.4788,0.3190759,-0.3768496,0.8481746,13
17.68,-8.765221,1.724964,-3.85868,0.0552941294716925,0.0327009957703596,0.1280994084053096,52.85518,37.66542,171.6536,0.3189601,-0.3990868,0.8348548,13
17.7,-8.684031,1.783549,-3.790403,0.0934464694058451,0.0231948899627484,0.1506767079485004,56.09882,37.48782,170.7516,0.3185716,-0.4209807,0.8208338,13
17.72,-8.648903,1.263601,-3.76509,0.1294268164125553,0.0350419335191886,0.1741991760233945,13.94392,46.03557,177.1869,0.390751,-0.1021586,0.9121378,13
17.74,-8.555202,1.431349,-3.686537,0.1639709858494775,0.0477694453623212,0.1965566025712908,17.47171,46.56808,177.1012,0.3941078,-0.1295827,0.9060915,13
17.76,-8.462715,1.595424,-3.60987,0.1965968692544883,0.0584624818561469,0.2175151347665948,21.00113,47.1058,177.0483,0.3970761,-0.1568878,0.8991653,13
17.78,-8.412191,1.279231,-3.540034,0.2268387594057976,0.064272770280764,0.2368715181404961,354.4869,50.34088,178.4199,0.4241798,0.04937887,0.9041954,13
17.8,-8.316542,1.444045,-3.460615,0.2602856345616039,0.1415978538171036,0.2565759059550519,358.0481,50.88342,178.5966,0.4293098,0.02064008,0.9029137,13
17.82,-8.222277,1.605088,-3.383239,0.275115117195743,0.1195120224469868,0.2674228498470299,1.606375,51.4363,178.8069,0.4340098,-0.008110825,0.9007388,13
17.84,-8.129587,1.762515,-3.308044,0.2871031648297331,0.0969218767105387,0.277130063115747,5.161423,52.00373,179.0523,0.4382755,-0.0368457,0.8976743,13
17.86,-8.100465,1.282849,-3.237711,0.2977944964985879,0.1413721305023382,0.2816429605199543,353.7819,51.47495,179.7555,0.433504,0.049781,0.8995158,13
17.88,-8.006083,1.444791,-3.156246,0.2875916924089132,0.1104543986948911,0.2729314760901429,357.3433,52.00145,180.0828,0.4382797,0.02051953,0.8985395,13
17.9,-7.913181,1.602946,-3.076984,0.2736621859231398,0.0804335248485113,0.2622241227158786,0.9003667,52.54723,180.4423,0.4426142,-0.008753916,0.8966697,13
17.92,-7.907876,1.250424,-3.044325,0.2555596616786932,0.0485197437216828,0.2493279548889995,359.3844,52.05725,181.382,0.4388402,-0.0004650392,0.8984684,13
17.94,-7.814115,1.415104,-2.964033,0.2413373621500396,0.0385605282684411,0.2396699262357794,2.965468,52.61441,181.7217,0.4426371,-0.02984957,0.8962019,13
17.96,-7.721735,1.576067,-2.885809,0.2245499652778407,0.0308109375755047,0.2284665151459171,6.542189,53.19524,182.098,0.4459836,-0.05919667,0.8930343,13
17.98,-7.630929,1.733474,-2.809793,0.2047309685294994,0.0224284980180145,0.2154890584646829,10.11381,53.80467,182.5144,0.4488768,-0.08847584,0.8889694,13
18.0,-7.722999,1.232085,-2.843394,0.1971927702207917,0.0859980143357244,0.2087785898785494,8.230058,52.49821,182.8965,0.4393671,-0.07548782,0.895084,13
18.02,-7.628555,1.400732,-2.762943,0.1596862739115259,0.0492330588852948,0.1847895660924601,11.85689,53.10706,183.2452,0.4418485,-0.1049447,0.8906837,13
18.04,-7.535348,1.565618,-2.684392,0.1199537291550388,0.0154119657822652,0.1596727305931084,15.47874,53.74763,183.6391,0.4438697,-0.1342849,0.8853661,13
18.06,-7.443564,1.726886,-2.607887,0.0776151131689251,-0.018390996838383,0.133303695302041,19.09539,54.42659,184.0832,0.4454284,-0.163481,0.8791372,13
18.08,-7.570617,1.190889,-2.657149,0.0601247580797235,0.0450266059441702,0.1190584334105393,16.08412,52.48392,183.7981,0.4334158,-0.1399207,0.8896762,13
18.1,-7.479038,1.36931,-2.578773,0.0090433759266455,0.0043285296830879,0.0823612001082426,19.67303,53.12944,184.1227,0.4348528,-0.1685527,0.8834589,13
18.12,-7.38824,1.544162,-2.501829,-0.0428917043318302,-0.0329094635908275,0.0454609555967108,23.25706,53.81256,184.4993,0.435847,-0.1970061,0.8763523,13
18.14,-7.456487,1.160818,-2.513579,-0.0733397826062565,0.0112839153415849,0.0202384548275177,21.56724,49.85873,184.1163,0.4076967,-0.184429,0.8930719,13
18.16,-7.368188,1.347525,-2.436883,-0.1041653958643388,0.0548364250471526,-0.0051699808516127,25.1035,50.45989,184.2601,0.4084704,-0.2119183,0.8858173,13
18.18,-7.280274,1.530858,-2.361228,-0.1656417727424715,-0.0117576083995973,-0.0487134886616625,28.63709,51.08968,184.4507,0.4088424,-0.239193,0.8777022,13
18.2,-7.19291,1.710886,-2.286748,-0.2267769850929624,-0.0752695180143175,-0.0910801970442477,32.16709,51.75588,184.6939,0.4088129,-0.2662233,0.8687359,13
18.22,-7.325789,1.132778,-2.353601,-0.2542277383636228,-0.0291773860141376,-0.1121044117400618,28.01759,46.51775,183.9612,0.3752266,-0.2355067,0.894177,13
18.24,-7.241156,1.327003,-2.27774,-0.2944509617996258,-0.0661456647380691,-0.139248313136177,31.49564,47.02842,183.8981,0.3753148,-0.2617832,0.8857159,13
18.26,-7.156551,1.518029,-2.202578,-0.3327568553244617,-0.0993849827875218,-0.1643229119396234,34.97292,47.55461,183.8703,0.3750462,-0.2878044,0.8764232,13
18.28,-7.072127,1.705894,-2.128244,-0.3694216842002751,-0.1321980362516357,-0.187408977992067,38.44926,48.10245,183.8819,0.3744211,-0.3135471,0.8663084,13
18.3,-7.136642,1.117116,-2.142976,-0.3755677928145744,-0.0533248150345968,-0.1931937115955099,39.62155,43.0193,182.704,0.3374224,-0.3233627,0.877983,13
18.32,-7.054817,1.316294,-2.067945,-0.3958585489604458,-0.0871979899877286,-0.2110536241874946,43.03043,43.33711,182.3679,0.3363926,-0.3478571,0.867193,13
18.34,-6.972796,1.512413,-1.993389,-0.412553338342308,-0.1181345767360668,-0.2259172972326819,46.43965,43.64472,182.0389,0.3350536,-0.3720278,0.8556169,13
18.36,-6.947561,1.11372,-1.954763,-0.4149272217329468,-0.0609379995969125,-0.2314373711236051,46.37244,42.23961,180.3881,0.3299705,-0.3683938,0.85796,13
18.38,-6.867701,1.314064,-1.880756,-0.4133429676193692,-0.0041745607458877,-0.2338920678286666,49.71809,42.46148,179.963,0.3286987,-0.3917493,0.8457138,13
18.4,-6.787595,1.511464,-1.807162,-0.4103071136913241,-0.0634773406241053,-0.2316840222144378,53.06384,42.65846,179.5272,0.3271351,-0.4147539,0.8327275,13
18.42,-6.707372,1.705931,-1.734101,-0.4040617101389908,-0.1220018816561648,-0.2268344000182806,56.40946,42.826,179.0747,0.3252813,-0.4373875,0.8190135,13
18.44,-6.588615,1.102112,-1.599867,-0.3783756134882226,-0.0655586579220251,-0.2085417020154508,59.65446,38.05932,174.1237,0.3065944,-0.4550871,0.8107278,13
18.46,-6.509653,1.295632,-1.528923,-0.3370811728505612,-0.089924261015745,-0.1725902278809301,62.90764,37.58335,172.9702,0.3045641,-0.4762202,0.7957652,13
18.48,-6.430753,1.486372,-1.45865,-0.2928658324416011,-0.1138473150573006,-0.134702348766729,66.15364,36.88499,171.6041,0.3022728,-0.4969397,0.7801331,13
18.5,-6.352039,1.674365,-1.389149,-0.2460269422990282,-0.1406328160517179,-0.094998655401259,69.38967,35.86317,169.923,0.2997226,-0.5172316,0.7638435,13
18.52,-6.248163,1.12866,-1.264564,-0.2045473164952264,-0.0546989802066818,-0.0646454022740439,60.97414,28.98446,166.7453,0.2708993,-0.4630302,0.8140966,13
18.54,-6.169158,1.312703,-1.194421,-0.1497914264573484,-0.0635623785682197,-0.0166359396338726,64.04748,27.51541,164.4883,0.269291,-0.4831356,0.7989528,13
18.56,-6.090608,1.494005,-1.125315,-0.0937654646093109,-0.0725411807888188,0.0322582978943526,67.08768,25.55389,161.7491,0.2674589,-0.5028383,0.7831567,13
18.58,-5.959215,1.195269,-0.9767659,-0.0487285080581604,-0.0060364889432763,0.0662468194968453,48.35017,35.0203,173.1575,0.297305,-0.3734739,0.8611221,13
18.6,-5.879225,1.371574,-0.9045987,-0.0038492957508782,0.0588540734424893,0.0995506005264191,51.49406,34.83092,172.2147,0.2971005,-0.395228,0.8486223,13
18.62,-5.799966,1.545034,-0.8337951,0.0388127852201997,0.0296107266634939,0.1283569821329581,54.63448,34.53763,171.1829,0.296655,-0.4166596,0.8354468,13
18.64,-5.721568,1.715736,-0.7644545,0.0718441388695449,0.0691759645979117,0.1458087668605626,57.76988,34.11398,170.0343,0.2959715,-0.4377516,0.8216069,13
18.66,-5.607099,1.257263,-0.675599,0.1044177140740062,0.1080527279167331,0.1626192740708668,20.09445,43.36329,176.5888,0.3684474,-0.1512175,0.9126765,13
18.68,-5.515714,1.425558,-0.5953355,0.1361011164519194,0.143303186143595,0.1785481851289232,23.61102,43.82294,176.3994,0.3710629,-0.1782416,0.9052905,13
18.7,-5.425494,1.590222,-0.5169296,0.1585619063344432,0.0833295748190132,0.1895081577196909,27.12962,44.28245,176.2357,0.3733151,-0.2050989,0.897031,13
18.72,-5.351157,1.275682,-0.4335065,0.1809495848509935,0.0368674277762103,0.2006802240526129,358.4436,48.60547,178.1965,0.4112741,0.01885304,0.9112747,13
18.74,-5.257233,1.441341,-0.3526495,0.2096020822537775,0.0881753753328163,0.2180613137464003,2.002709,49.13454,178.3177,0.4158864,-0.009789666,0.9091303,13
18.76,-5.164639,1.603248,-0.2737924,0.2322785802576473,0.0706336456315777,0.2353570173487058,5.559502,49.67282,178.4723,0.4200841,-0.03841462,0.9060907,13
18.78,-5.073559,1.761558,-0.197076,0.2525710217804921,0.0525474241025136,0.2517374909385118,9.113657,50.2246,178.662,0.4238634,-0.06699368,0.9021603,13
18.8,-4.984174,1.809774,-0.1226334,0.2760872707783093,0.1025779415745922,0.2676635429895964,12.66478,50.79449,178.8888,0.427221,-0.09549867,0.8973435,13
18.82,-4.997161,1.296037,-0.09061378,0.295727204617482,0.1494755690586455,0.2811925699611863,353.4528,50.60064,179.4921,0.4264326,0.05351717,0.9027044,13
18.84,-4.902862,1.456941,-0.007421017,0.2953983547707539,0.0969692153964348,0.2829089733259798,357.0255,51.10118,179.7984,0.4311207,0.02417514,0.9019193,13
18.86,-4.810085,1.613993,0.07352078,0.2917281896103109,0.0441835225781522,0.2833797306269685,0.5942701,51.61962,180.1353,0.4353736,-0.005182651,0.9002344,13
18.88,-4.834753,1.254776,0.0804176,0.2935899501438593,0.083330593738723,0.2828147560308974,357.4004,50.91901,181.1404,0.429945,0.01620339,0.9025154,13
18.9,-4.743024,1.419141,0.1617744,0.2910777567771652,0.1204747966227469,0.2790661702152793,0.9526658,51.43875,181.4635,0.4338178,-0.01303115,0.9008719,13
18.92,-4.652663,1.57984,0.2410662,0.2597620451945734,0.0607112986567302,0.2556588875790356,4.500792,51.97957,181.8197,0.4372573,-0.04224445,0.8983392,13
18.94,-4.666146,1.237774,0.2695965,0.238617273093129,0.0777057738038455,0.2376480949658072,6.13836,51.36833,182.5945,0.431585,-0.05803718,0.9001989,13
18.96,-4.573149,1.404877,0.3522532,0.2144575910769489,0.0949671225543704,0.2177335845135815,9.768621,51.93963,182.9446,0.4341966,-0.08773187,0.8964225,13
18.98,-4.481436,1.568201,0.4329328,0.1639740754209704,0.0363498930701417,0.1813364010395655,13.39412,52.54061,183.3364,0.4363559,-0.1173275,0.8917226,13
19.0,-4.391191,1.727891,0.5114893,0.1112743107842985,-0.0205099266925335,0.1440647232656966,17.01495,53.17736,183.7745,0.4380606,-0.1467991,0.8861039,13
19.02,-4.487287,1.199612,0.4845707,0.0831671134568999,0.0197707052827153,0.1218833082045007,14.76172,51.63659,183.689,0.427964,-0.1294829,0.8940594,13
19.04,-4.396472,1.375955,0.564973,0.0526438917172404,0.0590948117938812,0.0981641219503655,18.36049,52.25246,184.0226,0.4294149,-0.1584085,0.8882459,13
19.06,-4.306526,1.548687,0.6438525,-0.0098636527265373,-0.0065793935764004,0.0542863170958834,21.95445,52.90469,184.4055,0.4304271,-0.1871651,0.8815346,13
19.08,-4.217624,1.717925,0.7210635,-0.0737633222480399,-0.0692093134216139,0.0102631473936072,25.54276,53.60101,184.8439,0.4309995,-0.2157213,0.8739338,13
19.1,-4.349938,1.168262,0.6509793,-0.1067719820803398,-0.0277352744985893,-0.0154341750438228,20.13596,50.01815,184.0898,0.4103336,-0.1731777,0.8943546,13
19.12,-4.261872,1.352834,0.7290807,-0.1603737960024699,-0.0676148082543622,-0.0532429774442595,23.68361,50.61114,184.2889,0.4111139,-0.2010427,0.8874637,13
19.14,-4.174293,1.533993,0.8060577,-0.2139718451563428,-0.1034603324698353,-0.0902989044687019,27.22806,51.23517,184.5351,0.4114879,-0.2287023,0.8797055,13
19.16,-4.087367,1.711817,0.8817721,-0.2441523892815836,-0.0552062592327,-0.113624212911635,30.76839,51.89794,184.8345,0.4114555,-0.2561262,0.8710897,13
19.18,-4.212303,1.13278,0.8304175,-0.2734623306412321,-0.0070782649940974,-0.1360441452344947,28.02686,45.58896,183.9564,0.3679665,-0.2360803,0.8971692,13
19.2,-4.128648,1.326989,0.9077294,-0.3022806426237923,0.0227446646146843,-0.1577355644119766,31.51514,46.07072,183.8864,0.3679032,-0.2625398,0.8887734,13
19.22,-4.045032,1.517985,0.9843564,-0.3603590367025031,-0.0721398088412306,-0.198976670137264,35.00236,46.56658,183.8495,0.3674898,-0.2887408,0.8795404,13
19.24,-4.063963,1.118745,1.005704,-0.3840916153087484,-0.0519293942532267,-0.2170217226736303,37.3699,42.31974,183.0262,0.333938,-0.3076894,0.8861705,13
19.26,-3.982811,1.31731,1.081909,-0.4045314122239151,-0.0296051580317744,-0.232297326303424,40.78756,42.63016,182.7018,0.3329644,-0.3325756,0.8759467,13
19.28,-3.901499,1.5128,1.157631,-0.4220007256058669,-0.0084600743343687,-0.2449648816612806,44.20552,42.93059,182.385,0.3316839,-0.357151,0.8649261,13
19.3,-3.820164,1.705235,1.232744,-0.449812940553812,-0.1020941599873686,-0.2652384919393705,47.62368,43.22161,182.0748,0.3300979,-0.3813936,0.8531196,13
19.32,-3.861101,1.114487,1.206688,-0.4524874575714921,-0.0786943691516319,-0.2691794766905439,44.68051,42.25447,181.1459,0.3298247,-0.3578721,0.8640972,13
19.34,-3.781618,1.314879,1.281635,-0.4509561781243129,-0.0534882556505023,-0.2696937264753023,48.04102,42.50012,180.7767,0.3284729,-0.3816214,0.8522759,13
19.36,-3.701896,1.512307,1.356187,-0.4433593151684697,-0.1149619736390925,-0.2622074240604051,51.40161,42.72824,180.4041,0.3268281,-0.4050268,0.839705,13
19.38,-3.622068,1.706783,1.430224,-0.4239669033487683,-0.0867824257299898,-0.246731983865426,54.76213,42.93663,180.0246,0.3248922,-0.428068,0.8263966,13
19.4,-3.557694,1.103714,1.516067,-0.4007356951223065,-0.057423142285939,-0.2284667887641166,56.48626,38.77677,176.2366,0.3069476,-0.4365346,0.8253826,13
19.42,-3.479679,1.299634,1.588667,-0.3739550427481095,-0.0302084834128555,-0.2075584335701605,59.76411,38.5409,175.3576,0.3049646,-0.4583264,0.8111421,13
19.44,-3.40163,1.492747,1.660707,-0.3294119562892753,-0.1133337680429763,-0.1651254482975969,63.03811,38.16796,174.3519,0.3027198,-0.4797183,0.7962156,13
19.46,-3.241062,1.117829,1.836603,-0.2884296559433195,-0.0796093663338155,-0.1304883589739139,61.83823,29.31371,167.2285,0.2710147,-0.4698793,0.8103667,13
19.48,-3.163313,1.304134,1.907757,-0.2456715331022046,-0.0453679317106278,-0.0949164305324553,64.93909,27.83578,165.0066,0.2691822,-0.4901599,0.7950608,13
19.5,-3.085929,1.48771,1.977977,-0.2014307382103341,-0.0137808384496143,-0.0585308594161019,68.0078,25.84372,162.28,0.2671251,-0.51003,0.7791028,13
19.52,-3.009032,1.668615,2.04716,-0.1555482041245559,-0.0803472484030052,-0.0159293950057352,71.02826,23.10183,158.8118,0.2648469,-0.5294719,0.7625079,13
19.54,-2.851162,1.19522,2.232623,-0.1121730747826776,-0.0401601085867955,0.0195551253315251,48.36334,34.09273,173.129,0.2904104,-0.3749063,0.8634111,13
19.56,-2.771978,1.371517,2.305911,-0.068125629951111,0.0001434343888621,0.0553409552428594,51.51036,33.85503,172.156,0.2900567,-0.3967901,0.8509656,13
19.58,-2.693526,1.544958,2.377842,-0.0236855608799692,0.0375313882613485,0.0913033054646513,54.65324,33.50679,171.0869,0.2894676,-0.4183494,0.837841,13
19.6,-2.615932,1.715634,2.448316,0.0139507809480989,0.0520716448855261,0.1177455827424763,57.79029,33.01957,169.892,0.288646,-0.4395671,0.8240492,13
19.62,-2.551846,1.249991,2.490997,0.0522997633091977,0.0676670700191318,0.1448658729843122,26.29048,40.99738,176.0112,0.348217,-0.2010231,0.908812,13
19.64,-2.461839,1.41862,2.572885,0.0909865764208234,0.0812579408138068,0.1724003374818947,29.81617,41.35764,175.7028,0.3500266,-0.2277317,0.9000415,13
19.66,-2.372982,1.583617,2.652927,0.1106421846729567,0.0225685608820949,0.2074703353385788,33.34376,41.70847,175.4089,0.3514917,-0.2542213,0.8903974,13
19.68,-2.285449,1.745117,2.730982,0.1260364162191736,0.0550692530415462,0.2402200592860307,36.87323,42.05167,175.1289,0.3526109,-0.2804676,0.8798885,13
19.7,-2.255407,1.275647,2.779503,0.1398110734721553,0.0867699277063861,0.2712840982685884,358.4553,47.61444,178.191,0.4033788,0.01870299,0.9147975,13
19.72,-2.162853,1.441273,2.862062,0.1384593891789257,0.0487133198754131,0.312731698140017,2.018827,48.11821,178.3055,0.4078089,-0.01005713,0.9127777,13
19.74,-2.071615,1.603141,2.942619,0.1378312916133068,0.0805983626344005,0.351704651014985,5.580221,48.63074,178.4519,0.4118324,-0.03879925,0.9098587,13
19.76,-2.005048,1.293795,3.033498,0.134502843855611,0.1111979760223536,0.3879212453414272,352.8182,49.23067,179.2662,0.4153333,0.05960155,0.9074885,13
19.78,-1.912489,1.455244,3.118731,0.1280036390336308,0.137786093000815,0.4210352321797619,356.3989,49.70551,179.553,0.419966,0.03014918,0.9069877,13
19.8,-1.821404,1.612835,3.201729,0.1178894809373429,0.142624711899826,0.4507396262112436,359.976,50.19682,179.8689,0.4241739,0.0006750179,0.9055803,13
19.82,-1.731979,1.766741,3.282338,0.0737610507085284,0.0556783232860921,0.4623583263934464,3.549236,50.70831,180.2159,0.4279534,-0.02879142,0.9032684,13
19.84,-1.754514,1.254738,3.295795,0.0426972939601985,0.0673965448226938,0.4787065614662522,357.4003,49.95273,181.1508,0.4223209,0.01632265,0.9061068,13
19.86,-1.664546,1.419051,3.379153,0.0088991139608604,0.0790992502160208,0.4919136849315866,0.9547586,50.44775,181.4837,0.4260083,-0.01305408,0.9045884,13
19.88,-1.575923,1.579696,3.460436,-0.0494305589164932,0.0175320789643416,0.4977358640198425,4.505118,50.96442,181.8482,0.4292703,-0.04240952,0.9021768,13
19.9,-1.488821,1.736831,3.5395,-0.0920816949310205,0.0336583230564844,0.5121336685746986,8.050952,51.50689,182.2473,0.4321042,-0.07171469,0.8988755,13
19.92,-1.572896,1.237764,3.501391,-0.136120787225468,0.0500868090804161,0.5239676078623919,6.134876,50.55303,182.599,0.4251684,-0.05804522,0.903248,13
19.94,-1.481368,1.404853,3.585613,-0.1819712589245648,0.0640440319300584,0.5329300576082112,9.765328,51.09983,182.953,0.4276106,-0.0878396,0.8995833,13
19.96,-1.391109,1.568164,3.66786,-0.2459083301545464,0.0509449593157701,0.5335598234031659,13.39114,51.67628,183.3472,0.4296084,-0.117535,0.8949931,13
19.98,-1.463725,1.208766,3.646691,-0.310238305417932,0.0415476483967862,0.5319085290247142,13.42671,50.54153,183.5545,0.4204869,-0.1188128,0.8992159,13
20.0,-1.373849,1.383093,3.729166,-0.3753421888059992,0.0329320972642883,0.52773218162697,17.03321,51.12428,183.8834,0.42196,-0.1479821,0.8938231,13
20.02,-1.284921,1.553772,3.810025,-0.4631940415169809,-0.0554949016320627,0.5137640387646998,20.63514,51.74125,184.2585,0.4230011,-0.1769926,0.8875246,13
20.04,-1.197118,1.720926,3.889118,-0.523402471670402,-0.0388214629575271,0.5130625726186415,24.23175,52.39958,184.6854,0.4236093,-0.2058131,0.8803284,13
20.06,-1.316435,1.16826,3.836173,-0.5828880179220719,-0.0202326505640096,0.5100429106210205,20.1386,48.77822,184.0883,0.4006323,-0.1736379,0.8987384,13
20.08,-1.229988,1.352797,3.916295,-0.6420381805868365,-0.0027233309570045,0.5045080163777257,23.6931,49.34584,184.2846,0.4012876,-0.2016911,0.891933,13
20.1,-1.144023,1.533909,3.995297,-0.7012248303183553,-0.0043109478569013,0.4962880402653107,27.24453,49.94364,184.5262,0.4015457,-0.2295379,0.8842542,13
20.12,-1.200549,1.139097,3.988192,-0.759346015259535,-0.0202447544871362,0.4764634834692332,26.28336,45.55363,183.9914,0.3694746,-0.2226322,0.9003938,13
20.14,-1.117665,1.331566,4.066973,-0.8144691754210794,-0.0314285986853782,0.456697877162732,29.77858,46.04241,183.9828,0.3694951,-0.249479,0.892413,13
20.16,-1.034901,1.5208,4.145006,-0.8669386009715834,-0.0410840853362703,0.4368580509984919,33.27228,46.54875,184.0095,0.3691632,-0.2760785,0.8835904,13
20.18,-0.9524013,1.706845,4.222159,-0.9309393465958437,-0.1353339839412077,0.4042892344052257,36.76463,47.07873,184.0759,0.368479,-0.3024091,0.873934,13
20.2,-0.8703128,1.783092,4.298302,-0.9605410067461662,-0.1143509232136636,0.3910145502034977,40.2553,47.63984,184.1879,0.3674434,-0.328446,0.8634541,13
20.22,-0.9966362,1.118721,4.230969,-0.98556528717965,-0.0912424687931201,0.3786157275342424,37.37352,41.55066,183.0379,0.3279473,-0.308363,0.8883919,13
20.24,-0.9166289,1.317248,4.308574,-1.0063622021952592,-0.0692970668000378,0.366950684987707,40.7985,41.84313,182.7241,0.3268616,-0.333443,0.8782028,13
20.26,-0.8364707,1.512693,4.385713,-1.016688586728355,-0.0740504583299378,0.3541049737460986,44.22368,42.12547,182.4171,0.3254742,-0.3582109,0.8672135,13
20.28,-0.7562982,1.705076,4.462257,-1.0218062854099994,-0.0747015357734909,0.34260602556457,47.64894,42.39812,182.1156,0.3237867,-0.3826443,0.8554347,13
20.3,-0.7681687,1.113736,4.466875,-1.022040351619315,-0.0746567404887081,0.3323432583969214,46.37356,40.57137,180.386,0.317451,-0.3703806,0.862667,13
20.32,-0.6903039,1.314088,4.543157,-1.0128052332831068,-0.1623762688093314,0.3291251789076344,49.72717,40.73579,179.9506,0.3159568,-0.3940348,0.8505207,13
20.34,-0.612211,1.511489,4.619063,-0.981323963983998,-0.1332982049778197,0.3413361650262225,53.08055,40.8699,179.4981,0.3141821,-0.4173356,0.8376302,13
20.36,-0.5187742,1.103728,4.727954,-0.9449121374172832,-0.1030510995990908,0.3545594298426975,56.46947,37.81807,176.2445,0.3000198,-0.437959,0.8280011,13
20.38,-0.4421483,1.299673,4.801717,-0.9039161993925944,-0.0749557898682311,0.3687045251917367,59.74276,37.55807,175.3651,0.2979899,-0.4598684,0.8138304,13
20.4,-0.3654903,1.492822,4.874936,-0.8586815725161536,-0.0673594040731697,0.3836921696443489,63.01198,37.15846,174.3561,0.2957051,-0.4813781,0.7989748,13
20.42,-0.2889188,1.6832,4.947503,-0.8003871512622165,-0.064255020448058,0.407145396748888,66.27602,36.5646,173.1617,0.2931676,-0.5024735,0.7834459,13
20.44,-0.1099665,1.128616,5.153832,-0.7382377715626899,-0.058947969297482,0.4308693536391332,60.97981,27.02638,166.7116,0.2570861,-0.4667291,0.8185179,13
20.46,-0.03309495,1.312686,5.226417,-0.6725924140900577,-0.0546897776302288,0.4547906592476989,64.05254,25.46429,164.405,0.2553023,-0.4871351,0.8034554,13
20.48,0.0433258,1.494011,5.297985,-0.6083400281618685,-0.0373649939525451,0.4732379771662234,67.08933,23.39171,161.5975,0.2533067,-0.5071349,0.7877372,13
20.5,0.1191753,1.672656,5.368432,-0.5420556763671873,-0.0181720679780529,0.4908325285117023,70.07341,20.58973,158.0691,0.2511026,-0.5267113,0.7713781,13
20.52,0.1974859,1.195206,5.476614,-0.4740940286961457,-0.0002287174465385,0.5075075245664022,48.36526,33.0481,173.1412,0.2824863,-0.3765045,0.8660334,13
20.54,0.2748205,1.37153,5.551489,-0.4047991873488,0.013397654899433,0.5232169832050002,51.50877,32.79687,172.1821,0.2820962,-0.3985353,0.8536549,13
20.56,0.3514408,1.545011,5.625014,-0.3390505445476356,0.0289093113477735,0.5218515502596279,54.64806,32.43556,171.127,0.2814783,-0.420242,0.8405989,13
20.58,0.4272221,1.715738,5.697084,-0.2721550443508523,0.0454929111697795,0.5193289939491657,57.78144,31.93593,169.9462,0.280636,-0.4416073,0.8268767,13
20.6,0.5097203,1.257322,5.785238,-0.204594278092911,0.0600927723266544,0.5154777077354404,20.1021,39.59589,176.5538,0.3382929,-0.1541074,0.9242566,13
20.62,0.5960917,1.425693,5.870769,-0.1372897957243511,0.0024730999367997,0.5097628829119916,23.61682,39.99192,176.3253,0.340711,-0.1814728,0.9171135,13
20.64,0.6813704,1.590433,5.954427,-0.0673250417403964,0.0371338063558149,0.5072435928333479,27.13366,40.38357,176.1177,0.3427977,-0.2086709,0.9090884,13
20.66,0.6309336,1.27576,6.088136,0.0009042694731285,0.0710243359284755,0.5019200151871555,358.4588,43.04238,178.153,0.3665628,0.01842138,0.9301565,13
20.68,0.7172697,1.441515,6.176957,0.0668257177672912,0.1013534724400702,0.4936077053725021,2.018959,43.52241,178.2294,0.3708901,-0.01063306,0.9283812,13
20.7,0.8024228,1.603521,6.263719,0.1298912099261495,0.1103164744227374,0.4821576480309411,5.57729,44.00871,178.336,0.3748489,-0.03966885,0.9256951,13
20.72,0.7939401,1.29387,6.435798,0.1858847871465119,0.1113196739145877,0.4639091415412164,352.8167,43.56183,179.2343,0.3699328,0.06064564,0.9269202,13
20.74,0.8781898,1.455402,6.529147,0.2393091841393164,0.1129716792064923,0.4435486189955078,356.3977,44.01613,179.4894,0.3744184,0.03080914,0.9267164,13
20.76,0.9611611,1.61308,6.620161,0.2895656786965297,0.1124699386555093,0.420858365789712,359.9755,44.48497,179.7722,0.3785261,0.0009505625,0.9255886,13
20.78,1.042684,1.767076,6.708672,0.324675301790468,0.1047733686272905,0.3823035669631556,3.54973,44.97192,180.0848,0.3822523,-0.02890044,0.9235386,13
20.8,1.122592,1.810914,6.794521,0.3563619779266624,0.0990385114465413,0.340970959030733,7.120132,45.48084,180.4297,0.3855934,-0.05871424,0.9205694,13
20.82,0.9886113,1.254799,6.775614,0.3840725418228491,0.0925013210912969,0.2966903010962844,357.3987,43.51725,181.1268,0.3707911,0.01743614,0.9283869,13
20.84,1.069061,1.419164,6.868121,0.4072816151559303,0.082459861776891,0.2493283627893532,0.9542345,43.9887,181.4354,0.3743761,-0.01241145,0.927155,13
20.86,1.148377,1.579864,6.958444,0.4222759562704961,0.0725176464245728,0.1964357184420924,4.506002,44.48026,181.7741,0.3775879,-0.04223828,0.9250097,13
20.88,1.075177,1.237809,7.018535,0.4344148851076884,0.0652317443049482,0.1417548766857157,6.131752,43.3933,182.5775,0.3679522,-0.05798542,0.9280345,13
20.9,1.155855,1.404935,7.113169,0.4431513212884178,0.0577387459188735,0.0851222218725287,9.764233,43.9137,182.9096,0.3704277,-0.08836572,0.924611,13
20.92,1.235493,1.568284,7.20571,0.4286974001609999,-0.0273172439462488,0.013961774874077,13.39247,44.46202,183.2797,0.3725182,-0.1186465,0.9202374,13
20.94,1.313927,1.728002,7.29599,0.4367901392592874,-0.0130972338812779,-0.0409109079681855,17.01659,45.04389,183.6926,0.3742219,-0.1488027,0.9149185,13
20.96,1.170129,1.199698,7.295597,0.441911017856273,0.0027737923704045,-0.0971896689111073,14.75773,42.79122,183.6664,0.3577738,-0.1310913,0.9243994,13
20.98,1.247793,1.376083,7.388659,0.4435381090019835,0.0174551450002428,-0.1549840500054311,18.35893,43.35155,183.9742,0.3592641,-0.160801,0.9188794,13
21.0,1.32479,1.548862,7.480124,0.4653888236722399,0.090956503017258,-0.1991768965602296,21.95591,43.94527,184.327,0.3603881,-0.1903396,0.9124334,13
21.02,1.248073,1.168262,7.519926,0.4465624271619363,0.0503318785045479,-0.2707433161091113,20.13106,42.07301,184.0995,0.3473771,-0.175663,0.9206421,13
21.04,1.324072,1.352811,7.609663,0.4263906862571057,0.0134900490617499,-0.3414569795371454,23.67868,42.62118,184.3058,0.3482607,-0.2043668,0.913963,13
21.06,1.399712,1.533952,7.698251,0.4044427541038007,-0.0226442739079544,-0.41135029239786,27.22321,43.19958,184.5564,0.348801,-0.2328622,0.9063931,13
21.08,1.474852,1.711766,7.785527,0.3888088226166964,-0.0353095570267857,-0.4751641083597171,30.7638,43.81537,184.8566,0.3489972,-0.2611178,0.8979422,13
21.1,1.549351,1.779676,7.871345,0.3732632674343817,-0.0431711765411092,-0.5365725542300142,34.30024,44.47782,185.2147,0.3488501,-0.2891105,0.8886181,13
21.12,1.3999,1.132728,7.739067,0.3573888013112855,-0.0494477556267713,-0.5956365657425491,28.01604,39.38658,183.9935,0.3188245,-0.2391537,0.9157988,13
21.14,1.473773,1.326842,7.825575,0.3620556605857253,0.0285896669904191,-0.6396698410575292,31.50445,39.83868,183.9599,0.3188879,-0.2664127,0.9075202,13
21.16,1.547654,1.517756,7.911422,0.3492742563502027,-0.0050779596523136,-0.6922896321057532,34.99155,40.30597,183.958,0.3186476,-0.2934082,0.8983904,13
21.18,1.523444,1.11869,7.907763,0.3372584370883673,-0.035170248778428,-0.7414143774186759,37.36177,36.85477,183.054,0.2912455,-0.3117455,0.9011224,13
21.2,1.596355,1.317197,7.991684,0.32564418375697,-0.0650350033578276,-0.7870782964376613,40.78067,37.13361,182.7549,0.2904329,-0.3373592,0.8909653,13
21.22,1.66944,1.512638,8.075169,0.3087401949386047,-0.1656326673218278,-0.8326553191599344,44.19965,37.40282,182.4624,0.2893536,-0.3626588,0.8800007,13
21.24,1.742574,1.705033,8.158077,0.3227787365211922,-0.1384961603530259,-0.8532084613959379,47.61864,37.66286,182.1751,0.2880087,-0.3876216,0.8682391,13
21.26,1.753628,1.113663,8.169849,0.3382623474593714,-0.1094385593045149,-0.8693520172706595,46.36988,37.17181,180.4243,0.2916016,-0.37425,0.8717564,13
21.28,1.826135,1.313948,8.251059,0.3548182400974592,-0.0818028088362633,-0.8811531934191361,49.72353,37.34206,180.0275,0.29037,-0.3983737,0.8596066,13
21.3,1.898877,1.511291,8.33192,0.3720740509769349,-0.0739580825875116,-0.8886693091083866,53.07692,37.48623,179.6171,0.2888814,-0.4221412,0.8467067,13
21.32,2.006481,1.103669,8.454113,0.4002897297849542,-0.0801058357980103,-0.8809985104751277,56.46394,35.33709,176.2889,0.2818588,-0.4418333,0.8343905,13
21.34,2.079216,1.29956,8.53158,0.4296782755141622,-0.0831972477090481,-0.8687265150288872,59.73971,35.0929,175.4549,0.280054,-0.4641197,0.8202086,13
21.36,2.151997,1.492663,8.608516,0.4598700278033131,-0.0865917319033278,-0.8519100149037357,63.01165,34.71565,174.4973,0.2780086,-0.4860022,0.8053387,13
21.38,2.224709,1.683,8.684809,0.4989207474426594,-0.0804341443570218,-0.8215568930410209,66.27879,34.15411,173.3638,0.275726,-0.5074673,0.7897916,13
21.4,2.297237,1.763945,8.760345,0.5375349850271727,-0.0720409690886098,-0.7874644853422315,69.53899,33.32304,171.9681,0.2732083,-0.5284973,0.7735811,13
21.42,2.417917,1.128549,8.902606,0.5753430956768933,-0.0646644611636875,-0.7496813031976568,60.98642,25.37723,166.7512,0.245117,-0.4699041,0.822175,13
21.44,2.492042,1.312569,8.977852,0.6119802077904333,-0.0615058139168958,-0.7082425559248775,64.06564,23.83062,164.4883,0.2434658,-0.4906086,0.8071123,13
21.46,2.565738,1.49385,9.052078,0.6423984600968076,-0.0444357627370201,-0.6697298467156463,67.10993,21.77982,161.7306,0.241613,-0.510905,0.7913926,13
21.48,2.694475,1.195099,9.196392,0.6701088472091826,-0.0256565271606935,-0.6285948059700095,48.38037,32.17875,173.1632,0.2758277,-0.3779421,0.8681297,13
21.5,2.770066,1.371376,9.272923,0.6947260507684767,-0.0082690000299098,-0.5849112462091237,51.52785,31.92589,172.2318,0.2754163,-0.4001664,0.8557795,13
21.52,2.844955,1.544815,9.348103,0.7214375508362355,-0.0615668526307049,-0.5356624760151651,54.67118,31.56524,171.206,0.2747831,-0.4220654,0.8427513,13
