t,pX,pY,pZ,aX,aY,aZ,reX,reY,reZ,rtX,rtY,rtZ,ID
6.36,-44.34163,1.091897,-37.79684,1.787663683852232,-0.0683490326476423,0.2791395213262726,15.3912,357.9301,165.0562,-0.0003365446,-0.135079,0.9827331,17
6.38,-44.42659,1.276341,-37.80198,1.8217559662958047,-0.1200064182605631,0.3068932492975875,15.48718,357.577,167.7456,-0.006452378,-0.1361766,0.9853044,17
6.4,-44.49024,1.471961,-37.90441,1.849547153467059,-0.1438454973997746,0.3411487302426108,12.92913,356.745,169.6949,-0.01799991,-0.114623,0.9895145,17
6.42,-44.25124,1.161492,-37.93402,1.870730762404758,-0.1415728701084916,0.3812973967369011,12.83277,358.9137,163.6823,0.006534141,-0.1119539,0.983784,17
6.44,-44.23801,1.366271,-37.97199,1.9068012869329296,-0.1833336772286108,0.4243654862414372,12.03555,356.6134,163.151,-0.01371706,-0.1079659,0.9837829,17
6.46,-44.21465,1.571296,-37.99525,1.935365601388359,-0.1986632530759734,0.475100380690324,11.59668,354.3527,162.3293,-0.03293009,-0.1072352,0.9826491,17
6.48,-44.18796,1.158577,-37.82054,1.956042970952832,-0.1892758482875235,0.5326868706357502,18.63068,359.6665,166.6513,0.01596117,-0.1611041,0.9801751,17
6.5,-44.17799,1.359503,-37.8189,1.968502965952882,-0.1568164901015613,0.5962898908463705,18.94539,357.4072,166.0893,-0.002227335,-0.166027,0.9793056,17
6.52,-44.17234,1.560078,-37.81807,1.9876816985034704,-0.1973038213304025,0.6438302351149563,19.22793,355.2172,165.6235,-0.01993678,-0.1706999,0.9782262,17
6.54,-44.04242,1.190489,-37.69437,1.9988091284937468,-0.2118890743160102,0.6997036736867059,12.09504,5.531116,170.2899,0.05671491,-0.1007922,0.9892829,17
6.56,-44.03317,1.389994,-37.68704,2.001510050499133,-0.2023115387497762,0.7629512945652657,12.53646,3.267686,169.7227,0.03800288,-0.1061617,0.9893456,17
6.58,-44.02887,1.589561,-37.68262,2.013486338362065,-0.2401489379094546,0.8191052971728645,12.87356,1.151343,169.2752,0.02041655,-0.1106776,0.9891923,17
6.6,-44.05543,1.787029,-37.68199,2.016496853291322,-0.2528283721292911,0.8840572863751968,12.61632,3.74926,170.4163,0.04157459,-0.1067171,0.9896412,17
6.62,-43.90334,1.22857,-37.50738,2.010168724476169,-0.242096036674159,0.95667589032585,0.7643225,14.39917,174.881,0.1254938,-0.001014175,0.9910665,17
6.64,-43.89883,1.420202,-37.46841,2.011114102566242,-0.2797653619733367,1.0186598271546927,1.839882,14.16237,174.9801,0.1238392,-0.01051963,0.991206,17
6.66,-43.89726,1.6129,-37.43656,2.0019754122837217,-0.2924523535736977,1.0892057729543012,2.718464,13.9844,175.1236,0.1225914,-0.01834583,0.9912624,17
6.68,-43.62165,1.28822,-37.31471,1.9824760854235564,-0.2819090078056544,1.167078223534575,353.2755,24.02792,179.4976,0.2075382,0.05827443,0.9764575,17
6.7,-43.6059,1.475972,-37.26918,1.952416498368312,-0.2497877420525819,1.2510198381415014,354.4663,24.14539,179.6691,0.2087716,0.04780745,0.9767682,17
6.72,-43.51501,1.277574,-37.33967,1.9286246862916407,-0.2926798270349241,1.3002275301842845,354.9136,30.46741,180.9765,0.2628533,0.04057485,0.9637775,17
6.74,-43.49239,1.469473,-37.30833,1.8950576302713644,-0.3096828223658689,1.35764451345886,355.8472,30.72569,180.984,0.2650472,0.03266302,0.9635163,17
6.76,-43.4754,1.66272,-37.28203,1.8515635427129384,-0.3025766823401025,1.422066074118641,356.5789,31.13696,181.08,0.2685294,0.02622538,0.9627629,17
6.78,-43.45831,1.856021,-37.25741,1.8146461676516263,-0.3449832929897461,1.4594090257181858,357.2982,31.51049,181.1352,0.2716645,0.01999969,0.9620522,17
6.8,-43.35134,1.256821,-37.33933,1.7686230953272473,-0.3606383552121319,1.5049308157612566,3.898714,40.0778,182.2772,0.3417571,-0.0387554,0.9389628,17
6.82,-43.31858,1.446761,-37.30582,1.7134034728510068,-0.3513655008850098,1.5574967191248676,5.200669,40.2946,182.2408,0.3431816,-0.04931241,0.9379698,17
6.84,-43.28421,1.636471,-37.27268,1.6636127287851838,-0.3943879359668977,1.5791706089581543,6.476942,40.5859,182.182,0.3451948,-0.05956899,0.9366372,17
6.86,-43.24533,1.222706,-37.38166,1.6058538183995292,-0.4091191290462294,1.6086220423938995,11.27021,48.23879,183.2233,0.4039834,-0.1010219,0.9090547,17
6.88,-43.20598,1.414447,-37.35129,1.5401115988320333,-0.3974345064149218,1.644894757329606,12.67853,48.60551,183.1831,0.4060891,-0.1119528,0.9067237,17
6.9,-43.16667,1.605592,-37.32115,1.466425050851174,-0.361125051511691,1.687010943819728,14.08825,48.97306,183.1523,0.4081256,-0.1228759,0.9042462,17
6.92,-43.1603,1.184961,-37.41478,1.3992293546967272,-0.4046506665517808,1.6846462336194117,16.63311,54.16434,183.6804,0.4461124,-0.1431824,0.8826519,17
6.94,-43.11606,1.3799,-37.39172,1.3256199654882668,-0.4181927458882127,1.6900583550714394,18.06367,54.48351,183.4967,0.4476018,-0.1532986,0.8798432,17
6.96,-43.07185,1.574239,-37.36885,1.2456676207391872,-0.4036793596838025,1.7024742854137322,19.49622,54.80017,183.3201,0.4490116,-0.163398,0.8768862,17
6.98,-43.02768,1.767969,-37.34615,1.1728923946158003,-0.4449472719975944,1.6827126619070183,20.93205,55.11536,183.1522,0.4503428,-0.1734954,0.8737777,17
7.0,-43.07796,1.149549,-37.42375,1.095104983093348,-0.4547515438868043,1.6708185961440778,22.66761,57.347,183.8449,0.4644119,-0.1881098,0.8629378,17
7.02,-43.03023,1.347217,-37.40129,1.0124080954719643,-0.4350717158240448,1.6661948836300151,24.21644,57.63775,183.6395,0.4652449,-0.198654,0.8594354,17
7.04,-42.98248,1.544208,-37.37897,0.9376321010250176,-0.4714297157873763,1.6386949688755452,25.76812,57.92624,183.4417,0.4659835,-0.209179,0.8557618,17
7.06,-43.12399,1.126504,-37.55264,0.8588706500655148,-0.4753058148764418,1.6188996061297054,24.99191,54.69372,181.9005,0.4452453,-0.199601,0.8687298,17
7.08,-43.16311,1.325112,-37.60366,0.776269014687804,-0.4487092023025644,1.6063380378654806,23.32384,51.19368,181.4759,0.4207349,-0.1877322,0.8842914,17
7.1,-43.2005,1.522697,-37.65571,0.6899983439313742,-0.3935916047632539,1.600512282817113,21.6384,47.75308,181.1681,0.395802,-0.1756898,0.8988935,17
7.12,-43.05489,1.116596,-37.6211,0.6153342010464877,-0.4234559867468548,1.566519131931475,39.24056,50.57033,181.2923,0.3988748,-0.3081325,0.8532579,17
7.14,-43.01945,1.319737,-37.6346,0.5376138422030436,-0.420226341709251,1.5403564299959394,40.10841,45.64487,180.0411,0.3642456,-0.3161938,0.8658745,17
7.16,-42.98314,1.522562,-37.64713,0.4570365140533559,-0.3859256778907279,1.521613231861168,40.89381,40.63932,178.6815,0.3291267,-0.3238343,0.877233,17
7.18,-42.923,1.113347,-37.60888,0.3887019530130091,-0.4077456945011831,1.4914005104176944,45.14274,46.20269,180.2688,0.3614756,-0.3539043,0.8497078,17
7.2,-42.8723,1.315574,-37.58298,0.3175699891598205,-0.3964482847487882,1.4685777883967628,47.18407,41.52909,179.4939,0.3265459,-0.3727868,0.8562578,17
7.22,-42.82203,1.517078,-37.55569,0.2439109536389256,-0.3540330716683696,1.4527470813968613,49.17648,36.63018,178.4361,0.2911118,-0.3910796,0.861393,17
7.24,-42.67954,1.104615,-37.51468,0.1827513728035974,-0.3673347559487329,1.4458310214299177,55.62547,37.89083,176.2394,0.3014861,-0.431648,0.831143,17
7.26,-42.63169,1.30336,-37.47273,0.1179360240499827,-0.3485160606011861,1.4445498539071595,57.91228,32.82949,175.0932,0.2669154,-0.4533969,0.8327012,17
7.28,-42.58501,1.501206,-37.42974,0.0499029109157316,-0.29947869649927,1.44841632222158,60.13355,27.33799,173.4684,0.2319155,-0.4743776,0.8328201,17
7.3,-42.53961,1.698164,-37.38583,-0.0208795625343976,-0.2220638962813824,1.4569324279726483,62.26219,21.32333,171.2772,0.1965443,-0.4945583,0.8314999,17
7.32,-42.3946,1.120952,-37.29007,-0.0755974795002654,-0.2195510031302737,1.4643638627209246,61.14382,22.83922,167.3587,0.2243207,-0.4767523,0.8277302,17
7.34,-42.35558,1.311684,-37.23046,-0.1345511158690593,-0.1863254824342879,1.476199146763283,63.49535,16.63608,164.9686,0.1900641,-0.5000803,0.8242427,17
7.36,-42.31881,1.501361,-37.17078,-0.1970907747464636,-0.1241949146373589,1.491832150954635,65.70408,9.662783,161.7686,0.1554984,-0.5225075,0.819279,17
7.38,-42.14422,1.18227,-37.07334,-0.2386942397760156,-0.102323823102161,1.5097570279654526,51.4601,22.44302,171.2612,0.2072409,-0.4112381,0.8746226,17
7.4,-42.11536,1.365655,-37.00114,-0.2724364912141528,-0.0789654302383159,1.5326839919925312,53.94119,17.1106,169.6794,0.1723848,-0.434744,0.8716821,17
7.42,-42.0896,1.547861,-36.92979,-0.2999703405442613,-0.0591905893047656,1.5744975902569704,56.31756,11.32687,167.5909,0.1372501,-0.4574591,0.8671673,17
7.44,-41.91294,1.244458,-36.87616,-0.3348703128373884,-0.0377234272544652,1.6172063437136694,31.3732,25.38588,175.2623,0.2222637,-0.2547988,0.9359688,17
7.46,-41.88682,1.420768,-36.78678,-0.3776535511840295,-0.0196065011415216,1.6722259270540691,34.23938,20.87434,174.4325,0.1869861,-0.2807482,0.9361803,17
7.48,-41.86477,1.595345,-36.69892,-0.4290797611951182,-0.0084953711250368,1.7367772399809196,37.04024,16.15288,173.2938,0.1513843,-0.3061569,0.9345902,17
7.5,-41.84671,1.768361,-36.61292,-0.4889199279645373,0.0847203419654062,1.7804859492298926,39.75512,11.18021,171.8147,0.1155248,-0.3309934,0.9311985,17
7.52,-41.72491,1.271908,-36.67928,-0.5157842794482166,0.0788388942546723,1.802268303079229,7.66211,25.75554,177.378,0.2238058,-0.0600294,0.9720741,17
7.54,-41.70331,1.444108,-36.57848,-0.5491652474707482,0.0681116434599195,1.829978800856568,10.80568,21.63362,176.9034,0.1892664,-0.08740277,0.9770341,17
7.56,-41.68624,1.614118,-36.47977,-0.6067338161494691,0.1344687626955448,1.8442444658582808,13.90902,17.43962,176.1919,0.1543806,-0.1146157,0.9800176,17
7.58,-41.54612,1.287558,-36.47896,-0.6364303446258557,0.1268869280129325,1.8476257860005545,353.1227,26.51558,178.526,0.22815,0.06132096,0.9716923,17
7.6,-41.52985,1.454155,-36.36728,-0.6736738228286292,0.1136011234758833,1.855125516556112,356.5208,22.50487,178.2707,0.1945706,0.03271384,0.9803028,17
7.62,-41.51863,1.618158,-36.2585,-0.7127070613895503,0.0913453301638278,1.866277707160652,359.8917,18.49054,177.7792,0.1606128,0.004045734,0.9868269,17
7.64,-41.39263,1.283551,-36.27439,-0.7385767405904371,0.097778616410785,1.831900648952255,353.7425,23.47906,179.5413,0.202944,0.05425142,0.9776599,17
7.66,-41.38528,1.447351,-36.1573,-0.7719067129366213,0.1016484675592342,1.795137145074766,357.2569,19.47062,179.3717,0.1689165,0.02451798,0.9853245,17
7.68,-41.38302,1.608353,-36.04377,-0.8110787380774402,0.0993056771979607,1.7557948918888302,0.7498503,15.46011,178.9574,0.1345565,-0.005260159,0.9908426,17
7.7,-41.38562,1.766895,-35.93431,-0.895940514375047,0.1649304248240648,1.6992047679992233,4.204208,11.41791,178.2986,0.09993931,-0.03501851,0.9942067,17
7.72,-41.27292,1.251033,-36.10905,-0.9379494491348844,0.1288360222084757,1.603918864765843,359.423,19.02415,181.1326,0.1652944,0.003332087,0.9861819,17
7.74,-41.27053,1.417189,-35.99275,-1.0011481587831534,0.1471297136278744,1.5219984782668776,2.994451,15.01422,180.9337,0.1303893,-0.02696787,0.9910851,17
7.76,-41.27279,1.58053,-35.88004,-1.0748768000652884,0.1611355395388497,1.4379070542758017,6.542861,10.9752,180.4851,0.09523313,-0.05720838,0.993809,17
7.78,-41.16216,1.232473,-36.00386,-1.110065001638211,0.0940928698235616,1.321827521993585,8.28469,17.2437,182.6852,0.1478063,-0.0749021,0.9860995,17
7.8,-41.15955,1.402437,-35.88802,-1.1549267016860076,0.0220814635430114,1.2065107770123724,11.91652,13.22043,182.5171,0.1122,-0.1056037,0.98801,17
7.82,-41.16128,1.569528,-35.77543,-1.2219402277101956,0.0603291152642098,1.1069557663999428,15.52647,9.127601,182.0829,0.07637951,-0.1360622,0.9877255,17
7.84,-41.06351,1.199988,-35.92676,-1.2532438683541542,0.0166189151179814,0.9746569985448614,14.79653,14.242,183.4562,0.1190242,-0.1314214,0.9840597,17
7.86,-41.0585,1.377769,-35.81607,-1.2963162406970046,-0.0282544150762633,0.8435923452491441,18.39397,10.20067,183.2477,0.08321074,-0.1616194,0.983244,17
7.88,-41.05727,1.552819,-35.70777,-1.351087094709917,0.0125966935354568,0.7341857955136346,21.96695,6.055261,182.7621,0.04724942,-0.1914543,0.9802697,17
7.9,-41.05967,1.725356,-35.60229,-1.416884744434891,0.050065404227199,0.6258992863944046,25.49576,1.766512,181.9799,0.01122093,-0.220862,0.9751479,17
7.92,-40.96408,1.168733,-35.84901,-1.439412519485411,-0.0240733455129942,0.4783428208677733,20.16856,8.180105,183.8303,0.06434651,-0.1768999,0.9819127,17
7.94,-40.95802,1.354806,-35.74352,-1.4686291618806626,-0.0077742115733311,0.3532043547081862,23.69727,4.073498,183.4536,0.02858417,-0.2061521,0.9778511,17
7.96,-40.95519,1.538311,-35.63953,-1.477675517972603,-0.0479774695633224,0.2107442534724706,27.1901,359.8235,182.7832,-0.007205223,-0.2349522,0.9716848,17
7.98,-40.86065,1.139443,-35.80896,-1.4982865014010418,-0.0871079054224433,0.0752476978203162,26.32134,3.765041,183.7816,0.02446174,-0.2284912,0.9729269,17
8.0,-40.85077,1.333276,-35.70789,-1.5299808296002793,-0.1288327606035641,-0.053809932957062,29.77789,359.5562,183.2398,-0.01100464,-0.256736,0.9660042,17
8.02,-40.84379,1.524678,-35.60739,-1.5580831089886926,-0.0550416148127987,-0.1619370038023406,33.1878,355.156,182.378,-0.04641121,-0.2844294,0.9570404,17
8.04,-40.74986,1.122286,-35.71665,-1.548447206791991,-0.0954512927594638,-0.2936004696920733,34.74203,357.8546,183.0418,-0.02578405,-0.2979263,0.9537397,17
8.06,-40.73876,1.321418,-35.61879,-1.5498771667497555,-0.1340952996216012,-0.4166859938356051,38.10826,353.4107,182.1971,-0.06056017,-0.3248204,0.9431152,17
8.08,-40.73032,1.518248,-35.52091,-1.533577368580306,-0.0825654355843683,-0.502233165628784,41.40861,348.6851,180.9661,-0.09517729,-0.351033,0.9305342,17
8.1,-40.72453,1.712803,-35.42332,-1.4818463522462348,-0.1161237257937436,-0.5880008114966886,44.61518,343.6081,179.2915,-0.1295643,-0.3765102,0.9160273,17
8.12,-40.61471,1.11559,-35.56954,-1.4259968835186705,-0.1476433821283101,-0.6513735822403932,43.27869,353.4339,181.4638,-0.05793082,-0.3674477,0.9276526,17
8.14,-40.60641,1.317066,-35.47276,-1.392283805757403,-0.0903707644325013,-0.7050533619830688,46.57473,348.7611,180.407,-0.09134059,-0.3931211,0.9139762,17
8.16,-40.60072,1.516291,-35.37578,-1.336789795476931,-0.1197686123555006,-0.7548904573431177,49.79458,343.6925,178.8696,-0.124532,-0.4179857,0.8984398,17
8.18,-40.4924,1.110399,-35.40942,-1.2880613975086597,-0.1481158593017841,-0.7876790391710191,50.70128,350.4925,178.4634,-0.06916545,-0.4276499,0.9009908,17
8.2,-40.48851,1.310913,-35.3146,-1.249086865275273,-0.0874155691414146,-0.8110442783220071,53.92889,345.5384,177.1503,-0.1009632,-0.4524819,0.8853457,17
8.22,-40.48714,1.50929,-35.2198,-1.2057344480803858,-0.1111780045797037,-0.8211368815286617,57.06925,340.0368,175.2204,-0.1325277,-0.4763997,0.8679309,17
8.24,-40.38406,1.105032,-35.10872,-1.1711189311318062,-0.135035200921839,-0.822081188694975,61.20009,341.3421,170.8065,-0.09882364,-0.5118759,0.8532386,17
8.26,-40.39375,1.297377,-35.0173,-1.158425955380781,-0.0705789150876569,-0.8162728228783642,64.25008,335.1178,168.1955,-0.1280849,-0.5352906,0.8343996,17
8.28,-40.40572,1.487794,-34.9271,-1.153603972040231,-0.0077507143064146,-0.8042997049497904,67.13766,327.7932,164.4379,-0.1570608,-0.557641,0.8139226,17
8.3,-40.41988,1.676362,-34.83838,-1.1328623710383736,-0.0482266000160587,-0.7899764876480733,69.78033,318.9926,159.1657,-0.1856977,-0.5788867,0.7918504,17
8.32,-40.30657,1.145162,-34.78838,-1.121127105278771,-0.0913770349910245,-0.7709746305805947,58.27811,331.1109,167.4507,-0.1650321,-0.4925264,0.8540388,17
8.34,-40.33482,1.328503,-34.70014,-1.1324652913532391,-0.0246668264487525,-0.7555357060484962,61.15573,324.7268,164.5602,-0.1933589,-0.5154439,0.8337402,17
8.36,-40.36506,1.509993,-34.61454,-1.1255459954830416,-0.0265777818789624,-0.7350706775353855,63.83869,317.4042,160.6839,-0.2212818,-0.5373555,0.8118344,17
8.38,-40.2285,1.212813,-34.53821,-1.1284045274813073,-0.0301303192572003,-0.7136409240517576,42.95196,336.2877,173.6967,-0.1712025,-0.3682702,0.9134771,17
8.4,-40.27122,1.388348,-34.44744,-1.160593810087466,0.0375064177460289,-0.6976138301944861,46.08096,331.4312,172.2979,-0.2010667,-0.3936741,0.8962501,17
8.42,-40.31587,1.561771,-34.36052,-1.1657617840522052,0.0343748684688844,-0.6836113074407875,49.10906,326.1696,170.4161,-0.2305061,-0.4182985,0.877274,17
8.44,-40.14706,1.257929,-34.32884,-1.1811296575043064,0.0293851727260393,-0.6716140645982955,19.94166,338.9489,176.3343,-0.1743786,-0.1759006,0.9688399,17
8.46,-40.20151,1.427483,-34.22952,-1.227995740457552,0.091926111999864,-0.6598320894276188,23.40434,334.8047,175.5761,-0.205771,-0.2060371,0.9566365,17
8.48,-40.258,1.594278,-34.13503,-1.283741197641767,0.1509215627156953,-0.6542988610619327,26.8073,330.4964,174.5202,-0.2366977,-0.2357529,0.9424431,17
8.5,-40.31616,1.758618,-34.04564,-1.298601129380252,0.1123239060339789,-0.6601706289926286,30.12586,325.9812,173.1385,-0.2670997,-0.2649704,0.9262953,17
8.52,-40.10589,1.276406,-34.13599,-1.3233921818721075,0.0707665096604163,-0.6721945018539364,358.3421,339.0562,177.9391,-0.1819603,0.01095577,0.9830351,17
8.54,-40.17103,1.443442,-34.04005,-1.3721824843747443,0.1232781974654073,-0.6684651237761887,1.878044,335.2069,177.5309,-0.2142531,-0.02062711,0.9764032,17
8.56,-40.23779,1.607634,-33.94942,-1.3917479026526631,0.105193365395678,-0.6720800800747986,5.377443,331.3212,176.8841,-0.2460655,-0.05215769,0.9677373,17
8.58,-40.06508,1.294332,-33.95559,-1.4218460960813903,0.0851454344461005,-0.6849059360470244,352.8374,338.612,179.0618,-0.1856973,0.05986196,0.9805857,17
8.6,-40.14185,1.456943,-33.86317,-1.4793115802083276,0.1342952524833022,-0.6932513802430824,356.4191,334.7927,178.8723,-0.2183881,0.02834377,0.9753122,17
8.62,-40.21979,1.616553,-33.77677,-1.4945898807397358,0.1065030529892231,-0.7144744231641482,359.9793,330.9729,178.4454,-0.2505881,-0.003224536,0.9679988,17
8.64,-40.01341,1.26243,-33.85306,-1.5198473128221446,0.0784093409909513,-0.7469434216345796,355.774,336.0324,180.3803,-0.2073734,0.03675551,0.9775613,17
8.66,-40.09231,1.427329,-33.76651,-1.5707057241915736,0.1215169474968931,-0.772976137413302,359.3284,332.213,180.2364,-0.2401018,0.006184267,0.9707279,17
8.68,-40.17205,1.58936,-33.68568,-1.6287665648272984,0.1622279292461239,-0.8123978085924017,2.864416,328.384,179.8559,-0.2722993,-0.02439135,0.9618873,17
8.7,-40.25216,1.748839,-33.61076,-1.6303090917241816,0.1042781888980169,-0.8668047284391855,6.365888,324.5163,179.2372,-0.3039002,-0.05490768,0.9510614,17
8.72,-39.9738,1.241076,-33.761,-1.6401297565433923,0.0460715457608294,-0.9333673784220552,4.026923,332.2731,181.8497,-0.2399801,-0.03024115,0.9700079,17
8.74,-40.05514,1.408531,-33.67674,-1.6738404542836252,0.08546542783893,-0.9704567995286588,7.65494,328.4459,181.6833,-0.2722031,-0.06024571,0.9598104,17
8.76,-40.13713,1.573045,-33.59792,-1.6551195562086818,0.0485712984202773,-1.02239575755923,11.26341,324.5713,181.2695,-0.30382,-0.09012023,0.9475985,17
8.78,-39.88567,1.217673,-33.73313,-1.6451164196871435,0.0135814400683624,-1.085164406497242,11.92535,330.9353,183.1806,-0.2522638,-0.09359218,0.9616747,17
8.8,-39.96309,1.391165,-33.64941,-1.6592319197580316,0.0538413070887597,-1.1242820158595477,15.5494,327.1005,183.0294,-0.283903,-0.122279,0.9489077,17
8.82,-40.04133,1.561787,-33.57039,-1.6232910446882078,0.0149478389869533,-1.1782073455713054,19.15423,323.1831,182.6196,-0.3149149,-0.1507024,0.9341598,17
8.84,-39.79126,1.1835,-33.71675,-1.5963852535951002,-0.0210358194017321,-1.241625416390395,17.4374,327.9993,183.7284,-0.2770544,-0.1367705,0.9482901,17
8.86,-39.86231,1.365304,-33.6344,-1.5920830478177086,0.0229388740699018,-1.275919756446898,21.00895,324.1387,183.5067,-0.3078713,-0.1641143,0.9333294,17
8.88,-39.93447,1.544409,-33.55573,-1.5959714100977278,0.0660936971764271,-1.3190239557874532,24.55685,320.1648,183.0157,-0.3380217,-0.1911133,0.9164531,17
8.9,-40.00743,1.720985,-33.48096,-1.5376269640025768,-0.0005153204643439,-1.3764500736133796,28.06286,316.0382,182.2338,-0.3674431,-0.2177089,0.8977006,17
8.92,-39.70227,1.153514,-33.69041,-1.4882562233877064,-0.064891843210853,-1.4413844234162188,23.08616,321.718,183.8359,-0.3274097,-0.1781836,0.9228927,17
8.94,-39.76859,1.343608,-33.6102,-1.4613580812605165,-0.0212315720152556,-1.46188756739134,26.58113,317.7597,183.3935,-0.35687,-0.2039699,0.9049923,17
8.96,-39.6125,1.133187,-33.69271,-1.389333117770439,-0.0613700256664478,-1.494223724193792,28.0395,319.4211,183.7453,-0.3436794,-0.2161097,0.9067823,17
8.98,-39.67292,1.32877,-33.61175,-1.3274507156524675,-0.098212384059912,-1.5314907969890372,31.46988,315.3595,183.1474,-0.3723031,-0.2407352,0.8872456,17
9.0,-39.73509,1.52193,-33.53288,-1.2884417442241736,-0.0480720085717623,-1.5335298152826544,34.85275,311.098,182.2327,-0.4001539,-0.2648755,0.8659545,17
9.02,-39.79877,1.712725,-33.45634,-1.2097308228750707,-0.0825957139405871,-1.5424251976821075,38.16626,306.5839,180.9612,-0.42718,-0.288485,0.8429547,17
9.04,-39.52784,1.117678,-33.59305,-1.142459301034128,-0.1142458856396531,-1.5571727989414033,39.64311,312.7402,182.4384,-0.383604,-0.3025666,0.8587878,17
9.06,-39.58687,1.318218,-33.51434,-1.0986860219358148,-0.0577082521789903,-1.546968678300881,42.97837,308.3545,181.4753,-0.409521,-0.3245012,0.8354502,17
9.08,-39.64785,1.516447,-33.43725,-1.0657436408901235,-0.0017222315038193,-1.541690346926929,46.2449,303.6359,180.0909,-0.4346102,-0.3457992,0.8104952,17
9.1,-39.49156,1.114996,-33.50801,-0.9872855098114552,-0.0621090093306619,-1.538833706608413,44.68569,310.3936,180.8783,-0.3906429,-0.3420967,0.838358,17
9.12,-39.55222,1.316636,-33.4323,-0.9193105161385056,-0.121543956880244,-1.5448488326784382,47.97224,305.9191,179.8611,-0.4149213,-0.3625807,0.8139932,17
9.14,-39.61483,1.516023,-33.35815,-0.8764279277654614,-0.0650622849266402,-1.5235735989300077,51.18982,301.0478,178.3687,-0.4383766,-0.3823664,0.7880802,17
9.16,-39.48277,1.107577,-33.37495,-0.8122238640124362,-0.0957104148452861,-1.513866158168831,53.31756,306.6045,177.4118,-0.3923677,-0.4098082,0.8027658,17
9.18,-39.54576,1.307028,-33.30432,-0.7557989159779366,-0.1252190367240372,-1.5146420133100218,56.52402,301.696,175.9689,-0.414249,-0.4283604,0.7768586,17
9.2,-39.6104,1.504354,-33.23545,-0.7216014019946337,-0.0665429617778769,-1.5063727049400075,59.64116,296.18,173.8579,-0.4353205,-0.4460983,0.7495017,17
9.22,-39.58938,1.109687,-33.1512,-0.6648715919490966,-0.0874196264860397,-1.5166872378210652,62.61069,294.5079,167.4539,-0.4116451,-0.4849051,0.7450324,17
9.24,-39.66118,1.299545,-33.09328,-0.611635598732426,-0.1083885296870403,-1.5378662974745856,65.57237,287.9671,164.3145,-0.4299543,-0.5013546,0.7170852,17
9.26,-39.73354,1.487477,-33.03794,-0.576337817669363,-0.042658996882245,-1.5720852787673794,68.34007,280.188,159.8966,-0.447441,-0.5168695,0.6878238,17
9.28,-39.80621,1.673572,-32.98529,-0.5421690318587098,0.0219971604239509,-1.616271960999299,70.81954,270.7766,153.8134,-0.4640714,-0.5314241,0.6573051,17
9.3,-39.71677,1.162561,-32.95817,-0.4686314502307676,-0.0127218388603309,-1.663037783212574,55.67468,288.0338,168.438,-0.4788513,-0.4282728,0.7395445,17
9.32,-39.80016,1.343706,-32.91473,-0.3926487174629098,-0.0490135987616206,-1.7207059889252028,58.56864,282.168,165.8615,-0.4968973,-0.4451236,0.71129,17
9.34,-39.883,1.522945,-32.87464,-0.3326917480367051,0.0176198173498384,-1.7829653750579944,61.29267,275.5246,162.4585,-0.5140131,-0.4611606,0.6817556,17
9.36,-39.78518,1.2297,-32.80919,-0.2378347232136768,0.0145758345106635,-1.8424886751892844,37.6917,294.0489,174.459,-0.5014025,-0.2955659,0.8015005,17
9.38,-39.88281,1.402976,-32.7701,-0.136196348639487,0.0111703076358735,-1.913144402669535,40.9304,289.5897,173.2455,-0.5223516,-0.3170095,0.776067,17
9.4,-39.97918,1.573886,-32.73527,-0.0522460030052869,0.0758207492934039,-1.9928520319133105,44.08216,284.8063,171.6226,-0.542284,-0.3378478,0.7491779,17
9.42,-39.8294,1.264271,-32.70049,0.0677090755979783,0.0679170796574513,-2.058103121556837,13.80999,296.5755,176.9385,-0.5189229,-0.1161777,0.8459152,17
9.44,-39.93805,1.433274,-32.66514,0.1980544622211306,0.0601917693765659,-2.1331068003941684,17.29407,292.7291,176.315,-0.543303,-0.1427177,0.8253671,17
9.46,-40.04491,1.599439,-32.63457,0.3070949539345138,0.1209438231941709,-2.209030629784529,20.72993,288.7659,175.4323,-0.566578,-0.1689727,0.8032024,17
9.48,-40.14951,1.763055,-32.60873,0.426740552703416,0.1801081684408051,-2.295026222205019,24.09756,284.6509,174.2703,-0.5887067,-0.1948876,0.7794678,17
9.5,-39.9133,1.279928,-32.61899,0.5773916006751572,0.1393566881242968,-2.357576508073114,354.4036,296.0314,178.1685,-0.5296495,0.03294655,0.8466608,17
9.52,-40.02736,1.44608,-32.59426,0.743089460009891,0.0974801063484713,-2.428291739504864,357.9496,292.3893,177.8342,-0.5564661,0.004351052,0.830463,17
9.54,-40.13893,1.609321,-32.57435,0.8835234188826488,0.1482299744535019,-2.479857968943347,1.466157,288.7313,177.2756,-0.5821508,-0.02424457,0.8126329,17
9.56,-39.98162,1.296488,-32.54826,1.0404189719445247,0.1216520052059757,-2.51410024925363,353.4744,294.729,179.3034,-0.5386999,0.04465628,0.8405513,17
9.58,-40.1015,1.458417,-32.53471,1.213764043459105,0.0951888951028452,-2.5537967880108736,357.0553,291.0874,179.1591,-0.5657308,0.01703594,0.8241571,17
9.6,-40.2181,1.617282,-32.52611,1.3673565172124809,0.1372313364115134,-2.5843380860013365,0.618789,287.4451,178.7882,-0.591608,-0.01060974,0.8061384,17
9.62,-39.97427,1.255028,-32.52686,1.5300548861355958,0.1032285029185665,-2.6057703463033226,357.4469,292.0545,180.9514,-0.5584871,0.02311315,0.8291727,17
9.64,-40.09079,1.420444,-32.51701,1.710520250490461,0.0701320479846661,-2.6305354198980693,1.008768,288.4138,180.8156,-0.5848732,-0.002977598,0.8110459,17
9.66,-40.20419,1.582947,-32.51165,1.8657685565889093,0.1117602330190481,-2.634380719904911,4.553774,284.7574,180.4537,-0.6100777,-0.02905223,0.7913352,17
9.68,-40.31402,1.742833,-32.51062,2.015347757227439,0.0789810307698673,-2.635410978556152,8.067298,281.0571,179.8622,-0.6340533,-0.0550627,0.7700825,17
9.7,-39.98606,1.238229,-32.52185,2.1821732084761365,0.0475221801160976,-2.638129336913974,6.195014,288.2692,182.3762,-0.5858094,-0.03165007,0.8083812,17
9.72,-40.10311,1.406543,-32.51539,2.365975088949752,0.0144588285496441,-2.641940375070896,9.834624,284.6202,182.2257,-0.61034,-0.05598801,0.7872521,17
9.74,-40.21712,1.571863,-32.51309,2.490891344424514,0.0003573436153127,-2.615916005643663,13.45621,280.917,181.8358,-0.6336187,-0.08020776,0.7645599,17
9.76,-39.90965,1.209008,-32.53039,2.6313506619153744,-0.0103158502888867,-2.591551324743823,13.47133,286.8866,183.3692,-0.594021,-0.07678483,0.7953252,17
9.78,-40.02237,1.384513,-32.5212,2.7872734940615125,-0.020499455799637,-2.568454290311653,17.08678,283.2331,183.2312,-0.6170707,-0.09909287,0.7722659,17
9.8,-40.13279,1.557144,-32.51571,2.90847720295325,0.0444901929939123,-2.514950496756988,20.68504,279.4944,182.8445,-0.638868,-0.1211994,0.7476896,17
9.82,-39.83436,1.17612,-32.53942,3.0085421660458023,0.0028075306671415,-2.472115681008108,18.75886,283.317,183.8698,-0.6160207,-0.107085,0.7699868,17
9.84,-39.94173,1.35992,-32.5274,3.1230912565916285,-0.0357951925977611,-2.4301992140901643,22.31518,279.6256,183.6272,-0.6374516,-0.1277185,0.7451735,17
9.86,-40.04765,1.541018,-32.51859,3.2028241150859538,0.0075315597805047,-2.355876045622539,25.84802,275.8177,183.1243,-0.6576136,-0.1480998,0.7189246,17
9.88,-40.15178,1.719563,-32.51292,3.27124035162677,-0.0323796637233448,-2.2929651968563043,29.34058,271.8546,182.3389,-0.6764679,-0.1681828,0.6912956,17
9.9,-39.76891,1.145933,-32.54566,3.3519866175725994,-0.0689390316247245,-2.230868143061845,24.61021,276.8442,183.8443,-0.653374,-0.1375858,0.7257141,17
9.92,-39.87166,1.337998,-32.5324,3.4452121534328715,-0.1053950446732044,-2.169485997708541,28.08788,273.0429,183.3725,-0.6724086,-0.1563676,0.6987248,17
9.94,-39.97379,1.527521,-32.52193,3.48094818477443,-0.1178178600272698,-2.075612905088024,31.52782,269.0787,182.6165,-0.6901329,-0.174841,0.6704221,17
9.96,-39.69433,1.125244,-32.5542,3.525776065049592,-0.1259267850545531,-1.981580159152112,32.09383,272.2225,183.3641,-0.6718086,-0.1795734,0.6866826,17
9.98,-39.79333,1.323398,-32.53862,3.546398364286964,-0.0733563251244925,-1.8635149414367191,35.4915,268.2483,182.6575,-0.6884143,-0.1962909,0.6578366,17
10.0,-39.89236,1.519156,-32.52555,3.573400129854708,-0.0211707708751777,-1.7450863909859962,38.83768,264.0432,181.6189,-0.7037064,-0.2126397,0.6277777,17
10.02,-39.64002,1.116766,-32.53668,3.591057254504908,-0.0847460890294957,-1.6394192054781795,41.78672,252.9024,181.8017,-0.7547113,-0.2000462,0.5504924,17
10.04,-39.73795,1.318537,-32.53965,3.616495995694853,-0.1469419017004273,-1.532996210808622,45.01031,248.4288,180.4875,-0.7648724,-0.2119743,0.5181191,17
10.06,-39.83582,1.518,-32.54506,3.599645391445354,-0.0936618194089309,-1.3944515053957938,48.14483,243.5796,178.7224,-0.7736198,-0.2235181,0.4848244,17
10.08,-39.93333,1.71516,-32.55289,3.587628025516902,-0.126368953628921,-1.262824591419399,51.1589,238.2668,176.4275,-0.7809407,-0.2346581,0.4506705,17
10.1,-39.64133,1.114334,-32.54119,3.5801430540043366,-0.1572001251526994,-1.130327049831986,47.92081,232.0567,178.7949,-0.819224,-0.186831,0.4048169,17
10.12,-39.73121,1.316813,-32.57233,3.5447310893355555,-0.0999931966357447,-0.9754704739402582,50.99596,227.2121,177.0998,-0.8224441,-0.1932587,0.3713092,17
10.14,-39.82039,1.517107,-32.60578,3.5319500922181186,-0.128563743524815,-0.8183329674996944,53.96139,221.8788,174.8551,-0.8241906,-0.1993323,0.3371796,17
10.16,-39.68867,1.103838,-32.67083,3.520632640084578,-0.1565451791897988,-0.6603301469435303,59.48614,210.8992,173.097,-0.8274102,-0.1823029,0.2596649,17
10.18,-39.75812,1.299895,-32.72945,3.481731571508244,-0.0964662325744039,-0.4886396740698835,62.39646,204.9344,170.33,-0.8228128,-0.1818252,0.2266337,17
10.2,-39.82579,1.494014,-32.7894,3.4429606373045907,-0.0378441460653525,-0.3164365662662129,65.13945,198.0216,166.5732,-0.8167734,-0.1810373,0.1932402,17
10.22,-39.68597,1.131649,-32.91738,3.419744356795902,-0.0852586169527621,-0.1492072927963255,60.56057,182.7573,165.6059,-0.8549973,-0.1201942,0.08376589,17
10.24,-39.72511,1.319433,-32.99571,3.3835318629022764,-0.0461959532620636,0.0162302943661707,63.0634,175.7579,161.6762,-0.8439823,-0.1165137,0.05206907,17
10.26,-39.76173,1.505522,-33.07384,3.347677810620998,-0.006755832036919,0.1827051303135096,65.30264,167.7473,156.7014,-0.8315435,-0.1126469,0.02031349,17
10.28,-39.7958,1.689992,-33.15155,3.3337330432145,-0.0373486332359412,0.3417201203333952,67.19666,158.5921,150.5549,-0.8176931,-0.1085938,-0.01144043,17
10.3,-39.54921,1.199615,-33.17971,3.320615122341855,-0.0701151232772946,0.5027140798092669,47.85289,168.7882,172.1565,-0.9102748,-0.02269263,-0.06147657,17
10.32,-39.55282,1.381122,-33.26664,3.284223466328747,-0.0039753133225694,0.6684999202436819,50.4444,163.479,169.7923,-0.8971732,-0.01866335,-0.09194592,17
10.34,-39.55396,1.561036,-33.35181,3.267203623567733,-0.0070360244193778,0.8192216543246156,52.87421,157.7,166.9091,-0.8826096,-0.01461007,-0.1222344,17
10.36,-39.33912,1.256225,-33.34846,3.2533493826325035,-0.0112345654613752,0.9736443570174664,25.59981,157.3443,175.0239,-0.9571409,0.001968531,-0.1819309,17
10.38,-39.31509,1.432445,-33.44205,3.2157671661012985,0.0508638246746144,1.12692790610339,28.46539,153.1107,173.4323,-0.944468,0.003067447,-0.2113014,17
10.4,-39.2888,1.606673,-33.53267,3.182439613186124,0.1100590176662141,1.2817215673655964,31.21692,148.6697,171.5548,-0.930181,0.004171258,-0.2402757,17
10.42,-39.06411,1.279867,-33.44376,3.1577439800020146,0.0728058105065479,1.407959462714226,1.651598,144.0235,176.9922,-0.9508104,-0.02051026,-0.3083243,17
10.44,-39.01299,1.456204,-33.52041,3.103016828246255,0.1053041807319225,1.537007165599885,4.467162,140.4646,175.8763,-0.9402221,-0.02065999,-0.3364126,17
10.46,-38.96074,1.630749,-33.59359,3.0552545371685014,0.1365949991627095,1.6676815280104504,7.210065,136.8372,174.5839,-0.9281124,-0.02074519,-0.3639224,17
10.48,-38.90759,1.803658,-33.66316,3.0282724346178744,0.0969544916510785,1.778293967038458,9.867951,133.1262,173.1116,-0.9145032,-0.02076854,-0.3908085,17
10.5,-38.71394,1.298569,-33.49962,3.0094595878848445,0.0550873045325954,1.8922804713428087,351.7042,126.3234,178.1683,-0.8893114,-0.04687658,-0.4512659,17
10.52,-38.62843,1.469375,-33.55008,2.948199770298266,0.1046936369819449,2.0139147935414696,354.7488,122.9352,177.3444,-0.8768821,-0.04221155,-0.4779589,17
10.54,-38.54359,1.63812,-33.59628,2.901173187571499,0.0787854208890614,2.10751195280051,357.7419,119.5185,176.3477,-0.8629943,-0.03744395,-0.5038233,17
10.56,-38.43968,1.273965,-33.46671,2.863484384996184,0.052608222244011,2.20423287075183,353.8405,112.6533,179.2835,-0.830808,-0.03498413,-0.5539252,17
10.58,-38.3373,1.442764,-33.4908,2.795483721708802,0.0942842928208011,2.302068547523393,357.0933,109.2264,178.6749,-0.8147749,-0.02411063,-0.5791076,17
10.6,-38.23701,1.609222,-33.51075,2.7371263782645485,0.1335622052493953,2.4017253430144567,0.3051439,105.7729,177.8769,-0.7973318,-0.01316704,-0.6032513,17
10.62,-38.18283,1.248796,-33.42854,2.6886258009081256,0.074120013200378,2.461678148689094,1.266558,100.7636,180.9956,-0.7701734,0.01373999,-0.6376799,17
10.64,-38.07238,1.417688,-33.43057,2.599810174057016,0.0923069530537009,2.526699739369013,4.713569,97.27221,180.4854,-0.7497711,0.03035103,-0.660405,17
10.66,-37.96489,1.583943,-33.42894,2.5223965851824017,0.1102412570209349,2.594307033507892,8.12353,93.73011,179.7627,-0.7280114,0.04692186,-0.6818933,17
10.68,-38.00513,1.234135,-33.38766,2.4556548441893824,0.052215897203398,2.628456734600229,8.187799,92.24943,182.2941,-0.7178763,0.06386392,-0.6922141,17
10.7,-37.89398,1.4059,-33.37694,2.403467443838736,-0.0051639315276208,2.6663852750271086,11.7137,88.70462,181.7711,-0.6942085,0.08370551,-0.7123398,17
10.72,-37.78597,1.574921,-33.36305,2.3010264667313507,0.034416817323964,2.709127710321458,15.19963,85.07793,181.0163,-0.6692621,0.1033861,-0.7311098,17
10.74,-37.83548,1.201663,-33.36418,2.208452201594949,-0.004485587251159,2.718904080020089,14.70087,84.72531,183.0097,-0.6655707,0.1120498,-0.7348339,17
10.76,-37.72878,1.381188,-33.349,2.1322349168167696,-0.0406039448893241,2.731111582894874,18.18504,81.10397,182.3836,-0.6393321,0.1333996,-0.7522436,17
10.78,-37.6246,1.558076,-33.33113,2.01016245057526,0.001859582445707,2.748019814837444,21.62252,77.36553,181.5091,-0.6119328,0.1544961,-0.7682403,17
10.8,-37.52324,1.732486,-33.31073,1.9026054110335064,0.0434166418638141,2.765126994430301,24.99798,73.47681,180.3685,-0.5834252,0.1753124,-0.7827945,17
10.82,-37.65609,1.170049,-33.35611,1.7984007527036132,-0.0234273462186061,2.739434698758714,20.08002,75.80804,183.4232,-0.6005542,0.1555655,-0.7798102,17
10.84,-37.55348,1.357418,-33.33551,1.6518980590304118,-0.0053897511398509,2.7191171552967663,23.5069,72.09602,182.6646,-0.5721396,0.178048,-0.7941453,17
10.86,-37.45274,1.542224,-33.31253,1.521487926069648,0.0141062762470117,2.6985050666749686,26.87889,68.23216,181.6384,-0.5427057,0.2001989,-0.8070133,17
10.88,-37.5079,1.140726,-33.36486,1.4026257071806985,-0.0509164694884423,2.646012328823268,26.23416,68.78107,183.3149,-0.5444466,0.2031062,-0.8070472,17
10.9,-37.40754,1.335728,-33.34461,1.3032493215124346,-0.1137057546134158,2.59364374530582,29.59064,64.89655,182.3229,-0.514274,0.2259687,-0.8185067,17
10.92,-37.30831,1.528219,-33.322,1.1514546571801931,-0.0650893946336133,2.546717646071147,32.87832,60.80944,181.0303,-0.4832015,0.2484317,-0.8284692,17
10.94,-37.30444,1.123224,-33.36034,1.0179645414638632,-0.1008902185766581,2.475357420385537,34.65315,61.33883,182.6697,-0.4808382,0.2674343,-0.8244108,17
10.96,-37.20778,1.323181,-33.33557,0.903779187177415,-0.1337771914829729,2.402649103865701,37.92618,57.22132,181.4743,-0.4491591,0.2910822,-0.8321822,17
10.98,-37.11189,1.520739,-33.30851,0.7528375144835513,-0.0787167136761977,2.334598630628736,41.11838,52.82383,179.9174,-0.4167175,0.3142186,-0.8384645,17
11.0,-37.01701,1.715925,-33.27927,0.6197485822322264,-0.0242812688752922,2.2639686807119723,44.20403,48.08325,177.9442,-0.3835662,0.3367897,-0.843254,17
11.02,-37.03633,1.115816,-33.33875,0.5030372246315871,-0.0854554960067437,2.1634520927882086,43.24067,56.7883,181.3599,-0.438201,0.3293518,-0.8198286,17
11.04,-36.94436,1.317435,-33.30413,0.3547574554781345,-0.0562667033696261,2.064260774741516,46.50957,52.59718,180.2335,-0.406333,0.3547844,-0.8240193,17
11.06,-36.85323,1.516731,-33.26731,0.2255840561279445,-0.0259018045153791,1.9649814301879696,49.70712,48.03928,178.6688,-0.3737857,0.3795885,-0.8267677,17
11.08,-36.75999,1.110447,-33.28456,0.1283626912159015,-0.0836265021421949,1.856798501672369,50.67767,53.99776,178.4539,-0.4154051,0.3757579,-0.8025986,17
11.1,-36.67228,1.310916,-33.24495,0.0519243326455685,-0.1414750033543954,1.748751336304779,53.905,49.60024,177.1756,-0.3839205,0.4021117,-0.804245,17
11.12,-36.58559,1.509166,-33.20332,-0.0608977365402498,-0.0835220760228265,1.6376497215744994,57.05793,44.70506,175.3404,-0.3518064,0.4277687,-0.8045055,17
11.14,-36.36013,1.104929,-33.15044,-0.1322654492681216,-0.1075359357468903,1.5321226959992815,61.19577,46.03102,170.8821,-0.3727137,0.4402599,-0.7739185,17
11.16,-36.28026,1.297117,-33.1017,-0.1856823266497524,-0.1319154104733493,1.4300777816277774,64.26753,40.44921,168.4011,-0.3416772,0.4669681,-0.7719512,17
11.18,-36.20227,1.487275,-33.05156,-0.2530665422272307,-0.068293349152422,1.33608900696502,67.20125,33.84816,164.8608,-0.3100949,0.4928799,-0.7686773,17
11.2,-36.12634,1.67547,-33.00019,-0.3049328273708962,-0.0063117233770526,1.2492890556963632,69.92678,25.85374,159.8934,-0.2780169,0.5179504,-0.7641062,17
11.22,-35.9464,1.144891,-32.9824,-0.3228458376896848,-0.0448880473429727,1.1598933522767636,58.31462,37.49486,167.5239,-0.3291407,0.4281307,-0.8050417,17
11.24,-35.87491,1.327968,-32.92078,-0.3554493304775654,-0.0025998250027473,1.090110180070332,61.23067,31.75587,164.774,-0.2982714,0.4543307,-0.8020159,17
11.26,-35.80629,1.509061,-32.85844,-0.3766310040418457,0.0393536096896663,1.0330485190212864,63.9804,25.13547,161.1018,-0.2669355,0.479767,-0.79766,17
11.28,-35.59068,1.212477,-32.85187,-0.3615627673495387,0.0114459868885487,0.9756955230135392,43.00393,43.99321,173.7818,-0.3664044,0.3204506,-0.8539613,17
11.3,-35.52079,1.387665,-32.77782,-0.3339586465719586,-0.0193424168233232,0.9344003949284634,46.1651,39.75502,172.52,-0.3361733,0.3475108,-0.8545948,17
11.32,-35.45472,1.560581,-32.70346,-0.3352229414766348,0.0447153258441475,0.9017251673828576,49.24683,35.15353,170.8271,-0.3054051,0.3739766,-0.8537884,17
11.34,-35.26603,1.257649,-32.74634,-0.3107478114964834,0.0378150794802773,0.8654455582683029,19.99324,48.13657,176.4146,-0.4063954,0.1458562,-0.8965433,17
11.36,-35.19045,1.426822,-32.6602,-0.2787488054850784,0.0290882101914075,0.8487563833542469,23.48033,44.558,175.7767,-0.3778718,0.1744791,-0.9025334,17
11.38,-35.11953,1.593069,-32.57392,-0.2712543181722844,0.0877915929225994,0.8384017850731622,26.92381,40.83643,174.8783,-0.348694,0.202795,-0.9068834,17
11.4,-35.0534,1.756655,-32.48787,-0.261131708538441,0.1426398593026363,0.8481577960825764,30.30471,36.93346,173.694,-0.3189157,0.2307353,-0.9095924,17
11.42,-34.96275,1.276179,-32.61171,-0.2342074847054496,0.1005753551651853,0.8468597310961918,358.3748,49.91536,178.002,-0.421618,-0.02021117,-0.9064952,17
11.44,-34.89082,1.442881,-32.51932,-0.2336166774807941,0.1301315971685975,0.8421247581700131,1.924567,46.58567,177.6885,-0.3956056,0.007447415,-0.9180456,17
11.46,-34.82384,1.606566,-32.42713,-0.2349173212516691,0.156821395874341,0.8572394849482228,5.448896,43.22662,177.1675,-0.368904,0.03508355,-0.9279238,17
11.48,-34.66598,1.294165,-32.48592,-0.220482357766774,0.1087852108166573,0.8649723436138874,352.8364,50.79654,179.1151,-0.4276216,-0.05973907,-0.9017639,17
11.5,-34.59833,1.456497,-32.38585,-0.2081312054613349,0.0569862339172514,0.8941199345580175,356.425,47.48743,179.0105,-0.4021888,-0.03202667,-0.9149848,17
11.52,-34.53606,1.61566,-32.28642,-0.2190056532716204,0.0997224485152978,0.90953499719505,0.0005729888,44.18155,178.6994,-0.376051,-0.004263615,-0.9265296,17
11.54,-34.43279,1.262328,-32.39724,-0.2225382066983501,0.0659341309913686,0.9082051369103326,355.7657,49.71662,180.4313,-0.420212,-0.0319385,-0.9066659,17
11.56,-34.36895,1.426962,-32.29825,-0.2334193105140558,0.0310208146454561,0.9247820781566602,359.3253,46.41021,180.3723,-0.3940325,-0.004131369,-0.9190719,17
11.58,-34.31017,1.588571,-32.19997,-0.2548476923585232,0.0715565308098769,0.9325692600730492,2.874512,43.09951,180.108,-0.3671713,0.023675,-0.9298146,17
11.6,-34.25655,1.747431,-32.10281,-0.2870672898180029,0.1089872632891793,0.9527234928007068,6.401455,39.75908,179.6369,-0.3396779,0.05143111,-0.9388779,17
11.62,-34.20908,1.24094,-32.2984,-0.3148709948030377,0.0460145078468723,0.9408034849803784,4.013011,47.63895,181.9037,-0.4030209,0.03873091,-0.9143705,17
11.64,-34.14555,1.40811,-32.19891,-0.34539583055333,0.0611103991321734,0.9278787467612348,7.646791,44.33548,181.8279,-0.3754468,0.06774987,-0.924306,17
11.66,-34.08683,1.572184,-32.10009,-0.3871279683587851,0.076096924854993,0.925212951912199,11.26984,40.99551,181.539,-0.347212,0.09664446,-0.9325376,17
11.68,-34.04078,1.217597,-32.25486,-0.4401329701724874,0.0880742558833554,0.9315918819240344,11.91453,47.62186,183.2327,-0.3987016,0.1062411,-0.9107618,17
11.7,-33.97507,1.390826,-32.16027,-0.4768574444474986,0.0719104609201933,0.8879057246160853,15.54263,44.32108,183.17,-0.3701319,0.1355206,-0.9186845,17
11.72,-33.91361,1.561044,-32.06594,-0.5229273881066017,0.0587739665454545,0.8537172877826853,19.16003,40.95356,182.8854,-0.3409145,0.1645445,-0.9249225,17
11.74,-33.88263,1.183415,-32.21556,-0.5783559529505329,0.0456207827233594,0.827937872034127,17.4273,46.18452,183.7836,-0.3828741,0.1520801,-0.9107233,17
11.76,-33.81532,1.364954,-32.12832,-0.6133549231502591,0.031209947150939,0.7703623406375026,21.00437,42.86605,183.6547,-0.3536989,0.1810388,-0.9169105,17
11.78,-33.75144,1.543667,-32.04081,-0.655417627707453,0.0203379354780402,0.7219806606647818,24.5671,39.45404,183.2953,-0.3239174,0.2096642,-0.9214464,17
11.8,-33.69114,1.719713,-31.95333,-0.7045732257344226,0.0098318731927704,0.681892422543398,28.10189,35.91402,182.6857,-0.2935844,0.2379035,-0.9243267,17
11.82,-33.71825,1.153401,-32.16872,-0.755140686820909,-0.0858574734974685,0.6126110269566771,23.08112,41.57286,183.8975,-0.3411495,0.1987553,-0.9178937,17
11.84,-33.65061,1.343224,-32.08758,-0.7767122074795356,-0.0700989290250886,0.5616058099301151,26.58749,38.16576,183.5543,-0.3112828,0.22707,-0.9216123,17
11.86,-33.58564,1.5304,-32.00566,-0.8028861198450876,-0.0525309043756788,0.5191541741326064,30.0673,34.62418,182.9604,-0.2808987,0.2549767,-0.9237086,17
11.88,-33.56158,1.129004,-32.14547,-0.8336954494930855,-0.0363835138228024,0.4844714665699952,30.05476,38.64743,183.597,-0.3117523,0.2545834,-0.9136367,17
11.9,-33.49234,1.325602,-32.07068,-0.8426856060758854,-0.047496624277193,0.4285554926196502,33.48673,35.10646,183.0505,-0.2813924,0.2822612,-0.9150053,17
11.92,-33.42515,1.519712,-31.99464,-0.8542493192719087,-0.0548452390073141,0.3824342774141653,36.88136,31.37622,182.2171,-0.2505762,0.3094447,-0.9147964,17
11.94,-33.35315,1.117444,-32.07915,-0.8684840594221042,-0.0618128380801858,0.3454496920339025,39.6348,36.1158,182.5476,-0.284383,0.3287278,-0.8965539,17
11.96,-33.2832,1.317662,-32.00822,-0.8612406000676383,-0.0667331176581149,0.3007474576756679,42.99054,32.3388,181.7395,-0.2537374,0.3558223,-0.8950878,17
11.98,-33.21496,1.515497,-31.9358,-0.8555571570802876,-0.0682134955074357,0.2656995102766606,46.29597,28.27401,180.5664,-0.2226913,0.3823072,-0.892109,17
12.0,-33.14861,1.710964,-31.86209,-0.8515452538910973,-0.0697011366187783,0.2396729364599625,49.52972,23.84437,178.9598,-0.1912974,0.4081397,-0.8876253,17
12.02,-33.10278,1.114107,-31.97957,-0.8359343655607034,-0.1600151648805434,0.2079659259530752,46.3782,33.83863,180.1795,-0.2669227,0.3771415,-0.8796012,17
12.04,-33.03473,1.315486,-31.90899,-0.8055706729950267,-0.1323365396793594,0.197941728216342,49.66734,29.87654,179.1955,-0.2367847,0.4041394,-0.8760785,17
12.06,-32.96831,1.514551,-31.83687,-0.776341798080086,-0.1037507249299802,0.1959265246971306,52.89947,25.53336,177.7657,-0.2062821,0.430461,-0.8711064,17
12.08,-32.82109,1.103996,-31.82632,-0.7482776855580733,-0.0776390811271068,0.2011923416842949,56.51134,31.49037,176.0195,-0.2547056,0.4470676,-0.8428201,17
12.1,-32.75798,1.300851,-31.75495,-0.7055164439856028,-0.0773150382716496,0.2149414427508644,59.71419,26.97647,174.4969,-0.2252933,0.4738382,-0.8368022,17
12.12,-32.69672,1.495554,-31.6825,-0.6651878365960524,-0.0751364219805519,0.2356249071566871,62.83674,21.80323,172.2675,-0.1955418,0.4998286,-0.8294286,17
12.14,-32.47688,1.118392,-31.59036,-0.6272145983813298,-0.0744398376447907,0.2623971480586631,61.78077,20.97285,166.9749,-0.2124353,0.4838501,-0.8277752,17
12.16,-32.4234,1.305709,-31.51293,-0.5902781617336661,-0.0605847517935432,0.2924605750181657,64.74801,15.10965,164.0062,-0.1838038,0.5101864,-0.8193046,17
12.18,-32.37244,1.491001,-31.43531,-0.5578752615350266,-0.0453016670601704,0.3272157121538002,67.54745,8.150533,159.906,-0.1549049,0.5356998,-0.8095309,17
12.2,-32.32407,1.674362,-31.35773,-0.5297223034636671,-0.0317998222440489,0.3656773584326358,70.1006,359.7387,154.3235,-0.1257872,0.5603523,-0.7984722,17
12.22,-32.1537,1.178691,-31.35128,-0.4792449122065929,-0.089512284866669,0.4006145483252901,52.02565,20.90613,170.9845,-0.196443,0.417145,-0.8747936,17
12.24,-32.11026,1.357786,-31.26494,-0.4495526322989809,-0.0440611494047503,0.4451749863793268,55.02843,16.17844,169.0831,-0.1677408,0.4434267,-0.8679065,17
12.26,-32.06998,1.534806,-31.17921,-0.4252846609559055,0.0002711882265009,0.4920833065659922,57.92045,10.88825,166.5706,-0.1388025,0.4690056,-0.8596634,17
12.28,-31.8606,1.240265,-31.18707,-0.4059520957747722,0.0404281007481381,0.5401365933338651,31.94082,27.5903,175.1915,-0.2402554,0.2573521,-0.9300976,17
12.3,-31.81527,1.41151,-31.08638,-0.3884922387097189,0.0540709501558665,0.5667168133204479,35.31557,23.90809,174.3006,-0.2118777,0.2865737,-0.9279448,17
12.32,-31.77398,1.580035,-30.98682,-0.3774836289966252,0.0682494952519516,0.5954417894730857,38.63337,19.99729,173.0951,-0.1831708,0.3153069,-0.9242264,17
12.34,-31.60371,1.268504,-31.03439,-0.372361081047972,0.0799089109936405,0.6249315696904105,8.102808,31.85731,177.4109,-0.2752194,0.06173676,-0.9585184,17
12.36,-31.55911,1.436498,-30.92695,-0.3668490364112218,0.0890557438094181,0.6479272724588179,11.63112,28.60756,176.999,-0.2482782,0.09171546,-0.9630262,17
12.38,-31.51891,1.601469,-30.82092,-0.3701340993549711,0.0987117341371762,0.671287589644185,15.12938,25.28712,176.3749,-0.2209345,0.1215259,-0.9658632,17
12.4,-31.48313,1.763662,-30.71668,-0.3815796648139082,0.1059787456755659,0.6934862612531929,18.58497,21.86836,175.5271,-0.1932364,0.1511173,-0.9670275,17
12.42,-31.35052,1.285761,-30.8324,-0.3751634298152111,0.0414180508567969,0.6938101120277591,353.3095,32.59888,178.5495,-0.2794478,-0.05954891,-0.9583033,17
12.44,-31.3124,1.45017,-30.71962,-0.3809702740632623,0.0697179412113394,0.7244238704338706,356.8836,29.44844,178.3623,-0.2536711,-0.02992759,-0.9668031,17
12.46,-31.27888,1.611448,-30.60876,-0.3963294447605241,0.0961214322172084,0.7531224650220336,0.4410199,26.29409,177.9797,-0.2274801,-0.000262741,-0.9736158,17
12.48,-31.12366,1.282965,-30.68829,-0.4204303742709512,0.1178766892963144,0.7782816060075137,353.7898,33.12777,179.6283,-0.2844959,-0.05284316,-0.9571404,17
12.5,-31.09034,1.445741,-30.57315,-0.4403441323515036,0.1086690528559137,0.7732569002245269,357.3609,29.97331,179.596,-0.2584455,-0.02315632,-0.965745,17
12.52,-31.06166,1.605363,-30.46022,-0.4694186674463547,0.1008337332588474,0.766138717532447,0.9238342,26.82294,179.3675,-0.2319749,0.006561797,-0.9726728,17
12.54,-30.92717,1.250651,-30.58246,-0.5067636315258901,0.0915693120708721,0.7553679385699281,359.4187,32.56,181.2442,-0.2803644,-0.001825211,-0.9598191,17
12.56,-30.89318,1.416139,-30.46922,-0.5583619038602703,0.1545714743944709,0.770821403676579,3.014361,29.41179,181.2115,-0.2534866,0.02812199,-0.9669238,17
12.58,-30.86358,1.578523,-30.35799,-0.5873383826046856,0.1194254800691666,0.7324114256142145,6.602015,26.24804,180.9803,-0.2261949,0.05801474,-0.9723415,17
12.6,-30.83834,1.73807,-30.24919,-0.6234966457753957,0.0854607911673797,0.692458816132818,10.1703,23.04354,180.5465,-0.1985376,0.08779792,-0.9760658,17
12.62,-30.70902,1.22658,-30.44912,-0.6659296226538869,0.0497472266927138,0.6495382159631484,10.35384,30.05764,183.0163,-0.2558642,0.09391175,-0.9621386,17
12.64,-30.67419,1.397817,-30.33802,-0.6922218532476121,0.0336590297805035,0.60223787342174,13.98939,26.90593,182.9369,-0.2278047,0.1243146,-0.965732,17
12.66,-30.64333,1.565977,-30.22855,-0.7249115870982026,0.0208357730687667,0.5543402852620161,17.61393,23.69507,182.6468,-0.1993727,0.1544902,-0.9676264,17
12.68,-30.61643,1.731277,-30.12109,-0.7632015497324236,0.0083339396472751,0.5045008544314031,21.21636,20.39589,182.1341,-0.1706192,0.1843928,-0.9678205,17
12.7,-30.55207,1.191257,-30.38703,-0.8050427092909733,0.0706314729414395,0.4892942895144956,16.10071,27.97892,183.6147,-0.2349562,0.1433714,-0.9613677,17
12.72,-30.51589,1.370807,-30.28144,-0.8340362140098199,0.0276090920054574,0.4160157583489594,19.69126,24.82237,183.5037,-0.2065563,0.1733937,-0.9629204,17
12.74,-30.48306,1.547459,-30.17682,-0.867366322577531,-0.012424342320271,0.3434160026566544,23.26927,21.58272,183.1751,-0.1778274,0.2031083,-0.9628093,17
12.76,-30.4069,1.161052,-30.36916,-0.9003802087748394,0.0292073358104197,0.3068331250656757,21.5842,25.6726,183.9825,-0.2117614,0.1900392,-0.9586312,17
12.78,-30.36683,1.348744,-30.2697,-0.9222381492804989,-0.0116647399465567,0.226746837739034,25.11225,22.46167,183.7356,-0.1830532,0.2193156,-0.9582634,17
12.8,-30.32958,1.53371,-30.17047,-0.9472242906702112,-0.0492549000762191,0.1494046100839239,28.62056,19.13518,183.2566,-0.1540629,0.2482126,-0.9562749,17
12.82,-30.25532,1.133047,-30.3304,-0.9747613039375028,-0.0867887663697602,0.0737641231340062,28.03569,21.73009,183.8199,-0.174853,0.2438451,-0.9538206,17
12.84,-30.21256,1.328287,-30.23649,-0.9775112485493612,-0.099798964990994,0.008678854470066,31.4887,18.39163,183.3472,-0.1459249,0.2722361,-0.9509735,17
12.86,-30.17214,1.520975,-30.14215,-0.9821992139192744,-0.1085397213339045,-0.0514075133899925,34.91,14.88821,182.6117,-0.1167827,0.300168,-0.9465529,17
12.88,-30.13413,1.711159,-30.04767,-0.9884225044379558,-0.1163291707814187,-0.1074731305171168,38.28488,11.17471,181.5789,-0.08747434,0.3275962,-0.9405687,17
12.9,-30.0748,1.119107,-30.23504,-0.9900082889444728,-0.0385385117897606,-0.1271580741685554,37.39502,17.04505,182.8532,-0.1324406,0.3204286,-0.9376572,17
12.92,-30.03174,1.318749,-30.14436,-0.9789820218403138,-0.0745145990900973,-0.1816329753994541,40.76227,13.45481,182.062,-0.1035712,0.3477853,-0.9315259,17
12.94,-29.99073,1.515969,-30.05292,-0.9687797971632416,-0.1079044646043482,-0.2296966561250055,44.08163,9.606884,180.9361,-0.07456042,0.3745706,-0.9238873,17
12.96,-29.88037,1.114787,-30.14237,-0.9601263518644338,-0.0530363399563597,-0.2480281508964372,44.69093,17.46203,180.9885,-0.1371506,0.3769816,-0.9146543,17
12.98,-29.83652,1.316101,-30.05368,-0.9378719228235868,-0.0837553513206604,-0.2822878658456638,48.00861,13.76648,180.1408,-0.1089852,0.4040075,-0.90699,17
13.0,-29.79461,1.515055,-29.96407,-0.9166586287357724,-0.1124657621390118,-0.3094910096323562,51.27848,9.737541,178.8946,-0.08067241,0.4303839,-0.8978874,17
13.02,-29.66033,1.10746,-29.97306,-0.8962170500262352,-0.1426149945950971,-0.3305437508288054,53.30772,14.40799,177.4992,-0.1217617,0.4425065,-0.8852391,17
13.04,-29.61982,1.30667,-29.8854,-0.8548343777784115,-0.1437640315433389,-0.3195286478907593,56.53914,10.28177,176.2124,-0.09446362,0.4688496,-0.8753046,17
13.06,-29.58129,1.503645,-29.79707,-0.8155214353477138,-0.1428581526344867,-0.301829198619747,59.70345,5.629279,174.3491,-0.06704447,0.4944529,-0.8640124,17
13.08,-29.5448,1.698408,-29.70828,-0.7779910335353772,-0.1432566310317268,-0.2784365738061272,62.76932,0.2737875,171.739,-0.03954544,0.51928,-0.8513809,17
13.1,-29.39491,1.109503,-29.66499,-0.754302077261146,-0.057168445685491,-0.2409093410714593,62.61436,3.298997,167.5721,-0.08067116,0.5136971,-0.8474029,17
13.12,-29.36611,1.299117,-29.57511,-0.7126292814835589,-0.0750699306369564,-0.2086315453307383,65.6146,357.5809,164.6191,-0.0549074,0.5391967,-0.8342828,17
13.14,-29.33957,1.486665,-29.48559,-0.6740510116063283,-0.0930989192582649,-0.1712650548267573,68.45551,350.7247,160.4948,-0.02908503,0.5638643,-0.8198956,17
13.16,-29.15829,1.162057,-29.4004,-0.662211217689777,-0.0290595020669726,-0.1326781867167508,55.73643,1.173669,168.5878,-0.05548245,0.4641987,-0.8791228,17
13.18,-29.14008,1.342717,-29.30579,-0.6278572880078244,-0.0332421773305015,-0.0992577992753886,58.69587,356.1521,166.2449,-0.02960273,0.4898153,-0.8668701,17
13.2,-29.12451,1.521288,-29.21249,-0.5975500965233982,-0.037856041458204,-0.0623639322759044,61.52298,350.4242,163.1552,-0.003702573,0.5146894,-0.8533232,17
13.22,-28.92599,1.229133,-29.16491,-0.57067551728937,-0.0460846847965533,-0.0231270999690509,37.77371,7.844397,174.5768,-0.07992453,0.3195189,-0.9418395,17
13.24,-28.91398,1.40194,-29.05855,-0.565263582606506,0.040520661460517,0.0279769324787517,41.0536,4.145616,173.543,-0.053554,0.3479523,-0.9336962,17
13.26,-28.90517,1.572178,-28.9543,-0.5264690983608191,0.0336878223799227,0.0553335130825698,44.27184,0.169749,172.1612,-0.02712458,0.3758296,-0.9240873,17
13.28,-28.89948,1.740019,-28.85245,-0.4913104268683135,0.0259107642914756,0.0855786389657762,47.40899,355.8507,170.3736,-0.0006800331,0.4031206,-0.9130254,17
13.3,-28.71996,1.263998,-28.96459,-0.4848886958888307,0.084489589592624,0.1313427276533203,13.87316,11.24409,177.0088,-0.1003526,0.1176105,-0.98726,17
13.32,-28.71161,1.432623,-28.84922,-0.4574215856712422,0.0722906352597268,0.154699709553693,17.37851,8.077724,176.503,-0.07419052,0.1485056,-0.9852835,17
13.34,-28.70678,1.598218,-28.73645,-0.4353545066046904,0.0594244511256072,0.1782816676923748,20.85143,4.814181,175.781,-0.04793303,0.1791579,-0.981677,17
13.36,-28.53127,1.279559,-28.7928,-0.4377763313114649,0.1145446577779147,0.2225556910398913,354.4471,15.00369,178.28,-0.1296694,-0.04997675,-0.9902605,17
13.38,-28.52665,1.445204,-28.67458,-0.4466733389448376,0.1666499537444049,0.2639492275951358,358.01,11.99489,178.0948,-0.1041668,-0.01900448,-0.9942695,17
13.4,-28.52564,1.607715,-28.55933,-0.4321968347553038,0.1242870390120382,0.2692054842316596,1.557236,8.97832,177.723,-0.07851701,0.01198965,-0.9966225,17
13.42,-28.34922,1.296296,-28.58338,-0.4237023488132889,0.0798895676258344,0.2730158626995074,353.4716,14.42768,179.3612,-0.1250523,-0.05718786,-0.9904993,17
13.44,-28.35288,1.457911,-28.46209,-0.4353426544772456,0.1261621496813,0.3066326035855109,357.0594,11.41956,179.3149,-0.09930243,-0.02612582,-0.9947086,17
13.46,-28.3602,1.616266,-28.34434,-0.4228023616129879,0.0960978655544301,0.2983018884465678,0.6387878,8.415333,179.0806,-0.07341275,0.004970581,-0.9972538,17
13.48,-28.371,1.77164,-28.23049,-0.4158942847402156,0.0662537535875502,0.2878056326530638,4.199963,5.391572,178.6583,-0.04742672,0.03605004,-0.998134,17
13.5,-28.19828,1.254965,-28.45782,-0.4324888619592157,0.1068014448215507,0.3019721061250928,357.4339,12.68606,180.995,-0.1106421,-0.02129457,-0.9935701,17
13.52,-28.20332,1.420121,-28.34025,-0.4276169555795581,0.0740535104621539,0.2771259139101953,1.00015,9.68681,180.9469,-0.08435477,0.009394065,-0.9963633,17
13.54,-28.21169,1.582187,-28.22597,-0.4276299600210596,0.042340066959035,0.2501023529018762,4.557964,6.678502,180.7119,-0.05795414,0.04005853,-0.9975078,17
13.56,-28.22324,1.741417,-28.1153,-0.4480051423137365,0.0854956135816603,0.2544457344130659,8.097422,3.637767,180.2872,-0.03148399,0.0706481,-0.9970043,17
13.58,-28.01769,1.232336,-28.35372,-0.4741667604744188,0.1267579928178699,0.2551544734765758,8.259543,12.55702,182.7629,-0.10732,0.07419263,-0.9913228,17
13.6,-28.01955,1.401857,-28.23609,-0.477090108206136,0.0670266014891318,0.1961302212512632,11.89807,9.565506,182.7426,-0.08043338,0.1052379,-0.9910742,17
13.62,-28.02461,1.568228,-28.12132,-0.4832342960115312,0.0084943665980216,0.1355867659919258,15.52949,6.528984,182.5253,-0.05343718,0.1360973,-0.9891527,17
13.64,-27.88221,1.199848,-28.31906,-0.5078135900346075,0.0484360450319999,0.118248985669076,14.77824,12.47413,183.5571,-0.1037205,0.1311283,-0.9857844,17
13.66,-27.87825,1.377128,-28.2058,-0.5129526739030239,0.0093278703367448,0.0523630901120291,18.38363,9.484801,183.5209,-0.07668536,0.1616254,-0.983721,17
13.68,-27.87722,1.551422,-28.09458,-0.5212770020525745,-0.0269086388081736,-0.0138135800963588,21.98113,6.426144,183.2814,-0.04954866,0.191845,-0.9800196,17
13.7,-27.87901,1.722904,-27.98574,-0.5318928586125584,-0.0633285800598666,-0.0814161244742024,25.5599,3.268309,182.8232,-0.02235547,0.2217353,-0.9746898,17
13.72,-27.74869,1.168519,-28.27606,-0.5500579258331628,0.0024629785077558,-0.0958775414896582,20.15575,9.686422,183.9467,-0.07707328,0.1771208,-0.9809825,17
13.74,-27.73999,1.354058,-28.16774,-0.5452428409551686,-0.041130909550382,-0.166933073941851,23.70142,6.649389,183.7594,-0.05000283,0.2067682,-0.9769039,17
13.76,-27.73391,1.536801,-28.06064,-0.5421474985826062,-0.0811877176012631,-0.2362006014941524,27.23154,3.511726,183.356,-0.02287682,0.2360702,-0.9712347,17
13.78,-27.61778,1.139245,-28.27235,-0.5470190254268648,-0.0368542889128763,-0.2603468130885042,26.30617,7.828039,183.8922,-0.05872073,0.2291492,-0.9714617,17
13.8,-27.60262,1.332592,-28.16891,-0.5545535018899472,0.0071340476135247,-0.281773209868688,29.78409,4.702494,183.5363,-0.03170549,0.2578833,-0.9654639,17
13.82,-27.58979,1.523321,-28.06588,-0.5460339212054319,-0.061890091265243,-0.3507627881525956,33.23761,1.436049,182.9411,-0.004665056,0.2861944,-0.9579301,17
13.84,-27.47925,1.122023,-28.21468,-0.5441915245157611,-0.0412622485837714,-0.3774500019910687,34.72364,4.810915,183.166,-0.03180719,0.2991348,-0.9535806,17
13.86,-27.45967,1.320674,-28.11519,-0.54443429350999,-0.0189507475307546,-0.3986982278987727,38.12118,1.480652,182.5245,-0.005016057,0.3267304,-0.9449586,17
13.88,-27.44224,1.51685,-28.01555,-0.5280420591980395,-0.0824362623872089,-0.4478112220079957,41.48074,357.9353,181.5891,0.02175777,0.3538086,-0.9348648,17
13.9,-27.42696,1.710576,-27.91602,-0.5123172185814888,-0.1444261092588203,-0.4918418894950882,44.78633,354.1178,180.311,0.04847308,0.3803281,-0.9233172,17
13.92,-27.31235,1.115296,-28.09981,-0.500299822667142,-0.0913675491766546,-0.4894709439482319,43.2757,3.62679,181.6155,-0.02421595,0.368932,-0.92914,17
13.94,-27.2912,1.316312,-28.0023,-0.4726528109642589,-0.1237665197704583,-0.50303009398089,46.60867,0.1108763,180.7969,0.001862722,0.3956114,-0.9183967,17
13.96,-27.2721,1.514923,-27.90441,-0.4459514934881423,-0.1540825162187616,-0.5104121171632303,49.8969,356.2894,179.6087,0.02791426,0.4216793,-0.9062539,17
13.98,-27.1498,1.110164,-27.96881,-0.4304650225109614,-0.0963466589665604,-0.4853817200630068,50.68501,3.226547,178.6206,-0.0305922,0.4275216,-0.9031966,17
14.0,-27.12856,1.310263,-27.87353,-0.416682027992227,-0.0394399861176636,-0.4539980976915996,53.94974,359.463,177.5661,-0.005458409,0.453581,-0.89104,17
14.02,-27.10932,1.508069,-27.77795,-0.3868067657658032,-0.0986420008936705,-0.4319540786123905,57.16105,355.2694,176.0292,0.01966009,0.4789545,-0.8775549,17
14.04,-26.96034,1.104697,-27.69651,-0.3728746678158843,-0.067807441652481,-0.3900044293356477,61.20883,357.0067,171.0336,-0.01737078,0.5091341,-0.858816,17
14.06,-26.94608,1.296596,-27.60246,-0.3614555721656072,-0.0363711168092582,-0.3427402446076448,64.31884,352.0731,168.7695,0.006276632,0.5341814,-0.844093,17
14.08,-26.93386,1.486372,-27.50893,-0.3311759248405366,-0.0824915501547073,-0.2938973768828825,67.31687,346.2068,165.5376,0.02989342,0.558435,-0.8281387,17
14.1,-26.9237,1.674085,-27.41613,-0.3040379189211495,-0.1304889687143823,-0.2411594634570248,70.14539,339.0388,160.9744,0.05344478,0.5818629,-0.8109775,17
14.12,-26.77518,1.14462,-27.39493,-0.2967787221276992,-0.0664332039146003,-0.1787755494516751,58.34996,349.8878,167.6111,0.02410514,0.4910496,-0.8692955,17
14.14,-26.77203,1.327426,-27.29907,-0.2919420979741449,-0.0037984049406975,-0.1144213687452109,61.3044,344.7309,165.0108,0.04740692,0.5158966,-0.8542028,17
14.16,-26.77109,1.508131,-27.20469,-0.2561073788654657,-0.035209515783364,-0.0593863538216985,64.11769,338.7482,161.5492,0.07061837,0.5399942,-0.8378877,17
14.18,-26.59168,1.212209,-27.165,-0.2469150027460696,0.007491733753355,-0.0008567647120121,43.05301,357.4938,173.8379,0.0005969286,0.367407,-0.9291125,17
14.2,-26.59565,1.387159,-27.06209,-0.2408880459670328,0.0494948812411484,0.0584909990192219,46.2353,353.7786,172.6776,0.02477104,0.3944287,-0.9178317,17
14.22,-26.60215,1.559716,-26.96147,-0.2081946469869322,0.0203896100344151,0.0988869375279897,49.35364,349.7365,171.1315,0.04888539,0.4208653,-0.9052131,17
14.24,-26.6111,1.730032,-26.86338,-0.2058941862155463,0.0593335036527902,0.1480671530938218,52.38647,345.286,169.1254,0.07290357,0.446684,-0.8912751,17
14.26,-26.36361,1.263989,-26.93149,-0.2071734432103702,0.0972424367505546,0.1961173530309956,13.87561,3.731376,177.0449,-0.0354205,0.1198543,-0.9917205,17
14.28,-26.3705,1.432599,-26.81596,-0.2110699616457543,0.131202777359144,0.2417343164977463,17.37644,0.7198885,176.5866,-0.01070623,0.1508027,-0.9880388,17
14.3,-26.38037,1.598147,-26.70337,-0.1870258553505044,0.067764101538393,0.2497713089462787,20.84979,357.6173,175.9227,0.01399961,0.1815202,-0.982792,17
14.32,-26.2066,1.279574,-26.7429,-0.191126696616839,0.0975406912476219,0.2889011816708082,354.4514,6.870585,178.2819,-0.05911995,-0.04920664,-0.9969648,17
14.34,-26.21758,1.445221,-26.62505,-0.198666510563966,0.1260910324610686,0.3252140810932595,358.0121,4.002698,178.1078,-0.03462676,-0.01791059,-0.9991136,17
14.36,-26.2316,1.607704,-26.51053,-0.1791522096193243,0.0840457915863235,0.3347941384707753,1.558571,1.127558,177.756,-0.01010315,0.01340476,-0.9996649,17
14.38,-26.2485,1.767264,-26.39965,-0.1885785962899748,0.1121135293995131,0.3670452090946949,5.08186,358.2232,177.2252,0.01441166,0.04468979,-0.9986207,17
14.4,-26.06366,1.296321,-26.51765,-0.2022044588762486,0.1385600254483175,0.3954309225946208,353.4687,5.726151,179.3542,-0.04954677,-0.05717465,-0.9971304,17
14.42,-26.08401,1.45795,-26.39809,-0.1879488716956201,0.0877063718076812,0.3828536134645048,357.0549,2.861898,179.3107,-0.02480895,-0.02583949,-0.9993439,17
14.44,-26.10732,1.616292,-26.28241,-0.2028069074706397,0.1066494854508572,0.3875420560380687,0.6334511,0.001405085,179.0883,-5.623995e-05,0.005527603,-0.9999533,17
14.46,-25.91708,1.254886,-26.43735,-0.2206790847511825,0.1252673967279932,0.3871235630179788,357.4279,6.437517,181.0396,-0.05633524,-0.0218986,-0.9981186,17
14.48,-25.93518,1.419903,-26.32068,-0.2403272006193431,0.1408568707810531,0.3802889729341658,0.9948958,3.578195,181.0453,-0.03113893,0.00896219,-0.9994359,17
14.5,-25.95608,1.581782,-26.20754,-0.2604665869166163,0.1356847545688597,0.3658060569098409,4.556711,0.7134519,180.8728,-0.005918114,0.03979978,-0.9991632,17
14.52,-25.78627,1.23798,-26.34163,-0.2675419849189984,0.1229565446547777,0.3340339093924109,6.170563,6.327511,182.4819,-0.05393312,0.05492119,-0.9968593,17
14.54,-25.80179,1.405816,-26.22378,-0.276444888630289,0.1124754368638166,0.2999995930538435,9.817204,3.47854,182.4945,-0.02837122,0.08616503,-0.9956942,17
14.56,-25.82008,1.570429,-26.10921,-0.2860295124267895,0.1013523483984877,0.2624364852296339,13.45883,0.5956702,182.321,-0.002788038,0.1172596,-0.992906,17
14.58,-25.84099,1.732042,-25.99824,-0.266762580308101,0.0116103085748572,0.1722471296292806,17.08687,357.6538,181.9535,0.0227749,0.1481613,-0.988501,17
14.6,-25.66656,1.208959,-26.27794,-0.278353602916936,0.0223189167286483,0.1319046404974453,13.45484,5.117223,183.4211,-0.04082083,0.1183005,-0.9918388,17
14.62,-25.67774,1.384151,-26.16367,-0.2909345608985307,0.0341436073644745,0.0894585854978982,17.07423,2.269662,183.3898,-0.01518729,0.1489353,-0.9883804,17
14.64,-25.69149,1.556275,-26.05194,-0.2794969065677248,-0.0340789426746555,-0.0020838805705722,20.68652,359.3607,183.166,0.01044587,0.179322,-0.9833314,17
14.66,-25.53659,1.175934,-26.26994,-0.2888306651863037,-0.0200439364898555,-0.048387008027781,18.74764,4.916243,183.9675,-0.0366582,0.1640926,-0.9853899,17
14.68,-25.54057,1.359313,-26.15977,-0.2989187199655227,-0.0044021197096637,-0.0948432904350471,22.31188,2.054796,183.8801,-0.01103268,0.1939336,-0.9805018,17
14.7,-25.54697,1.539814,-26.05125,-0.3088501354371837,0.0098205588403181,-0.1426062403451098,25.86636,359.1096,183.5929,0.0145856,0.2234604,-0.9740688,17
14.72,-25.5557,1.717566,-25.94469,-0.2958646192956227,-0.0869271500253731,-0.2497716799045055,29.40082,356.0497,183.0871,0.04015686,0.2526241,-0.966105,17
14.74,-25.38102,1.139276,-26.23527,-0.3002688327038481,-0.0734946906172401,-0.2970148471109879,26.31099,0.8784282,183.8787,0.0002417907,0.2277102,-0.9732288,17
14.76,-25.37794,1.332602,-26.13011,-0.3044977890089462,-0.0581066888530433,-0.3419333052617883,29.79686,357.8892,183.5178,0.02568219,0.2563952,-0.9656186,17
14.78,-25.37706,1.523269,-26.02561,-0.2901501657828955,-0.1272391221991774,-0.4264302700925118,33.25932,354.7634,182.9268,0.05105843,0.2846745,-0.9565282,17
14.8,-25.37834,1.711335,-25.92204,-0.2901924946874059,-0.1072363114954899,-0.4607952765531449,36.68717,351.4619,182.0765,0.07633232,0.3125095,-0.945973,17
14.82,-25.25388,1.122056,-26.16726,-0.2900752516667131,-0.0853454214070517,-0.4906696297794828,34.72185,357.3031,183.1536,0.03066039,0.2975763,-0.9536252,17
14.84,-25.2472,1.320707,-26.06558,-0.28915725238536,-0.0648641683988288,-0.5171145869536642,38.12117,354.1124,182.5094,0.05567098,0.3249956,-0.943333,17
14.86,-25.24258,1.516853,-25.96403,-0.2790381519544884,-0.0717635267527094,-0.5440801176015255,41.48415,350.7129,181.5818,0.08057443,0.3519206,-0.93163,17
14.88,-25.11114,1.115178,-26.09083,-0.2689823816715853,-0.0748540039614822,-0.5648003995098057,43.27877,358.4971,181.6719,0.01756927,0.3685148,-0.9292741,17
14.9,-25.10027,1.316057,-25.99131,-0.2584512643108398,-0.0775690251494951,-0.580300082259368,46.62067,355.1697,180.9254,0.04189155,0.3950344,-0.917395,17
14.92,-25.09139,1.514511,-25.89164,-0.2301690251789057,-0.1685861926572237,-0.610548211869606,49.92358,351.5544,179.8293,0.06612942,0.4209672,-0.904174,17
14.94,-24.96485,1.110161,-25.94847,-0.215693684440922,-0.1421219614254202,-0.5943524320974429,50.6771,357.4757,178.6304,0.01479273,0.4280696,-0.9036237,17
14.96,-24.9535,1.310228,-25.85112,-0.2016013317448011,-0.1144965967758762,-0.5724415108511209,53.94451,353.8664,177.5972,0.03817393,0.4538095,-0.8902631,17
14.98,-24.9441,1.507979,-25.75368,-0.1873595757588124,-0.0890818973961708,-0.545865764755721,57.16179,349.8419,176.0989,0.06147796,0.4788906,-0.8756292,17
15.0,-24.93665,1.703429,-25.65637,-0.1706812805734938,-0.0893642843156169,-0.5022169415638329,60.30582,345.2668,174.0064,0.08467213,0.5032784,-0.8597454,17
15.02,-24.80817,1.1047,-25.66304,-0.1557259569428986,-0.0875677816784879,-0.4535241633768225,61.20156,350.7006,171.0353,0.02990784,0.511279,-0.8585037,17
15.04,-24.8039,1.2966,-25.5676,-0.1419149067916594,-0.0870253206648257,-0.4008785061783322,64.31244,345.9131,168.7782,0.05167034,0.5358322,-0.8425667,17
15.06,-24.80154,1.486351,-25.47286,-0.1272629672973009,-0.0731839506054899,-0.3467619189056661,67.31516,340.2118,165.5742,0.0733394,0.5596223,-0.8254531,17
15.08,-24.6533,1.144425,-25.39802,-0.1151856176434509,-0.0577019053706964,-0.2895651226983595,58.37464,345.9881,167.6789,0.05392749,0.4926575,-0.867891,17
15.1,-24.65741,1.327076,-25.30165,-0.1049905664421713,-0.0437850538625877,-0.230380904447867,61.35118,341.0482,165.1729,0.07548162,0.5172787,-0.8520801,17
15.12,-24.66352,1.507588,-25.20689,-0.0695192674561653,-0.1007367671092989,-0.1784169296380304,64.1973,335.3056,161.83,0.09691078,0.541179,-0.8351005,17
15.14,-24.67158,1.686072,-25.11394,-0.0571019706151387,-0.05451065372126,-0.1132559141076177,66.85929,328.5168,157.4119,0.1181854,0.5643247,-0.8169791,17
15.16,-24.45004,1.229194,-25.09545,-0.046704957755661,-0.0092043376527592,-0.0468290726799076,37.77604,353.9015,174.6078,0.03506862,0.3252708,-0.9445777,17
15.18,-24.46278,1.402194,-24.98962,-0.0374772248738826,0.0321304593335085,0.0196966578486148,41.03425,350.5225,173.6342,0.05785931,0.3530463,-0.9335338,17
15.2,-24.47787,1.572607,-24.88638,-0.0556217663411846,0.1226153706173273,0.0931409714404125,44.23949,346.8897,172.3433,0.08054462,0.3803083,-0.9211589,17
15.22,-24.29019,1.263929,-24.91763,-0.0367917694065766,0.1107703919732612,0.1239155594646104,13.89519,359.2094,177.0534,0.003735905,0.1210947,-0.9923269,17
15.24,-24.30542,1.432465,-24.8026,-0.0190858269105631,0.0984820346966416,0.1557603721583373,17.40058,356.3382,176.6137,0.02710096,0.1520558,-0.9876999,17
15.26,-24.32328,1.597907,-24.69066,-0.0015653332850011,0.0826748891334298,0.187459642028207,20.88037,353.3797,175.9775,0.05040068,0.182788,-0.9815663,17
15.28,-24.34365,1.760479,-24.58211,0.0065920361355793,0.087930918477082,0.2167794760675652,24.32277,350.3066,175.1294,0.07360012,0.2132327,-0.9739393,17
15.3,-24.1574,1.279579,-24.71701,0.0122402791437612,0.0936672270593971,0.2449968532021866,354.4559,1.802683,178.2778,-0.01498381,-0.04858758,-0.998605,17
15.32,-24.17743,1.445213,-24.60024,0.0163936693542448,0.0970017934115206,0.2707513087162527,358.0168,359.0722,178.1084,0.008379658,-0.01716927,-0.999679,17
15.34,-24.20008,1.607651,-24.48692,0.0207050670845361,0.0987018196105992,0.2870964215256433,1.564675,356.3346,177.7699,0.03170648,0.01426667,-0.9992146,17
15.36,-24.0171,1.296205,-24.53683,0.0223246353806159,0.1009988494849175,0.3012054249445453,353.4675,3.017348,179.3987,-0.0259863,-0.05709331,-0.9980238,17
15.38,-24.04329,1.457679,-24.41797,0.0223368045015468,0.1010614516617545,0.3117233862209345,357.0561,0.283273,179.4071,-0.002338262,-0.02570037,-0.9996541,17
15.4,-24.07211,1.615814,-24.30305,0.0218747103195724,0.0961120319053863,0.317356781085278,0.6398923,357.5559,179.2445,0.02128961,0.005723299,-0.9997361,17
15.42,-23.8847,1.25488,-24.44474,0.0239811274147072,0.0837631826001245,0.300655979366033,357.4257,3.170152,181.0443,-0.02785777,-0.02220129,-0.9993182,17
15.44,-23.90842,1.419857,-24.32895,0.0256881267839741,0.0731270158423867,0.2812928183212229,0.9932626,0.4447038,181.0637,-0.003799993,0.008703328,-0.9999124,17
15.46,-23.93465,1.581664,-24.21673,0.0281358841239534,0.0614031336597651,0.2580042607390047,4.556661,357.715,180.9133,0.02023976,0.03958594,-0.9989731,17
15.48,-23.96319,1.740536,-24.10838,5.54832797781124e-05,0.1233576232549287,0.2695649924832137,8.107814,354.9597,180.5908,0.04422471,0.07039955,-0.9965042,17
15.5,-23.99386,1.790067,-24.00418,0.0067154965112399,0.0871805486656849,0.2197657538500323,11.63825,352.157,180.0913,0.06811827,0.1010967,-0.992512,17
15.52,-23.74173,1.232348,-24.32202,0.0144064546418456,0.0526411154533741,0.168811533356596,8.251093,2.137631,182.7663,-0.01686325,0.07235779,-0.9969773,17
15.54,-23.76298,1.401806,-24.20593,-0.004831326931864,0.0922321047350561,0.1520643769162197,11.88965,359.4265,182.7688,0.007479073,0.1034189,-0.9943069,17
15.56,-23.78665,1.568052,-24.093,-0.0003339491529823,0.0542318400883737,0.0827097361408699,15.52317,356.6758,182.5928,0.03178591,0.1343097,-0.9900798,17
15.58,-23.6121,1.19979,-24.32232,0.0059760853342121,0.0190447760078922,0.0126177926232511,14.771,3.77787,183.5971,-0.02864039,0.1294375,-0.9908097,17
15.6,-23.62516,1.376915,-24.20906,0.0150561720978807,-0.0163165620676639,-0.0592701611635626,18.37621,1.08123,183.621,-0.00426507,0.1598837,-0.9866805,17
15.62,-23.64058,1.550989,-24.09814,0.0174142836942885,-0.0314627846282412,-0.1219674960027199,21.97736,358.3259,183.4628,0.02009324,0.1900744,-0.9810281,17
15.64,-23.48885,1.168419,-24.31371,0.0215226162865209,-0.0423227782232598,-0.1836796743593414,20.14896,2.812295,184.0002,-0.01804293,0.1756122,-0.9838349,17
15.66,-23.494,1.353766,-24.20437,0.0282286826670081,-0.0519811244976362,-0.2454536244556586,23.69738,0.07488526,183.8876,0.006325384,0.2052313,-0.9781345,17
15.68,-23.50138,1.536257,-24.0965,0.0127445265986181,0.0189621819974908,-0.2592621857801194,27.23549,357.2505,183.5815,0.03066075,0.2345317,-0.9709574,17
15.7,-23.51094,1.716003,-23.9904,0.0139322358892322,-0.0202113889575472,-0.3290414572538078,30.75379,354.3087,183.062,0.05492758,0.2634668,-0.9623181,17
15.72,-23.3683,1.139267,-24.28947,0.0176067072769972,-0.0558388626415251,-0.3962441161262053,26.29997,359.8159,183.8925,0.009289805,0.2273162,-0.9732026,17
15.74,-23.36744,1.332561,-24.18415,0.0245236454014214,-0.091168655329532,-0.4618323128670667,29.77925,356.9731,183.5561,0.03348212,0.2559525,-0.9654099,17
15.76,-23.36867,1.523184,-24.07952,0.0076155625314422,-0.0163878921875406,-0.4674997571100951,33.23756,354.0013,183.0014,0.05760189,0.2841996,-0.9561962,17
15.78,-23.24735,1.121926,-24.26453,0.0103621812823662,-0.0544218187955065,-0.5194785517913911,34.71706,358.5028,183.2102,0.02082156,0.2978583,-0.9538916,17
15.8,-23.24009,1.320422,-24.16262,0.0154042720134395,-0.089389853948539,-0.56705024242705,38.12191,355.485,182.6355,0.04472568,0.325378,-0.9438928,17
15.82,-23.23481,1.516397,-24.06084,0.0233773808605688,-0.1246712924578945,-0.6111850131285581,41.49568,352.2721,181.7939,0.06854262,0.3524209,-0.9325351,17
15.84,-23.23151,1.709874,-23.95942,0.0308030746007026,-0.1315530400272833,-0.6301084657251108,44.8252,348.8114,180.6401,0.09223845,0.3789485,-0.9198374,17
15.86,-23.06939,1.114657,-24.14565,0.0399065409153425,-0.1346243055490395,-0.6430987821754024,44.69928,358.9236,181.0561,0.01219135,0.3801447,-0.9247678,17
15.88,-23.05799,1.315759,-24.04597,0.0512452350360388,-0.1373108568712184,-0.6511566841963297,48.03855,355.7212,180.315,0.03521622,0.406665,-0.9127268,17
15.9,-23.0485,1.514422,-23.94612,0.0460727743291116,-0.0536879562030793,-0.6210812012054352,51.3414,352.2263,179.2247,0.05816972,0.4326054,-0.8994038,17
15.92,-22.92276,1.107348,-23.98037,0.0559469365025679,-0.0856282534024178,-0.6128848869994945,53.3015,357.155,177.5781,0.01270548,0.4487814,-0.8935177,17
15.94,-22.91168,1.306364,-23.88318,0.0669921152637309,-0.1158750518115571,-0.5993483420257637,56.55132,353.5464,176.4167,0.03476066,0.4742817,-0.8796862,17
15.96,-22.90246,1.503077,-23.786,0.0618100402315264,-0.0577753362146382,-0.558025698053779,59.7478,349.4681,174.7419,0.05674887,0.499119,-0.8646521,17
15.98,-22.89511,1.697505,-23.68904,0.0762232751015696,-0.0808663096466486,-0.516407171552367,62.86658,344.7581,172.3972,0.07863849,0.5232639,-0.8484359,17
16.0,-22.76575,1.109323,-23.66971,0.0902553656321147,-0.1036002304973298,-0.47049678868084,62.6203,347.502,167.6882,0.03706593,0.5235764,-0.8504593,17
16.02,-22.76297,1.298733,-23.57399,0.1044799971187062,-0.1293029505408928,-0.4213835795301288,65.6517,342.3427,164.8975,0.05746056,0.5479679,-0.8340983,17
16.04,-22.76204,1.485989,-23.47919,0.1010589285697989,-0.0424585434274215,-0.3545975082901949,68.54708,336.1189,161.0133,0.07775794,0.5716131,-0.8166231,17
16.06,-22.61342,1.161813,-23.41051,0.1255780323933848,-0.0512321420037281,-0.2959387075157789,55.76656,346.4438,168.648,0.0578793,0.4724441,-0.8788801,17
16.08,-22.61898,1.342271,-23.31307,0.1492831596165285,-0.0604012494341718,-0.2343078071327924,58.75319,341.9282,166.4179,0.07861163,0.4972445,-0.8636726,17
16.1,-22.62652,1.520535,-23.21739,0.150673551082852,0.0062762425583167,-0.167957911149478,61.62678,336.7535,163.4938,0.09922006,0.5213816,-0.8473312,17
16.12,-22.44906,1.228842,-23.18124,0.1797132794417293,0.004937549894075,-0.1168006615010521,37.82348,354.3426,174.6227,0.03144997,0.32555,-0.9445766,17
16.14,-22.4606,1.401457,-23.07388,0.2084070051821234,0.0028025144602074,-0.0622759246184512,41.11929,351.1074,173.6732,0.05315506,0.3535974,-0.9335694,17
16.16,-22.47446,1.571397,-22.96906,0.2374388840981298,-0.0033054308003384,-0.0055974580853486,44.36566,347.624,172.4144,0.07476451,0.3811439,-0.9212646,17
16.18,-22.49051,1.738816,-22.86703,0.2328095505194269,0.0785157559442655,0.0629187881709207,47.54737,343.8308,170.7913,0.09624733,0.408162,-0.9076769,17
16.2,-22.50864,1.797247,-22.76803,0.2526659353583711,0.0658773143730966,0.0901967021416232,50.64226,339.6527,168.7352,0.1175753,0.4346044,-0.8928314,17
16.22,-22.26126,1.268551,-22.94957,0.2731362859342536,0.0528444028295134,0.1184909493276213,8.133655,359.9768,177.4336,-0.001386231,0.0709067,-0.9972323,17
16.24,-22.27643,1.436555,-22.83392,0.2642676098033711,0.1078873489288084,0.1663373816007611,11.65185,357.2982,177.083,0.02086261,0.1020423,-0.9942972,17
16.26,-22.29413,1.601421,-22.72132,0.2552173538354396,0.1603007525764259,0.2113231331742344,15.14956,354.5608,176.5574,0.04305803,0.133025,-0.9898984,17
16.28,-22.11148,1.285542,-22.79302,0.2788192936981701,0.1185667768087755,0.2172507459240424,353.3147,4.331435,178.6321,-0.03702742,-0.05871154,-0.997541,17
16.3,-22.12912,1.449671,-22.67438,0.303144008579713,0.0750560596034148,0.2221265778818861,356.8904,1.726984,178.5621,-0.01472307,-0.02731645,-0.999445,17
16.32,-22.14939,1.61051,-22.55917,0.2977397048711925,0.1229598139708576,0.2606734559848949,0.4583163,359.1245,178.33,0.00758063,0.004110344,-0.9998572,17
16.34,-21.97006,1.282985,-22.64561,0.3167243346305604,0.0958600988023097,0.2567588098086619,353.7848,5.387825,179.6723,-0.04677617,-0.05428556,-0.9974294,17
16.36,-21.99047,1.445553,-22.52697,0.3366270167891314,0.0688881014026837,0.2511609499084382,357.356,2.781567,179.7196,-0.0242084,-0.02312417,-0.9994378,17
16.38,-22.01348,1.604824,-22.41194,0.327172697856386,0.1098172707616542,0.2665790068483673,0.9245812,0.1832914,179.6046,-0.001627297,0.00806283,-0.9999604,17
16.4,-22.03891,1.761043,-22.30084,0.3185376390335142,0.1486280233674683,0.2773294956607701,4.483284,357.5728,179.3274,0.02093357,0.03922883,-0.9989983,17
16.42,-21.83642,1.250613,-22.54745,0.3355980895103032,0.0893834155543163,0.229428535376293,359.3985,5.533184,181.2806,-0.04832229,-0.004703009,-0.9987557,17
16.44,-21.85409,1.415919,-22.42993,0.3234751656245032,0.1078449846409803,0.2174508595961408,2.993735,2.941807,181.321,-0.02535781,0.02640775,-0.9992709,17
16.46,-21.87429,1.57799,-22.31576,0.31253657290747,0.1263567928177988,0.2032237512770764,6.58627,0.3419073,181.198,-0.002378058,0.05747217,-0.9982918,17
16.48,-21.89686,1.737056,-22.20522,0.3037226432563438,0.142142131460174,0.1854876053038316,10.16848,357.7127,180.9088,0.02058258,0.0884422,-0.995822,17
16.5,-21.67342,1.226408,-22.49488,0.3226005824494642,0.0563194821763976,0.0994325466283321,10.33025,7.134467,183.1132,-0.05950348,0.09150209,-0.9937952,17
16.52,-21.68401,1.397279,-22.37762,0.346895866632352,-0.0130477949853578,0.0125631669433476,13.96659,4.564968,183.172,-0.03615337,0.122531,-0.9915482,17
16.54,-21.69711,1.564924,-22.26311,0.3347670929325685,0.022677458151035,-0.0134050312471374,17.60074,1.955451,183.061,-0.01277111,0.1533658,-0.9878008,17
16.56,-21.54385,1.191061,-22.50151,0.3398253794579831,-0.0201115893145347,-0.0920445768122064,16.08561,8.731262,183.7261,-0.07079688,0.1418836,-0.9871155,17
16.58,-21.54534,1.370211,-22.38835,0.3499358242545876,-0.059618863799836,-0.1708703543071563,19.67787,6.16997,183.7679,-0.04738738,0.1722825,-0.9836348,17
16.6,-21.54923,1.546329,-22.27707,0.335837820507904,-0.0191376605681459,-0.2000346182492314,23.26725,3.550169,183.6362,-0.02392989,0.2024172,-0.9786927,17
16.62,-21.41969,1.160973,-22.49356,0.3349162606191713,-0.0599102218048539,-0.2759152559989273,21.57235,7.050439,184.0405,-0.05377908,0.1888034,-0.9802701,17
16.64,-21.41373,1.348404,-22.38497,0.3387911069844342,-0.0969512248200628,-0.3506591955556635,25.10514,4.425334,183.8924,-0.0302887,0.2183279,-0.9750917,17
16.66,-21.40999,1.532999,-22.27742,0.3227752372649761,-0.050345099872901,-0.3766078292539796,28.62669,1.709274,183.5557,-0.006776647,0.2475266,-0.9684986,17
16.68,-21.40843,1.714854,-22.17119,0.3093369165625104,-0.0039300912104122,-0.4009724947325277,32.12809,358.8718,183.0097,0.01672407,0.2763544,-0.9605036,17
16.7,-21.29599,1.132982,-22.46376,0.2991212427963989,0.0241225230173164,-0.4248474267717164,28.02279,3.917668,183.8672,-0.02498098,0.2429547,-0.9694079,17
16.72,-21.28497,1.327994,-22.35956,0.3014700262184022,-0.0729983902733301,-0.5132649587019631,31.48417,1.171025,183.4835,-0.001585271,0.271467,-0.9620823,17
16.74,-21.27596,1.520352,-22.2557,0.2869473455094504,-0.0554598364179427,-0.5391891727681482,34.92393,358.2884,182.8829,0.02179063,0.2995858,-0.9533955,17
16.76,-21.26896,1.710104,-22.15242,0.2758291366011529,-0.0358381936140286,-0.5608817215204587,38.3321,355.2318,182.0357,0.04511389,0.3272731,-0.9433622,17
16.78,-21.13035,1.117247,-22.39708,0.2784966509254176,-0.1014705786400825,-0.6146585569424334,39.62437,2.917473,182.6444,-0.01612543,0.3392906,-0.9404527,17
16.8,-21.11335,1.317117,-22.29672,0.2679268089611888,-0.0767276323865766,-0.6214158400379701,43.00621,359.9412,181.9927,0.006851581,0.3664878,-0.9302539,17
16.82,-21.09822,1.514477,-22.19619,0.2604032516368657,-0.050164438717124,-0.6227049778038558,46.35577,356.734,181.0491,0.02979783,0.3931709,-0.9187728,17
16.84,-20.9786,1.113858,-22.30379,0.2563938963894907,-0.0251521953168828,-0.6195342569624831,46.37251,3.789835,180.3162,-0.02930989,0.3935884,-0.9187595,17
16.86,-20.95847,1.314871,-22.20591,0.2705272945951216,-0.1175167832605445,-0.6447761897794182,49.6884,0.6706783,179.5351,-0.007015396,0.42012,-0.9074205,17
16.88,-20.94014,1.513463,-22.10771,0.2653522328284934,-0.0922232989149656,-0.6231676956918832,52.96823,357.2469,178.3982,0.01526776,0.4460779,-0.8948619,17
16.9,-20.92365,1.709642,-22.00942,0.2623077687589932,-0.0656014396987747,-0.5960821127760711,56.19579,353.4253,176.8177,0.03750985,0.4714276,-0.8811029,17
16.92,-20.80789,1.103904,-22.10218,0.2817555353517891,-0.1240860073445749,-0.5675250326249097,56.48426,1.464597,176.1107,-0.02730887,0.4725055,-0.8801715,17
16.94,-20.78985,1.300546,-22.00653,0.2852915020266708,-0.0928275835867218,-0.5153795979215374,59.7079,357.7824,174.7518,-0.006020886,0.4979442,-0.8666667,17
16.96,-20.77359,1.494916,-21.91093,0.2892849167879081,-0.0611426674366262,-0.4592533382367416,62.873,353.5413,172.7965,0.01525698,0.5227161,-0.8520272,17
16.98,-20.6225,1.118068,-21.8487,0.2941911938233574,-0.0322975795583339,-0.4001970739581106,61.81349,353.8659,167.1268,-0.01188068,0.5148199,-0.8544558,17
17.0,-20.6101,1.305046,-21.75319,0.3186699495230307,-0.1072504347524788,-0.3547612825206139,64.83057,348.9182,164.4114,0.008400619,0.5396725,-0.8394973,17
17.02,-20.59963,1.489851,-21.65856,0.3254995233998681,-0.068575269063437,-0.2950697334113834,67.71829,342.9877,160.6853,0.0286522,0.5638211,-0.8234617,17
17.04,-20.59107,1.672563,-21.56501,0.3328338622020821,-0.0296715950581131,-0.2330779300049101,70.41416,335.7095,155.5878,0.04885071,0.5872329,-0.8063734,17
17.06,-20.38857,1.195578,-21.54526,0.3412324610568387,0.0063388862869944,-0.1698260888299021,48.31636,358.9393,173.041,-0.01640736,0.4089979,-0.9109281,17
17.08,-20.3842,1.372592,-21.44556,0.3588463186733177,0.0237221685329817,-0.1261379978620702,51.4044,355.3977,171.6926,0.00469607,0.4348263,-0.8992303,17
17.1,-20.38206,1.547312,-21.3476,0.377312778968681,0.0422316157940979,-0.0798096565756343,54.42855,351.4762,169.9213,0.02577343,0.4600973,-0.8864007,17
17.12,-20.18412,1.250305,-21.36198,0.3972003371134103,0.0587631284542177,-0.0319737493412923,26.2372,5.154561,175.9046,-0.05186701,0.2250283,-0.9719315,17
17.14,-20.1799,1.419637,-21.24653,0.4127216807954559,0.0729123040228307,-0.0037561768701883,29.72882,2.35216,175.2668,-0.03041204,0.2554405,-0.9652905,17
17.16,-20.17846,1.585867,-21.13352,0.4296707954670631,0.0880635612102291,0.0253358211360228,33.18807,359.4,174.4018,-0.008934576,0.285489,-0.957269,17
17.18,-20.17973,1.749184,-21.02324,0.4486561003367688,0.1012254512141918,0.0540949777484098,36.60372,356.2596,173.2793,0.01253472,0.3151326,-0.9478788,17
17.2,-20.00998,1.27211,-21.19279,0.470319711872091,0.1094615179390831,0.081345655129132,2.419437,9.802824,177.8401,-0.08580372,0.01942103,-0.9959102,17
17.22,-20.00738,1.439256,-21.07468,0.5129868535148709,0.0360264665527322,0.0652846181287909,5.974473,7.291901,177.5954,-0.06458178,0.05066405,-0.996331,17
17.24,-20.00767,1.603171,-20.95924,0.5201542310179006,0.0631365302718389,0.0913082156341431,9.514268,4.746905,177.1913,-0.04328845,0.08182479,-0.995317,17
17.26,-20.01075,1.764066,-20.84676,0.5292174143207795,0.088989981807741,0.115676773278035,13.03153,2.147461,176.6216,-0.02195439,0.1128585,-0.9928719,17
17.28,-19.79068,1.29404,-20.98449,0.5408730581832715,0.1108016098294827,0.137093092237182,352.8257,12.94683,179.1654,-0.1120656,-0.06298604,-0.9917028,17
17.3,-19.79226,1.456126,-20.86303,0.5481080272541421,0.1052406061563003,0.1320696424335841,356.4145,10.46388,179.1643,-0.09091344,-0.03181806,-0.9953407,17
17.32,-19.79685,1.614832,-20.74472,0.5574808780172269,0.1008694592757639,0.1256600600133244,-0.001155563,7.988193,179.0079,-0.06965099,-0.0006130785,-0.9975341,17
17.34,-19.63168,1.262272,-20.90373,0.5697087130222878,0.0948779773177436,0.1165972982259968,355.739,14.27121,180.5008,-0.1242923,-0.03634509,-0.9915395,17
17.36,-19.63195,1.426581,-20.785,0.5715666955081389,0.0859493989373464,0.0904503979848598,359.2987,11.79263,180.5693,-0.1027557,-0.005577113,-0.9946755,17
17.38,-19.63511,1.587651,-20.6692,0.5766645753703781,0.0789343531437909,0.0628266930101006,2.857102,9.317898,180.4839,-0.08109354,0.0251906,-0.9963859,17
17.4,-19.64108,1.74571,-20.55664,0.5856985241678463,0.0710104747479559,0.0325152212575812,6.407416,6.827837,180.2437,-0.05933701,0.05591328,-0.9966702,17
17.42,-19.48117,1.240774,-20.82066,0.5993971864384271,0.0594078157384807,-0.0016444077264483,3.98441,14.89953,181.9876,-0.1289612,0.0367123,-0.9908888,17
17.44,-19.47755,1.407566,-20.70132,0.5961892959748929,0.0460499797549947,-0.0468593455537638,7.619103,12.44065,182.0555,-0.1069105,0.06797767,-0.9918857,17
17.46,-19.47681,1.571051,-20.58468,0.5974763261627372,0.035730949679514,-0.0930190797453631,11.25293,9.962516,181.9651,-0.08472402,0.09913967,-0.991424,17
17.48,-19.47886,1.731452,-20.47105,0.6039190412509403,0.0255486117998081,-0.1412426673811078,14.87837,7.444227,181.711,-0.06243481,0.1301474,-0.9895066,17
17.5,-19.30963,1.208788,-20.81071,0.6162125016078064,0.0126483580679822,-0.1926101530731556,13.44423,17.07863,183.5088,-0.1438542,0.120217,-0.9821879,17
17.52,-19.29726,1.383651,-20.6954,0.5988062678376598,-0.0056333052496913,-0.25014507075683,17.06633,14.64524,183.5943,-0.1213678,0.1510523,-0.9809754,17
17.54,-19.28758,1.555344,-20.58196,0.5865670065043145,-0.0200454555738066,-0.3078953349323039,20.6876,12.1669,183.5174,-0.09872583,0.1816586,-0.9783314,17
17.56,-19.17814,1.175863,-20.82849,0.5801060720042104,-0.0335835844009668,-0.3669179653506869,18.73454,17.93025,184.0217,-0.1480193,0.16607,-0.9749016,17
17.58,-19.15727,1.35902,-20.71917,0.5548560952647015,-0.0482314809439043,-0.4251508143351938,22.29988,15.48046,184.0181,-0.1253412,0.1961299,-0.972501,17
17.6,-19.13882,1.539218,-20.61091,0.5348065577580758,-0.0585493441408477,-0.482115943172472,25.86067,12.96383,183.8452,-0.1025059,0.225902,-0.9687151,17
17.62,-19.04861,1.14563,-20.83279,0.5204832479285462,-0.0676749050692973,-0.5388075169557762,24.593,16.26448,184.0121,-0.1307482,0.215538,-0.9676952,17
17.64,-19.02101,1.337024,-20.72938,0.4920698189214261,0.0050918624698204,-0.5473523268908038,28.09413,13.72801,183.7974,-0.1078914,0.2446882,-0.9635758,17
17.66,-18.99552,1.525657,-20.62627,0.4655021544450859,-0.0333815391250512,-0.6089377849797502,31.58151,11.08799,183.393,-0.08490483,0.2734855,-0.9581192,17
17.68,-18.97217,1.711591,-20.52369,0.4450556263542475,-0.0682499123987014,-0.6684596423625462,35.04745,8.313086,182.7767,-0.06182156,0.3018952,-0.9513336,17
17.7,-18.95099,1.788243,-20.4219,0.4312079754555062,-0.1028168382803244,-0.7268116508928988,38.48243,5.365622,181.919,-0.03867363,0.3298785,-0.9432307,17
17.72,-18.87071,1.121953,-20.77365,0.4111248854788742,-0.1101216726186989,-0.7570085397994002,34.71228,12.65809,183.2047,-0.09688716,0.2993184,-0.9492002,17
17.74,-18.83844,1.320401,-20.67565,0.3966846933156973,-0.1131011158514291,-0.783553351619255,38.12629,9.894785,182.6417,-0.07398909,0.3271857,-0.9420369,17
17.76,-18.80798,1.516269,-20.57734,0.3882866436306837,-0.1151378303738231,-0.8073527972405667,41.51256,6.949232,181.8315,-0.05101178,0.3546027,-0.9336014,17
17.78,-18.70991,1.115075,-20.72857,0.3863529733932958,-0.1195742062786903,-0.8293133759369415,43.27343,14.81824,181.726,-0.1143465,0.3674056,-0.9223911,17
17.8,-18.67267,1.315784,-20.6345,0.3712835244152539,-0.0277697636413924,-0.7982628040036928,46.62523,11.93027,181.0663,-0.09177235,0.394476,-0.91373,17
17.82,-18.63712,1.514006,-20.53985,0.3607788468772357,-0.0632205821098762,-0.8066492311672668,49.94696,8.79014,180.1009,-0.0690975,0.4210182,-0.9038659,17
17.84,-18.60332,1.709754,-20.44483,0.3558447232535764,-0.0962381243552484,-0.8110577916692545,53.2253,5.323143,178.7612,-0.04635179,0.4469984,-0.892814,17
17.86,-18.47136,1.107238,-20.57507,0.3408924504706005,-0.0409295888186563,-0.7811801031579391,53.30172,14.25874,177.6508,-0.1200246,0.4427173,-0.8855189,17
17.88,-18.43328,1.306089,-20.48402,0.3462834610165255,-0.070610595154585,-0.7584330294785442,56.56912,10.97916,176.5913,-0.09823444,0.4689634,-0.8748303,17
17.9,-18.39685,1.502588,-20.3925,0.3553246021380567,-0.099149183622227,-0.732089925722172,59.79249,7.26879,175.061,-0.07633636,0.4945986,-0.8630211,17
17.92,-18.22113,1.109167,-20.32186,0.3683522364263227,-0.1299141369308082,-0.703115310385142,62.63172,6.301639,167.7901,-0.1018831,0.511033,-0.8451478,17
17.94,-18.18823,1.298392,-20.23103,0.3920071030551848,-0.1209883640279895,-0.6523738250430036,65.68929,1.510568,165.1397,-0.08111272,0.5363301,-0.8320929,17
17.96,-18.15724,1.485412,-20.1405,0.4176720935976257,-0.1105090396249609,-0.5979736374514166,68.62656,355.7065,161.4499,-0.06025791,0.5609435,-0.8180005,17
17.98,-18.12819,1.670295,-20.05046,0.4456660460482431,-0.1017288405599373,-0.5409294495946,71.38246,348.4782,156.3136,-0.03934419,0.5848451,-0.8028888,17
18.0,-17.97257,1.161727,-20.0708,0.4558424143418436,-0.0124991960363731,-0.4772864051074061,55.77869,4.160593,168.646,-0.07816761,0.4619907,-0.8772585,17
18.02,-17.94677,1.342144,-19.97602,0.4950883503574756,-0.0152136282163138,-0.4332255641289841,58.77124,359.9102,166.4414,-0.05724467,0.4873348,-0.8652901,17
18.04,-17.92322,1.520316,-19.88224,0.5364792644346106,-0.0183444340153405,-0.3862811101176264,61.65886,355.0253,163.5709,-0.03627057,0.5120727,-0.8522639,17
18.06,-17.90193,1.696351,-19.78967,0.5803371790667007,-0.0250690641311209,-0.3374980881832283,64.40228,349.3217,159.8547,-0.01527273,0.5361741,-0.8381981,17
18.08,-17.67078,1.240328,-19.86513,0.5976480569277638,0.060144328053331,-0.2770287605537094,31.97568,15.04998,175.2826,-0.1370246,0.2676487,-0.9507493,17
18.1,-17.64515,1.411712,-19.75771,0.6276429738951828,0.0510369119147998,-0.2558044547993443,35.32591,12.26216,174.557,-0.115978,0.2965091,-0.9448006,17
18.12,-17.6224,1.580262,-19.65194,0.6614517057106544,0.0415534196478117,-0.2325721327093171,38.64074,9.298007,173.5917,-0.09479907,0.3249707,-0.9376096,17
18.14,-17.4494,1.268384,-19.75078,0.669714137893334,0.0990178463017865,-0.1918435875532704,8.165823,21.59647,177.488,-0.1883637,0.06582615,-0.9792724,17
18.16,-17.42059,1.436183,-19.63708,0.679804147750968,0.1542474712060266,-0.1535004471284402,11.69218,19.16969,177.208,-0.1680396,0.09636947,-0.9802077,17
18.18,-17.39499,1.600777,-19.52525,0.7079359520793123,0.1149749294172944,-0.1600921071510881,15.20274,16.69161,176.7697,-0.1475035,0.1267721,-0.9797848,17
18.2,-17.37261,1.762365,-19.41561,0.7400861553920253,0.0744445760107373,-0.167799234517187,18.69023,14.14117,176.1638,-0.1267841,0.1569903,-0.9780068,17
18.22,-17.22862,1.285505,-19.59613,0.7506061180107766,0.1253651781509071,-0.1362078023871089,353.32,24.91652,178.6335,-0.2146682,-0.05945353,-0.9748755,17
18.24,-17.20127,1.449591,-19.4791,0.7742168454455933,0.104901393965522,-0.1420199421390702,356.8961,22.55198,178.5812,-0.1951197,-0.02897814,-0.9803275,17
18.26,-17.17732,1.610336,-19.36426,0.8011339429234714,0.0841289752901854,-0.1492985911918682,0.4661311,20.18994,178.3818,-0.1753179,0.001529203,-0.9844023,17
18.28,-17.15677,1.767961,-19.25193,0.8317772065644917,0.060172925830299,-0.1592298336022435,4.023818,17.81207,178.0348,-0.1552911,0.03202557,-0.9870964,17
18.3,-16.97927,1.269909,-19.49177,0.8327288594111073,0.124439075917611,-0.1359184781948452,354.1093,27.54042,179.9464,-0.2376907,-0.05001786,-0.969981,17
18.32,-16.9521,1.433496,-19.37546,0.8348199014678723,0.0907761333240936,-0.1716247498500158,357.6707,25.1739,180.0438,-0.2178835,-0.01975402,-0.9757632,17
18.34,-16.92834,1.593792,-19.26137,0.8418378705406213,0.0580962445185357,-0.2100576482512126,1.232011,22.8172,179.9943,-0.1977936,0.01052884,-0.980185,17
18.36,-16.79243,1.246193,-19.45332,0.8283572037988964,0.0997918301536262,-0.2112425028874534,1.380212,29.74254,181.5508,-0.2564485,0.01511277,-0.9663882,17
18.38,-16.75919,1.411719,-19.33814,0.8177697618450981,0.139590444652429,-0.2160608922078433,5.004353,27.39619,181.6609,-0.2359404,0.04584011,-0.9706787,17
18.4,-16.72934,1.573905,-19.22491,0.8089719029044198,0.0806974823693345,-0.2841800287931142,8.629478,25.04129,181.6209,-0.2151165,0.07649641,-0.9735845,17
18.42,-16.70289,1.732972,-19.11395,0.8072558298122343,0.0227512767550531,-0.3548567078259608,12.24885,22.65858,181.4283,-0.1940073,0.1070354,-0.9751037,17
18.44,-16.59357,1.217524,-19.42385,0.787791357665401,0.0618394057278605,-0.373094381964596,11.88862,30.9685,183.3159,-0.2625392,0.1074439,-0.9589208,17
18.46,-16.55376,1.390332,-19.31366,0.7645749195167304,0.0237094807422126,-0.4417474802841385,15.51817,28.64617,183.4036,-0.2411316,0.1380333,-0.9606138,17
18.48,-16.51703,1.559905,-19.20478,0.7487709127882147,-0.0112959610069862,-0.5131052394181292,19.1471,26.28568,183.3374,-0.2194015,0.1684176,-0.9609382,17
18.5,-16.48338,1.726418,-19.09751,0.7408343352926603,-0.0461504222954939,-0.588084017136,22.7693,23.86477,183.1068,-0.1973791,0.1985532,-0.9598956,17
18.52,-16.44603,1.183323,-19.42676,0.7151496020563282,0.0182553351277677,-0.6000667930835162,17.40545,31.47054,183.8658,-0.2630059,0.1545966,-0.9522859,17
18.54,-16.40076,1.364456,-19.32368,0.6802723590493234,-0.0240186913040043,-0.6681165972072751,20.9847,29.14412,183.888,-0.2412694,0.184537,-0.9526557,17
18.56,-16.35811,1.542562,-19.22121,0.6531286352537564,-0.0624383962670777,-0.7381451034845194,24.56073,26.75976,183.7512,-0.2192178,0.214212,-0.9516985,17
18.58,-16.31737,1.153171,-19.46907,0.6187930654888614,-0.0178837067604327,-0.7573253704546965,23.06024,31.5021,184.0361,-0.2590407,0.2016244,-0.9443538,17
18.6,-16.26561,1.342451,-19.37391,0.589716938572908,0.0265791889865966,-0.7770773479368547,26.5784,29.11951,183.903,-0.2369397,0.2306867,-0.9433897,17
18.62,-16.216,1.528903,-19.27868,0.546263133169514,-0.0401456941242173,-0.8433656212530445,30.08687,26.64958,183.5964,-0.2145375,0.2594238,-0.9411456,17
18.64,-16.16864,1.712602,-19.18362,0.5002611777483859,-0.0183558698533829,-0.861539841873304,33.57892,24.06358,183.0962,-0.1918633,0.2877986,-0.9376262,17
18.66,-16.13523,1.12491,-19.47083,0.460497178504333,0.0055531602272365,-0.8785114313794704,32.0789,29.45124,183.5272,-0.2359555,0.2746157,-0.9312257,17
18.68,-16.07792,1.322398,-19.3838,0.4272231495023419,0.0283228935398043,-0.8952042268726261,35.51778,26.88681,183.0833,-0.2133454,0.3025041,-0.9278267,17
18.7,-16.02227,1.517252,-19.29609,0.3902474510758376,-0.0638051694092685,-0.9530571652218476,38.93506,24.17138,182.4218,-0.1904737,0.3299847,-0.923202,17
18.72,-15.94277,1.115649,-19.43231,0.3623194666725982,-0.1387662386743922,-1.0117018409401446,41.8429,30.2431,182.3435,-0.2365684,0.3496344,-0.9034449,17
18.74,-15.88161,1.31605,-19.35073,0.334620345532582,-0.0879457311524794,-1.0039846948680409,45.20989,27.49232,181.7044,-0.2137888,0.3765872,-0.8979948,17
18.76,-15.82189,1.513924,-19.2682,0.3114559765542852,-0.1215227037555086,-1.018710044901623,48.5486,24.51011,180.7812,-0.1907538,0.4030472,-0.8913892,17
18.78,-15.76372,1.709283,-19.18491,0.2962473374721963,-0.1523865242323589,-1.0321812421070025,51.84699,21.2291,179.5124,-0.1674933,0.4289814,-0.8836384,17
18.8,-15.70722,1.795489,-19.10104,0.2788433303667375,-0.0947819937621791,-1.0077370978068083,55.08932,17.56126,177.8152,-0.1440373,0.4543567,-0.8747542,17
18.82,-15.64919,1.110091,-19.31885,0.267755692476721,-0.0375247618139697,-0.9807826996256908,50.66856,29.57931,178.6862,-0.235449,0.4110499,-0.8725728,17
18.84,-15.58806,1.309982,-19.24016,0.281093933211108,-0.0966065155347446,-0.9689947932508236,53.95524,26.54391,177.7559,-0.2131991,0.4374352,-0.8651758,17
18.86,-15.52833,1.507464,-19.16055,0.3001909619887917,-0.155831438740943,-0.9560351000799132,57.20401,23.14952,176.4256,-0.1907017,0.463265,-0.8566977,17
18.88,-15.35503,1.104452,-19.16139,0.3102770514086987,-0.0991911063467679,-0.9089232315543933,61.20813,26.05166,171.2053,-0.2314537,0.4796684,-0.8272926,17
18.9,-15.29668,1.296062,-19.08376,0.3245245338382456,-0.0435762094201798,-0.8597123712907537,64.3544,21.96255,169.1852,-0.2097788,0.5052681,-0.8176499,17
18.92,-15.24005,1.485429,-19.00576,0.3547258657932375,-0.0930155247966059,-0.8275328392313246,67.4175,17.06241,166.3262,-0.1878634,0.5302375,-0.8070146,17
18.94,-15.03351,1.144187,-18.98799,0.368162635798045,-0.0557522418720822,-0.7904831074163532,58.40627,21.70126,167.7399,-0.2145525,0.4588971,-0.8425791,17
18.96,-14.9789,1.326641,-18.90674,0.3849211928644793,-0.0176501452260958,-0.7522851491282161,61.41023,17.35814,165.3621,-0.1929918,0.4841313,-0.8332202,17
18.98,-14.92652,1.506848,-18.82565,0.421840681500935,-0.0487030203308546,-0.7344865545914514,64.30561,12.27606,162.2176,-0.171219,0.5087785,-0.8228683,17
19.0,-14.87646,1.684908,-18.74492,0.4629928849565763,-0.0813219267960306,-0.7154042574411079,67.04747,6.214183,158.0693,-0.1492593,0.5328069,-0.8115395,17
19.02,-14.63655,1.228933,-18.80909,0.4892368014669896,-0.0150013801211432,-0.6794488940578387,37.82776,30.59044,174.6484,-0.2638741,0.3006742,-0.9075121,17
19.04,-14.58095,1.401749,-18.71692,0.5187926893801644,0.0495355232265306,-0.6439182299120376,41.10051,27.75007,173.7608,-0.2427579,0.3280614,-0.9031146,17
19.06,-14.52835,1.571864,-18.62542,0.5635714622317265,0.0200318019806206,-0.6473038157578901,44.33281,24.68886,172.6004,-0.2213583,0.3550307,-0.8975904,17
19.08,-14.47879,1.739416,-18.53481,0.6147552425172238,-0.0113178353531895,-0.6500891976655878,47.51261,21.35173,171.1176,-0.1997015,0.3815562,-0.8909451,17
19.1,-14.3537,1.263797,-18.71654,0.6406174500972082,0.0468222198859169,-0.6281389349637259,13.95076,36.55845,177.0822,-0.3141616,0.1073511,-0.9412358,17
19.12,-14.29311,1.432166,-18.61662,0.6750332294821029,0.0346695675847073,-0.6374731185248472,17.46325,34.19005,176.7077,-0.2945987,0.1366929,-0.943069,17
19.14,-14.23597,1.597326,-18.51755,0.7146056738767186,0.0221747650776152,-0.6484684719151281,20.95798,31.74836,176.1701,-0.2746595,0.1658536,-0.9436318,17
19.16,-14.18236,1.759478,-18.41961,0.7364815150873287,0.078023580284664,-0.6316440838795208,24.42636,29.21032,175.4559,-0.2543714,0.1947825,-0.9429268,17
19.18,-14.02073,1.285514,-18.61562,0.7606663913133853,0.1311678063863165,-0.6183315478857638,353.3153,42.61988,178.6491,-0.3621292,-0.05858894,-0.9302287,17
19.2,-13.95866,1.4496,-18.51268,0.787286052137234,0.163826928009502,-0.6095828126467513,356.887,40.36452,178.619,-0.3445481,-0.02964906,-0.9382984,17
19.22,-13.90036,1.610325,-18.4108,0.8092834046423174,0.0925062399726786,-0.6532043444173006,0.4537919,38.11282,178.4486,-0.3265171,-0.0006773323,-0.9450861,17
19.24,-13.76727,1.283026,-18.55376,0.8185931051726039,0.1142303496195076,-0.6570818458167755,353.7795,44.68369,179.7021,-0.3794401,-0.05117087,-0.9236204,17
19.26,-13.70572,1.445477,-18.44991,0.8313223339207325,0.1351152132343687,-0.6646395621823795,357.3486,42.42482,179.8019,-0.3616918,-0.02219313,-0.9320091,17
19.28,-13.64805,1.604554,-18.34721,0.8476180858831146,0.1524430223145345,-0.676957723181784,0.9178512,40.17654,179.761,-0.3434713,0.006806185,-0.9391268,17
19.3,-13.59434,1.760478,-18.24597,0.8551187841253995,0.0692892339773895,-0.745176920030092,4.481708,37.92134,179.5798,-0.324804,0.03578812,-0.9449657,17
19.32,-13.5485,1.250573,-18.52788,0.8461240010662752,0.0830738348817966,-0.765797670283296,359.3827,45.9653,181.3164,-0.390478,-0.0004737608,-0.920525,17
19.34,-13.48392,1.415748,-18.42758,0.8415265547996347,0.0969680450909404,-0.7904666854429614,2.975992,43.72519,181.416,-0.3719302,0.02869798,-0.9278154,17
19.36,-13.42303,1.577609,-18.32822,0.8265056722145092,0.0365628109638713,-0.8566611415533552,6.569625,41.48178,181.3743,-0.3528925,0.05782209,-0.9338315,17
19.38,-13.36592,1.736368,-18.23009,0.8019219670992574,0.0529113419905883,-0.8825138290493708,10.15781,39.2172,181.1895,-0.3333918,0.08685882,-0.9385665,17
19.4,-13.3238,1.226361,-18.54698,0.781912725198481,0.0701246658929403,-0.9126376989463604,10.31541,48.76838,183.1525,-0.4087736,0.09315791,-0.9077876,17
19.42,-13.25249,1.397083,-18.45249,0.7666187519119227,0.085405250233498,-0.947981438060426,13.94907,46.56112,183.2761,-0.3889605,0.1227103,-0.9127826,17
19.44,-13.18454,1.564502,-18.35846,0.7297734717813815,-0.0039202298873312,-1.0332060664627596,17.58364,44.32442,183.2551,-0.3686269,0.1520838,-0.9165063,17
19.46,-13.17712,1.191046,-18.59859,0.6886666413096201,0.0092870584600075,-1.062156689680407,16.07219,51.3109,183.7633,-0.4243379,0.1400235,-0.8940684,17
19.48,-13.10074,1.370039,-18.51402,0.6528257076731279,0.0242627001703808,-1.0952460820005645,19.66206,49.11644,183.8678,-0.4040407,0.1690287,-0.8980678,17
19.5,-13.02711,1.545932,-18.42932,0.6224127616098107,0.0380655367647199,-1.133347197937418,23.25203,46.87659,183.8253,-0.3832127,0.197795,-0.9008404,17
19.52,-12.95636,1.718861,-18.34474,0.5641572864049345,-0.0562222729699959,-1.2120505105873596,26.83636,44.56906,183.6235,-0.3618819,0.2262788,-0.9023855,17
19.54,-12.98456,1.15316,-18.6382,0.5140182629366026,-0.042363016427552,-1.2320867951981187,23.06398,50.23571,184.0403,-0.4092735,0.1955592,-0.8895989,17
19.56,-12.9045,1.342373,-18.56442,0.4706507388626602,-0.0263183214669077,-1.2554432579146262,26.59003,47.9671,183.9189,-0.388165,0.2235133,-0.8918514,17
19.58,-12.8264,1.528722,-18.48993,0.4342147252727033,-0.0111815310031659,-1.2829382258580249,30.10765,45.61554,183.6323,-0.366562,0.2511618,-0.89292,17
19.6,-12.75043,1.712286,-18.41492,0.3756847668228134,-0.0239210808861962,-1.2949156420462402,33.61014,43.15329,183.1606,-0.3444922,0.2784633,-0.8928066,17
19.62,-12.81778,1.128832,-18.6577,0.3248747623214929,-0.0319464441306881,-1.3091009766276742,30.02776,48.4832,183.6936,-0.3887508,0.248868,-0.8836659,17
19.64,-12.73595,1.324986,-18.59187,0.2819482081583442,-0.0385597331294907,-1.326217858789902,33.47826,46.0786,183.3216,-0.36694,0.2757922,-0.8841394,17
19.66,-12.65553,1.518462,-18.52496,0.2347433257055118,-0.1309007437011366,-1.3673203251187798,36.91096,43.54429,182.7531,-0.3446762,0.3023531,-0.8834716,17
19.68,-12.57667,1.709296,-18.45715,0.1985616404038845,-0.1064282381696005,-1.356130974316204,40.31791,40.84405,181.9588,-0.3219886,0.3285171,-0.8816655,17
19.7,-12.57357,1.115539,-18.67521,0.1698886649681303,-0.0799073989354781,-1.346115028689658,41.8479,50.12391,182.3958,-0.3888146,0.3317057,-0.849092,17
19.72,-12.48872,1.315801,-18.61785,0.1440501747512996,-0.1389019690092767,-1.3543627241045415,45.22691,47.52858,181.8219,-0.3663524,0.3577794,-0.8472063,17
19.74,-12.40488,1.513511,-18.55919,0.1224044811413602,-0.1072172439119809,-1.3318593258492362,48.58161,44.71634,180.9806,-0.3434502,0.3833963,-0.8442571,17
19.76,-12.33932,1.112919,-18.67208,0.1074154182716295,-0.0737394382502032,-1.3098863878358626,48.05914,51.69395,179.5649,-0.3995746,0.364957,-0.8212867,17
19.78,-12.25337,1.313691,-18.62035,0.0991512212065477,-0.0418528506194222,-1.2891088911826998,51.36549,48.92752,178.8138,-0.3772693,0.3905952,-0.8183984,17
19.8,-12.1683,1.512014,-18.56728,0.0976917662947449,-0.0299756618440068,-1.270202137286287,54.64202,45.86964,177.729,-0.3545227,0.4157487,-0.8145108,17
19.82,-12.08429,1.707899,-18.51298,0.1074538907367581,-0.1339937051960305,-1.273487724554323,57.87547,42.42676,176.2216,-0.3313632,0.4403874,-0.8096301,17
19.84,-11.87453,1.104416,-18.5766,0.123495986179869,-0.1083987406453205,-1.2343016771660382,61.21239,47.04351,171.2215,-0.3782178,0.4391721,-0.771306,17
19.86,-11.79186,1.295971,-18.52473,0.1452217037544709,-0.0820158861691244,-1.1950932808838075,64.36745,43.08605,169.2287,-0.355906,0.4640707,-0.7653881,17
19.88,-11.71063,1.485256,-18.47194,0.1893168249170607,-0.1328111045544694,-1.1733616100011326,67.44298,38.33422,166.415,-0.3331864,0.4884023,-0.7585658,17
19.9,-11.63099,1.672319,-18.41835,0.2214205197239871,-0.0955099365450347,-1.1399631139550568,70.39871,32.44623,162.4427,-0.3100893,0.5121453,-0.7508444,17
19.92,-11.47072,1.144161,-18.49324,0.2575683120017789,-0.0576911873942779,-1.10658130975522,58.41107,42.23301,167.7316,-0.3613056,0.418969,-0.7908148,17
19.94,-11.39044,1.326601,-18.43664,0.2977994801499906,-0.0225092547521257,-1.0738952033376057,61.41714,38.00239,165.3577,-0.3391801,0.4432375,-0.7851132,17
19.96,-11.31224,1.50677,-18.37944,0.3338810858262566,-0.0030385537699769,-1.0618964894742269,64.31784,33.04379,162.2294,-0.3166796,0.4669833,-0.7785015,17
19.98,-11.11848,1.211819,-18.46817,0.3740717980727889,0.0178680017913469,-1.0504303065909406,43.12829,51.62957,173.9187,-0.4219643,0.3089164,-0.8275298,17
20.0,-11.03423,1.386452,-18.40595,0.4183537932054744,0.0370981452797107,-1.04015628804116,46.33701,48.75235,172.9132,-0.4008634,0.3342276,-0.8257598,17
20.02,-10.95273,1.558517,-18.34326,0.4678113325344938,-0.0155597449524879,-1.0578229559072732,49.50297,45.60851,171.5977,-0.3793065,0.3591343,-0.8230103,17
20.04,-10.8741,1.728143,-18.28027,0.494951880398512,0.0233346267519585,-1.055697742814854,52.61224,42.12727,169.9059,-0.3573172,0.3836082,-0.8192852,17
20.06,-10.71578,1.263716,-18.48303,0.5253301473799644,0.0615172179693918,-1.056646726919424,13.96762,60.55454,177.1197,-0.5029253,0.09239304,-0.855377,17
20.08,-10.61984,1.431999,-18.4159,0.5588917844402955,0.0960699984044893,-1.0613783362882565,17.48177,58.30506,176.7922,-0.4850047,0.1191875,-0.8607729,17
20.1,-10.52728,1.597043,-18.34824,0.5956155933717086,0.1090523680863473,-1.0706057050559463,20.98148,55.98743,176.3093,-0.4664668,0.1458279,-0.865037,17
20.12,-10.40203,1.279348,-18.48511,0.6073521589757092,0.1133379610088601,-1.077673812209356,354.5042,65.90077,178.3585,-0.5426553,-0.04800743,-0.8384646,17
20.14,-10.30341,1.444683,-18.41752,0.6227480780364842,0.1184956436531947,-1.0891304878597787,358.0688,63.74997,178.3062,-0.5277234,-0.02211362,-0.8491206,17
20.16,-10.20845,1.60667,-18.3494,0.6417184303258353,0.1216522307853519,-1.1057295072705609,1.627828,61.59842,178.1203,-0.5121107,0.003802006,-0.8586456,17
20.18,-10.11736,1.765513,-18.28095,0.6539999234094578,0.051483548640151,-1.154457342361332,5.176381,59.4295,177.7999,-0.4958383,0.02970531,-0.8670284,17
20.2,-10.0303,1.81477,-18.21242,0.6552032274919872,0.0739620791031359,-1.1653065540671936,8.709116,57.22635,177.3417,-0.478929,0.05556121,-0.8742599,17
20.22,-9.99861,1.283023,-18.47495,0.658766368471972,0.0956105992664029,-1.1814474914047826,353.7856,67.47096,179.6846,-0.554417,-0.04660339,-0.8304676,17
20.24,-9.900549,1.44543,-18.40428,0.6646173890965826,0.1137109179219124,-1.2036851874759358,357.3604,65.32058,179.7744,-0.5394747,-0.02045321,-0.8416846,17
20.26,-9.806391,1.604435,-18.3332,0.6370868638281515,0.1041280036624681,-1.2288270925859297,0.9350855,63.17992,179.73,-0.5238343,0.005716778,-0.8517781,17
20.28,-9.716327,1.760258,-18.26196,0.6128942610156053,0.0966940416197765,-1.2604717607648943,4.504588,61.03229,179.5518,-0.5075175,0.03187154,-0.8607361,17
20.3,-9.719382,1.246318,-18.5451,0.5920412704052899,0.0885942875552768,-1.2993477448795665,1.352637,70.89003,181.5757,-0.579694,0.01758858,-0.8146328,17
20.32,-9.618297,1.411944,-18.48112,0.5535014978386391,0.0054211202099862,-1.366678690138599,4.957826,68.76341,181.7262,-0.5635735,0.04418955,-0.824796,17
20.34,-9.520817,1.574218,-18.41653,0.5214743964420111,0.0219198273908137,-1.3862568284207213,8.565418,66.63242,181.7413,-0.5467141,0.07072014,-0.8338458,17
20.36,-9.533176,1.226403,-18.6095,0.4927903038751139,0.0393069948625566,-1.4129100802678964,10.30332,73.34592,183.1555,-0.5926257,0.08836936,-0.7999915,17
20.38,-9.428698,1.397127,-18.55373,0.4674721000387216,0.0547808074351332,-1.4473453281901585,13.93297,71.24572,183.2904,-0.5750784,0.1151497,-0.808563,17
20.4,-9.327378,1.564534,-18.49705,0.4455822388081581,0.0505128496285024,-1.490260697968146,17.56397,69.11872,183.2881,-0.5567713,0.1417664,-0.8160339,17
20.42,-9.229431,1.728801,-18.43965,0.380723648294611,0.0324478599770523,-1.502628989337544,21.19157,66.9453,183.14,-0.5377286,0.1681787,-0.8223971,17
20.44,-9.322171,1.183238,-18.6911,0.3204928291818503,0.0184687773457735,-1.522637044397754,17.40028,75.27442,183.9102,-0.5991952,0.1403082,-0.7854771,17
20.46,-9.217664,1.364188,-18.64734,0.2649818403901965,0.0055846974757644,-1.5509429997791413,20.98278,73.18185,183.9935,-0.5806824,0.1665343,-0.7927918,17
20.48,-9.115376,1.542059,-18.60237,0.1931957106350006,-0.0081713544857992,-1.5493504530315785,24.56469,71.04141,183.9353,-0.5614193,0.1925317,-0.7990513,17
20.5,-9.015528,1.716973,-18.55633,0.1262931557021732,-0.0173732896707523,-1.5546754664009963,28.14064,68.83118,183.7226,-0.5414313,0.2182591,-0.8042502,17
20.52,-9.155038,1.153195,-18.75507,0.0643790275103401,-0.0251546890271369,-1.5675344079205118,23.05549,74.42094,184.0373,-0.5865718,0.1799319,-0.7841269,17
20.54,-9.051609,1.342424,-18.72083,0.007580081025152,-0.0346054767386887,-1.5885419475665463,26.57525,72.26032,183.9203,-0.5671512,0.205156,-0.7902323,17
20.56,-8.949635,1.528782,-18.68521,-0.0598589188999723,-0.0469275247630238,-1.5712734011801852,30.08696,70.02069,183.646,-0.5470191,0.230104,-0.795316,17
20.58,-8.849328,1.712341,-18.64831,-0.1217697709218145,-0.0545057436642954,-1.5601075361642094,33.58507,67.67592,183.196,-0.5262012,0.254744,-0.7993732,17
20.6,-8.956726,1.124822,-18.8363,-0.1780450256603201,-0.0606395197774877,-1.555639454575931,32.07688,73.89806,183.565,-0.5705597,0.2386598,-0.7728584,17
20.62,-8.854527,1.322178,-18.81311,-0.2406329025805179,-0.1524583701947978,-1.5673585442461817,35.51965,71.57899,183.1769,-0.5498663,0.2627729,-0.7771614,17
20.64,-8.753012,1.516865,-18.7884,-0.2758914990569725,-0.1280681736365941,-1.5400431111037594,38.94506,69.12413,182.5922,-0.5285036,0.2865495,-0.7804874,17
20.66,-8.739713,1.115545,-18.90606,-0.3050182904340267,-0.1014395331597521,-1.517721757894765,41.83588,76.04966,182.3946,-0.5694016,0.2932104,-0.7402608,17
20.68,-8.638266,1.315803,-18.89152,-0.32793916407479,-0.0759102500772461,-1.5009799920562767,45.20784,73.56245,181.8278,-0.5477863,0.3166209,-0.7429802,17
20.7,-8.53715,1.513503,-18.87544,-0.3445716214953042,-0.0698523750435965,-1.4904123544815535,48.55692,70.86645,181.0043,-0.5255226,0.3396381,-0.7447906,17
20.72,-8.470304,1.112937,-18.97384,-0.3627959015475432,-0.0769135801361225,-1.452268164277244,48.05317,77.18958,179.5582,-0.5709824,0.3160282,-0.7128742,17
20.74,-8.370195,1.31371,-18.96419,-0.3745126739957848,-0.0800852869127403,-1.4179071836331891,51.35783,74.52636,178.8075,-0.5492374,0.3391721,-0.7144916,17
20.76,-8.270304,1.512019,-18.95301,-0.3796811481247839,-0.0827954108948717,-1.387894243447121,54.63392,71.58004,177.7336,-0.526859,0.3619052,-0.7152571,17
20.78,-8.170826,1.707874,-18.94033,-0.3643096098858764,-0.0835562181863349,-1.35121021068062,57.86896,68.25968,176.25,-0.5038744,0.384201,-0.7151713,17
20.8,-8.071957,1.794635,-18.92619,-0.3438355662507937,-0.0816018208619669,-1.316588451531548,61.04565,64.43976,174.2354,-0.4803116,0.4060336,-0.714236,17
20.82,-7.943326,1.104427,-19.04954,-0.3182904253575005,-0.0802880388269949,-1.2845847600144698,61.20889,72.21921,171.2157,-0.5372485,0.3712504,-0.6703346,17
20.84,-7.846107,1.295984,-19.03808,-0.2876919899000372,-0.0829265783234343,-1.255773166690679,64.36377,68.3681,169.2249,-0.5147985,0.3939987,-0.6689519,17
20.86,-7.749772,1.485252,-19.02523,-0.2532253786472718,-0.0715782953226609,-1.2351038393353084,67.44152,63.73647,166.4285,-0.4917696,0.4162755,-0.6667985,17
20.88,-7.536749,1.144038,-19.12985,-0.2153422518137548,-0.0581637684045199,-1.2159100787256598,58.42572,69.20628,167.7836,-0.5355924,0.3466989,-0.6848465,17
20.9,-7.439265,1.326373,-19.11525,-0.1740934727097037,-0.0458836930526101,-1.1987436993235976,61.44584,65.14017,165.4824,-0.5134658,0.3686187,-0.6838983,17
20.92,-7.343351,1.506415,-19.09924,-0.1210857256471789,-0.1038561180506798,-1.2061025057353545,64.36769,60.36646,162.4484,-0.4907781,0.3901135,-0.6821763,17
20.94,-7.249182,1.684257,-19.08189,-0.0756760455586703,-0.0584575707716231,-1.1967534431877422,67.15012,54.64609,158.446,-0.4675542,0.4111542,-0.6796875,17
20.96,-7.054622,1.228758,-19.26395,-0.0269608302336179,-0.013565461543565,-1.1897223780023989,37.85723,79.67471,174.6927,-0.616851,0.2207657,-0.7159427,17
20.98,-6.947989,1.401438,-19.24579,0.0249540379236573,0.0277754826308065,-1.1855711630522323,41.14014,77.08704,173.8721,-0.597236,0.2432304,-0.71952,17
21.0,-6.843713,1.571365,-19.22597,0.0623200896915854,0.1184414952629124,-1.162921330964492,44.38885,74.29605,172.801,-0.576934,0.2653995,-0.7222432,17
21.02,-6.734437,1.263688,-19.38909,0.0809910270308773,0.1075488719057736,-1.167269215495963,13.97342,87.06361,177.1214,-0.6856422,0.07098772,-0.7172773,17
21.04,-6.618289,1.431925,-19.37258,0.1037042567775947,0.0966569346252385,-1.176455321999223,17.4907,84.91766,176.8021,-0.6700822,0.09351087,-0.7260376,17
21.06,-6.504882,1.596904,-19.35415,0.1303438840755466,0.0827044419173709,-1.1910033476184654,20.99414,82.7062,176.3346,-0.6536819,0.1159114,-0.7338624,17
21.08,-6.394487,1.758815,-19.3339,0.1393463588518572,0.0901168816479237,-1.1887208132542253,24.47654,80.40832,175.7071,-0.6364648,0.1381564,-0.7407441,17
21.1,-6.28735,1.811191,-19.31194,0.1497241476872639,0.0984392017725697,-1.1914220753850002,27.93126,78.00013,174.9035,-0.618454,0.1602173,-0.7466749,17
21.12,-6.299527,1.28547,-19.52408,0.1612452170414675,0.1047998595973469,-1.1996861233774556,353.3219,92.39629,178.6503,-0.7199879,-0.04879842,-0.6914387,17
21.14,-6.180356,1.449527,-19.50678,0.1682771537873912,0.1783447581191816,-1.183377079280568,356.8934,90.34842,178.6362,-0.7087153,-0.02754568,-0.7048734,17
21.16,-6.064277,1.610181,-19.48746,0.1549903652855636,0.1555890116707504,-1.1904650542117214,0.4611467,88.30465,178.4946,-0.6965406,-0.006263263,-0.717386,17
21.18,-6.023849,1.283021,-19.65182,0.142356031435258,0.1332525018061721,-1.2035469646300196,353.7762,95.76215,179.7304,-0.7405729,-0.03815057,-0.6697756,17
21.2,-5.903972,1.44538,-19.63546,0.1302115483118913,0.1084841966775427,-1.2232405245057318,357.3438,93.70827,179.8716,-0.7294009,-0.01666717,-0.683693,17
21.22,-5.787295,1.604316,-19.617,0.1009195691710614,0.0231903599552059,-1.262823081847689,0.9131485,91.66715,179.8849,-0.7173015,0.004831711,-0.6967167,17
21.24,-5.674091,1.760042,-19.59659,0.0816189869997586,0.0395133523629544,-1.2615988334948196,4.479678,89.62292,179.7709,-0.7042917,0.0263181,-0.7088313,17
21.26,-5.733319,1.246328,-19.8045,0.0621864656493775,0.0560283859908171,-1.2672433514017438,1.345608,98.83804,181.5842,-0.7592569,0.0181363,-0.6505385,17
21.28,-5.613928,1.411941,-19.79591,0.0424453390238487,0.0700057348393535,-1.280429215105186,4.948194,96.81236,181.75,-0.7466478,0.04006367,-0.6636426,17
21.3,-5.497375,1.574184,-19.78518,0.0222652530826278,0.0636923389366561,-1.301836426071863,8.553735,94.78393,181.787,-0.7330762,0.06192579,-0.6758679,17
21.32,-5.532981,1.226424,-19.91745,-0.0288246982597535,0.0490751387529025,-1.2859390090885596,10.29822,100.8755,183.152,-0.7659595,0.07825753,-0.6360092,17
21.34,-5.414414,1.397138,-19.9171,-0.0787311785994105,0.0377176072544622,-1.277658533125496,13.92752,98.87584,183.2905,-0.7515233,0.1004581,-0.6478531,17
21.36,-5.298178,1.564517,-19.91455,-0.1275949790285775,0.0267223763778635,-1.2776343036894104,17.5583,96.85138,183.2986,-0.7361098,0.1225189,-0.658831,17
21.38,-5.18455,1.728735,-19.9099,-0.1900136608739329,0.0125689795704502,-1.2501190567335234,21.18625,94.78344,183.1682,-0.7197392,0.144404,-0.6689311,17
21.4,-5.073795,1.783319,-19.90321,-0.2511643836275498,0.0025334325263097,-1.23012858966852,24.80623,92.65221,182.8904,-0.7024355,0.1660916,-0.6781396,17
21.42,-5.306938,1.183256,-20.05242,-0.3111522274433613,-0.0063749908117404,-1.2182916187070072,17.39933,102.4889,183.9055,-0.7671777,0.1208974,-0.6224569,17
21.44,-5.193815,1.364198,-20.06191,-0.3700503169667798,-0.0170996511704094,-1.2152460640087583,20.98183,100.4984,183.9909,-0.7514684,0.1426836,-0.6332538,17
21.46,-5.082085,1.542043,-20.06939,-0.4346148025130059,-0.0316142965241511,-1.1752866306010894,24.56389,98.46284,183.9418,-0.7348043,0.1642778,-0.6432232,17
21.48,-5.181932,1.153152,-20.15391,-0.4967765494415734,-0.0414172075691111,-1.1423727018581356,23.05022,102.7438,184.0648,-0.7605583,0.1517949,-0.6168265,17
21.5,-5.074269,1.342292,-20.17228,-0.5566269086636897,-0.0496785103127497,-1.1171139075606518,26.5703,100.6973,183.9837,-0.7437873,0.1725938,-0.626812,17
21.52,-4.967246,1.528543,-20.18881,-0.6333888016148475,-0.1423312443468624,-1.100068937501088,30.08397,98.57798,183.7545,-0.7260985,0.1931643,-0.6360019,17
21.54,-4.861094,1.711979,-20.20351,-0.671821742081966,-0.1222116904440138,-1.0560460192183987,33.58635,96.36103,183.3595,-0.7075137,0.2134774,-0.6443874,17
21.56,-4.970386,1.124892,-20.28445,-0.7065664508189842,-0.0994661765436795,-1.0183593045160726,32.06517,100.7887,183.547,-0.7346797,0.1988997,-0.6189965,17
21.58,-4.868547,1.322268,-20.31053,-0.7377358382317518,-0.0773353596070448,-0.9876074517751214,35.50774,98.56149,183.1467,-0.7160859,0.2186647,-0.6273963,17
21.6,-4.766634,1.516953,-20.33503,-0.765428584411012,-0.0740944385132216,-0.9644045363950496,38.9333,96.20184,182.5564,-0.6966345,0.2381555,-0.6350217,17
21.62,-4.750254,1.115663,-20.42081,-0.786582598875871,-0.0838173512099758,-0.9163337156065016,41.82781,100.8747,182.3444,-0.7153368,0.2420427,-0.6004647,17
21.64,-4.652027,1.316007,-20.45142,-0.802198631598517,-0.0891891516967061,-0.8738971241460924,45.19776,98.45329,181.7302,-0.695283,0.2614868,-0.6072496,17
21.66,-4.553448,1.51377,-20.48055,-0.812410419847598,-0.0936211765668131,-0.8376474760516319,48.5439,95.82323,180.8624,-0.67442,0.2806123,-0.6133053,17
21.68,-4.454716,1.708963,-20.50814,-0.811029190331172,-0.0962062176808612,-0.7922754080053127,51.85665,92.92372,179.6848,-0.6527733,0.2993971,-0.618626,17
21.7,-4.35603,1.794948,-20.53417,-0.8041185467968174,-0.0948750472708438,-0.7512373059083877,55.12334,89.67427,178.1215,-0.6303697,0.3178189,-0.6232066,17
21.72,-4.392583,1.110093,-20.61974,-0.7918437160070695,-0.0930561661822785,-0.7150357808443912,50.65328,100.1909,178.7007,-0.696449,0.2665444,-0.5760929,17
21.74,-4.297051,1.30992,-20.6511,-0.7693066844912554,-0.0047677969113124,-0.6667924616524079,53.94441,97.49854,177.8113,-0.6756414,0.2862044,-0.5810153,17
21.76,-4.20119,1.507287,-20.68102,-0.7268879898119799,-0.0297551331092368,-0.640791003139876,57.20355,94.48026,176.5609,-0.6540716,0.3055261,-0.5852612,17
21.78,-4.024694,1.104444,-20.81071,-0.6804389949210651,-0.0536938571643957,-0.6176477904747988,61.19912,95.94313,171.2145,-0.6635978,0.2908257,-0.545615,17
