t,pX,pY,pZ,aX,aY,aZ,reX,reY,reZ,rtX,rtY,rtZ,ID
4.74,-44.30571,1.101702,-36.82837,2.894307316233685,-0.1239733714378878,2.332292925758419,14.63796,356.3558,163.6093,-0.0130642,-0.130524,0.9818043,8
4.76,-44.30647,1.301532,-36.82785,2.931492459933674,-0.1114976767810438,2.2538152207634914,14.6551,356.3616,163.6322,-0.01301893,-0.1306611,0.9818142,8
4.78,-44.29054,1.343875,-36.80101,2.966082361242472,-0.143263098211822,2.168418164210304,14.63701,1.170812,163.4574,0.02835319,-0.1245954,0.9812976,8
4.8,-44.29222,1.741735,-36.79979,2.999844398211434,-0.1497328030635196,2.078183148704154,14.5052,1.119446,163.2533,0.02797053,-0.1234811,0.9811983,8
4.82,-43.75433,1.160984,-35.83227,3.032234458462442,-0.1328175937527536,1.9831947163943344,18.3152,4.994274,166.1901,0.06181748,-0.1526751,0.9783296,8
4.84,-43.76222,1.356222,-35.80686,3.05929081372675,-0.1603371551606374,1.8832934975460107,19.06219,5.097475,166.5123,0.06297722,-0.1591246,0.9775391,8
4.86,-43.7701,1.55127,-35.78149,3.0843003115354835,-0.1629762344883314,1.7803237633938291,19.81043,5.206246,166.8392,0.06413819,-0.1655821,0.976699,8
4.88,-43.63365,1.180397,-35.69111,3.1068631906103272,-0.1426096204425756,1.6743081207101804,15.04936,12.89479,168.8836,0.123404,-0.1187307,0.9790625,8
4.9,-43.62403,1.372845,-35.64801,3.1140784786725373,-0.1695460253908955,1.5612591913169194,16.38003,12.89711,168.8923,0.1243436,-0.1301319,0.9773732,8
4.92,-43.61443,1.564804,-35.60508,3.119611811560364,-0.1716810352082691,1.4454609461583114,17.71314,12.89925,168.8997,0.1252664,-0.1415352,0.9755478,8
4.94,-43.39369,1.211473,-35.473,3.1243539622459995,-0.19576878087604,1.329924497310695,3.564019,25.58969,173.0402,0.2227862,-0.01683311,0.9724826,8
4.96,-43.35824,1.390906,-35.38994,3.1272849229605866,-0.1956764892653842,1.2129271859290371,6.25103,25.59967,173.1573,0.223995,-0.03987193,0.9712433,8
4.98,-43.32318,1.56832,-35.30781,3.12785176890846,-0.1732282903621132,1.0946772287231488,8.940225,25.61525,173.2753,0.225081,-0.06290717,0.969467,8
5.0,-43.11068,1.244063,-35.2413,3.1256582137447744,-0.1301898768405775,0.9752577396583196,358.944,33.41043,176.8623,0.2870861,0.01669241,0.9574693,8
5.02,-43.04407,1.403382,-35.1196,3.0964441801198426,-0.161406090266604,0.8499147184915614,3.017156,33.41616,177.1986,0.2879264,-0.01818245,0.9569791,8
5.04,-42.8512,1.261909,-35.09594,3.065926446735993,-0.1678027912730857,0.7250167115577524,354.8409,40.19983,180.2237,0.343392,0.0415949,0.9381113,8
5.06,-42.77021,1.415875,-34.97324,3.022602952193501,-0.1999847102930861,0.5978877279569037,359.1113,40.17305,180.7304,0.343468,0.005094389,0.9391109,8
5.08,-42.69123,1.564569,-34.85361,2.977946388021934,-0.2066688672867417,0.4716236326724683,3.383485,40.18404,181.2359,0.3430602,-0.03142741,0.9387878,8
5.1,-42.61449,1.708277,-34.73736,2.931653130198163,-0.1896658572198879,0.3463761884534539,7.656918,40.23311,181.7461,0.3421685,-0.06791776,0.9371408,8
5.12,-42.63805,1.249117,-34.92432,2.8679207989410305,-0.2235552008944054,0.2198939742697137,0.8100271,45.60313,182.453,0.3873028,-0.01481004,0.921677,8
5.14,-42.58392,1.418486,-34.83064,2.804407674641713,-0.2311827453450245,0.0950011900169913,3.744148,47.01296,183.7143,0.3974597,-0.04286036,0.9164664,8
5.16,-42.57598,1.231586,-34.83025,2.7407914657906822,-0.2144039381382049,-0.0281147929119942,7.874265,48.71569,184.1967,0.4088947,-0.07757387,0.9092647,8
5.18,-42.52122,1.400307,-34.72377,2.6509660572075253,-0.249834060105286,-0.1550401159411567,11.03154,50.30605,185.888,0.4180424,-0.1086191,0.9018938,8
5.2,-42.46614,1.565562,-34.61998,2.563112713620723,-0.2579841252260197,-0.2791509699163352,14.13882,52.00965,187.6882,0.4267192,-0.1395333,0.8935355,8
5.22,-42.51213,1.207286,-34.73085,2.4770142722517328,-0.2407705761726555,-0.4002379592549321,13.17426,52.0221,184.673,0.4310843,-0.1207695,0.8940855,8
5.24,-42.44942,1.380521,-34.62847,2.367013704233768,-0.2781060262510756,-0.5220305305737547,16.42203,53.4332,186.2511,0.4373514,-0.1516439,0.8862702,8
5.26,-42.38597,1.550326,-34.52905,2.260447295736806,-0.2866772491072277,-0.6398310630541886,19.62486,54.99901,187.9288,0.4434462,-0.1822626,0.8773878,8
5.28,-42.44542,1.174271,-34.62651,2.157227976374843,-0.2684685772120535,-0.7533667838450278,18.54152,54.40211,184.9167,0.4445824,-0.162503,0.8801415,8
5.3,-42.37085,1.355672,-34.53745,2.0285475412268,-0.3051480128026737,-0.8682444200952348,21.84933,55.83555,186.092,0.4501708,-0.1916541,0.8710962,8
5.32,-42.38704,1.151052,-34.54353,1.905124734354409,-0.3119233102067724,-0.9777427985452992,22.88306,55.08152,184.9865,0.4451105,-0.1954373,0.872229,8
5.34,-42.31259,1.338215,-34.45828,1.7868070853422484,-0.2908245742052446,-1.0814356752573282,26.1524,56.55865,186.0745,0.4502804,-0.2234159,0.8622876,8
5.36,-42.238,1.522221,-34.3744,1.6494535084654365,-0.3262343475069621,-1.182309291174079,29.39419,58.14972,187.29,0.4550041,-0.2511727,0.8515172,8
5.38,-42.28771,1.130463,-34.43079,1.5187115621976774,-0.3305042656181344,-1.2761149301617207,27.96177,55.91916,184.8473,0.4455285,-0.2324469,0.8611361,8
5.4,-42.20756,1.322554,-34.35001,1.3945986957424985,-0.305709904314499,-1.3624730499828477,31.32262,57.39134,185.7563,0.4498579,-0.2597116,0.8500595,8
5.42,-42.12715,1.511448,-34.27039,1.263797487980372,-0.3371958346893763,-1.443496194273287,34.66117,58.98179,186.801,0.4537294,-0.2867065,0.8381532,8
5.44,-42.12421,1.116725,-34.28352,1.140846979051676,-0.3368182072635852,-1.5162995445683665,37.4063,56.4596,183.7988,0.4384205,-0.2972189,0.8391001,8
5.46,-42.03815,1.313378,-34.21236,1.0258911962089927,-0.30668176103758,-1.5804981885904157,40.77111,57.82961,184.3547,0.4413147,-0.3219114,0.8263236,8
5.48,-41.95175,1.506944,-34.14214,0.9034579511711378,-0.3324381634054032,-1.6402931803682934,44.123,59.3167,185.049,0.4437747,-0.3462777,0.8127698,8
5.5,-41.94645,1.114278,-34.18036,0.7901947736255224,-0.3260284316555292,-1.6903523579022863,43.293,58.91203,182.0607,0.4512258,-0.3293626,0.8124583,8
5.52,-41.85192,1.313694,-34.12406,0.6862981995020592,-0.2895602319229334,-1.730271037948464,46.63922,59.94553,182.0851,0.4524622,-0.3512095,0.7989656,8
5.54,-41.75708,1.510099,-34.06864,0.5905278017883919,-0.3099031410282358,-1.758606036782446,49.98359,61.05027,182.2049,0.4532719,-0.3727245,0.7847359,8
5.56,-41.68554,1.109524,-34.04478,0.5044424385404485,-0.2982115998010131,-1.7761082930046497,50.72901,59.97054,178.9268,0.4550546,-0.3667932,0.7806181,8
5.58,-41.5881,1.308368,-33.9968,0.4282857603369283,-0.2565610752968197,-1.7823489916033406,54.03704,60.74171,178.6214,0.4550971,-0.3864911,0.7657893,8
5.6,-41.49044,1.504284,-33.94972,0.3622986170765934,-0.1869667050659637,-1.7768997125235533,57.34634,61.54565,178.3693,0.454715,-0.4058269,0.7502701,8
5.62,-41.39394,1.101931,-33.91596,0.3121797059849927,-0.2008724323320089,-1.7561089192809023,59.72315,58.73207,174.1993,0.4466906,-0.411853,0.742473,8
5.64,-41.29504,1.295184,-33.87563,0.2724177920437887,-0.1839306706229989,-1.7229951493088589,62.9699,58.92262,173.2657,0.4454111,-0.4293184,0.7261341,8
5.66,-41.1051,1.117942,-33.79724,0.2432670277382955,-0.1381191754814804,-1.6771127852300758,61.82109,52.10067,167.3742,0.425249,-0.4172825,0.7413279,8
5.68,-41.00528,1.303968,-33.76057,0.2376377820610375,-0.1367390649690002,-1.6114916074641004,64.94074,51.35246,165.4104,0.4240275,-0.43352,0.7246721,8
5.7,-40.90604,1.487215,-33.72508,0.2428394352931473,-0.1061144162962522,-1.5321554791053875,68.04476,50.21885,163.0768,0.4224301,-0.4493743,0.7073886,8
5.72,-40.69691,1.178233,-33.64153,0.2693419816071296,-0.0914940186768222,-1.4357039670210048,52.04122,56.439,171.3427,0.4528848,-0.3533778,0.7739114,8
5.74,-40.59375,1.355943,-33.60841,0.3077032609103813,-0.0488375433491053,-1.3243321093897844,55.17802,56.53846,170.2181,0.4530099,-0.3706157,0.7590426,8
5.76,-40.49165,1.530781,-33.57667,0.3581205150858331,0.0199656493916432,-1.1976358492440822,58.31446,56.52863,169.0061,0.4527406,-0.387532,0.7435284,8
5.78,-40.39164,1.228527,-33.55621,0.4209116551364475,0.0831175399661967,-1.055282090738591,37.77316,63.63727,174.8214,0.5107632,-0.2522343,0.7954426,8
5.8,-40.27775,1.399524,-33.52374,0.4860249597278416,0.0714178065148395,-0.906375123514176,41.19129,64.34357,174.3564,0.5124823,-0.2728593,0.7821736,8
5.82,-40.16562,1.56711,-33.49269,0.5659274893868647,0.0251953347816562,-0.7404374415106791,44.61167,65.04749,173.9321,0.5136584,-0.2932493,0.7681813,8
5.84,-40.07967,1.264631,-33.46491,0.5794864029595432,0.0858957272366653,-0.7018009939138836,13.64239,71.04314,177.4619,0.5788962,-0.08386716,0.8064094,8
5.86,-39.97033,1.433778,-33.42646,0.598662405082866,0.0725127090376438,-0.6587093603644574,16.97922,71.80861,177.7045,0.5822864,-0.1079381,0.7992274,8
5.88,-39.86238,1.599614,-33.38962,0.6298565202111082,0.0546054535205438,-0.608732870139777,20.31568,72.60883,177.9938,0.5851936,-0.1319015,0.7913015,8
5.9,-39.84447,1.277631,-33.3829,0.6517072418338081,0.1134587536706638,-0.5616582903231659,358.0918,75.09969,178.3789,0.6091192,0.0218207,0.792778,8
5.92,-39.7342,1.445795,-33.34964,0.6836579654612649,0.0984780791326213,-0.5114565985377726,1.369853,75.87939,178.726,0.6148546,-0.002592165,0.7884716,8
5.94,-39.61642,1.293095,-33.29726,0.7252517630477673,0.0787403090392203,-0.4576907722121404,351.9905,76.5268,179.2843,0.617411,0.05869317,0.7835099,8
5.96,-39.50433,1.457161,-33.25814,0.7448110890545783,0.1325147429360669,-0.4138405682311612,355.3474,76.97674,179.7932,0.6217845,0.0328941,0.7821338,8
5.98,-39.39511,1.617935,-33.21948,0.7684063240777839,0.1811757331070421,-0.3735336877429933,358.6819,77.42306,180.3467,0.6253826,0.007082785,0.7802277,8
6.0,-39.28796,1.775434,-33.18224,0.773167105410069,0.1261093466283024,-0.3451901686395158,2.012276,77.90316,180.9253,0.6284357,-0.01873073,0.7776214,8
6.02,-39.35195,1.270821,-33.18077,0.7572175558577001,0.1427598246115669,-0.3182600375909827,353.9167,76.79316,180.2309,0.6203086,0.04033654,0.7825584,8
6.04,-39.24394,1.435969,-33.13858,0.7408141522391904,0.1595558986221656,-0.3014368147204753,357.2334,76.98975,180.7858,0.6223782,0.0146271,0.7823144,8
6.06,-39.21682,1.252841,-33.11721,0.689494081911179,0.1451582865594175,-0.2844805120085558,359.097,76.50816,181.5847,0.619157,-0.002374679,0.7851059,8
6.08,-39.11305,1.421098,-33.07713,0.63529494355069,0.1339372479792595,-0.2775913185203715,2.30207,76.82886,182.1162,0.6208231,-0.02720865,0.7834758,8
6.1,-39.01137,1.586459,-33.03807,0.5779424016146075,0.1234856354850571,-0.2812696889273596,5.490012,77.18877,182.6721,0.622045,-0.05194853,0.7811691,8
6.12,-39.02167,1.233776,-33.01714,0.4995485850770595,0.0368067133381287,-0.3008961370090994,8.008533,76.47419,183.0089,0.6157534,-0.07103985,0.7844036,8
6.14,-38.91409,1.405136,-32.97957,0.4350880556431482,0.0421459625400338,-0.2867971437288372,11.32347,76.994,183.4765,0.61681,-0.09596562,0.7803273,8
6.16,-38.80874,1.573492,-32.94304,0.3732065128343684,0.0472844448063085,-0.279326999798402,14.61325,77.56078,183.9881,0.6174251,-0.1206996,0.7755258,8
6.18,-38.88828,1.209602,-32.9485,0.2938450729782458,0.0256824140435509,-0.2723413332134861,13.25798,76.83793,183.6608,0.6140489,-0.1101151,0.7801441,8
6.2,-38.7799,1.385615,-32.91214,0.2190921710746085,0.0070958935982443,-0.2739107402969325,16.62585,77.3934,184.103,0.614193,-0.1349127,0.7750072,8
6.22,-38.67312,1.558501,-32.87682,0.1486489954035903,-0.0114135795363907,-0.2843620258595516,19.9785,77.99854,184.5883,0.6138772,-0.1595093,0.7691289,8
6.24,-38.74813,1.176111,-32.87051,0.0724019655034933,-0.0341917529276891,-0.2771492583235471,18.57995,75.78835,184.1687,0.6011146,-0.1493549,0.7818871,8
6.26,-38.64109,1.359585,-32.83538,0.0015462502917538,-0.0531085532884806,-0.2777727698466035,21.95643,76.35048,184.5064,0.600403,-0.1734456,0.7757688,8
6.28,-38.53498,1.53994,-32.80101,-0.0642648014016407,-0.0712003562152036,-0.2864563912070572,25.32822,76.9486,184.889,0.5991547,-0.1973707,0.768964,8
6.3,-38.63316,1.153081,-32.80908,-0.1068411938210509,-0.0100668970097712,-0.2743239198216631,22.97607,73.50779,184.1236,0.5802707,-0.1805658,0.7889413,8
6.32,-38.52692,1.342303,-32.77497,-0.1806829058049084,-0.0596641473401755,-0.2760190327938869,26.36536,74.01939,184.2723,0.5788921,-0.2038305,0.7820673,8
6.34,-38.42226,1.528455,-32.74067,-0.2345378501229067,-0.0487541913817016,-0.269234245805769,29.73482,74.51968,184.4908,0.576712,-0.2269835,0.7747487,8
6.36,-38.4891,1.128559,-32.73035,-0.281574755698097,-0.0364202107820401,-0.2673686837498601,30.0213,69.70296,183.7791,0.5446437,-0.2306273,0.7970832,8
6.38,-38.38565,1.32418,-32.69431,-0.3415670587548467,-0.1090487896593494,-0.2745752493521625,33.3979,69.98035,183.7273,0.5413068,-0.2531437,0.7896445,8
6.4,-38.28292,1.516823,-32.65839,-0.3754077657838381,-0.093830574890985,-0.2661956940922216,36.76548,70.25581,183.7072,0.5374129,-0.2754532,0.7815981,8
6.42,-38.27541,1.117024,-32.64027,-0.4017165168759788,-0.0770689396469354,-0.2620865133283798,39.63676,67.26307,182.7218,0.5141951,-0.2945855,0.7875413,8
6.44,-38.1719,1.316267,-32.60571,-0.4311270967118554,-0.1456269224583526,-0.2663119210204931,43.01074,67.33074,182.3914,0.5092709,-0.3158038,0.7784202,8
6.46,-38.06847,1.512557,-32.57143,-0.4414338401217588,-0.1255153275752773,-0.2614814568204258,46.38398,67.3741,182.0471,0.5038999,-0.3367394,0.7686196,8
6.48,-38.07572,1.114461,-32.56993,-0.444663570576278,-0.1041431974153736,-0.2598938997209385,44.701,67.05036,181.1338,0.50765,-0.3220493,0.773056,8
6.5,-37.9732,1.314914,-32.53578,-0.4411590916303742,-0.0848319807997085,-0.2618010890121249,48.04446,67.05669,180.7489,0.5022806,-0.3426462,0.7628647,8
6.52,-37.87069,1.512469,-32.50188,-0.4317741377152631,-0.0953277492800403,-0.2552237228232052,51.38696,67.02729,180.3372,0.496478,-0.3629423,0.7520193,8
6.54,-37.77848,1.1071,-32.46094,-0.4161254603403961,-0.1029862579064595,-0.2497732760080926,53.34623,64.86064,177.6766,0.4867876,-0.3690981,0.7491874,8
6.56,-37.67751,1.305408,-32.4281,-0.3946008966904477,-0.1111907783013888,-0.2455727574411099,56.63096,64.55259,176.9538,0.4806022,-0.3883975,0.737325,8
6.58,-37.57667,1.500926,-32.39555,-0.3489873781712891,-0.1168169765579944,-0.2332239191877798,59.91173,64.13189,176.1257,0.474014,-0.4073631,0.7248483,8
6.6,-37.47611,1.693673,-32.36335,-0.299378353590904,-0.1208740982610278,-0.2216818326547813,63.18759,63.55922,175.1522,0.4670284,-0.425981,0.7117677,8
6.62,-37.33736,1.109142,-32.30876,-0.2462125015974106,-0.126653914706406,-0.211000194816513,62.66913,56.05301,167.8222,0.4477738,-0.4138893,0.7238075,8
6.64,-37.23755,1.297721,-32.27766,-0.1736343948432974,-0.1194944832863949,-0.1936071111335326,65.7922,54.36531,165.6346,0.4409769,-0.431381,0.7100372,8
6.66,-37.1384,1.483615,-32.24702,-0.0990140878668226,-0.1115698568717256,-0.1763157660652532,68.8798,52.11454,162.8901,0.4338208,-0.4485136,0.6956932,8
6.68,-36.95054,1.16189,-32.17075,-0.0364783785563531,-0.0509051920614395,-0.1649928993410911,55.74685,54.15567,168.783,0.441146,-0.3749559,0.762522,8
6.7,-36.84987,1.341585,-32.13807,0.0262052501720155,0.0076999998969367,-0.1538745422170238,58.81782,52.92905,166.9903,0.435517,-0.3927735,0.7500405,8
6.72,-36.67801,1.211897,-32.08502,0.0886660462230564,-0.0286103757437126,-0.1461836243530938,43.03852,61.21488,173.9608,0.4896355,-0.290318,0.7897318,8
6.74,-36.57167,1.38568,-32.05,0.1358167421607143,0.0062591010954613,-0.145142958893031,46.3175,60.9502,173.1841,0.4856202,-0.3106298,0.7791426,8
6.76,-36.4668,1.556391,-32.01577,0.1819495721770243,0.0400697969851542,-0.1437879027706676,49.59254,60.59956,172.3333,0.4811931,-0.3306727,0.767897,8
6.78,-36.36357,1.724122,-31.98237,0.2242848551056342,0.0032225443843938,-0.1473610656266513,52.86334,60.1433,171.388,0.4763591,-0.3504379,0.7560011,8
6.8,-36.31709,1.257187,-31.98924,0.2666963492533094,0.0353095970359757,-0.148411030131951,19.98423,67.91036,176.5921,0.5541085,-0.1275043,0.8136503,8
6.82,-36.20695,1.426934,-31.95379,0.3063275453826177,0.0660211540854568,-0.1488085339028799,23.33873,68.25259,176.4483,0.5543483,-0.1503278,0.8067876,8
6.84,-36.10131,1.593885,-31.91753,0.3396437148065052,0.0251322394658374,-0.1507009787156299,26.6397,68.52965,176.379,0.5536152,-0.1729975,0.7997127,8
6.86,-36.03569,1.278025,-31.8923,0.3739733619345458,0.0523758021430652,-0.1512120286784242,358.0642,73.01852,178.3532,0.5946113,0.02212468,0.8037075,8
6.88,-35.93061,1.446739,-31.85157,0.405109758555354,0.0776952599026635,-0.1520767910541445,1.309686,73.11909,178.6239,0.5956863,-0.002027045,0.8030461,8
6.9,-35.82703,1.612296,-31.8118,0.4317738173084153,0.0984249901001274,-0.153093813087592,4.55922,73.24269,178.896,0.5963318,-0.02618053,0.8016945,8
6.92,-35.71527,1.297253,-31.77629,0.452265714870542,0.0966293851541387,-0.1548704242152641,352.4752,74.59615,179.3434,0.6043466,0.05566332,0.7939943,8
6.94,-35.60892,1.462931,-31.73775,0.4686504133060998,0.0946710366351037,-0.1554468416514591,355.6877,74.85259,179.6947,0.6072283,0.03149556,0.7936317,8
6.96,-35.5052,1.625636,-31.69966,0.4787842762069356,0.1374008705836643,-0.1578163256015643,358.8816,75.10059,180.0726,0.6094334,0.007351829,0.7927771,8
6.98,-35.40339,1.785345,-31.66267,0.4654036354586708,0.102815377111415,-0.1671288979210539,2.074521,75.3719,180.4633,0.61117,-0.01679737,0.7912821,8
7.0,-35.46502,1.265594,-31.6834,0.4469292289089326,0.0685243390127442,-0.1762245430652473,355.3571,75.59904,180.6695,0.6125739,0.02842782,0.7893532,8
7.02,-35.36277,1.433975,-31.64671,0.4228858105750266,0.0317112605318506,-0.1850840503752047,358.4762,75.95427,181.0828,0.6153641,0.004666805,0.7880743,8
7.04,-35.26217,1.599463,-31.61099,0.4047243725009037,0.0160776430010507,-0.1928719056884147,1.59285,76.32937,181.515,0.6176658,-0.01909607,0.7862069,8
7.06,-35.27057,1.243696,-31.60149,0.3833242587602274,0.0019479113813998,-0.2005164748283863,3.59732,76.25765,182.2451,0.6165255,-0.03677525,0.7864658,8
7.08,-35.16896,1.414174,-31.56125,0.3698888167008567,0.0382263335697091,-0.205110096954757,6.767737,76.46802,182.737,0.6165124,-0.06110495,0.7847692,8
7.1,-35.06946,1.581891,-31.52197,0.3528188786961905,0.071949173872014,-0.209519808913968,9.919376,76.71558,183.2459,0.6160788,-0.08527631,0.7824211,8
7.12,-35.09719,1.218986,-31.51865,0.2972666846989487,0.0033997940054137,-0.224652399557419,11.64389,76.32037,183.418,0.6120231,-0.09805483,0.7837519,8
7.14,-34.99006,1.393661,-31.48229,0.2573058188236787,0.0124789806790793,-0.2364790502407197,14.98576,76.57353,183.7693,0.6106085,-0.1225034,0.7804534,8
7.16,-34.88496,1.565389,-31.44697,0.2154918118946742,0.0216506896832164,-0.2475354222971431,18.3033,76.87251,184.1406,0.6088294,-0.1466726,0.7763965,8
7.18,-34.97036,1.191998,-31.46339,0.1439756425735421,-0.0495092681172473,-0.2661996248110529,15.86836,76.42378,183.7965,0.6087213,-0.1286925,0.7806084,8
7.2,-34.86378,1.372243,-31.42938,0.099267010945117,-0.0398570422150452,-0.2776787333158554,19.21871,76.68754,184.0901,0.6066119,-0.1526681,0.7765011,8
7.22,-34.75838,1.549418,-31.39593,0.0541033403804149,-0.0292607241880399,-0.2880276916839888,22.56632,76.97523,184.4061,0.6039787,-0.1764975,0.7717274,8
7.24,-34.8313,1.161254,-31.398,-0.0166864033569389,-0.1012275428573437,-0.3042115533597282,21.412,73.88598,184.11,0.5848545,-0.1695544,0.7888206,8
7.26,-34.72626,1.349013,-31.36511,-0.0602018991098347,-0.0880849396764103,-0.3147480913082061,24.76295,74.10338,184.2189,0.5818236,-0.1926734,0.7837573,8
7.28,-34.62198,1.533788,-31.33262,-0.1027646128341084,-0.0734785552230003,-0.3238187128192575,28.11252,74.33436,184.3457,0.5782939,-0.2156218,0.7780234,8
7.3,-34.51859,1.715621,-31.30059,-0.1448405677169284,-0.0605601148067142,-0.3314281402382937,31.46283,74.58153,184.4923,0.5742646,-0.2383921,0.7716215,8
7.32,-34.66543,1.132732,-31.32373,-0.1885438478108119,-0.0761168039422184,-0.340660998132912,28.00007,70.61832,183.9549,0.5536731,-0.2166541,0.7961586,8
7.34,-34.55979,1.327231,-31.28989,-0.2291346259063305,-0.0876756786189511,-0.3477687568813588,31.42478,70.74405,183.8577,0.549504,-0.2394512,0.7897732,8
7.36,-34.45513,1.518705,-31.25616,-0.2668822667469488,-0.0985429493551608,-0.352871201449028,34.83468,70.85248,183.7765,0.5447399,-0.262004,0.7827958,8
7.38,-34.48876,1.118685,-31.24986,-0.2903569508801147,-0.1082034357635979,-0.3586532850829123,37.40812,67.46326,183.0186,0.5187697,-0.2804543,0.7921436,8
7.4,-34.38454,1.317384,-31.21625,-0.3095357177002755,-0.1141381609037298,-0.362568554965101,40.80159,67.38981,182.6616,0.5130978,-0.3020219,0.7840988,8
7.42,-34.28047,1.513113,-31.18283,-0.324739421965639,-0.1197299207364825,-0.3646919003664846,44.19362,67.28267,182.2786,0.5069731,-0.3233161,0.7753639,8
7.44,-34.24968,1.114485,-31.17624,-0.3276219358024339,-0.1238889364667244,-0.3655394714171542,44.70686,67.66459,181.1263,0.5117964,-0.3209655,0.7702947,8
7.46,-34.14676,1.314965,-31.14353,-0.3265132349837296,-0.1246811089735244,-0.3643598677343447,48.05898,67.52115,180.7192,0.5054278,-0.3417173,0.760723,8
7.48,-34.0439,1.512555,-31.11098,-0.3218015362296782,-0.1255130210625046,-0.361193307217623,51.40936,67.32929,180.2697,0.4986242,-0.362169,0.7504976,8
7.5,-33.94123,1.707264,-31.07862,-0.2973028502103059,-0.0410159245510246,-0.3512118684684009,54.75769,67.07637,179.7646,0.4913917,-0.382303,0.7396282,8
7.52,-33.9288,1.107104,-31.07403,-0.2681347951980566,-0.0720845776185018,-0.3402413210995751,53.34206,65.79761,177.6808,0.4928921,-0.3669831,0.7452056,8
7.54,-33.8276,1.305431,-31.04295,-0.2357096403467595,-0.1020443310181714,-0.3273167559417396,56.62836,65.34607,176.9456,0.4857291,-0.3864463,0.7339689,8
7.56,-33.72656,1.500986,-31.01206,-0.1988853791085505,-0.0442396809643591,-0.3135820138210392,59.90953,64.7664,176.0873,0.4781608,-0.405578,0.7221228,8
7.58,-33.51915,1.109124,-30.9466,-0.1422108629990752,-0.064965139546768,-0.2932619155633831,62.66673,57.15041,167.8309,0.4546573,-0.4107958,0.7195213,8
7.6,-33.41922,1.297727,-30.91718,-0.0840643330405219,-0.0857696155112119,-0.2711357095104167,65.78859,55.31508,165.6267,0.4468813,-0.4284969,0.7063507,8
7.62,-33.31998,1.483666,-30.88809,-0.0248351539832789,-0.1099214527965968,-0.2472662777357501,68.8718,52.89449,162.8418,0.4387437,-0.4458423,0.6926116,8
7.64,-33.10766,1.161833,-30.81862,0.0455963220597568,-0.0920759372341889,-0.2216991730527144,55.75458,55.59872,168.7859,0.4506939,-0.3713562,0.7568834,8
7.66,-33.00681,1.341543,-30.78781,0.1156732332346064,-0.0732960368283854,-0.1943202041449665,58.82462,54.23288,166.9852,0.4440317,-0.3892967,0.7449945,8
7.68,-32.9071,1.518525,-30.7575,0.1850161118399977,-0.0567075501670407,-0.1652172227445745,61.86678,52.52944,164.8536,0.4370196,-0.4069244,0.7325202,8
7.7,-32.8087,1.692856,-30.72772,0.239836793793946,0.030368115480621,-0.1413897489063855,64.87091,50.37337,162.2752,0.4296654,-0.424226,0.7194707,8
7.72,-32.71134,1.228957,-30.7216,0.2919255200851887,0.0239111085292129,-0.1254332863269809,37.74709,64.76569,174.7602,0.5187358,-0.2497253,0.7903301,8
7.74,-32.60199,1.400798,-30.68837,0.3329762967790737,0.0626650835840563,-0.1106539326063171,41.09318,64.53706,174.1653,0.5143818,-0.2709353,0.7812043,8
7.76,-32.49431,1.569439,-30.65582,0.3714811646844409,0.1003057349421698,-0.094776753512094,44.43621,64.2471,173.5189,0.5095809,-0.2919035,0.7714022,8
7.78,-32.40433,1.263627,-30.66138,0.4035830804728242,0.0668577119274182,-0.0842547252955427,13.84401,71.59586,177.1899,0.5828872,-0.08348275,0.8032024,8
7.8,-32.28721,1.431307,-30.62813,0.4335495716964463,0.0316649270578389,-0.0723791522442507,17.38282,71.71275,177.0712,0.5819698,-0.1076372,0.7986569,8
7.82,-32.1721,1.595349,-30.59563,0.4691084619658103,0.086481731325361,-0.0533773885613215,20.92196,71.82406,176.9572,0.5804942,-0.1316878,0.7933484,8
7.84,-32.07967,1.279268,-30.5794,0.5028632217935898,0.0716381222642818,-0.03577805695484,354.4157,76.44157,178.4229,0.6173738,0.04677113,0.7850403,8
7.86,-31.96046,1.444084,-30.54693,0.5332564264481277,0.0554844076923678,-0.016968252502076,357.9812,76.57995,178.5741,0.6193256,0.02153467,0.7848381,8
7.88,-31.84347,1.605168,-30.51526,0.5654479134437902,0.1070459088738982,0.0043796447091137,1.545268,76.72756,178.7338,0.6206747,-0.003715045,0.7838743,8
7.9,-31.733,1.763888,-30.48311,0.5930238449375098,0.1545408790448169,0.0256994948551869,5.005492,76.75796,178.9199,0.6205631,-0.02838358,0.7828833,8
7.92,-31.72659,1.297719,-30.48652,0.5947549589398342,0.103485025229851,0.0358714543698024,353.3055,77.63168,179.4933,0.6255426,0.04826003,0.7779896,8
7.94,-31.61591,1.461625,-30.45121,0.5915735973998961,0.1222026634985331,0.0472060507077358,356.6315,77.50664,179.7679,0.6256505,0.02418865,0.779547,8
7.96,-31.50874,1.622611,-30.4161,0.5757304034288593,0.0909735290773811,0.0527138005118863,359.9248,77.35732,180.0397,0.624952,0.0002953028,0.7806629,8
7.98,-31.52579,1.256803,-30.42963,0.555848420941611,0.0594788114731241,0.0586872873522623,357.2064,77.83899,181.1305,0.6281977,0.01276903,0.7776094,8
8.0,-31.41943,1.42441,-30.39486,0.5314042972031441,0.0247823286609351,0.0649359056464242,0.483269,77.56094,181.3844,0.6262472,-0.01085409,0.7795197,8
8.02,-31.3151,1.588953,-30.36039,0.5261156284161959,0.0855087532165832,0.0797639521289736,3.760909,77.29517,181.6229,0.6237666,-0.03446516,0.7807935,8
8.04,-31.3081,1.238459,-30.357,0.4955159625101122,0.0476742337280847,0.084836163233585,6.100313,77.81404,182.5721,0.6260813,-0.05547232,0.7776183,8
8.06,-31.19633,1.407234,-30.32009,0.4623189843314117,0.0104005659272653,0.0906139948716657,9.584907,77.49026,182.8407,0.6218624,-0.08060011,0.7782683,8
8.08,-31.08745,1.57284,-30.28328,0.4421498657633487,0.0484293887695722,0.1007239504703068,13.04885,77.15284,183.0933,0.6168962,-0.1055197,0.7783435,8
8.1,-30.98081,1.735212,-30.24677,0.3919369969607413,0.0095095641200594,0.0991607376098793,16.51536,76.82649,183.329,0.6113588,-0.1303507,0.7776911,8
8.12,-31.11988,1.208969,-30.28724,0.3402960770149441,-0.0279069031406021,0.0975457939910282,13.41511,77.31321,183.5215,0.6172804,-0.1102292,0.7774343,8
8.14,-31.00712,1.383964,-30.25113,0.305664296589589,0.0122767570300994,0.1009750401138349,16.97835,76.9897,183.7541,0.61151,-0.1356414,0.7766836,8
8.16,-30.89611,1.555528,-30.21516,0.2449061296820689,-0.0272938447759425,0.0954347170923632,20.54175,76.67507,183.9701,0.6051427,-0.1609129,0.7751693,8
8.18,-30.98081,1.175789,-30.23841,0.1827532661946818,-0.0643803163871253,0.090225377197783,18.74056,76.01379,184.0336,0.6026491,-0.1495889,0.7804698,8
8.2,-30.87019,1.358705,-30.20404,0.1471786718991277,-0.0207909711876125,0.0928817342097985,22.28928,75.68127,184.1787,0.5959338,-0.1744847,0.778636,8
8.22,-30.76082,1.538324,-30.16968,0.0903402924586562,-0.0594579085838087,0.0888740513170298,25.83772,75.34981,184.3049,0.5886436,-0.1992038,0.7760448,8
8.24,-30.8276,1.145475,-30.18469,0.0332074689535688,-0.0949226775906927,0.0855637882518833,24.61376,72.65406,184.0312,0.5723823,-0.1919727,0.7910892,8
8.26,-30.72014,1.336519,-30.15128,0.0020279029672485,-0.0460501461342348,0.0881045977297492,28.11625,72.24837,183.9784,0.5647255,-0.2159376,0.7880477,8
8.28,-30.61343,1.524445,-30.11773,-0.0288401732749821,0.0021116615371108,0.0913835358462695,31.61693,71.82491,183.8949,0.5565401,-0.2396899,0.7842614,8
8.3,-30.50765,1.7093,-30.08411,-0.0856472123455591,-0.0624221347608523,0.085635280552474,35.11596,71.37823,183.7763,0.5478333,-0.2632086,0.7797343,8
8.32,-30.63038,1.124877,-30.11648,-0.141220271364777,-0.1249416863162372,0.0808499973410565,32.1037,68.48148,183.5112,0.5334771,-0.245042,0.7988436,8
8.34,-30.52587,1.322093,-30.08331,-0.1584390506384951,-0.0744977391516737,0.0851609572777603,35.54239,67.92542,183.1963,0.524729,-0.2678855,0.794273,8
8.36,-30.42174,1.516342,-30.04993,-0.182344659931581,-0.1083876003822301,0.0844898487619536,38.97721,67.31953,182.8239,0.5155044,-0.2904764,0.7889749,8
8.38,-30.41567,1.115614,-30.06011,-0.2037846377386811,-0.1395723367884812,0.0846767026843466,41.88156,67.30179,182.341,0.5113454,-0.3080226,0.7813312,8
8.4,-30.31297,1.315683,-30.02821,-0.2023774790330441,-0.0831454306769665,0.0897007008008934,45.26136,66.596,181.8679,0.5014139,-0.3298341,0.7748124,8
8.42,-30.21047,1.512893,-29.99604,-0.1971511302988586,-0.1119813303720206,0.0941857518188364,48.6354,65.8025,181.3012,0.4910409,-0.3513454,0.7676053,8
8.44,-30.1472,1.112974,-29.98547,-0.1894634774673238,-0.1387437736066345,0.0993090716893778,48.08775,65.91966,179.5136,0.4982924,-0.339748,0.7653031,8
8.46,-30.0465,1.3135,-29.9536,-0.1686477753945681,-0.0781100465845869,0.1089678942249459,51.40471,65.06619,178.8913,0.4880925,-0.3609357,0.7573739,8
8.48,-29.94598,1.511268,-29.92146,-0.1452215946839712,-0.0185248002815448,0.1193459028996306,54.71391,64.08273,178.1342,0.477477,-0.3818064,0.748794,8
8.5,-29.84579,1.706291,-29.8891,-0.1121453130409979,-0.0745617331010399,0.1314788454914106,58.01312,62.9283,177.2016,0.4664556,-0.4023419,0.7395716,8
8.52,-29.74034,1.102216,-29.86448,-0.0776211690218118,-0.1311536311257967,0.1439220689685072,59.69747,62.01724,174.0141,0.4684901,-0.4026716,0.7289886,8
8.54,-29.64214,1.295978,-29.83294,-0.0284499080922051,-0.0728344497502039,0.1607098219870928,62.92316,60.4571,172.6658,0.4574022,-0.4225672,0.718689,8
8.56,-29.54448,1.48713,-29.80125,0.04142867571134,-0.0904945429154326,0.1836051894793193,66.12643,58.51566,170.933,0.4459381,-0.4421015,0.7077928,8
8.58,-29.32658,1.128964,-29.73608,0.1119193335720933,-0.1087241188141984,0.2068844437325343,60.94708,52.77381,166.679,0.433146,-0.40681,0.7407163,8
8.6,-29.22943,1.313232,-29.70229,0.1667088285124291,-0.0430683566360375,0.2252090631733625,63.98751,50.23625,164.2421,0.4223715,-0.4258445,0.7298254,8
8.62,-29.13333,1.494914,-29.66852,0.2379744839186268,-0.0455866607794164,0.2459153014156707,66.96752,47.06232,161.1672,0.4112595,-0.4445271,0.7183452,8
8.64,-28.92319,1.19567,-29.61054,0.3082185551561158,-0.0488257226639022,0.2670119693348787,48.27601,58.85403,173.1486,0.4688372,-0.3287484,0.7814005,8
8.66,-28.82497,1.372176,-29.57306,0.3600369040383833,0.0198432929241226,0.2822492123624238,51.40287,57.66735,172.0865,0.4597357,-0.3490238,0.7730413,8
8.68,-28.72821,1.545978,-29.53577,0.4087060447959891,0.0861530054487747,0.2968729908453809,54.51281,56.29303,170.834,0.4502753,-0.3690168,0.7640724,8
8.7,-28.63305,1.717162,-29.4987,0.4522821865334796,0.0574503503460276,0.3012080457100423,57.60106,54.67888,169.3396,0.440466,-0.3887131,0.754501,8
8.72,-28.53977,1.250288,-29.52255,0.494754799585769,0.0266942462090566,0.3059106810221257,26.16805,65.24584,175.9898,0.5314617,-0.1721755,0.8155992,8
8.74,-28.4279,1.419103,-29.48006,0.5356655028776633,0.0861164553345975,0.3142764496378278,29.68546,64.68275,175.5844,0.5250661,-0.1963472,0.8107989,8
8.76,-28.31812,1.584409,-29.43792,0.5717694059578422,0.0752439616603292,0.3163756444231183,33.19932,64.06871,175.1221,0.5181673,-0.2203311,0.8052161,8
8.78,-28.23396,1.271962,-29.44071,0.6047597601045824,0.0636679762776682,0.3183787919109,2.342963,70.99734,177.9328,0.5807685,-0.006169506,0.8136122,8
8.8,-28.11976,1.438563,-29.39812,0.636552483066231,0.1191319577700512,0.3257230671722189,5.906247,70.6236,177.9092,0.577929,-0.03150141,0.8142558,8
8.82,-28.0078,1.601534,-29.35591,0.6663979444826977,0.1052051177987875,0.3300281978566115,9.468269,70.24559,177.8618,0.5745277,-0.05679479,0.8141026,8
8.84,-27.88098,1.291624,-29.33015,0.6908017852094019,0.0902650850747847,0.3345382682240196,352.2108,73.14712,179.0193,0.5939897,0.05963213,0.8015549,8
8.86,-27.76554,1.453844,-29.28448,0.7123230632652517,0.1429637449464838,0.3413793086958594,355.8012,72.75815,179.1921,0.5925041,0.03367174,0.8047033,8
8.88,-27.65264,1.612306,-29.2393,0.7262958597453419,0.1920779112460387,0.3479391777038927,359.3917,72.38138,179.34,0.5904317,0.007684877,0.8070495,8
8.9,-27.54247,1.767177,-29.19473,0.7111970177651883,0.1422197972507431,0.3408749507214823,2.981955,72.01378,179.4646,0.5877754,-0.01830208,0.8085921,8
8.92,-27.58106,1.269731,-29.22784,0.6905647889226314,0.0912785042636492,0.3340269509586413,354.1046,73.43395,179.9812,0.597065,0.04131958,0.8005431,8
8.94,-27.46891,1.433099,-29.18111,0.679232550330402,0.1296395884874331,0.3324286015177229,357.6507,73.04634,180.234,0.5950552,0.01525958,0.8034209,8
8.96,-27.41361,1.250259,-29.17872,0.6489361434766736,0.0939446226173441,0.3213461606066246,359.4383,73.77807,181.3496,0.6002646,-0.003149056,0.7997,8
8.98,-27.30014,1.414918,-29.13289,0.6142837010764808,0.0585539820113074,0.310082764421161,3.044795,73.4147,181.5958,0.5971625,-0.02961794,0.8015596,8
9.0,-27.18905,1.575921,-29.08755,0.5931612281781478,0.0991063589223299,0.3056288961331357,6.652247,73.06532,181.82,0.5934629,-0.05605187,0.8026117,8
9.02,-27.08055,1.733433,-29.0428,0.5506009013287634,0.0645893086164978,0.2924980265070411,10.25996,72.72735,182.0239,0.5891698,-0.08242197,0.8028556,8
9.04,-27.11999,1.226209,-29.06855,0.5049009249918845,0.0312122336160218,0.2792203229514203,10.35741,73.78129,183.1573,0.5956237,-0.08863288,0.7977086,8
9.06,-27.00665,1.396617,-29.02378,0.4699981194628879,0.0727825065199568,0.2702019119726815,13.99251,73.4658,183.4025,0.5904725,-0.1151988,0.7972773,8
9.08,-26.89536,1.563395,-28.97939,0.4303637825283113,0.1125407671547005,0.2604242074746428,17.62776,73.16125,183.6311,0.5847221,-0.1416392,0.7960313,8
9.1,-26.97587,1.199644,-29.01548,0.3528358215654181,0.048252398826148,0.2353693136357173,14.77473,73.8637,183.6416,0.5923108,-0.1216592,0.7947704,8
9.12,-26.86483,1.376365,-28.97321,0.2727241730504643,-0.0143810461574156,0.2097466125877978,18.36736,73.56139,183.8652,0.5864317,-0.1476898,0.7934397,8
9.14,-26.75544,1.549628,-28.93115,0.2262841044290939,0.0244333662661228,0.1948783490624106,21.95996,73.26749,184.0736,0.5799721,-0.1735653,0.7913178,8
9.16,-26.81319,1.168237,-28.95352,0.1539414184185985,-0.0173763702472209,0.1706663082123927,20.15878,72.0624,184.0517,0.5737821,-0.1619165,0.7993572,8
9.18,-26.70503,1.353096,-28.91341,0.0802921505791718,-0.0559019020122777,0.1462941865341855,23.70621,71.73407,184.1498,0.5670106,-0.1871065,0.7969369,8
9.2,-26.59801,1.534684,-28.87336,0.0341607487468222,-0.0120450855482202,0.1304702931797043,27.25302,71.40307,184.2281,0.5596936,-0.2121072,0.7937444,8
9.22,-26.63452,1.139053,-28.88427,-0.0303566904328675,-0.0511450775291432,0.108501590883979,26.31607,68.70994,183.9561,0.5426887,-0.206783,0.8078383,8
9.24,-26.52963,1.331799,-28.84537,-0.0947413213574313,-0.0867852593942758,0.0868542068423354,29.80678,68.29597,183.8498,0.5349942,-0.2309485,0.8041493,8
9.26,-26.4254,1.521461,-28.80637,-0.1329928438255283,-0.0367978331530775,0.0728067592648802,33.29524,67.85901,183.7096,0.5268028,-0.2548881,0.7997063,8
9.28,-26.32198,1.708079,-28.76732,-0.1701443382439662,0.0125978926273819,0.0593930158345683,36.78171,67.39275,183.5302,0.5181217,-0.2785819,0.7945136,8
9.3,-26.40249,1.121826,-28.79652,-0.227915504281194,-0.0516074847635841,0.037048848522343,34.74355,65.02886,183.2368,0.5056795,-0.2661596,0.8090048,8
9.32,-26.30023,1.319837,-28.75841,-0.2837786328556486,-0.1139410704065591,0.0153810141204071,38.16722,64.44796,182.8694,0.4968424,-0.2891181,0.8035921,8
9.34,-26.1983,1.514906,-28.7201,-0.3037999793649546,-0.0628004499767258,0.0041864740495785,41.58664,63.80845,182.4369,0.487558,-0.3118075,0.7974494,8
9.36,-26.16007,1.115057,-28.72314,-0.3266611098526768,-0.0962627374390527,-0.0105516636705349,43.29208,64.43884,181.7225,0.4908177,-0.3194839,0.7892195,8
9.38,-26.05951,1.315402,-28.68621,-0.3461057107948115,-0.1273594652443312,-0.0242076132175053,46.65853,63.7402,181.2456,0.4811442,-0.3415646,0.7820434,8
9.4,-25.95914,1.512909,-28.64903,-0.3476992256574256,-0.070680479698715,-0.0303287804456173,50.0194,62.95086,180.6726,0.4710514,-0.3633378,0.7741788,8
9.42,-25.85334,1.109989,-28.62139,-0.3359088501607492,-0.1002134853122431,-0.0332122606840097,50.7053,62.78212,178.7018,0.4748212,-0.3601594,0.7688422,8
9.44,-25.75479,1.309488,-28.58502,-0.3211966716327876,-0.1283152318946672,-0.0350224174277871,54.00534,61.862,177.9951,0.464715,-0.3813908,0.7600757,8
9.46,-25.65648,1.506264,-28.54843,-0.2979283193835003,-0.0692219310454484,-0.0325845708447656,57.29645,60.78639,177.1286,0.4542171,-0.4022902,0.7506624,8
9.48,-25.55854,1.700329,-28.51166,-0.2716420456962169,-0.0115291498598479,-0.0289767760275672,60.57588,59.50283,176.0504,0.4433368,-0.42284,0.740611,8
9.5,-25.40898,1.104512,-28.46667,-0.2314541217067769,-0.0651416456896717,-0.0217084815225394,61.23195,56.58286,171.155,0.4412526,-0.4156591,0.7369308,8
9.52,-25.31266,1.295746,-28.43056,-0.1892362334416635,-0.1201464935473886,-0.0135530885988885,64.40742,54.63906,169.374,0.4305215,-0.4354946,0.7259008,8
9.54,-25.21701,1.48439,-28.3944,-0.1460504562688926,-0.0604023505151521,-0.003441476067,67.54827,52.18287,167.0783,0.4194395,-0.4549607,0.7142742,8
9.56,-24.98823,1.144385,-28.31841,-0.0839079319079587,-0.0717441133036533,0.0118290692627986,58.37199,51.05531,167.7879,0.4209065,-0.397525,0.7609901,8
9.58,-24.89229,1.326413,-28.27986,-0.0207218017586847,-0.083757797738916,0.0280792673837004,61.42273,48.85865,165.6632,0.4108128,-0.4169859,0.7503042,8
9.6,-24.79752,1.505828,-28.24145,0.0251670555450647,-0.0176336735617899,0.0401581745890893,64.42457,46.16361,163.0388,0.4003933,-0.4361051,0.7390171,8
9.62,-24.58126,1.21208,-28.18631,0.0851455368312024,-0.0191724036483905,0.0503989508083404,43.03708,58.53519,173.9487,0.4710685,-0.2955261,0.8009461,8
9.64,-24.48087,1.38634,-28.14374,0.1456865006934591,-0.0217084129889019,0.0614698128916955,46.27144,57.59009,173.1119,0.4628249,-0.3170955,0.7930449,8
9.66,-24.38209,1.557692,-28.10147,0.1892175959503017,0.0433747472403145,0.0695232161760266,49.4939,56.51221,172.1396,0.4542,-0.3383942,0.7844844,8
9.68,-24.28507,1.726226,-28.05957,0.2247300706700605,0.0379372074554978,0.0690565401537921,52.70218,55.26755,170.9981,0.4452013,-0.3594093,0.7752699,8
9.7,-24.20147,1.257284,-28.0855,0.2602026264921493,0.0316144868910354,0.0687943771584995,20.01134,65.08819,176.5678,0.5339153,-0.130533,0.8269853,8
9.72,-24.09037,1.425569,-28.03958,0.2953071709271797,0.0213166931482117,0.0685001798347095,23.54028,64.62939,176.289,0.5286368,-0.1553581,0.8233906,8
9.74,-23.98136,1.590304,-27.99408,0.3303426690514848,0.0319912932181566,0.0725422582287134,27.06793,64.13799,175.9698,0.5228506,-0.1800388,0.8189997,8
9.76,-23.88053,1.275751,-27.9902,0.3625757421588802,0.0430219673021285,0.0762321175058922,358.3842,70.43344,178.1747,0.5763568,0.02070196,0.8169214,8
9.78,-23.7672,1.441509,-27.94439,0.3915899491192629,0.0515321516158177,0.0793102222895285,1.950032,70.07933,178.2164,0.5742075,-0.004995849,0.818385,8
9.8,-23.65615,1.603616,-27.89905,0.4205061982541522,0.1258721026583251,0.0881966680443002,5.515026,69.72674,178.2362,0.5714994,-0.03068161,0.819047,8
9.82,-23.5199,1.293873,-27.87272,0.4338757707910479,0.1072986500532131,0.0878788752713202,352.8313,72.1664,179.2473,0.587463,0.0543847,0.8068064,8
9.84,-23.40562,1.455446,-27.82393,0.4438801478706882,0.0876947950360727,0.087697668972511,356.4174,71.79345,179.4585,0.5859134,0.02809096,0.8097571,8
9.86,-23.29389,1.613254,-27.77575,0.4475147611892169,0.134638954329215,0.0897565584707886,0.003831923,71.43475,179.6459,0.5837849,0.001776692,0.8119028,8
9.88,-23.1849,1.767467,-27.72827,0.4304187714646019,0.1056490941781525,0.0799797929587158,3.590296,71.08748,179.8112,0.5810803,-0.02453184,0.8132418,8
9.9,-23.22719,1.262079,-27.77455,0.4090382701934283,0.0770263590319916,0.0695116493425254,355.7542,72.70535,180.5623,0.5924864,0.02692667,0.8047135,8
9.92,-23.11576,1.425994,-27.72663,0.3830297452975317,0.0459760448058235,0.058081737362178,359.3064,72.34258,180.8177,0.5902103,0.000674251,0.8071954,8
9.94,-23.00669,1.586319,-27.67928,0.361451466681514,0.0364615779964919,0.0493931460587395,2.859249,71.99557,181.0508,0.5873613,-0.02557183,0.8088884,8
9.96,-22.99041,1.240612,-27.69578,0.3368957569700357,0.0286403762589552,0.039996747823821,4.002985,73.38895,182.058,0.596584,-0.03872468,0.8015897,8
9.98,-22.8772,1.406974,-27.64887,0.3171523511616749,0.0710629085464526,0.036185526324739,7.629344,73.06549,182.3271,0.5927553,-0.06550745,0.8023754,8
10.0,-22.76626,1.569666,-27.60246,0.2932488991374802,0.1113203626470878,0.0314693742411784,11.25676,72.75628,182.5777,0.5883269,-0.09221943,0.8023444,8
10.02,-22.77659,1.217344,-27.61576,0.2319694108230923,0.0510796309782602,0.0113149607416085,11.90721,73.54575,183.3485,0.5927339,-0.1004444,0.7981686,8
10.04,-22.66423,1.389823,-27.57109,0.1689245800692944,-0.0079184134292654,-0.0095022817479364,15.52848,73.25524,183.5978,0.5874475,-0.1269231,0.797311,8
10.06,-22.55379,1.558726,-27.52677,0.1256486559605862,0.0306139955512104,-0.0207076218707502,19.14981,72.97595,183.8327,0.5815701,-0.1532652,0.7956458,8
10.08,-22.44544,1.724181,-27.48289,0.0550020818799907,-0.0096846606707804,-0.0427338738963265,22.77118,72.7061,184.0537,0.5751075,-0.1794435,0.7931755,8
10.1,-22.57188,1.183136,-27.54031,-0.0166238622678518,-0.0471701117001789,-0.0653231713754425,17.42119,73.12693,183.905,0.5843558,-0.1416307,0.7965464,8
10.12,-22.46231,1.363887,-27.49858,-0.0610454769022164,-0.0057857273451234,-0.0766496552517077,20.99594,72.84228,184.0983,0.5781623,-0.1673924,0.7945678,8
10.14,-22.35411,1.541264,-27.45699,-0.1280811522002034,-0.0458036404728166,-0.096008129077429,24.57047,72.56367,184.2771,0.5714034,-0.1929814,0.7918065,8
10.16,-22.41261,1.153061,-27.47967,-0.1944094909164433,-0.0824014621624682,-0.1153056347846099,23.08031,70.43325,184.0403,0.5588993,-0.1832559,0.8040315,8
10.18,-22.30607,1.342017,-27.44007,-0.2354272351808872,-0.0360042495114455,-0.1250654111620099,26.60178,70.08902,184.0474,0.5518096,-0.2079714,0.8009129,8
10.2,-22.20041,1.527794,-27.40045,-0.2750383279292379,0.0097414311102992,-0.1342915830653024,30.12184,69.73399,184.0303,0.5441982,-0.2324784,0.7970314,8
10.22,-22.22156,1.128752,-27.40606,-0.3432433140475206,-0.0565092949331802,-0.1534397505948117,30.05836,66.83874,183.6988,0.5246614,-0.2334908,0.8103005,8
10.24,-22.11804,1.324575,-27.36757,-0.3873295162142733,-0.0342980332873102,-0.16424408288412,33.5169,66.37225,183.4705,0.5165661,-0.2570689,0.8057647,8
10.26,-22.01497,1.517387,-27.32892,-0.4276235370498797,-0.0105626258230942,-0.1738776359024951,36.97269,65.86857,183.1971,0.5079982,-0.280403,0.8004859,8
10.28,-21.91254,1.707219,-27.29018,-0.4761030292023989,-0.0722430517183395,-0.1887993899282971,40.42527,65.31876,182.8704,0.4989662,-0.3034712,0.7944694,8
10.3,-21.96238,1.117174,-27.318,-0.5206075376201382,-0.1322143287718014,-0.2027707796429148,39.63932,64.62238,182.6667,0.4960508,-0.2981833,0.799096,8
10.32,-21.86085,1.316609,-27.28083,-0.5338466450831674,-0.0783524828213578,-0.2056752337091101,43.03325,63.98359,182.2218,0.4867534,-0.3205647,0.7926382,8
10.34,-21.75956,1.513156,-27.24345,-0.5456733548815333,-0.1092705959633409,-0.2100359359129555,46.42204,63.26849,181.6953,0.4770251,-0.3426526,0.7854723,8
10.36,-21.70282,1.113769,-27.23885,-0.5524949850742513,-0.1379501896223075,-0.2130645254652576,46.39025,64.12535,180.3479,0.4869221,-0.335267,0.7795976,8
10.38,-21.60305,1.314329,-27.20244,-0.5449978135981,-0.0789928889807632,-0.2086601132936163,49.72622,63.38028,179.8087,0.4772322,-0.3569667,0.7716659,8
10.4,-21.50344,1.512099,-27.16579,-0.5322311008903196,-0.0210094504313114,-0.2025671559110562,53.05587,62.52718,179.1567,0.4671337,-0.3783503,0.7630675,8
10.42,-21.33722,1.103742,-27.11677,-0.5121798284872563,-0.0798689079647304,-0.1958125329902302,56.52038,61.52385,176.1793,0.4638204,-0.3916142,0.7483837,8
10.44,-21.23964,1.29985,-27.08135,-0.4884167617179971,-0.0492843161246219,-0.1863484035389535,59.77924,60.31689,175.1623,0.453365,-0.4121097,0.7383972,8
10.46,-21.14246,1.493308,-27.04579,-0.4601481284583646,-0.0181558054437386,-0.1754989939264182,63.0235,58.85069,173.8828,0.4425341,-0.4322503,0.7277945,8
10.48,-21.04583,1.684138,-27.01014,-0.4093686827239366,-0.0670782396346157,-0.1581879892679629,66.24798,57.02033,172.2364,0.4313369,-0.452022,0.7165836,8
10.5,-20.87123,1.118077,-26.95602,-0.3554380969183937,-0.1176318878606628,-0.1398560369979424,61.81416,52.11724,167.1771,0.4260816,-0.4164577,0.740764,8
10.52,-20.77512,1.304564,-26.9196,-0.3063690201078035,-0.0550293557342342,-0.1218644268717654,64.88821,49.64791,164.7971,0.4155975,-0.4357608,0.7294148,8
10.54,-20.67992,1.488467,-26.88322,-0.2376542717055141,-0.0616689909142002,-0.0994171338843581,67.90599,46.52324,161.7605,0.4047795,-0.4547026,0.7174737,8
10.56,-20.46386,1.178253,-26.81672,-0.1670996719851225,-0.0689964566990418,-0.0760548213538263,52.06836,54.78387,171.186,0.4421146,-0.3567793,0.779914,8
10.58,-20.36698,1.356395,-26.77728,-0.1149826536014071,-0.0012686986291161,-0.0579204031147408,55.16868,53.30965,169.7781,0.4329067,-0.3767757,0.7704806,8
10.6,-20.27146,1.531861,-26.73806,-0.0628645651506727,0.064337517903448,-0.0399241023424812,58.24352,51.5659,168.0993,0.4233597,-0.3964666,0.7604379,8
10.62,-20.07384,1.239893,-26.71288,-0.0100381223122174,0.0350515796294362,-0.0310774769603727,31.9694,62.3876,175.3472,0.5070605,-0.2151606,0.8158783,8
10.64,-19.96608,1.410272,-26.66886,0.0268877738753166,0.0741392745782573,-0.0239329538273063,35.39911,61.76182,174.8309,0.5002286,-0.2386112,0.8097422,8
10.66,-19.86024,1.577335,-26.62524,0.0637001221575217,0.1120118833982495,-0.0170202951142508,38.82301,61.06783,174.2428,0.4929404,-0.2618378,0.8028625,8
10.68,-19.80121,1.263509,-26.6397,0.0973388709553129,0.0786826683236855,-0.0173377177759896,13.89754,67.11757,177.1582,0.551063,-0.08717865,0.8252854,8
10.7,-19.6886,1.431144,-26.59479,0.1316554168303123,0.0434481009777443,-0.017885954495735,17.45001,66.7307,176.9785,0.5467625,-0.1123144,0.8230293,8
10.72,-19.57815,1.595182,-26.55032,0.1680572132064206,0.0984758137433121,-0.0087963887715707,21.00065,66.32381,176.7693,0.5419332,-0.1373369,0.8199722,8
10.74,-19.46597,1.279252,-26.53818,0.2047564273882276,0.0840392727448363,-0.003387872477389,354.4439,71.76749,178.3996,0.5848482,0.04744076,0.8095737,8
10.76,-19.35182,1.44413,-26.49314,0.2395640235104905,0.0686087659305912,0.0015969435370526,358.0157,71.42369,178.4985,0.5833873,0.02170548,0.811904,8
10.78,-19.24,1.605331,-26.44857,0.2729511917532632,0.1207000428195591,0.0120353994328916,1.586826,71.08646,178.576,0.5813565,-0.004043077,0.8134363,8
10.8,-19.13073,1.763008,-26.40458,0.3023517588802205,0.1691591494669487,0.0216287208438399,5.157417,70.75319,178.6326,0.5787585,-0.02978076,0.81417,8
10.82,-19.09806,1.296032,-26.41979,0.3068582206628873,0.1196356971788291,0.0187736106612192,353.4681,72.74864,179.4844,0.5918824,0.04853383,0.8039958,8
10.84,-18.98354,1.456974,-26.37126,0.304741512418647,0.1391376032517892,0.0183621917351826,357.051,72.3927,179.7263,0.5903074,0.02217569,0.8067647,8
10.86,-18.87158,1.614144,-26.32337,0.2983182675813169,0.1577411016941516,0.0168152611997443,0.6343124,72.05265,179.9455,0.5881499,-0.004197184,0.8087328,8
10.88,-18.86959,1.25468,-26.35306,0.2741897519313137,0.1016588746250704,0.0045452180903455,357.4276,73.51015,181.1346,0.5983935,0.01206006,0.8008267,8
10.9,-18.75755,1.419153,-26.30701,0.247076051697771,0.0453724185379999,-0.0088583310024219,0.9869551,73.17168,181.3901,0.5958766,-0.01414506,0.8029383,8
10.92,-18.64785,1.580047,-26.26149,0.2389097559133906,0.0844881257683458,-0.0097170619355049,4.546721,72.84844,181.6252,0.5927794,-0.04032894,0.8042627,8
10.94,-18.62926,1.237768,-26.27025,0.2101465769113073,0.0498005593817815,-0.0194721288185295,6.172368,74.0983,182.581,0.6005058,-0.05650792,0.7974899,8
10.96,-18.51518,1.405023,-26.22483,0.1794909153999557,0.0164792013750491,-0.0302065409233573,9.809662,73.80242,182.8547,0.5963497,-0.08325301,0.7977752,8
10.98,-18.40333,1.568598,-26.17989,0.1601504776440256,0.0570290991403824,-0.0326908758788531,13.44724,73.52081,183.1125,0.5915875,-0.1099052,0.7972448,8
11.0,-18.29391,1.728636,-26.1355,0.1376793450367344,0.0957421804999185,-0.0362335987976631,17.08565,73.25166,183.3559,0.5862239,-0.1364415,0.7958992,8
11.02,-18.41926,1.208677,-26.19255,0.0768262377385475,0.0315338747749998,-0.0552276244138036,13.45344,74.29551,183.5345,0.5965509,-0.1118159,0.7933989,8
11.04,-18.30695,1.383205,-26.14993,0.0329098078316816,0.0458422691209994,-0.066248351843503,17.06529,74.0289,183.7852,0.5911155,-0.1380708,0.7921649,8
11.06,-18.19642,1.5542,-26.1076,-0.0120634422060645,0.0609830411936391,-0.0777636395801497,20.67713,73.77367,184.0233,0.5850888,-0.1641788,0.7901335,8
11.08,-18.26369,1.175739,-26.13755,-0.0835895085762918,-0.0045633968025311,-0.0989671008743262,18.74568,73.49169,184.0473,0.5853031,-0.1512607,0.7935472,8
11.1,-18.15422,1.358513,-26.09793,-0.1550935301949165,-0.0677632908924556,-0.1207925572634796,22.30793,73.21759,184.2113,0.5789832,-0.1766767,0.7912702,8
11.12,-18.046,1.537956,-26.05841,-0.191898759832692,-0.026202003981354,-0.1282828088585961,25.86983,72.94741,184.3609,0.5721017,-0.2019124,0.7882203,8
11.14,-18.09605,1.145491,-26.0756,-0.2488350379836488,-0.0673332370361277,-0.1424081622848687,24.60666,70.46751,184.043,0.5571736,-0.1938252,0.8018856,8
11.16,-17.98977,1.336467,-26.03774,-0.304024087728139,-0.1049589401832569,-0.1563401111622364,28.11347,70.12077,184.0066,0.5499478,-0.2181689,0.7984284,8
11.18,-17.88424,1.524308,-25.99983,-0.3328955294126177,-0.0579190082631655,-0.1606196433416062,31.61861,69.75935,183.9441,0.542207,-0.2422967,0.7942177,8
11.2,-17.77964,1.709062,-25.96194,-0.359196897984658,-0.0114570975946549,-0.1642182573435189,35.12234,69.37877,183.8521,0.5339584,-0.2661888,0.7892575,8
11.22,-17.88627,1.12488,-25.99688,-0.4084449895557065,-0.0780919927803484,-0.1761353916611661,32.09143,66.54898,183.5223,0.5199249,-0.2471839,0.8077615,8
11.24,-17.78286,1.32205,-25.95986,-0.4352120446164425,-0.0554153667796571,-0.1805856059573094,35.53231,66.05274,183.2224,0.5116342,-0.2703219,0.8027958,8
11.26,-17.67982,1.516241,-25.92267,-0.4574439559857883,-0.0313134673549921,-0.1839325965672831,38.9698,65.51056,182.8703,0.5028799,-0.2932059,0.7970966,8
11.28,-17.66021,1.115604,-25.92995,-0.4846257695412219,-0.092772623950264,-0.1921549813414702,41.86803,65.53679,182.3519,0.4992461,-0.3107463,0.7891653,8
11.3,-17.55848,1.31564,-25.89459,-0.5073165948773399,-0.152882827831874,-0.1994460625341143,45.24926,64.89198,181.8928,0.489788,-0.3327758,0.782258,8
11.32,-17.45695,1.512809,-25.85902,-0.5029681063448952,-0.098495118044333,-0.1959492942393632,48.62528,64.16461,181.3463,0.4798999,-0.3545034,0.7746583,8
11.34,-17.3822,1.112961,-25.84378,-0.4907526357972829,-0.1298970116603085,-0.1916351138207508,48.07793,64.35814,179.5284,0.4877918,-0.342778,0.7720802,8
11.36,-17.28236,1.313459,-25.80887,-0.4737501111587769,-0.1594932318477198,-0.1861549116029479,51.39634,63.56785,178.9219,0.4780671,-0.3641219,0.7637813,8
11.38,-17.18269,1.511192,-25.77373,-0.4455329602032458,-0.1017196528907368,-0.1746982205311917,54.70763,62.65413,178.188,0.4679364,-0.3851467,0.7548283,8
11.4,-17.08333,1.70617,-25.73842,-0.4124380744725455,-0.0451278641858782,-0.1618655012227252,58.00989,61.57817,177.2884,0.4574089,-0.405835,0.7452298,8
11.42,-16.96856,1.102199,-25.70926,-0.365055482415531,-0.1026910332669235,-0.1458557169205048,59.67807,60.71303,174.0444,0.4600915,-0.4059944,0.7344267,8
11.44,-16.87103,1.295947,-25.67524,-0.323886509150427,-0.0707573481222808,-0.130764404819542,62.90619,59.22607,172.7213,0.4494801,-0.4259718,0.7237797,8
11.46,-16.77402,1.487077,-25.64112,-0.2795036962260913,-0.0384380449184016,-0.1147826564448366,66.11317,57.37007,171.0266,0.4384997,-0.4455855,0.7125347,8
11.48,-16.54881,1.128882,-25.57011,-0.2150408167571005,-0.080501270287198,-0.093574098410269,60.95388,51.70734,166.695,0.4261689,-0.4098157,0.7447287,8
11.5,-16.45218,1.313131,-25.53442,-0.1483821623137244,-0.1244981749748124,-0.0716057473775566,63.99833,49.24023,164.2804,0.4158578,-0.4288938,0.7335277,8
11.52,-16.35658,1.494785,-25.49881,-0.0915410121793156,-0.0605247696102887,-0.0518076190781653,66.98455,46.14684,161.2387,0.4052153,-0.4476192,0.7217364,8
11.54,-16.14008,1.195549,-25.43736,-0.0188877300036061,-0.064090896068736,-0.03248827509351,48.29857,58.06623,173.1507,0.4634188,-0.3306134,0.7845342,8
11.56,-16.04222,1.372031,-25.39856,0.0553432336410191,-0.0686124499088713,-0.0124488411101566,51.42795,56.94193,172.1043,0.4547451,-0.3509293,0.7758871,8
11.58,-15.9458,1.5458,-25.35999,0.1125815662692364,-0.0035015778565025,0.0035653356930178,54.54148,55.63572,170.8743,0.4457172,-0.3709624,0.7666302,8
11.6,-15.85097,1.716943,-25.32172,0.1691943149227313,0.0588425375373332,0.0191145499519622,57.63467,54.09686,169.4102,0.4363446,-0.3906974,0.7567714,8
11.62,-15.75166,1.250195,-25.34623,0.2296865877365226,0.0264367813135102,0.0270549030963498,26.20903,64.8165,175.9954,0.5283606,-0.1730604,0.8175175,8
11.64,-15.64,1.418991,-25.30296,0.2754469230504459,0.0615697291314202,0.0369414468620616,29.72723,64.30995,175.6037,0.5223543,-0.1972822,0.812445,8
11.66,-15.53039,1.58427,-25.2601,0.3184818199153383,0.0954882965164309,0.0457867854222069,33.2424,63.75542,175.1596,0.515848,-0.2213153,0.8065912,8
11.68,-15.44213,1.271918,-25.26533,0.3583740661359431,0.1253455930113579,0.0533199245156961,2.382252,70.89616,177.9399,0.5800504,-0.006507847,0.814117,8
11.7,-15.32788,1.438497,-25.22261,0.3921497338226205,0.1307583882886028,0.0604263287597355,5.945423,70.57352,177.9284,0.5775627,-0.03189651,0.8144979,8
11.72,-15.21584,1.601438,-25.18032,0.4230126781981418,0.13651089806271,0.0668190197136033,9.50748,70.24776,177.8965,0.5745147,-0.0572469,0.814084,8
11.74,-15.08618,1.291552,-25.15852,0.4504946596915338,0.1397548918510084,0.0722053224786503,352.2192,73.41099,179.0272,0.5958415,0.05945558,0.8001863,8
11.76,-14.9704,1.453755,-25.11347,0.4691974265987009,0.1409813857168439,0.0758878583507507,355.809,73.07078,179.213,0.5947053,0.03346544,0.8030827,8
11.78,-14.85713,1.612193,-25.06896,0.4836049144634138,0.1426405547176942,0.0788512329291966,359.3987,72.7434,179.3769,0.5929813,0.007449687,0.8051807,8
11.8,-14.74658,1.767033,-25.02509,0.4932536283353494,0.1419332398971215,0.0807800634478725,2.988298,72.42619,179.5205,0.5906721,-0.01856621,0.8064795,8
11.82,-14.78358,1.26979,-25.06185,0.4873958192534557,0.064333957467449,0.0734383652574854,354.102,74.01912,179.9896,0.6011475,0.04113685,0.7974805,8
11.84,-14.67081,1.433125,-25.01635,0.4887566061031114,0.0783440278348507,0.073756851132344,357.6474,73.68047,180.2551,0.5994945,0.01509505,0.8001126,8
11.86,-14.56045,1.592852,-24.9714,0.4849779518241897,0.0918889393791186,0.0723326184749071,1.193327,73.35876,180.4993,0.5972621,-0.0109543,0.8019668,8
11.88,-14.54455,1.24611,-24.99264,0.4756449060124583,0.1022773402123491,0.0688611770989116,1.392481,74.74786,181.5839,0.6067781,-0.01804497,0.7946583,8
11.9,-14.43022,1.411318,-24.94851,0.45056085820161,0.0910277751359099,0.0630418767222753,5.007297,74.44437,181.8546,0.603688,-0.04456013,0.7958591,8
11.92,-14.31822,1.572857,-24.90488,0.4224807023847505,0.0818407076284707,0.056236038799784,8.623089,74.15613,182.1075,0.5999917,-0.07102571,0.7962561,8
11.94,-14.32936,1.226278,-24.9166,0.3909958720627595,0.071848874750153,0.0481683776647456,10.33753,74.80663,183.1584,0.6027499,-0.08821011,0.792357,8
11.96,-14.2152,1.396702,-24.87411,0.3459910724394492,0.0585583963590809,0.0372451351406053,13.9678,74.54205,183.4103,0.5979476,-0.1146025,0.7917169,8
11.98,-14.10307,1.563498,-24.83199,0.2982776229391224,0.0484259743219022,0.0251782317055613,17.59807,74.28969,183.6491,0.5925409,-0.1408707,0.790272,8
12.0,-13.99318,1.726803,-24.79033,0.2474902410598582,0.0385305949210265,0.0117356178839003,21.22846,74.04807,183.8758,0.5865356,-0.1669884,0.7880243,8
12.02,-14.13218,1.190929,-24.84906,0.1723130847376972,-0.0518534544490746,-0.0107799332143589,16.09033,75.02782,183.7654,0.5989881,-0.1307614,0.7877749,8
12.04,-14.02073,1.369632,-24.80954,0.1298763016247484,-0.0389072158503432,-0.0197559099096551,19.67703,74.7828,183.9976,0.5932267,-0.156545,0.785964,8
12.06,-13.91079,1.544906,-24.7702,0.0860138389935565,-0.0243536468726568,-0.0295116450491352,23.26364,74.54777,184.2189,0.5868807,-0.1821662,0.7833741,8
12.08,-13.98025,1.160811,-24.79452,0.0404044599802477,-0.0111714494124765,-0.0402437371047343,21.57944,72.62438,184.091,0.5759603,-0.1715176,0.7950091,8
12.1,-13.87182,1.347751,-24.75726,-0.0134985778107037,-0.0262479094285529,-0.0520942308348653,25.11511,72.33188,184.1488,0.5692779,-0.1962608,0.7921268,8
12.12,-13.76437,1.531457,-24.72003,-0.0663309604207535,-0.0371889680975272,-0.0638096151088873,28.64997,72.03442,184.1878,0.5620527,-0.220808,0.7884845,8
12.14,-13.80617,1.132791,-24.73058,-0.1183651619563019,-0.0471862032293788,-0.0755513535317224,28.03366,69.25034,183.932,0.5441247,-0.2181043,0.8026367,8
12.16,-13.701,1.327254,-24.69442,-0.1633481680239226,-0.0569298586057665,-0.0844739074090585,31.50898,68.8585,183.7763,0.5364745,-0.2417603,0.7984667,8
12.18,-13.59635,1.518667,-24.65814,-0.2057953185356753,-0.0626248820487177,-0.0928819175418644,34.98218,68.43961,183.5854,0.5283303,-0.2651844,0.7935559,8
12.2,-13.49241,1.707062,-24.62182,-0.2459542230612046,-0.0675868320415457,-0.1009197555918008,38.45305,67.98694,183.3533,0.5196998,-0.2883554,0.7879092,8
12.22,-13.56771,1.118777,-24.64791,-0.2906958080421133,-0.1587458045921451,-0.1133110409796338,37.39713,66.04232,182.9953,0.5089837,-0.2822034,0.7985083,8
12.24,-13.46483,1.317577,-24.61284,-0.3017277732317918,-0.1341624234956105,-0.1146522359215089,40.80505,65.46336,182.5741,0.5000704,-0.3045669,0.792475,8
12.26,-13.36221,1.513458,-24.57757,-0.3090146528049826,-0.1080997361589142,-0.1152272774348142,44.20832,64.81747,182.0815,0.4907113,-0.3266498,0.7857294,8
12.28,-13.32516,1.114547,-24.58329,-0.3127961074210428,-0.0838940620792282,-0.1151826087760676,44.69518,66.04533,181.1067,0.5009381,-0.3236541,0.7774473,8
12.3,-13.22396,1.315151,-24.54915,-0.3119289344387783,-0.087617826203214,-0.1132187410586431,48.04848,65.38758,180.6296,0.4914681,-0.3453278,0.7698638,8
12.32,-13.12291,1.512935,-24.51478,-0.3066556077914417,-0.0880852964225378,-0.1100749526649553,51.3965,64.63857,180.057,0.4815739,-0.3666938,0.7616104,8
12.34,-13.00443,1.107192,-24.48497,-0.2971932107522117,-0.0887108900784173,-0.1058774900860468,53.31254,63.88204,177.6606,0.480489,-0.3709791,0.7533964,8
12.36,-12.90526,1.305662,-24.45176,-0.2636828996411593,-0.0879546463786634,-0.0938273401824227,56.59433,62.8988,176.8402,0.4703724,-0.3915883,0.7440518,8
12.38,-12.80636,1.501435,-24.41837,-0.2271490084165375,-0.0851121208354175,-0.0810492516939467,59.86536,61.72735,175.8286,0.4598636,-0.4118577,0.7340826,8
12.4,-12.70788,1.694528,-24.38486,-0.1878190724817923,-0.0835290122675647,-0.0676773008495223,63.12264,60.2994,174.5577,0.4489714,-0.4317737,0.7234962,8
12.42,-12.54165,1.109119,-24.33749,-0.1244038907580231,-0.1608773064059453,-0.0479842121803146,62.64686,55.02375,167.8305,0.4412553,-0.4166537,0.7279204,8
12.44,-12.44435,1.297882,-24.30425,-0.0619861033482245,-0.1223385277422426,-0.0270562001900915,65.75489,52.63638,165.5241,0.4306819,-0.4357867,0.7164605,8
12.46,-12.34785,1.484057,-24.27102,0.0015935710669452,-0.084263650380148,-0.0057074222512025,68.81097,49.57893,162.5465,0.4197608,-0.4545549,0.7044174,8
12.48,-12.13136,1.161684,-24.20617,0.0661255701834582,-0.0498141036550573,0.0159125658470014,55.77768,53.36994,168.7497,0.4359811,-0.3770173,0.7653235,8
12.5,-12.03369,1.341539,-24.17012,0.1185413437425249,-0.0312558119892254,0.030185033356465,58.83399,51.47722,166.8687,0.4263828,-0.3962772,0.7551104,8
12.52,-11.93729,1.518743,-24.13425,0.1712708607833065,-0.0116207242086032,0.0446404360640402,61.85052,49.18931,164.5922,0.4164489,-0.4152154,0.7442978,8
12.54,-11.73712,1.228708,-24.10311,0.2240804756396969,0.0059783478916406,0.0590858783238368,37.81698,62.0938,174.7254,0.5001671,-0.2548904,0.8019646,8
12.56,-11.63143,1.400703,-24.06281,0.2584474866126196,0.0902388118877858,0.0694336638162673,41.15503,61.3648,174.064,0.492732,-0.27713,0.794772,8
12.58,-11.52752,1.569568,-24.02284,0.2957310438375464,0.0818291499621391,0.0703844462160363,44.48498,60.54196,173.3067,0.4848695,-0.2991207,0.7868848,8
12.6,-11.42555,1.735401,-23.98327,0.3330041611835429,0.07271312445325,0.0709842594812237,47.80639,59.60286,172.4314,0.4765845,-0.3208519,0.7783062,8
12.62,-11.29182,1.268298,-23.99302,0.369940913196813,0.0598047482358445,0.0710017652294907,8.116065,70.07828,177.5522,0.5738035,-0.04569507,0.8156533,8
12.64,-11.17825,1.435652,-23.9516,0.4057527489777423,0.0678792816172244,0.0754710779517311,11.65081,69.75631,177.4651,0.5705827,-0.070662,0.8146501,8
12.66,-11.06684,1.599427,-23.91059,0.43880270217407,0.0764607002673707,0.0790514494097722,15.18474,69.42433,177.3563,0.5668171,-0.09555905,0.8128642,8
12.68,-10.95779,1.759769,-23.87006,0.4686571101734043,0.082674133146924,0.0814834950129732,18.71698,69.0793,177.2238,0.5625108,-0.1203573,0.8102986,8
12.7,-10.91709,1.285414,-23.88309,0.4977862548411343,0.1548523386316666,0.0896560809751507,353.3095,73.50504,178.7021,0.5967724,0.05351599,0.8002065,8
12.72,-10.80153,1.449043,-23.84017,0.5108621813658142,0.1342121170138424,0.0890658786082614,356.8833,73.18707,178.8444,0.5956632,0.02784287,0.8027104,8
12.74,-10.68838,1.608962,-23.79775,0.520553043284653,0.1126858366302365,0.0880960354788844,0.4567661,72.87875,178.9667,0.593972,0.002149515,0.8044254,8
12.76,-10.60867,1.28282,-23.79259,0.5234211845533588,0.1578437623314293,0.0894575359921558,353.7811,74.46252,179.7423,0.6040442,0.044547,0.7950996,8
12.78,-10.49414,1.444943,-23.74782,0.5048616003253618,0.1272066735511638,0.079628439147549,357.3434,74.1376,180.0013,0.6026118,0.01848922,0.7976978,8
12.8,-10.3821,1.603378,-23.70361,0.4818976927695446,0.0970765113344861,0.0686841825288531,0.9061443,73.82938,180.2398,0.600592,-0.007579359,0.7995139,8
12.82,-10.34583,1.250445,-23.71617,0.454164540670761,0.0646593169594224,0.0563605623884249,359.4002,75.0503,181.3604,0.6091077,-0.003079626,0.7929815,8
12.84,-10.23183,1.415277,-23.67312,0.4300488370387073,0.0538823597948308,0.0476494996773824,2.98657,74.75182,181.6234,0.6064814,-0.02930369,0.7945445,8
12.86,-10.12016,1.576485,-23.63057,0.4027525308518173,0.044937269140706,0.0378503681365822,6.573502,74.46861,181.8687,0.603256,-0.05549163,0.7953182,8
12.88,-10.01104,1.734226,-23.5886,0.3718770720038022,0.034979071065044,0.0266960905157747,10.16055,74.19868,182.0983,0.5994353,-0.081617,0.7953025,8
12.9,-10.08796,1.232101,-23.6289,0.3508435105379791,0.0966833215871829,0.0237600553360066,8.248831,75.2774,182.8686,0.6074821,-0.07218215,0.7906784,8
12.92,-9.973096,1.40093,-23.58678,0.2914400411219221,0.0588397035303457,0.0068296424203388,11.88228,75.02061,183.1315,0.6031639,-0.09862355,0.7904106,8
12.94,-9.860364,1.566102,-23.54507,0.2299375251364309,0.0231898268065221,-0.0110491780145376,15.5158,74.77739,183.3814,0.598235,-0.1249571,0.7893379,8
12.96,-9.912911,1.199635,-23.57019,0.1841118902885178,0.0625181592685528,-0.021868295905786,14.77003,75.64526,183.6584,0.6045815,-0.1208925,0.7854773,8
12.98,-9.800287,1.376229,-23.53105,0.1101493644813931,0.0231798900904051,-0.0425080966077127,18.36925,75.41373,183.9048,0.5991275,-0.1467778,0.7838798,8
13.0,-9.6893,1.549337,-23.49215,0.0349677908128567,-0.0131899584021531,-0.0639884499543099,21.96835,75.19375,184.1413,0.593079,-0.1725092,0.7814999,8
13.02,-9.728603,1.168267,-23.50641,-0.0417051276497582,-0.0495990406581817,-0.0864802222611973,20.14956,73.91798,184.0596,0.5866499,-0.1606626,0.7899764,8
13.04,-9.618996,1.353068,-23.4697,-0.1057373251013891,-0.0649936599602036,-0.1020862563083557,23.69895,73.65866,184.1709,0.5802901,-0.1856,0.7873284,8
13.06,-9.510504,1.534584,-23.43306,-0.1690236742674506,-0.0760792582116337,-0.1177289450775127,27.24774,73.39961,184.2676,0.5733727,-0.2103506,0.7839191,8
13.08,-9.40332,1.71289,-23.39656,-0.2318255537986556,-0.0859900894146854,-0.1335613090106453,30.79551,73.13865,184.3487,0.5659052,-0.2348873,0.7797532,8
13.1,-9.528463,1.139094,-23.43623,-0.2677242713974463,-0.0143952659688899,-0.1402201168103563,26.30156,70.64754,183.9621,0.5562794,-0.204981,0.7985734,8
13.12,-9.42217,1.331799,-23.40074,-0.3325673371146611,-0.0538225981367171,-0.1555370160045401,29.7929,70.30292,183.8667,0.5489826,-0.2288425,0.7946976,8
13.14,-9.316508,1.521408,-23.36517,-0.3944896503340065,-0.0899476582155408,-0.1702522959277441,33.28223,69.93866,183.7428,0.541177,-0.2524808,0.7900792,8
13.16,-9.332059,1.121829,-23.36832,-0.4314839013582106,-0.0391596111641183,-0.1773401115054467,34.72114,67.25599,183.2487,0.5213156,-0.263333,0.799085,8
13.18,-9.228291,1.319797,-23.33388,-0.4767962650617654,-0.0726778551644193,-0.1892422186207754,38.14642,66.74809,182.8968,0.5128391,-0.2859442,0.7935436,8
13.2,-9.124833,1.514812,-23.29926,-0.517913757307857,-0.1033930351918439,-0.2003307218171994,41.56794,66.18651,182.4865,0.5039017,-0.3082894,0.7872838,8
13.22,-9.068792,1.115051,-23.29691,-0.5550385673902616,-0.1346807057921437,-0.2107252792626526,43.28107,66.65357,181.7324,0.5059719,-0.3158215,0.779632,8
13.24,-8.966755,1.315372,-23.26365,-0.561606214988844,-0.0538011859155414,-0.211185528028833,46.64852,66.02607,181.2663,0.4966066,-0.3375176,0.7723565,8
13.26,-8.864884,1.512844,-23.23019,-0.5678462333367911,-0.087185535144297,-0.2137789489928718,50.01096,65.31364,180.7112,0.4868093,-0.3589111,0.7644036,8
13.28,-8.763345,1.707479,-23.19658,-0.5691054642284692,-0.1183868899742399,-0.2152728833662966,53.3672,64.49219,180.0435,0.4765889,-0.3799827,0.7557815,8
13.3,-8.740541,1.110007,-23.19994,-0.5557981366082456,-0.0620219895778602,-0.209615462113057,50.68309,65.01284,178.7136,0.4897034,-0.3554822,0.7595496,8
13.32,-8.640521,1.309496,-23.16724,-0.518623483249135,-0.0908049754435525,-0.1981037375539709,53.98394,64.16574,178.0186,0.4798659,-0.376311,0.7507058,8
13.34,-8.540709,1.506252,-23.13435,-0.4777224217837859,-0.1187900920020379,-0.18572077624244,57.2766,63.17075,177.1727,0.4696247,-0.3968135,0.7412258,8
13.36,-8.327317,1.104461,-23.07405,-0.435957679404375,-0.0592112121266136,-0.1718779984752427,61.22046,59.10265,171.1954,0.4572245,-0.4090666,0.7272069,8
13.38,-8.229364,1.295688,-23.04201,-0.3908486459996162,-0.0011291884473752,-0.1571472749745313,64.39933,57.24674,169.4422,0.4466857,-0.4284683,0.7161444,8
13.4,-8.132067,1.484313,-23.00993,-0.332170141341634,-0.0480763297920066,-0.1395324466727916,67.54556,54.89309,167.1897,0.4357832,-0.4475075,0.7044958,8
13.42,-7.883412,1.144242,-22.93639,-0.270757486655277,-0.0967478627362792,-0.1210602059592509,58.3944,53.4703,167.7829,0.4368403,-0.3914044,0.7518452,8
13.44,-7.785688,1.32627,-22.90209,-0.2170583913888165,-0.0340372613791685,-0.1039359678358389,61.4471,51.34372,165.6671,0.4269464,-0.4104093,0.7411231,8
13.46,-7.689108,1.505676,-22.86791,-0.1468565743481978,-0.0393874987729818,-0.085442374615885,64.45263,48.72639,163.0601,0.4167145,-0.4290789,0.7298096,8
13.48,-7.59381,1.682527,-22.83391,-0.0747795404883467,-0.0453575021982239,-0.0660656453952608,67.39257,45.43652,159.7803,0.4061555,-0.4473992,0.7179142,8
13.5,-7.454268,1.211946,-22.81389,-0.0191933462892652,0.020794428557387,-0.0507265009725781,43.07926,60.90329,173.9443,0.4874772,-0.291157,0.7909065,8
13.52,-7.351943,1.386214,-22.77585,0.0451538299760322,0.0184296080947585,-0.0404759562150625,46.31335,60.02469,173.1132,0.4795104,-0.3122824,0.7829018,8
13.54,-7.251216,1.557565,-22.73809,0.1109507253423198,0.0152104396901979,-0.0298235665900619,49.53643,59.01783,172.1525,0.4711496,-0.3331427,0.7742491,8
13.56,-7.152238,1.72609,-22.70068,0.1620960346190803,0.0777206108101095,-0.0183037415635647,52.74642,57.85002,171.0298,0.462402,-0.3537252,0.7649541,8
13.58,-7.01965,1.263691,-22.72206,0.2113026699599273,0.1373133776538986,-0.007502052314106,13.90569,69.33543,177.1652,0.5669233,-0.0855642,0.8144636,8
13.6,-6.906126,1.431598,-22.68187,0.2469942855520878,0.1015817736825353,-0.0062298188657758,17.43089,68.99796,176.9992,0.5629296,-0.110177,0.8120938,8
13.62,-6.794701,1.595941,-22.64206,0.2823448416527991,0.0642695437159631,-0.0053951682961859,20.95601,68.64238,176.8068,0.5583991,-0.1346889,0.8089461,8
13.64,-6.682452,1.27929,-22.63173,0.3119368385452266,0.1168894059591847,0.0021098174965108,354.4666,73.9536,178.4006,0.6001938,0.04694302,0.7982755,8
13.66,-6.56672,1.444249,-22.59141,0.3386432628712387,0.1002622966463105,0.005382174143929,358.0305,73.65504,178.5047,0.5990893,0.0215756,0.8003918,8
13.68,-6.45331,1.605538,-22.55153,0.3623990931087367,0.0827545189125139,0.008317738117213,1.594033,73.36331,178.5901,0.5974028,-0.00380565,0.8017266,8
13.7,-6.342433,1.763312,-22.51217,0.3827735810143944,0.0615076023590627,0.0106485120284238,5.156878,73.07613,178.6576,0.5951366,-0.02917592,0.8022794,8
13.72,-6.311246,1.296037,-22.52577,0.4092487714803123,0.1284482527062253,0.0200652543879713,353.4617,74.93028,179.4844,0.607079,0.0479954,0.7925802,8
13.74,-6.194816,1.457001,-22.48201,0.4161427653628326,0.0964558586638498,0.0184441833716628,357.0422,74.61931,179.7304,0.6058706,0.02195281,0.795141,8
13.76,-6.080955,1.614192,-22.43882,0.4193457318045183,0.0647897765502136,0.0161121020767307,0.622986,74.32441,179.9566,0.6040663,-0.004104022,0.7969156,8
13.78,-6.081149,1.254728,-22.46593,0.4231216578836885,0.1030197785052915,0.0183212618847616,357.4167,75.66132,181.132,0.6133201,0.01174574,0.7894513,8
13.8,-5.967282,1.419198,-22.42445,0.4217806034469873,0.1388945983973326,0.0191132991124862,0.9751529,75.36797,181.3912,0.6111571,-0.01415538,0.7913707,8
13.82,-5.855755,1.580085,-22.38346,0.3894391683611475,0.0773740462564532,0.0072288862279843,4.533798,75.09019,181.6329,0.6084002,-0.04003505,0.7925167,8
13.84,-5.838665,1.237789,-22.39073,0.3654892303633338,0.0923279607227125,0.0026857757204812,6.156071,76.24072,182.5782,0.6153185,-0.05610086,0.7861278,8
13.86,-5.722788,1.40503,-22.34989,0.3381693000264731,0.1071956836457767,-0.0027060050338501,9.792855,75.9904,182.8559,0.6114823,-0.08252852,0.7862521,8
13.88,-5.609138,1.568586,-22.30947,0.2831214538083653,0.0457199316730918,-0.0179392933541158,13.42973,75.7552,183.1208,0.6070257,-0.1088646,0.785574,8
13.9,-5.497927,1.728599,-22.26957,0.2260890867224178,-0.0143909893847495,-0.0342086233139529,17.0673,75.53368,183.3745,0.6019527,-0.1350861,0.7840948,8
13.92,-5.626498,1.208736,-22.31959,0.194302608788483,0.0224167906793788,-0.0394574905764706,13.44215,76.44732,183.5348,0.6113528,-0.1108516,0.782065,8
13.94,-5.512503,1.38324,-22.2814,0.1371646032974545,-0.0192406446244033,-0.0531852245720325,17.05374,76.22677,183.7899,0.6062059,-0.1367805,0.7806949,8
13.96,-5.400278,1.554203,-22.24347,0.0788250624615687,-0.057720664528165,-0.0678417227747001,20.66517,76.01886,184.0357,0.6004535,-0.1625641,0.7785407,8
13.98,-5.469659,1.175779,-22.26906,0.0434736814925046,-0.0167876792536234,-0.0736372152308537,18.73797,75.63296,184.0478,0.6000363,-0.1498868,0.7824796,8
14.0,-5.358636,1.35853,-22.23364,0.0071685155447049,0.0233079597220401,-0.0798681778473691,22.30015,75.4052,184.2162,0.5939849,-0.1749692,0.7800863,8
14.02,-5.248856,1.537945,-22.19832,-0.0655886056014602,-0.0451760401628159,-0.0971008679924896,25.86185,75.18292,184.3736,0.5873582,-0.1998737,0.7769328,8
14.04,-5.300383,1.145525,-22.2121,-0.1152212886527691,-0.0283897415443754,-0.1066768061688221,24.59878,72.61292,184.0443,0.5720965,-0.1919712,0.7913257,8
14.06,-5.192642,1.33648,-22.17822,-0.1632469005743408,-0.0099926020588676,-0.1159581332164365,28.1057,72.313,184.0129,0.5651207,-0.2159706,0.7877802,8
14.08,-5.085636,1.524292,-22.14431,-0.2309550413084793,-0.0756948013764595,-0.1306451613138834,31.61098,72.0004,183.9588,0.5576165,-0.2397568,0.7834931,8
14.1,-4.979542,1.709009,-22.11042,-0.2964324499488446,-0.1388725640984783,-0.1451225933517932,35.11495,71.67123,183.8793,0.5495908,-0.2633103,0.7784684,8
14.12,-5.088404,1.124897,-22.13999,-0.3252208270846979,-0.0904375077430411,-0.1481070205780486,32.08048,68.71437,183.5251,0.5351065,-0.2446799,0.7978166,8
14.14,-4.983564,1.322047,-22.10679,-0.3504047217791536,-0.0424459355704035,-0.1503552716738658,35.52178,68.26588,183.231,0.5270404,-0.2674621,0.7927984,8
14.16,-4.879078,1.51621,-22.07345,-0.3857851555906755,-0.1084471764711941,-0.1583614112370139,38.95997,67.77405,182.8886,0.518497,-0.2899933,0.7870578,8
14.18,-4.860794,1.115613,-22.08038,-0.3992133763082587,-0.0845946939071184,-0.1599689723357871,41.852,67.68938,182.3558,0.5140011,-0.3072722,0.7796947,8
14.2,-4.757703,1.315633,-22.04875,-0.4078332992000478,-0.0591770201865752,-0.1605911773318427,45.2337,67.09292,181.9024,0.5047245,-0.3289367,0.7727663,8
14.22,-4.654793,1.512778,-22.01693,-0.4114897884412217,-0.119980070622975,-0.1616728891580852,48.61055,66.41762,181.3665,0.4950055,-0.3503036,0.7651554,8
14.24,-4.552227,1.707061,-21.98496,-0.4039827395181874,-0.090919414957178,-0.1572689533333404,51.98157,65.64185,180.7268,0.4848528,-0.3713544,0.756869,8
14.26,-4.483678,1.109995,-21.97632,-0.3920549678175614,-0.0606378660141621,-0.1518328903095605,50.68689,66.04079,178.7239,0.4964581,-0.3533975,0.7551357,8
14.28,-4.382881,1.309454,-21.94512,-0.3759422934990318,-0.0324968400897533,-0.1454850753452983,53.99639,65.21629,178.0399,0.4866332,-0.3741384,0.7462804,8
14.3,-4.28229,1.506164,-21.91373,-0.3487216709470712,-0.1210703698870525,-0.137605476991415,57.29807,64.24666,177.208,0.4763973,-0.394554,0.73679,8
14.32,-4.050364,1.104448,-21.85088,-0.3065201016796512,-0.0929103755895068,-0.123684172239586,61.21988,60.01799,171.2009,0.4630001,-0.4066128,0.7235489,8
14.34,-3.951803,1.295668,-21.82037,-0.2604998715569929,-0.0643947400168106,-0.108908578746488,64.40132,58.17758,169.4495,0.4524575,-0.4258766,0.7125044,8
14.36,-3.853894,1.48428,-21.78983,-0.1918436619683229,-0.1131895456253002,-0.0889281569464626,67.55038,55.84121,167.2009,0.4415463,-0.4447797,0.7008768,8
14.38,-3.756775,1.670322,-21.7593,-0.1377367879871,-0.0745098068347445,-0.0724021462643129,70.65239,52.77598,164.2222,0.4302755,-0.4633102,0.6886738,8
14.4,-3.586683,1.144205,-21.71382,-0.0821554812399367,-0.0357489944028427,-0.0554587683171363,58.40044,54.2879,167.7783,0.4422017,-0.3892699,0.7486721,8
14.42,-3.488396,1.326238,-21.681,-0.0080612609941098,-0.0665690137548641,-0.0367717748319589,61.4533,52.17384,165.6608,0.4323195,-0.4081266,0.737966,8
14.44,-3.39125,1.505644,-21.64829,0.0444708576760462,-0.0206399720500091,-0.0237016325807384,64.4593,49.57004,163.0533,0.4220951,-0.4266508,0.7266712,8
14.46,-3.190916,1.211891,-21.60971,0.0963734417850987,0.0247788827709407,-0.0108983156985078,43.09441,61.90174,173.946,0.4943262,-0.2892718,0.7865875,8
14.48,-3.087904,1.38615,-21.57345,0.1474077359897744,0.0666627266093527,0.0014542150999714,46.32936,61.04015,173.1197,0.4863904,-0.3102463,0.7785848,8
14.5,-2.986491,1.557491,-21.53746,0.1973599062853192,0.0869598795970663,0.0131746669852494,49.55355,60.05167,172.1654,0.4780548,-0.3309572,0.7699381,8
14.52,-2.824164,1.257194,-21.53653,0.2352282381656061,0.0986998229803274,0.0150837282511586,20.08078,68.60041,176.567,0.5589637,-0.1273375,0.8101368,8
14.54,-2.710153,1.42546,-21.49788,0.2729332179396961,0.1111862688550678,0.0166442158247472,23.61062,68.22112,176.2981,0.5541148,-0.1515702,0.8063158,8
14.56,-2.598226,1.590162,-21.45959,0.3100956350994447,0.1213993169731296,0.0176276965257491,27.13964,67.81203,175.9944,0.5487345,-0.1756622,0.8017184,8
14.58,-2.488604,1.751456,-21.42175,0.3438692646168616,0.0588707482396142,0.0128820966088278,30.66557,67.36739,175.6511,0.5428305,-0.1995786,0.7963519,8
14.6,-2.460665,1.275714,-21.44501,0.3725477669830771,0.0875342759858774,0.0163326472606804,358.4257,73.77596,178.1723,0.5999442,0.02055902,0.7997649,8
14.62,-2.344511,1.441473,-21.40648,0.3980568146910839,0.1149199260014798,0.0189836779262684,1.991169,73.49807,178.2183,0.5983649,-0.004619556,0.8008845,8
14.64,-2.230632,1.603571,-21.36835,0.4214315809898001,0.0721951392738055,0.0177204205325938,5.555792,73.22217,178.2471,0.5962048,-0.02978619,0.801223,8
14.66,-2.11365,1.293847,-21.35449,0.4413946698072309,0.0992232321744721,0.0203548758684677,352.8255,75.6564,179.2496,0.6117575,0.0534271,0.78854,8
14.68,-1.996295,1.455408,-21.31327,0.4566253104312449,0.12459954039353,0.0223097538234124,356.4111,75.35854,179.4695,0.6108197,0.02761101,0.7911367,8
14.7,-1.881483,1.613194,-21.27257,0.4666351691626771,0.1456064997702225,0.0233074760970661,-0.003190939,75.07529,179.6703,0.6092799,0.001774825,0.7929499,8
14.72,-1.769427,1.767376,-21.23248,0.4448722000487856,0.065851155389409,0.010587547336617,3.582415,74.80434,179.8537,0.6071403,-0.02405564,0.7939785,8
14.74,-1.761341,1.254713,-21.26278,0.4314192083718209,0.0778502762038307,0.0050523064910046,357.4157,76.49673,181.1352,0.6190592,0.01157788,0.7849582,8
14.76,-1.646794,1.419148,-21.22291,0.4134304175209845,0.0894931216705605,-0.0017512696404469,0.9759499,76.2169,181.3995,0.6170018,-0.0142377,0.7868211,8
14.78,-1.534592,1.579993,-21.18351,0.3744499074896653,0.0274489271311739,-0.0172170854967586,4.536469,75.95296,181.6472,0.6143439,-0.04003249,0.7879146,8
14.8,-1.424941,1.737404,-21.14466,0.3491643989773452,0.0427913479809126,-0.0235059182635342,8.097023,75.70301,181.88,0.6110891,-0.06578074,0.7882382,8
14.82,-1.498303,1.237788,-21.18409,0.3206746353250654,0.058090097930151,-0.0306244856314124,6.153763,77.03101,182.5784,0.6207265,-0.05597781,0.7818661,8
14.84,-1.381814,1.405023,-21.14492,0.2885457009396086,0.0705686966752326,-0.038820425442414,9.790696,76.79473,182.8576,0.616986,-0.08228982,0.7819421,8
14.86,-1.267553,1.568569,-21.10616,0.2368567303192286,0.055570504480228,-0.051186175723882,13.42766,76.57382,183.125,0.6126198,-0.1085103,0.7812207,8
14.88,-1.324967,1.208737,-21.12965,0.1829924719330616,0.0439144851090159,-0.0644179854839914,13.44019,77.417,183.5385,0.6179467,-0.1104456,0.7768665,8
14.9,-1.210317,1.383225,-21.09333,0.1265803068516003,0.0326788093998107,-0.0787109607552452,17.05179,77.21124,183.7986,0.6128821,-0.136244,0.7754647,8
14.92,-1.097436,1.554169,-21.05726,0.0457715267888224,-0.0588129651345821,-0.1004654465978891,20.66321,77.01876,184.0505,0.6072052,-0.1618981,0.7732844,8
14.94,-1.147656,1.175802,-21.07504,-0.0010253885437905,-0.0468004130512764,-0.1101138169175079,18.73359,76.5346,184.0475,0.6061797,-0.1492827,0.777738,8
14.96,-1.036041,1.358544,-21.0414,-0.0486723849067765,-0.0329904006679701,-0.1203159764824106,22.29579,76.32066,184.217,0.6002023,-0.1742229,0.7753218,8
14.98,-0.9256666,1.537946,-21.00785,-0.0974951184808379,-0.0203609371219583,-0.1312341188392096,25.85752,76.11266,184.3766,0.5936436,-0.198986,0.7721502,8
15.0,-0.8167309,1.714096,-20.97446,-0.1541589246458818,-0.0357786504238422,-0.1423468034943198,29.41836,75.90928,184.5262,0.5865111,-0.2235443,0.7682286,8
15.02,-0.9579749,1.145556,-21.01473,-0.2091024057144559,-0.0468683037067048,-0.1532090993184129,24.59258,73.47338,184.0437,0.5780316,-0.1911829,0.7870151,8
15.04,-0.8496982,1.336502,-20.98251,-0.2625981839230773,-0.0568212661645718,-0.1639535061406078,28.09929,73.1874,184.0129,0.5711251,-0.2150379,0.783455,8
15.06,-0.7421514,1.524305,-20.95024,-0.3083396073615517,-0.0663270145406669,-0.1717771320211869,31.60442,72.88931,183.9605,0.5636846,-0.2386811,0.7791574,8
15.08,-0.7838587,1.124905,-20.9572,-0.3508417598626549,-0.071590266536911,-0.1790232841063814,32.07263,69.73576,183.5292,0.5422,-0.2434641,0.7930344,8
15.1,-0.6784285,1.322038,-20.92577,-0.3903516948010584,-0.0759260187015048,-0.1858081739032266,35.51443,69.30338,183.24,0.5341882,-0.2660954,0.7880212,8
15.12,-0.5733482,1.516182,-20.89419,-0.4340966737664196,-0.1662543450806896,-0.1963552317500498,38.95324,68.82883,182.9041,0.5256929,-0.2884774,0.78229,8
15.14,-0.4687894,1.707359,-20.86252,-0.4428617293739375,-0.1406585130817269,-0.1971279820690439,42.3886,68.30225,182.5119,0.5167223,-0.3105899,0.7758467,8
15.16,-0.4604751,1.115041,-20.87567,-0.4471249008324491,-0.1133892573154881,-0.1970898880255327,43.28324,68.57654,181.7418,0.5189531,-0.3126315,0.7710421,8
15.18,-0.3571298,1.31533,-20.84556,-0.4471241776462133,-0.0877824877578905,-0.1963602616648327,46.659,67.98347,181.2854,0.5096495,-0.3340839,0.7637674,8
15.2,-0.2539431,1.512753,-20.81526,-0.4302360912147929,0.0065764168361679,-0.1890053097219093,50.03003,67.3084,180.7437,0.4999007,-0.3552356,0.7558209,8
15.22,-0.1481978,1.11001,-20.79408,-0.4214569274032291,-0.0264845518820629,-0.1858050348114841,50.67412,67.00956,178.7227,0.5028533,-0.3512523,0.7509494,8
15.24,-0.0469872,1.309487,-20.76471,-0.407597779885129,-0.0574376048972468,-0.1815142502219098,53.97807,66.19647,178.0363,0.4930482,-0.371787,0.7421444,8
15.26,0.05402615,1.50622,-20.73517,-0.3888549561838655,-0.0896965522083112,-0.176233678475401,57.27422,65.23927,177.2032,0.4828282,-0.3919991,0.7327104,8
15.28,0.15469,1.700224,-20.70549,-0.3424346659266987,-0.0910756754147494,-0.1635144171146549,60.56028,64.08952,176.1752,0.4722023,-0.4118724,0.7226559,8
15.3,0.3054402,1.104452,-20.67046,-0.2922634167558241,-0.0903744861067841,-0.1500633618435221,61.21619,60.94442,171.2023,0.4688361,-0.4040658,0.7198011,8
15.32,0.4044843,1.295684,-20.64162,-0.2385731928633773,-0.0909088448539089,-0.135986553820044,64.39574,59.11766,169.451,0.4582914,-0.4231575,0.7087973,8
15.34,0.5028822,1.484307,-20.61275,-0.1820653716972087,-0.0781008532609189,-0.123700426292403,67.54325,56.79731,167.2051,0.4473739,-0.4418919,0.6972139,8
15.36,0.7352365,1.144162,-20.55223,-0.1240947955376683,-0.0636372416227709,-0.1110452695717141,58.40675,55.40704,167.7818,0.4494728,-0.3863394,0.7443009,8
15.38,0.8341619,1.326189,-20.52129,-0.0648826577776484,-0.050705622675608,-0.0981300857060989,61.46076,53.31258,165.6718,0.439584,-0.4050276,0.7336319,8
15.4,0.9319476,1.505588,-20.49046,-0.0046326996936153,-0.0424449382405188,-0.0850678485857718,64.46848,50.73098,163.0746,0.4293474,-0.4233853,0.7223782,8
15.42,1.150445,1.211867,-20.44945,0.0484249784057014,-0.0254748458857642,-0.0808871909426338,43.10221,62.93541,173.9446,0.5013945,-0.2872273,0.7820707,8
15.44,1.254152,1.386128,-20.41514,0.1029142082924112,-0.0074698571801546,-0.0764426859552873,46.33709,62.08723,173.1189,0.4934759,-0.3080273,0.7740814,8
15.46,1.35626,1.557469,-20.38108,0.1585344880716603,0.0084702791235972,-0.0718916317636457,49.56134,61.11306,172.1664,0.4851522,-0.3285657,0.7654525,8
15.48,1.456616,1.72598,-20.34732,0.1993378953098536,0.0898945832330482,-0.0682947929249726,52.77301,59.98087,171.0553,0.4764306,-0.3488307,0.7561895,8
15.5,1.555068,1.785111,-20.31393,0.2360915024595272,0.0783537758113579,-0.0763274665521271,55.96807,58.64634,169.7413,0.4673184,-0.3688007,0.7463027,8
15.52,1.623416,1.263671,-20.35924,0.273418152273274,0.0664485212082277,-0.0847730147049099,13.93027,71.20066,177.1613,0.5800967,-0.08425765,0.8051008,8
15.54,1.738317,1.431581,-20.32301,0.301539840480051,0.1214732454110892,-0.0885806027738045,17.45528,70.89016,176.9953,0.5762513,-0.1085454,0.8026548,8
15.56,1.851118,1.595923,-20.28712,0.3253247307951683,0.1068539037224941,-0.0988872185296521,20.98031,70.56212,176.8047,0.5718572,-0.132734,0.7994408,8
15.58,1.943966,1.279273,-20.28651,0.3469442130874699,0.0918656204852608,-0.1099173246813185,354.4817,75.94406,178.4022,0.6139746,0.04651269,0.7877338,8
15.6,2.061127,1.444227,-20.25038,0.3659449091236492,0.0736291195650372,-0.1218385893377784,358.0456,75.67227,178.51,0.6130891,0.02144282,0.7897227,8
15.62,2.17596,1.605507,-20.21464,0.3904553971812862,0.076238564204533,-0.1312461457416249,1.60886,75.40752,178.6009,0.6116087,-0.003640737,0.7909417,8
15.64,2.298858,1.29602,-20.19968,0.4117656486333206,0.0793754631314331,-0.1410355061739636,353.4589,77.03396,179.4865,0.621526,0.04742357,0.7813007,8
15.66,2.416915,1.456974,-20.16035,0.4293860550385887,0.080230520538944,-0.1513959157157707,357.0393,76.74921,179.7373,0.6205452,0.0216755,0.783742,8
15.68,2.532393,1.614153,-20.12153,0.4420316488940781,0.1463118119633482,-0.1589429708210636,0.6198915,76.48074,179.97,0.6189541,-0.004086614,0.7854087,8
15.7,2.645076,1.767726,-20.08329,0.4235534396867895,0.1146733731337427,-0.1789642513614517,4.200485,76.22641,180.1863,0.616755,-0.02983736,0.7863002,8
15.72,2.570052,1.254758,-20.13408,0.4017569362657243,0.0839143681641413,-0.2000474813292281,357.4105,77.63704,181.1291,0.6268387,0.01142958,0.7787592,8
15.74,2.685399,1.419226,-20.09679,0.3762319920479876,0.0512371839123055,-0.2223561993512341,0.9686111,77.37044,181.3893,0.6248931,-0.01417484,0.7805706,8
15.76,2.7984,1.580109,-20.05992,0.3617665828043057,0.113426002936985,-0.2355868627944959,4.526885,77.11951,181.6335,0.6223407,-0.03975816,0.78162,8
15.78,2.795408,1.237795,-20.07396,0.3166132912172784,0.0779806105393766,-0.2585793844909996,6.147829,78.33688,182.5789,0.6295984,-0.05575642,0.7747433,8
15.8,2.912782,1.405026,-20.03749,0.2693315986205286,0.0442467135917163,-0.2825741606105323,9.784145,78.11384,182.8608,0.6259481,-0.08187184,0.774792,8
15.82,3.027924,1.568568,-20.00139,0.219531870905022,0.0093282866262311,-0.3076993764445217,13.42046,77.90651,183.1318,0.6216633,-0.1078965,0.7740512,8
15.84,3.140621,1.728564,-19.96575,0.1689875835336608,-0.007256232733758,-0.3287173563121772,17.05735,77.71374,183.3935,0.6167478,-0.1338075,0.7725219,8
15.86,3.043296,1.199616,-20.00144,0.1170231666079416,-0.0201125483481869,-0.3507249545591491,14.76939,78.72565,183.6686,0.6254653,-0.1194549,0.7689489,8
15.88,3.158108,1.376125,-19.96823,0.0632691571678577,-0.032172549379701,-0.3738260799201351,18.37366,78.53882,183.9288,0.6202445,-0.1449472,0.7672629,8
15.9,3.271277,1.549131,-19.9352,0.032778506824969,0.0316715556475938,-0.3888532394036472,21.97763,78.36549,184.1823,0.614407,-0.1702872,0.7648101,8
15.92,3.230419,1.168294,-19.94638,-0.0371219345455766,-0.0098833737459744,-0.4110701586969436,20.14266,77.03128,184.0641,0.6078953,-0.1584828,0.7737584,8
15.94,3.342012,1.353055,-19.91562,-0.1063825124066324,-0.0480595337663177,-0.4338201264407373,23.69366,76.81553,184.1833,0.6017445,-0.1829566,0.7710625,8
15.96,3.452494,1.534521,-19.8849,-0.1511202760702219,-0.0040423968441732,-0.4491417565477786,27.24401,76.60187,184.2912,0.5950156,-0.2072465,0.7676215,8
15.98,3.561668,1.712769,-19.85429,-0.2204178724075467,-0.0425612695195617,-0.4680078607481457,30.79327,76.38863,184.387,0.5877159,-0.2313251,0.7634407,8
16.0,3.433658,1.139129,-19.8861,-0.2874658882728347,-0.0774634515995638,-0.4868531427635183,26.29026,73.80936,183.9658,0.5781087,-0.2019762,0.782942,8
16.02,3.541858,1.331805,-19.85642,-0.3525185332532212,-0.1119646180497344,-0.5057371810816886,29.78233,73.50842,183.8772,0.5709911,-0.2253426,0.7790607,8
16.04,3.649441,1.521378,-19.82668,-0.3785241581689555,-0.0379917176471863,-0.5137005462360165,33.27252,73.18989,183.7634,0.5633445,-0.2484894,0.7744528,8
16.06,3.632976,1.121842,-19.82811,-0.4220329810258465,-0.0760800955026762,-0.5249569745630343,34.70472,70.44164,183.253,0.543344,-0.2591754,0.7843237,8
16.08,3.738598,1.31979,-19.79936,-0.4612595601500793,-0.1107984499194999,-0.5357356415216739,38.13061,69.97791,182.9074,0.5350013,-0.2812716,0.7788261,8
16.1,3.843927,1.514778,-19.77045,-0.4741754225829968,-0.057855625083046,-0.5402081987145761,41.55304,69.46323,182.5073,0.5261785,-0.3031071,0.772625,8
16.12,3.899336,1.115049,-19.77047,-0.488308092333432,-0.089099421307331,-0.5468430418105465,43.27287,69.85808,181.7387,0.5275723,-0.3103361,0.7652116,8
16.14,4.003163,1.315355,-19.74284,-0.4973621802936425,-0.117599712170226,-0.5524787875667401,46.64086,69.27531,181.2788,0.5182834,-0.3315141,0.7580117,8
16.16,4.106842,1.512807,-19.71503,-0.50155154671888,-0.1467589680444147,-0.5571941274616576,50.00417,68.61115,180.7345,0.508544,-0.3523951,0.7501485,8
16.18,4.210207,1.707414,-19.68708,-0.4867477813809127,-0.0628360672734677,-0.5543414469908705,53.36172,67.84272,180.0832,0.4983631,-0.3729611,0.7416298,8
16.2,4.313098,1.792536,-19.65903,-0.4728622467552212,-0.0940419364326295,-0.5501685119932018,56.71208,66.93818,179.2933,0.4877501,-0.3931943,0.7324634,8
16.22,4.32546,1.10718,-19.66796,-0.4538318937984655,-0.1234749026875648,-0.5445882460854179,53.30199,67.79568,177.6866,0.5058739,-0.3621774,0.7366457,8
16.24,4.426986,1.305602,-19.64108,-0.4303191281087213,-0.0649211146417102,-0.5363095727012257,56.59457,66.88839,176.8919,0.495814,-0.3822494,0.7273538,8
16.26,4.528264,1.501302,-19.61404,-0.4019625064028791,-0.0072204263547201,-0.5265639762112562,59.87784,65.80262,175.9165,0.4853388,-0.4019921,0.7174482,8
16.28,4.756158,1.109017,-19.5654,-0.3525562708507239,-0.0588021409225227,-0.510053762939791,62.6431,59.70326,167.8926,0.4703921,-0.403509,0.7094976,8
16.3,4.855963,1.297726,-19.53968,-0.2996770084499158,-0.1116134301896583,-0.4921544270324811,65.76128,57.41648,165.6375,0.4597586,-0.4219936,0.6981951,8
16.32,4.954989,1.483836,-19.51394,-0.2511569690759163,-0.0508868523633986,-0.4737903419089608,68.83057,54.47736,162.7295,0.448753,-0.4401239,0.6863263,8
16.34,5.18945,1.161474,-19.47132,-0.1872077462324635,-0.0590878444500425,-0.453998555191724,55.80569,58.69048,168.7706,0.4709291,-0.3635943,0.7442091,8
16.36,5.290147,1.341279,-19.44417,-0.1208646980955649,-0.067604856288291,-0.4330458511263502,58.86988,56.88228,166.9262,0.4612754,-0.3820933,0.7341776,8
16.38,5.389582,1.518423,-19.41711,-0.0725929810637973,-0.000678284219319,-0.4158145094884675,61.89674,54.68935,164.6975,0.4512588,-0.4002828,0.7235649,8
16.4,5.487613,1.692982,-19.39021,-0.0239356652408575,0.0644942658455122,-0.3982871233974867,64.87291,51.98088,161.9535,0.4408893,-0.4181476,0.7123806,8
16.42,5.605604,1.228488,-19.41067,0.0213779869981389,0.0352178454279129,-0.3995757848164674,37.87121,67.86731,174.7357,0.5398305,-0.2447041,0.7756383,8
16.44,5.714892,1.400462,-19.38113,0.0516726192026344,0.0746698585332799,-0.4022349553594666,41.21106,67.20607,174.096,0.5324381,-0.2660544,0.7685432,8
16.46,5.822394,1.5693,-19.35179,0.0824911677050979,0.1132668461875005,-0.4054631171248011,44.54368,66.45626,173.3671,0.5245844,-0.2871664,0.7607787,8
16.48,5.927943,1.7351,-19.32271,0.1133815157347433,0.148065185416055,-0.4093762400190575,47.86884,65.5966,172.5275,0.5162739,-0.3080291,0.7523484,8
16.5,6.01405,1.268217,-19.37024,0.1341171495493971,0.0873590966746852,-0.4411363889065884,8.16982,76.76382,177.5696,0.6203679,-0.04269345,0.7807844,8
16.52,6.131706,1.435529,-19.34207,0.1564896351703049,0.0399140430316823,-0.4743744528614688,11.70459,76.50008,177.5066,0.6174642,-0.06665578,0.7796651,8
16.54,6.247192,1.599254,-19.31411,0.1843200685277284,0.0903068523868632,-0.4972975607062402,15.23879,76.22859,177.4256,0.6139716,-0.09055132,0.7777991,8
16.56,6.351852,1.285319,-19.32583,0.2070651740205635,0.0716742133376927,-0.5406437725404398,353.3178,80.9612,178.7205,0.6475518,0.05156333,0.7597082,8
16.58,6.472062,1.44891,-19.29806,0.2288131187464843,0.0522995274396351,-0.5854895329588805,356.8906,80.69495,178.8861,0.6469516,0.02696793,0.7619863,8
16.6,6.589834,1.608783,-19.27053,0.2516962649422973,0.1009631626209713,-0.6264942573605135,0.4630255,80.43968,179.0349,0.6457199,0.002353095,0.7635173,8
16.62,6.68134,1.282901,-19.28236,0.2578308373943816,0.0749815313624702,-0.6821975861171472,353.7773,82.45381,179.7571,0.6579832,0.04221665,0.751071,8
16.64,6.801076,1.444976,-19.25387,0.2616317273063251,0.0492130911260993,-0.7395079208056665,357.3384,82.18089,180.0357,0.6570777,0.01729892,0.7534651,8
16.66,6.918288,1.603356,-19.22565,0.2610619024768785,0.0909284020632471,-0.7952072254591465,0.8998134,81.92577,180.297,0.6555323,-0.007628645,0.7551219,8
16.68,7.032759,1.758205,-19.19778,0.2559402017573893,0.1304099097799822,-0.8526778688684309,4.461267,81.68645,180.5431,0.653349,-0.03254172,0.7560408,8
16.7,6.965728,1.250458,-19.24908,0.2457783817489878,0.1499840711652819,-0.9117920786903406,359.3811,83.56913,181.3738,0.6663224,-0.003961225,0.7455481,8
16.72,7.084913,1.415257,-19.22332,0.1959722139819999,0.0638359332789614,-0.9813653729700782,2.965422,83.32457,181.6556,0.6641676,-0.0289294,0.7469964,8
16.74,7.201727,1.576427,-19.19778,0.1718858692538385,0.0769556054117935,-1.0403836134577462,6.550155,83.09667,181.9229,0.6613578,-0.05386067,0.7477049,8
16.76,7.315953,1.734123,-19.1725,0.1458041007971469,0.0902171130874033,-1.101148673687359,10.13488,82.88387,182.1781,0.6578963,-0.0787316,0.7476732,8
16.78,7.244318,1.2263,-19.20887,0.0909123817280093,0.0273472759037991,-1.1638083000155075,10.31059,84.60279,183.1817,0.6682047,-0.08504203,0.738018,8
16.8,7.364075,1.396657,-19.186,0.052132532212493,0.0410183131388753,-1.221527517682555,13.93709,84.41305,183.4653,0.6638203,-0.1099899,0.7373847,8
16.82,7.481781,1.563379,-19.16323,0.0117220655518692,0.0557691032664331,-1.2812624177859369,17.56343,84.2389,183.7413,0.6587664,-0.134819,0.7360047,8
16.84,7.420938,1.190982,-19.18511,-0.0307278700470725,0.068770512173744,-1.3427850220737994,16.07429,85.29871,183.7827,0.6670957,-0.1249213,0.731019,8
16.86,7.537762,1.369613,-19.16581,-0.1079569858770104,-0.0241563523002553,-1.4013573024885777,19.65942,85.12871,184.0388,0.6616432,-0.149146,0.7293242,8
16.88,7.653078,1.544803,-19.1465,-0.1546391100003459,-0.0120575893114505,-1.4520406786502882,23.24418,84.97212,184.2895,0.6555402,-0.1732163,0.7269087,8
16.9,7.766676,1.716657,-19.12722,-0.2013263108163856,0.0017768842558387,-1.5043780725838638,26.82827,84.82838,184.536,0.6487927,-0.1971034,0.7237767,8
16.92,7.611937,1.16087,-19.15513,-0.2691332833183366,-0.0666548064860534,-1.5527078316020335,21.56337,83.1189,184.1019,0.6462589,-0.1632094,0.739029,8
16.94,7.725486,1.34775,-19.13805,-0.3136812923168592,-0.0493646718186735,-1.5965239904880515,25.09848,82.90095,184.1767,0.6397939,-0.1862944,0.7363771,8
16.96,7.838065,1.531385,-19.12087,-0.3569509197365066,-0.0299828533112948,-1.6415670424802975,28.63277,82.68154,184.2385,0.63272,-0.2091942,0.7330208,8
16.98,7.768098,1.132823,-19.12915,-0.3992281087346903,-0.0116576811881429,-1.6876516552248249,28.01635,80.09612,183.9442,0.6175488,-0.2066723,0.7476597,8
17.0,7.878343,1.327227,-19.11307,-0.4670274652551691,-0.1061905881053345,-1.725741631840985,31.49235,79.78098,183.8066,0.6099995,-0.2286053,0.7438515,8
17.02,7.988096,1.518569,-19.09684,-0.4974879809812313,-0.0866089440471531,-1.7561211637976206,34.9665,79.44315,183.6402,0.6018893,-0.2503195,0.7393554,8
17.04,8.097174,1.706882,-19.08049,-0.5243242300544713,-0.0650080646559598,-1.7873220668690837,38.43875,79.07713,183.4401,0.5932259,-0.2717958,0.7341759,8
17.06,8.058063,1.11714,-19.09157,-0.5477911393667707,-0.0446608578907371,-1.819199187191044,39.62051,77.34284,182.6939,0.5814924,-0.2783442,0.7393129,8
17.08,8.165725,1.316483,-19.07692,-0.5648279742610118,-0.051285165067314,-1.8451330558491863,43.02458,76.82516,182.2824,0.5722009,-0.2987864,0.733367,8
17.1,8.273203,1.512908,-19.06207,-0.5771354305634875,-0.053904373790014,-1.8715354836419555,46.42456,76.24098,181.8015,0.5624015,-0.3189553,0.7267661,8
17.12,8.335142,1.113828,-19.0682,-0.5849247839705682,-0.055925958301406,-1.8983040242881253,46.36672,75.4947,180.3363,0.561831,-0.3129359,0.7275712,8
17.14,8.440563,1.314414,-19.05251,-0.5801654686901159,-0.0567802295651974,-1.924103560552444,49.70375,74.83687,179.7814,0.5519987,-0.3327374,0.720184,8
17.16,8.545877,1.512189,-19.03662,-0.5712006798925768,-0.0541580453878997,-1.949601465568524,53.03505,74.07602,179.1212,0.5416939,-0.352246,0.7121767,8
17.18,8.65092,1.707164,-19.02057,-0.5582338883819093,-0.0514666512627641,-1.9747137986179408,56.35907,73.1814,178.3251,0.5309263,-0.3714449,0.7035567,8
17.2,8.711852,1.10385,-19.00488,-0.5414613198629468,-0.0520643614906674,-1.9993553844212828,56.47108,71.57313,176.1604,0.5277537,-0.3663027,0.7050073,8
17.22,8.814569,1.300048,-18.9878,-0.5133024425817427,-0.1528966144761061,-2.0296063344163704,59.72689,70.43319,175.1057,0.5170093,-0.3850774,0.6955887,8
17.24,8.916927,1.493575,-18.97058,-0.4687846214678308,-0.1247588969350755,-2.053478027125298,62.96843,69.03825,173.7946,0.5058396,-0.4035246,0.6855915,8
17.26,9.01878,1.684457,-18.95324,-0.4207516694005215,-0.0962686960589076,-2.0759328962558388,66.19066,67.28478,172.1236,0.4942521,-0.4216293,0.6750245,8
17.28,9.236505,1.128834,-18.89758,-0.3694191333485281,-0.0706756939545837,-2.0969030966453985,60.95785,59.41991,166.6133,0.4755609,-0.3877585,0.7141243,8
17.3,9.337902,1.313174,-18.87681,-0.3179968864408071,-0.058172784040519,-2.1303129564777348,63.99478,56.95169,164.1053,0.4648669,-0.4053942,0.7033801,8
17.32,9.438283,1.494892,-18.85603,-0.2648687471563025,-0.0439042093817969,-2.1616582886123266,66.97129,53.84658,160.9606,0.4538014,-0.4226966,0.6920695,8
17.34,9.628079,1.195202,-18.83379,-0.2102474139778907,-0.0310264541305432,-2.190867838922021,48.35935,68.28377,173.1697,0.5312891,-0.3079028,0.7400016,8
17.36,9.731477,1.371587,-18.81247,-0.1686543329679173,-0.0124135846768355,-2.2312476938692405,51.49844,67.27966,172.1748,0.5224799,-0.3267914,0.7316995,8
17.38,9.833426,1.545243,-18.79121,-0.1260612309678341,0.0072489275766749,-2.2701632601831534,54.62391,66.10639,171.0103,0.513264,-0.3454172,0.7228243,8
17.4,9.933779,1.716258,-18.77005,-0.0827927245912234,0.0248711311162761,-2.30750529764218,57.73177,64.71572,169.6281,0.5036492,-0.3637637,0.7133846,8
17.42,10.00771,1.249894,-18.88314,-0.0391531356751939,0.0374170629510353,-2.343163737558124,26.27914,80.53525,176.0983,0.6349765,-0.1519278,0.7376242,8
17.44,10.12666,1.418517,-18.869,-0.0033120290631036,0.048398798817369,-2.376098107237235,29.80125,80.16687,175.8285,0.6289983,-0.173965,0.7328635,8
17.46,10.24352,1.583624,-18.85484,0.0318700022753524,0.0602675473427074,-2.408066553367979,33.32186,79.76389,175.5196,0.6224193,-0.1958299,0.7274039,8
17.48,10.35809,1.745343,-18.84069,0.0659991611649555,0.0700572885955302,-2.4389547021485907,36.84089,79.31903,175.1651,0.6152456,-0.2175056,0.7212496,8
17.5,10.40081,1.275488,-19.01792,0.0987129967118325,0.0748654560770418,-2.468646217844992,358.4281,95.42979,178.3445,0.739526,0.01991455,0.6728334,8
17.52,10.52284,1.441069,-19.0194,0.1202591156583834,0.0778129587941895,-2.483757580209081,1.973072,95.19003,178.5636,0.7383748,-0.002355514,0.6740544,8
17.54,10.64258,1.603013,-19.02059,0.1397779743689102,0.0812250880425248,-2.497616395273921,5.517908,94.96305,178.767,0.7365126,-0.02460709,0.6746238,8
17.56,10.73772,1.293689,-19.15716,0.1567861280397808,0.0822584380651336,-2.510115850816271,352.801,101.7853,179.3788,0.774209,0.04379876,0.6297858,8
17.58,10.8615,1.455129,-19.16778,0.1594818164835301,0.0789997632827494,-2.5123888385376527,356.3687,101.5126,179.7274,0.7740236,0.0218854,0.6323591,8
17.6,10.98275,1.612802,-19.17787,0.1589339969100069,0.0769534749588851,-2.513306454856686,359.9368,101.2624,180.0583,0.773079,-4.333723e-05,0.6343095,8
17.62,11.00544,1.262074,-19.28334,0.1546859498037383,0.0733346090174644,-2.5128096121969685,355.7114,106.0684,180.6613,0.7985516,0.01789202,0.6007347,8
17.64,11.12535,1.425848,-19.30203,0.1498633037755663,0.1377570463782792,-2.504980114227178,359.2484,105.8131,181.029,0.7976394,-0.003207136,0.6030323,8
17.66,11.24293,1.586028,-19.32007,0.1202881627948386,0.1046109707484417,-2.490742525419759,2.785997,105.5806,181.3813,0.795957,-0.0242975,0.604745,8
17.68,11.35797,1.74277,-19.33743,0.0873045812556398,0.0728119833111477,-2.476249086070107,6.323892,105.3689,181.7208,0.7935069,-0.04535815,0.6058717,8
17.7,11.47025,1.789583,-19.35408,0.0505248036205279,0.0395276603328747,-2.4614533240838545,9.861936,105.1769,182.05,0.790292,-0.06636881,0.6064116,8
17.72,11.33788,1.237785,-19.43328,0.0192756911593012,0.0285534707951305,-2.426815940585368,6.111133,110.3955,182.6713,0.8190278,-0.04952785,0.5707995,8
17.74,11.45696,1.40502,-19.4616,-0.0148134125255103,0.0206254819368505,-2.392073166193687,9.720758,110.21,183.0509,0.8156725,-0.0702095,0.5716654,8
17.76,11.57393,1.568592,-19.48913,-0.0521316391511574,0.0128583082177655,-2.3572086089212725,13.33098,110.0467,183.4228,0.8114971,-0.09081353,0.5719545,8
17.78,11.50217,1.208699,-19.51829,-0.0930285065363722,0.0024250378204811,-2.322206730092596,13.41618,112.9217,183.6063,0.8253621,-0.09055431,0.5515159,8
17.8,11.61707,1.383085,-19.55331,-0.1103548515352477,0.0708187606307989,-2.2778525236839604,17.01446,112.7722,183.94,0.820322,-0.1101604,0.5514141,8
17.82,11.73035,1.553936,-19.58757,-0.1714570675250009,0.0271274277625014,-2.2131160626021087,20.6125,112.642,184.2708,0.8144658,-0.1296506,0.550761,8
17.84,11.8418,1.721373,-19.62102,-0.2341349369967167,-0.0132188592933888,-2.1494447774267376,24.21027,112.5309,184.6001,0.8077991,-0.1489986,0.5495592,8
17.86,11.72224,1.168156,-19.62174,-0.272238758087012,0.0271223598942074,-2.080210214621514,20.13565,113.523,184.1325,0.8195266,-0.1254497,0.5446063,8
17.88,11.8311,1.352729,-19.6615,-0.3349354352076186,-0.0135579853818974,-1.9983479141710008,23.6863,113.3587,184.3253,0.8129852,-0.1435212,0.5437193,8
17.9,11.93901,1.533999,-19.70068,-0.3978105751773584,-0.0505159315762901,-1.9177949602462416,27.23642,113.2032,184.5124,0.8056609,-0.1614483,0.5423059,8
17.92,11.8988,1.139028,-19.70069,-0.4611260149166738,-0.0869009175334804,-1.838648378540673,26.28649,111.5931,184.0132,0.8004125,-0.1559429,0.5536573,8
17.94,12.00308,1.331576,-19.7423,-0.5014700031704704,-0.0996852596170333,-1.7442169353963468,29.77997,111.3403,183.9764,0.7925667,-0.1725172,0.5520535,8
17.96,12.1069,1.521017,-19.78349,-0.5400522488307904,-0.1077123547594423,-1.6512745329322267,33.27183,111.075,183.919,0.7839847,-0.1889188,0.5499356,8
17.98,12.21008,1.707392,-19.82421,-0.5771456627695883,-0.1142465851670628,-1.559973707532714,36.76241,110.794,183.8389,0.7746748,-0.205139,0.5473046,8
18.0,12.12677,1.121771,-19.80181,-0.585796508465247,-0.0356416219580075,-1.4666394934716531,34.6944,109.0799,183.2878,0.7721899,-0.1952067,0.5604876,8
18.02,12.22764,1.319631,-19.84448,-0.6034693088692391,-0.0696973475191404,-1.370867479948223,38.12234,108.6626,182.9802,0.7626472,-0.2103298,0.5578394,8
18.04,12.32836,1.514527,-19.88686,-0.6183363996902718,-0.1005162424868778,-1.2771865273298115,41.54731,108.1998,182.6237,0.7524192,-0.2252582,0.5546868,8
18.06,12.42876,1.70648,-19.92889,-0.6306291432993194,-0.1314737243287247,-1.1858031851120685,44.96884,107.6804,182.2075,0.7415156,-0.2399786,0.5510334,8
18.08,12.42126,1.114464,-19.9578,-0.6184673648427799,-0.0496254922182488,-1.0927941283526077,44.68914,109.4808,181.1587,0.7529764,-0.2270938,0.5370482,8
18.1,12.51917,1.314949,-20.00174,-0.6145132341355986,-0.0817518822130445,-0.9971566314218534,48.05535,108.9418,180.737,0.7417651,-0.2413937,0.5328822,8
18.12,12.61709,1.512583,-20.04547,-0.6069769058311709,-0.1113830965909084,-0.9042375125539226,51.4175,108.3249,180.2346,0.7299102,-0.2554783,0.5282512,8
18.14,12.72065,1.107162,-20.11103,-0.5893263527975909,-0.0530339637050324,-0.8111084832032582,53.2841,107.9581,177.7113,0.7280502,-0.2492142,0.518294,8
18.16,12.81561,1.305565,-20.15557,-0.568004110636203,0.0047677841453682,-0.7210784056666326,56.57254,107.0953,176.9421,0.715565,-0.2625566,0.51285,8
18.18,12.91046,1.501254,-20.19986,-0.5269279277752306,-0.05190540359031,-0.6446033212649835,59.85178,106.0609,175.9992,0.7024822,-0.2756684,0.5069776,8
18.2,13.00507,1.694246,-20.24382,-0.4838701540081325,-0.1090429593790137,-0.5711530541937311,63.1195,104.793,174.8214,0.6888131,-0.2885439,0.5006793,8
18.22,13.15426,1.108997,-20.33099,-0.4325356545673542,-0.0506495801210425,-0.5009239750322441,62.63457,99.66529,167.9109,0.6845013,-0.2646602,0.5061554,8
18.24,13.24727,1.297724,-20.3754,-0.3618924908220848,-0.0648726923523113,-0.4445045795232931,65.75153,97.40945,165.6638,0.670763,-0.276692,0.499029,8
18.26,13.33968,1.483851,-20.41932,-0.2899086591151012,-0.079242896648583,-0.3914875319590112,68.82037,94.50732,162.77,0.6564827,-0.288491,0.4914982,8
18.28,13.43137,1.667424,-20.46269,-0.2168631262637266,-0.0969977472050274,-0.3421801257757755,71.81783,90.65083,158.9217,0.6416715,-0.3000501,0.4835683,8
18.3,13.63574,1.17793,-20.58161,-0.1605014088241465,-0.009730253493918,-0.3026272004661119,52.13601,101.154,171.152,0.7133555,-0.2247041,0.5425557,8
18.32,13.73131,1.356025,-20.62532,-0.1052969333223567,-0.0154045829200073,-0.2737430978925106,55.24397,99.79211,169.7492,0.7016726,-0.2369262,0.536794,8
18.34,13.82575,1.531415,-20.66829,-0.0490564688704369,-0.0212279821074408,-0.2509342584705645,58.32844,98.16928,168.086,0.6894383,-0.2489566,0.5306078,8
18.36,13.96228,1.239688,-20.78713,-0.0056947423494091,0.0414970833174344,-0.2347373452326975,32.06515,109.1365,175.3473,0.7889684,-0.128193,0.5475903,8
18.38,14.06817,1.410037,-20.83608,0.03644780060274,0.1021181575893397,-0.2253511901694462,35.49706,108.6283,174.8479,0.7807793,-0.1428774,0.5438857,8
18.4,14.17243,1.577054,-20.884,0.0705242754403845,0.0687040697499447,-0.2282214869078611,38.92431,108.0583,174.2861,0.7718789,-0.1574271,0.5396839,8
18.42,14.27487,1.740847,-20.93081,0.1049405337423738,0.0337964550878495,-0.2396345348374349,42.34729,107.413,173.6486,0.7622726,-0.1718351,0.534986,8
18.44,14.34232,1.271967,-21.01987,0.1430379537070898,0.0895277746218602,-0.2397487364346098,2.454273,117.0962,177.9443,0.8529459,0.00412688,0.5212516,8
18.46,14.4518,1.438668,-21.07306,0.1752080522132257,0.0757832393745024,-0.2489838801088999,6.003972,116.8669,177.9476,0.8512183,-0.01217224,0.5218869,8
18.48,14.5594,1.601744,-21.12505,0.204730689228481,0.0618437535070121,-0.265898726076625,9.552664,116.6362,177.9365,0.848672,-0.02845495,0.5220182,8
18.5,14.66494,1.761341,-21.17573,0.2311293936334535,0.0448239660913789,-0.2907200163152832,13.10027,116.4021,177.9107,0.8453103,-0.04470564,0.5216458,8
18.52,14.68319,1.291491,-21.21211,0.264370786876126,0.1161593882401045,-0.2949753122046492,352.2303,119.7409,179.0294,0.8625866,0.0413157,0.501282,8
18.54,14.79546,1.453738,-21.26534,0.28249046492046,0.0912162319313268,-0.3018989868679425,355.8152,119.4918,179.2271,0.8630798,0.02421753,0.5037016,8
18.56,14.90558,1.612215,-21.31724,0.2966818103827982,0.066441387913515,-0.3139324946162065,359.3999,119.2559,179.4086,0.8627234,0.007100178,0.5056231,8
18.58,14.92404,1.269966,-21.34756,0.3097823394533936,0.1091756647392562,-0.3108909845828398,354.0958,120.6622,179.9957,0.8677464,0.02552522,0.4943317,8
18.6,15.03445,1.433264,-21.39885,0.3168473803378289,0.1496529780331235,-0.3106058789734649,357.6395,120.4141,180.2761,0.8676648,0.008143574,0.4967169,8
18.62,15.14278,1.592944,-21.44887,0.2927205079132751,0.0926131687980568,-0.3042742975000738,1.183439,120.1838,180.5409,0.8667461,-0.009240979,0.4986205,8
18.64,15.24882,1.749166,-21.49753,0.2787440677221138,0.1116554295061384,-0.2881238032387556,4.727354,119.9694,180.7923,0.8649916,-0.0266117,0.500041,8
18.66,15.21549,1.240733,-21.51096,0.2603121708488021,0.1307073271573554,-0.274366810749088,3.952171,121.552,182.0589,0.8717556,-0.03250243,0.4883968,8
18.68,15.32556,1.407158,-21.56454,0.2368985019547742,0.1470206774815367,-0.2630474557981621,7.56622,121.3539,182.346,0.8691288,-0.05011521,0.4897415,8
18.7,15.4337,1.569919,-21.61688,0.1808302683467122,0.0634930674389778,-0.2411294818762757,11.18082,121.1723,182.623,0.8656299,-0.06767258,0.4905929,8
18.72,15.41865,1.217525,-21.61358,0.1214869168213588,-0.0034620426922548,-0.2234862226902589,11.87313,121.7588,183.3515,0.8670686,-0.07572158,0.4864749,8
18.74,15.52673,1.38996,-21.66819,0.094810192038639,0.0334817954094316,-0.2007245184787032,15.49045,121.5951,183.6159,0.8624328,-0.09300871,0.486917,8
18.76,15.63322,1.558806,-21.72172,0.0416127666421664,-0.0070942257849231,-0.1679808092134367,19.10741,121.446,183.8745,0.8569322,-0.1101973,0.4868684,8
18.78,15.73794,1.72419,-21.77407,-0.0141976245054733,-0.044274207546662,-0.1383924500348641,22.72404,121.311,184.1288,0.8505729,-0.127268,0.4863301,8
18.8,15.84067,1.779591,-21.82516,-0.0449960941297162,-0.0030248090202871,-0.1116399329784512,26.34015,121.1901,184.381,0.8433625,-0.1442059,0.4853026,8
18.82,15.66158,1.175801,-21.73754,-0.0778278873033362,0.0376744426010499,-0.0867554985041563,18.73085,121.0568,184.0562,0.8556237,-0.1104118,0.4901436,8
18.84,15.76515,1.358447,-21.79189,-0.1398667822265573,-0.0297110833587438,-0.0483830241921703,22.30061,120.896,184.2396,0.8493751,-0.1268834,0.4897946,8
18.86,15.86773,1.537731,-21.84548,-0.2029454764466329,-0.0937927643423769,-0.0130860279020117,25.86978,120.7434,184.4168,0.8423002,-0.1432261,0.4889665,8
18.88,15.80336,1.145595,-21.80679,-0.2329452785399373,-0.0500765619682837,0.0142956243123255,24.58269,118.1139,184.0497,0.8336281,-0.139003,0.5085371,8
18.9,15.90329,1.336492,-21.85993,-0.2626506082962461,-0.0064598574937247,0.0394032033169433,28.0922,117.8803,184.0293,0.8261009,-0.1543548,0.5075063,8
18.92,16.00272,1.524231,-21.91257,-0.3199311498855266,-0.0741918001340202,0.0784351576260324,31.60014,117.6372,183.9912,0.8177999,-0.1695547,0.5059975,8
18.94,15.98606,1.124932,-21.89588,-0.3538844358480615,-0.0530303338731734,0.1084123700817505,32.05848,114.2843,183.5314,0.8023608,-0.1746205,0.5283617,8
18.96,16.08343,1.322042,-21.94747,-0.3853122299695837,-0.0297934162350924,0.135307599296282,35.50145,113.9027,183.2475,0.7932703,-0.188819,0.526421,8
18.98,16.18062,1.516152,-21.99874,-0.4270676822138557,-0.0913860821550275,0.1643900343816025,38.94174,113.4815,182.9211,0.7834609,-0.2028414,0.5240005,8
19.0,16.27749,1.707286,-22.04963,-0.4663884252533372,-0.150700821424501,0.1900303842532618,42.37891,113.0119,182.5433,0.7729424,-0.2166747,0.5211028,8
19.02,16.29191,1.115045,-22.07189,-0.4756443679806832,-0.0957456190224777,0.2028291132980566,43.27198,113.0435,181.7469,0.7721389,-0.2151825,0.5173843,8
19.04,16.38691,1.315323,-22.12282,-0.4811883235755809,-0.0410321084366933,0.2120676556560186,46.64834,112.501,181.2947,0.7609919,-0.228578,0.5138491,8
19.06,16.48191,1.512727,-22.17354,-0.4890365318687286,-0.1012818343230473,0.2194523441534497,50.02028,111.8802,180.762,0.7491798,-0.2417682,0.5098622,8
19.08,16.57676,1.707268,-22.22397,-0.4935809112067328,-0.1600649934213693,0.2232827677440614,53.38692,111.1592,180.1271,0.7367135,-0.2547418,0.5054273,8
19.1,16.5894,1.110036,-22.23997,-0.4789221417889648,-0.1036198524766628,0.2216436358126228,50.65092,111.4158,178.7306,0.7493984,-0.2327179,0.505318,8
19.12,16.6824,1.309514,-22.28983,-0.4441295942875203,-0.1319494553113035,0.2068564463569457,53.95518,110.6548,178.0497,0.7372102,-0.2455598,0.5005595,8
19.14,16.77536,1.506241,-22.33947,-0.4067854218348832,-0.159088094617839,0.1894648748183049,57.25214,109.7548,177.2281,0.7244011,-0.2581891,0.4953771,8
19.16,16.86814,1.70023,-22.38881,-0.3680080817936288,-0.0983409498291152,0.172817206339304,60.53962,108.6694,176.2197,0.7109824,-0.2705955,0.4897753,8
19.18,17.07649,1.108993,-22.50992,-0.3268454055602996,-0.0387150517738617,0.1540313366044214,62.6398,102.0501,167.8898,0.6949178,-0.2550737,0.4916985,8
19.2,17.16769,1.297704,-22.5586,-0.2835587208095997,0.0014962187820936,0.1331652360023563,65.7621,99.78017,165.615,0.6810247,-0.2665959,0.4848025,8
19.22,17.2583,1.483799,-22.60676,-0.2272289170696675,-0.0732848898827447,0.103191648409445,68.83545,96.85667,162.6866,0.666579,-0.2778934,0.4775116,8
19.24,17.47021,1.161384,-22.72597,-0.1773706885283879,-0.0347756580058143,0.0779897749953963,55.82063,100.248,168.7392,0.7043387,-0.2321216,0.5285758,8
19.26,17.5634,1.341228,-22.77313,-0.1263735882472567,0.0040849711182073,0.0516224486568113,58.88201,98.45097,166.8675,0.6918734,-0.2434885,0.5224506,8
19.28,17.65557,1.518402,-22.81956,-0.0744886339037584,0.0401905014884933,0.0241265785672486,61.90575,96.26748,164.6103,0.6788628,-0.2546581,0.515911,8
19.3,17.74658,1.692982,-22.86518,-0.0159374284120064,-0.017855171953782,-0.0149396221704569,64.87849,93.567,161.8371,0.66532,-0.2656234,0.5089622,8
19.32,17.83256,1.228405,-22.94887,0.0277042041692783,0.0213490076303676,-0.0440757062528689,37.90418,108.8977,174.7153,0.7773793,-0.15316,0.5371443,8
19.34,17.93415,1.400414,-22.99897,0.0712921886102213,0.0599939853491565,-0.0737369139498858,41.24226,108.2609,174.0608,0.7681061,-0.1667921,0.5328784,8
19.36,18.03426,1.569283,-23.04809,0.1108800551638324,0.0279541878514175,-0.108004288145882,44.57322,107.5357,173.3181,0.7581671,-0.1802749,0.5281484,8
19.38,18.13272,1.735109,-23.09613,0.1448291525293039,0.0639599027290153,-0.1319843163600085,47.89682,106.7012,172.4663,0.7475679,-0.1936026,0.5229556,8
19.4,18.18338,1.268221,-23.1792,0.1767728277648896,0.0992950404403885,-0.155272341907275,8.200689,117.0647,177.5521,0.8513552,-0.01914518,0.5192592,8
19.42,18.29103,1.43556,-23.23457,0.2062477606950672,0.1311133416023163,-0.1777359172196577,11.73562,116.8327,177.4752,0.8483869,-0.03486148,0.5189536,8
19.44,18.39688,1.599305,-23.28873,0.2312175872036626,0.0682873620026415,-0.2027350664778189,15.26996,116.5925,177.3823,0.8446091,-0.05054305,0.5181504,8
19.46,18.48337,1.2853,-23.35722,0.2595279093838005,0.0973899279702621,-0.2208384347815153,353.3269,120.6564,178.7034,0.8670211,0.0386237,0.4947325,8
19.48,18.59329,1.448922,-23.41338,0.2844456821433541,0.1252272698140986,-0.2367694659200401,356.9004,120.4253,178.8567,0.8673807,0.0220909,0.4968103,8
19.5,18.70117,1.608823,-23.4682,0.3054510679474687,0.1490503682861398,-0.2503591818305,0.4733873,120.2043,178.9953,0.8668929,0.005541261,0.4984007,8
19.52,18.80681,1.765161,-23.52158,0.3006312512998987,0.0744017845528353,-0.2527198704978768,4.045905,119.9916,179.1205,0.8655592,-0.01100919,0.4995026,8
19.54,18.84013,1.26994,-23.56147,0.3061984519377092,0.0919765847227451,-0.2554267896763749,354.1039,121.708,179.984,0.8722221,0.02517053,0.4863988,8
19.56,18.94963,1.433158,-23.61535,0.3080538770575862,0.1091164043586195,-0.2557783122643653,357.6566,121.4714,180.2543,0.8722116,0.008060427,0.4886964,8
19.58,19.05706,1.592742,-23.66791,0.3056992395378648,0.1231357851659192,-0.253651351424351,1.209404,121.2519,180.5097,0.8713559,-0.00905238,0.4905182,8
19.6,19.16222,1.74885,-23.71906,0.2905747116652817,0.1124564575244171,-0.2447931120881379,4.762118,121.0478,180.7522,0.8696564,-0.0261517,0.4918629,8
19.62,19.09069,1.246168,-23.70564,0.2729736734346701,0.1040285713891422,-0.2346366878220376,1.361437,122.2613,181.579,0.8754988,-0.01780104,0.4828773,8
19.64,19.20024,1.411338,-23.76106,0.2524235981529914,0.0950188206710685,-0.2230553429371502,4.97731,122.0602,181.8548,0.8735943,-0.03517536,0.4844443,8
19.66,19.3078,1.572825,-23.8152,0.2090818782014549,0.0103271156353431,-0.2001239504260992,8.593597,121.8755,182.1195,0.8708131,-0.05250963,0.485523,8
19.68,19.41317,1.730789,-23.86795,0.1842839726541703,0.0254583644541133,-0.1819298705954604,12.20968,121.7058,182.3754,0.8671589,-0.06978624,0.4861127,8
19.7,19.32383,1.217497,-23.82658,0.1570429764242908,0.041599002018727,-0.1624715678262913,11.87505,122.5742,183.3554,0.870504,-0.07521464,0.4802952,8
19.72,19.43131,1.389872,-23.88276,0.1068593738264436,-0.0205295779723401,-0.1308021210415146,15.49717,122.4225,183.6247,0.8659112,-0.09236163,0.480683,8
19.74,19.53722,1.558646,-23.93784,0.0729528820921521,-0.0032451650364711,-0.1068575918084526,19.11887,122.286,183.8892,0.860448,-0.1094105,0.4805851,8
19.76,19.47972,1.183268,-23.90728,0.0373130179915244,0.0157508088042033,-0.0821560762542628,17.39427,122.27,183.9104,0.8626952,-0.1024904,0.4814366,8
19.78,19.58315,1.363933,-23.96329,-0.0004433513062034,0.0335298131466708,-0.0565572251070225,20.96921,122.1248,184.1221,0.8568125,-0.1189395,0.4811978,8
19.8,19.6855,1.541199,-24.01846,-0.040674053988126,0.0321409620114142,-0.0299406091335918,24.5436,121.9904,184.3293,0.8500928,-0.135267,0.4804867,8
19.82,19.78657,1.715162,-24.07271,-0.1215450337188928,-0.072541468995824,0.0194112635179974,28.11709,121.8665,184.5331,0.8425441,-0.1514537,0.4793052,8
19.84,19.69701,1.14559,-24.01751,-0.1607936924511532,-0.0601670326658412,0.0475751175961463,24.58831,118.7803,184.0494,0.8365621,-0.1380643,0.503676,8
19.86,19.79656,1.336451,-24.07197,-0.1988330683476444,-0.0455609874810817,0.0748531789260074,28.10573,118.5575,184.0293,0.8290588,-0.1532866,0.5026049,8
19.88,19.89559,1.524139,-24.12592,-0.2546645129998319,-0.1143597275778225,0.1130027108980407,31.62157,118.3254,183.9925,0.8207756,-0.1683575,0.5010583,8
19.9,19.99394,1.708702,-24.17928,-0.2840139867821603,-0.0947149965998697,0.1360894379031565,35.13624,118.0813,183.9368,0.8117202,-0.183265,0.4990378,8
19.92,19.89692,1.124943,-24.11766,-0.3104542070463552,-0.072797630191613,0.1572722038096561,32.0568,114.8548,183.5297,0.8049875,-0.1735249,0.5243595,8
19.94,19.99382,1.322049,-24.1703,-0.3342802843999566,-0.0518559415624411,0.1766637203457097,35.5017,114.4832,183.2447,0.7959312,-0.1875785,0.5223892,8
19.96,20.09056,1.51615,-24.22264,-0.3524423059133847,-0.0578004769640115,0.1898308197512332,38.94394,114.0725,182.9178,0.786153,-0.2014567,0.5199425,8
19.98,20.09839,1.115628,-24.23758,-0.3667093871046787,-0.0594999872348548,0.2003450533561963,41.82637,113.7457,182.3608,0.7781057,-0.2111482,0.5165465,8
20.0,20.19297,1.315625,-24.28988,-0.3773341486099482,-0.0603511239476128,0.208296993039061,45.20957,113.2262,181.915,0.7671874,-0.2243679,0.5133079,8
20.02,20.28753,1.512732,-24.34197,-0.3852271180896753,-0.1481209443905377,0.2129860259057685,48.5885,112.6334,181.394,0.7555957,-0.237385,0.5096163,8
20.04,20.38192,1.706963,-24.39377,-0.3778578080576076,-0.1184437145601881,0.2111392701279895,51.96227,111.9476,180.7782,0.7433416,-0.2501887,0.5054751,8
20.06,20.43566,1.110035,-24.43346,-0.3668545178371132,-0.0871668148827832,0.2069280474637711,50.64989,112.0455,178.7379,0.7521523,-0.2307848,0.5012175,8
20.08,20.52836,1.309494,-24.48432,-0.3524716243792958,-0.0576491029174115,0.2004473445676784,53.96057,111.3002,178.0637,0.7399709,-0.2435207,0.4964336,8
20.1,20.62103,1.506191,-24.53497,-0.3349626701714943,-0.0482782062046672,0.1917899916821843,57.26417,110.4177,177.2508,0.7271639,-0.2560453,0.491228,8
20.12,20.82742,1.104397,-24.65521,-0.294230938803067,-0.050175946264225,0.1701751106052893,61.2,106.0305,171.2454,0.708925,-0.2528702,0.4852792,8
20.14,20.918,1.295635,-24.70505,-0.2504699102159264,-0.0496267860655104,0.146552949131582,64.38371,104.2779,169.5126,0.6952177,-0.2645481,0.4787825,8
20.16,21.00813,1.484253,-24.75445,-0.2039336949153547,-0.0499493254296687,0.1210176637355311,67.53674,102.0434,167.2976,0.6809444,-0.2760018,0.4718949,8
20.18,21.09768,1.670289,-24.80334,-0.1400597832523695,-0.1259459295732364,0.0846728439308841,70.64533,99.10025,164.3735,0.6661162,-0.2872247,0.4646204,8
20.2,21.18652,1.747127,-24.85164,-0.0915825760228044,-0.0877904430936926,0.0578939495937245,73.68461,95.06379,160.3558,0.6507456,-0.2982081,0.4569653,8
20.22,21.35356,1.161366,-24.94933,-0.042265635191101,-0.0492651938811626,0.0305794391592661,55.82545,100.619,168.7123,0.7060877,-0.2306423,0.5261801,8
20.24,21.44637,1.341211,-24.99766,0.0076444200634133,-0.0134730642113123,0.0027951238916399,58.88728,98.80775,166.8113,0.6936014,-0.2418211,0.5200619,8
20.26,21.53816,1.518377,-25.04525,0.0479017253484701,0.0040904252044481,-0.02641380870919,61.91054,96.60526,164.5202,0.6805668,-0.2528031,0.5135306,8
20.28,21.6288,1.692938,-25.09203,0.0881540058592089,0.0229747651804224,-0.0557074248212354,64.88164,93.8796,161.7071,0.666997,-0.2635819,0.5065904,8
20.3,21.76071,1.240074,-25.21198,0.1280455110005691,0.0401000536658685,-0.0849899847162989,32.03823,111.1278,175.3407,0.7984199,-0.1236978,0.5338283,8
20.32,21.86316,1.410956,-25.26425,0.166129929950729,-0.0146985685435842,-0.1195023305824762,35.41863,110.6399,174.8389,0.7903718,-0.1376346,0.5302174,8
20.34,21.96405,1.578601,-25.31547,0.2052376542582634,0.0230989977350322,-0.1487655692992908,38.7942,110.0922,174.2775,0.7816261,-0.1514452,0.5261365,8
20.36,22.03787,1.268198,-25.3949,0.2425085849492609,0.0600951170499907,-0.1772415076983731,8.225528,117.4399,177.5454,0.8530411,-0.0189717,0.5164527,8
20.38,22.14511,1.435523,-25.45125,0.2774962838904731,0.0934019693514409,-0.2047881241533002,11.76267,117.2173,177.4637,0.8501095,-0.03456802,0.5160764,8
20.4,22.25054,1.599256,-25.50638,0.3097878954045496,0.105116559257033,-0.2312866018136827,15.29863,116.9863,177.3665,0.8463664,-0.05012748,0.5152054,8
20.42,22.35398,1.759539,-25.56019,0.3329473672626233,0.1079145329150497,-0.2486423248217604,18.83318,116.7448,177.2525,0.8418163,-0.06563435,0.5138415,8
