t,pX,pY,pZ,aX,aY,aZ,reX,reY,reZ,rtX,rtY,rtZ,ID
3.12,-43.30572,1.101699,-37.82836,4.518265628683864,-0.076213337953096,1.0279601172636372,14.63789,356.3577,163.6096,-0.0130487,-0.1305211,0.9818053,6
3.14,-43.3065,1.301523,-37.82779,4.578876162324339,-0.1051738552212721,0.9879174533742088,14.65608,356.3657,163.6331,-0.0129843,-0.1306646,0.9818149,6
3.16,-43.28748,1.153985,-37.78015,4.632822544683813,-0.1086482133652536,0.9440009343664856,15.01911,2.343577,163.697,0.03859689,-0.1264693,0.9808223,6
3.18,-43.28913,1.35267,-37.77081,4.679746972420733,-0.0885622474014388,0.8962595348696087,15.29144,2.463963,163.773,0.03986928,-0.1286776,0.9805586,6
3.2,-43.29075,1.551314,-37.76141,4.719258358739247,-0.0467604925257799,0.8447331318009548,15.56839,2.579061,163.8495,0.04109741,-0.1309332,0.9802846,6
3.22,-43.20575,1.159886,-37.67182,4.7419269902511605,-0.0739950641554163,0.7877571309455895,18.49003,7.455501,166.2532,0.08289596,-0.1514849,0.9765937,6
3.24,-43.21346,1.35414,-37.64111,4.75973093169611,-0.0767851156334384,0.7268573630704678,19.41086,7.437039,166.6055,0.08310973,-0.1596246,0.9756254,6
3.26,-43.07035,1.179636,-37.55859,4.768401372983532,-0.1016640528418361,0.663826432907185,15.22259,14.93981,168.8364,0.1410229,-0.1181712,0.9764426,6
3.28,-43.05903,1.371241,-37.5122,4.772225298208707,-0.1023600208395515,0.596633545999989,16.71857,14.52358,168.7971,0.1385394,-0.1313185,0.97496,6
3.3,-43.04794,1.562232,-37.46596,4.770669339357547,-0.080800589111112,0.5253754024814841,18.22052,14.10172,168.7486,0.1360222,-0.1444993,0.9732934,6
3.32,-42.886,1.202227,-37.40908,4.750041102062073,-0.1055925829878286,0.4552511393412644,7.010582,23.34831,171.8938,0.205694,-0.04545105,0.9741631,6
3.34,-42.85695,1.384165,-37.3313,4.725444084678978,-0.1066769231180167,0.3812835578315621,9.553596,22.86612,171.9156,0.2027967,-0.06749444,0.9731594,6
3.36,-42.82857,1.564272,-37.25396,4.694072565459679,-0.129679210953882,0.3081163256314498,12.10686,22.41282,171.9298,0.2000606,-0.08958937,0.9716036,6
3.38,-42.55003,1.246572,-37.1787,4.658848804077269,-0.129388183821472,0.2314493179826469,358.6858,33.16298,176.8001,0.2849419,0.01895448,0.9580697,6
3.4,-42.49163,1.409234,-37.06405,4.619213778324507,-0.1077121287516597,0.1514415019526476,2.490607,32.66204,177.0476,0.2815639,-0.01360709,0.9589509,6
3.42,-42.28055,1.262632,-37.04046,4.547608382205215,-0.1367685853681953,0.0764984014175382,354.7889,39.24423,180.146,0.3355224,0.04239219,0.9409341,6
3.44,-42.20488,1.417326,-36.91695,4.4731225318497465,-0.14162894753234,-0.0012482576001513,359.0242,38.72017,180.5448,0.3315265,0.006457489,0.9433958,6
3.46,-42.13171,1.566918,-36.79613,4.383551074418424,-0.1716008277300686,-0.0755462799209842,3.264645,38.22536,180.9055,0.3270713,-0.02950064,0.9445375,6
3.48,-42.06163,1.250319,-36.94081,4.291678172679379,-0.1768952292147654,-0.1525070925070357,359.4044,44.31367,181.4531,0.3771688,3.087102e-05,0.9260432,6
3.5,-41.98973,1.41511,-36.843,4.197037223433089,-0.1594297443167609,-0.2319577146109601,2.976446,43.81981,181.7942,0.3725993,-0.02993306,0.9274969,6
3.52,-41.87626,1.23756,-36.88586,4.0799627944025,-0.1915853210109247,-0.3033670245882636,6.168057,49.64611,182.7121,0.4179364,-0.05873675,0.9065749,6
3.54,-41.79558,1.404649,-36.79375,3.961523236568944,-0.1979246454345158,-0.3772527558227194,9.790299,49.20068,183.1047,0.4125138,-0.08879511,0.9065472,6
3.56,-41.71682,1.568084,-36.70296,3.8414136922050064,-0.1804146550008644,-0.453400337171387,13.41436,48.77541,183.4734,0.4066709,-0.1187533,0.9055852,6
3.58,-41.69914,1.217146,-36.82793,3.6904661191495576,-0.2149440994930017,-0.5213078497958623,11.88977,54.21407,183.4732,0.4502015,-0.1058871,0.8863931,6
3.6,-41.61182,1.389518,-36.74528,3.539692577203671,-0.2223748527910616,-0.5913570111939839,15.48808,53.80246,183.8401,0.4440495,-0.1351202,0.8852011,6
3.62,-41.45708,1.192311,-36.88813,3.372840276610969,-0.2572726668728709,-0.6544526799841694,17.08731,58.84018,180.6003,0.4850737,-0.1319474,0.8617463,6
3.64,-41.25062,1.364955,-36.89644,3.2070587361496434,-0.2639221731427448,-0.7192097087995766,22.07433,58.49176,177.4,0.4831881,-0.1561204,0.8540499,6
3.66,-41.04276,1.530698,-36.90303,3.042265032050463,-0.244360621156593,-0.7853869915764049,26.7315,58.02761,174.4252,0.4811557,-0.1789688,0.8443574,6
3.68,-40.69721,1.167076,-37.03447,2.8505633607411447,-0.2794808983185194,-0.841603386202749,19.23695,63.36315,185.6889,0.510121,-0.1677085,0.8423383,6
3.7,-40.64051,1.351485,-36.94888,2.661693728489488,-0.2851351917889865,-0.8990054690723843,21.81164,65.06342,187.5494,0.5164074,-0.1939269,0.8327695,6
3.72,-40.61893,1.142802,-36.9726,2.4756900184668407,-0.2633973068925584,-0.9573399881325207,23.61977,66.58208,185.7785,0.527967,-0.1979422,0.8228216,6
3.74,-40.56116,1.331919,-36.89343,2.261985460975107,-0.2976395986831316,-1.0046825139327673,26.08171,68.40032,187.6164,0.5339848,-0.2225841,0.8123928,6
3.76,-40.50306,1.518673,-36.81536,2.053348968827872,-0.3013396747444233,-1.052458814406941,28.48905,70.34522,189.5798,0.5395858,-0.2470545,0.801357,6
3.78,-40.50593,1.12485,-36.87883,1.835414480062,-0.3325266770540201,-1.0928942305927487,29.1763,68.93992,185.4136,0.5373107,-0.2332816,0.8036867,6
3.8,-40.44114,1.31753,-36.8081,1.623700655052974,-0.3325371719356056,-1.133245437900797,31.70749,70.82024,187.0668,0.5426036,-0.2565794,0.7922888,6
3.82,-40.37274,1.114546,-36.80373,1.4114978813775396,-0.3597771375940783,-1.1694910156282008,36.70383,70.76671,184.6578,0.5387095,-0.2788191,0.7805999,6
3.84,-40.29932,1.309799,-36.74191,1.206255169784841,-0.3554581791419804,-1.205148516558233,39.37457,72.6995,186.1056,0.5428239,-0.3006682,0.7678916,6
3.86,-40.22561,1.502776,-36.68096,1.008232599680884,-0.3217147783027524,-1.2399842788323072,42.00605,74.79695,187.728,0.546526,-0.3223,0.7546337,6
3.88,-40.17601,1.11217,-36.73037,0.8033882683030846,-0.3442047866696667,-1.2677077150822995,42.98673,74.39809,182.9638,0.5548073,-0.3062976,0.7466296,6
3.9,-40.0843,1.309834,-36.68299,0.6071268880245375,-0.3349442310024504,-1.294105144659631,46.03818,76.13638,183.9633,0.5565171,-0.3272953,0.7324947,6
3.92,-39.9924,1.504859,-36.63653,0.4197654754126461,-0.2960597470086477,-1.3189376873085656,49.06388,78.05468,185.1583,0.5577543,-0.3479977,0.7177689,6
3.94,-39.87823,1.108449,-36.65338,0.2463360151051343,-0.3145822471170249,-1.3391526208521354,50.59953,76.2327,179.5114,0.5594841,-0.3338422,0.7101653,6
3.96,-39.77737,1.306384,-36.62344,0.0819711165935368,-0.3017875492863054,-1.357427726775069,53.79646,77.54782,179.8668,0.5589057,-0.3520576,0.6949472,6
3.98,-39.67632,1.501473,-36.5938,-0.0729686760721817,-0.2597480331416577,-1.3734879875698551,56.99805,79.07106,180.4307,0.558035,-0.3700877,0.6789133,6
4.0,-39.54572,1.101185,-36.60024,-0.2120303515144961,-0.2714405433407084,-1.3846376893475325,59.75914,75.18071,174.6788,0.5466799,-0.3697748,0.6722159,6
4.02,-39.43885,1.293608,-36.58091,-0.3412725966984196,-0.2527973398427464,-1.3932634465549123,63.09818,75.68924,174.2707,0.5428351,-0.386536,0.656073,6
4.04,-39.21615,1.117181,-36.55829,-0.4445943469203275,-0.2536542388964428,-1.3977153649049745,61.91133,68.57974,167.7406,0.5257519,-0.3709566,0.6735247,6
4.06,-39.10943,1.302469,-36.54491,-0.5378820820330974,-0.2253932298429384,-1.3990201441550312,65.12595,68.2272,166.2085,0.522755,-0.3856382,0.6564879,6
4.08,-39.00342,1.484798,-36.5324,-0.6207712715802414,-0.1699520110494423,-1.396847500277269,68.35177,67.59082,164.4246,0.5191888,-0.4001575,0.6388454,6
4.1,-38.86877,1.16096,-36.52337,-0.69289029730355,-0.0892011366187638,-1.390855054659223,55.84057,70.15165,169.2596,0.5414053,-0.3340018,0.694774,6
4.12,-38.76048,1.339644,-36.51548,-0.750783244508054,-0.0756755435968697,-1.3745214555654297,59.02089,70.48406,168.1256,0.5410908,-0.3482009,0.6775518,6
4.14,-38.58038,1.211693,-36.51756,-0.7956660794505899,-0.0344812067445661,-1.354161392146186,43.04557,78.6759,174.2286,0.6032301,-0.2536986,0.7068712,6
4.16,-38.4669,1.385189,-36.51802,-0.822855517983264,-0.0407868403347661,-1.327975966065038,46.32506,79.9212,173.8556,0.6057993,-0.2694102,0.6901499,6
4.18,-38.35487,1.555338,-36.51975,-0.8375641444713375,-7.271049802351492e-05,-1.304671210975024,49.62988,81.18458,173.5753,0.6075248,-0.2850989,0.6728605,6
4.2,-38.24475,1.722304,-36.52289,-0.8366424894845883,0.0350614436940938,-1.278539075774039,52.94962,82.50967,173.4032,0.6085626,-0.3006326,0.6549166,6
4.22,-38.20073,1.256754,-36.53958,-0.833166647040267,-0.0063713680907964,-1.2396012488103445,20.0231,88.11218,176.8242,0.6879728,-0.1059129,0.7040945,6
4.24,-38.07547,1.423806,-36.54806,-0.8244085956211906,0.0332805121172142,-1.2098558862100883,23.6187,89.63875,176.9266,0.6935996,-0.126614,0.6902004,6
4.26,-37.97908,1.271514,-36.54593,-0.7969844868482534,0.0676089371070565,-1.180870544500591,2.341866,93.4735,178.1692,0.7281914,-0.002371791,0.6848832,6
4.28,-37.85292,1.437023,-36.55959,-0.7751880610606658,0.0816914455292298,-1.1499664243912786,5.935874,95.0978,178.4993,0.7372586,-0.02529481,0.6734974,6
4.3,-37.72942,1.598621,-36.57494,-0.7367221970556415,0.0920734638281473,-1.1228254738598924,9.519949,96.74335,178.9313,0.7453737,-0.04817481,0.6613975,6
4.32,-37.70198,1.284181,-36.55597,-0.6784420457966567,0.0511473789009796,-1.0931954557467387,353.3701,97.22385,178.9572,0.7486145,0.04504553,0.6604172,6
4.34,-37.57281,1.445873,-36.57259,-0.6250410583535944,0.0854758012349324,-1.0689729541133106,357.0235,98.77552,179.4812,0.758792,0.02034194,0.6507996,6
4.36,-37.46253,1.294288,-36.5589,-0.5578078704431695,0.1149751133591781,-1.0534775507751784,353.6072,98.19994,179.6216,0.7545525,0.03899924,0.6538583,6
4.38,-37.33191,1.453017,-36.57633,-0.4967806343671741,0.0651802279882871,-1.0337805956427806,357.3039,99.52393,180.1492,0.7631752,0.01420317,0.6457619,6
4.4,-37.20449,1.607537,-36.59522,-0.4572771634604313,0.0850256816941376,-1.0236665448316593,0.9910845,100.8438,180.7483,0.7706754,-0.01054329,0.6371357,6
4.42,-37.27162,1.26074,-36.5573,-0.4084650638038694,0.1032869550516275,-1.0294250895610393,355.85,99.52589,180.7387,0.7630129,0.01847023,0.6453364,6
4.44,-37.14439,1.42257,-36.57426,-0.3855925095581805,0.092178398507795,-1.0240452937288334,359.5172,100.7185,181.2781,0.7700348,-0.005900585,0.6378905,6
4.46,-37.10318,1.245113,-36.54955,-0.3556296097844855,0.0830349731144271,-1.0371602648489686,1.458181,100.1992,181.7687,0.7668812,-0.02000093,0.6414776,6
4.48,-36.97653,1.408829,-36.56811,-0.3186496053877272,0.0733029209828849,-1.0692128624559896,5.139706,101.5293,182.3177,0.7730436,-0.04400308,0.6324446,6
4.5,-36.8531,1.568629,-36.58811,-0.297679281627766,0.0588225213723932,-1.0651513420834915,8.792591,102.9909,182.983,0.7787499,-0.06801612,0.6220961,6
4.52,-36.86905,1.225619,-36.53634,-0.2677094713971781,0.0455904152662949,-1.0765734534551124,10.38213,101.3344,183.3052,0.7683308,-0.07953781,0.6329799,6
4.54,-36.74474,1.395109,-36.55737,-0.2353531966492559,0.0815227870300275,-1.083016033178521,14.0255,102.8718,183.8465,0.7730706,-0.1021123,0.6215813,6
4.56,-36.62293,1.560704,-36.57971,-0.2201570445383547,0.0389956732107058,-1.0858964891281628,17.65182,104.4819,184.5026,0.7769377,-0.1245693,0.6093898,6
4.58,-36.7081,1.199039,-36.53064,-0.1963207205861499,-0.001930386356989,-1.1042530152433925,14.81039,102.9081,183.7887,0.772507,-0.1059083,0.6209393,6
4.6,-36.5871,1.374944,-36.55358,-0.1550275895597446,0.0324010295087558,-1.1063560799187808,18.40983,104.4657,184.2976,0.7761047,-0.1271612,0.6088834,6
4.62,-36.58181,1.175285,-36.51513,-0.1346187117216439,-0.0127502399300098,-1.105272740288437,18.77074,102.4127,184.1779,0.7647393,-0.1301308,0.6223529,6
4.64,-36.46303,1.357448,-36.53686,-0.1152513278102391,-0.0010192445003698,-1.0848881073077037,22.33114,103.9198,184.5879,0.7672771,-0.1501578,0.6101689,6
4.66,-36.34586,1.53604,-36.55978,-0.1224378988374148,-0.0431450806990676,-1.0519049394877742,25.87693,105.4947,185.1094,0.7689528,-0.16998,0.59732,6
4.68,-36.42729,1.152798,-36.50513,-0.1396641214597194,-0.0815789913374198,-1.018370422415316,23.07878,101.4441,184.1387,0.7533701,-0.1539466,0.6254737,6
4.7,-36.31166,1.3413,-36.52759,-0.1889705046965621,-0.0405054254714087,-0.9653924147344296,26.58464,102.8982,184.365,0.7550946,-0.1721688,0.6129214,6
4.72,-36.19719,1.52638,-36.55121,-0.2462691097712799,-0.0833350000336628,-0.9104811891744076,30.08267,104.4152,184.7005,0.7559983,-0.1901942,0.5997193,6
4.74,-36.30056,1.132495,-36.49347,-0.2885275003733234,-0.0651512662690821,-0.8515314501114224,28.05281,99.43236,184.0151,0.734162,-0.1825403,0.6333883,6
4.76,-36.18694,1.326525,-36.51464,-0.3209062259671946,-0.0459580298980431,-0.8036950990862515,31.51997,100.8122,184.0652,0.7350068,-0.1993019,0.6204206,6
4.78,-36.17662,1.121659,-36.4837,-0.36044681337833,-0.1122779035187591,-0.758302680061397,34.73515,96.87755,183.3058,0.7081251,-0.2185479,0.6393535,6
4.8,-36.06453,1.319216,-36.50383,-0.380051371778201,-0.0908755694532555,-0.7039467447534067,38.15652,98.13307,183.1431,0.7078335,-0.233653,0.6257344,6
4.82,-36.00182,1.115436,-36.49835,-0.389334643623433,-0.0684635251077587,-0.6601531626538888,41.86956,97.02089,182.4239,0.6944654,-0.2514534,0.6242742,6
4.84,-35.89143,1.315037,-36.51903,-0.3960534856960898,-0.0729984917968879,-0.6103582848223068,45.25217,98.20653,182.1862,0.692782,-0.265137,0.6097469,6
4.86,-35.78143,1.511498,-36.54091,-0.3934132867818745,-0.0744275261337917,-0.5701052478110054,48.63666,99.44703,182.0389,0.6903932,-0.2785507,0.5946127,6
4.88,-35.77315,1.113541,-36.52119,-0.3815437434598046,-0.0762630247036356,-0.539782832931011,46.39959,97.60728,180.4461,0.6905954,-0.2621548,0.6065312,6
4.9,-35.66452,1.313612,-36.54278,-0.364584861106672,-0.0792845979060727,-0.497323697240156,49.73612,98.75288,180.1776,0.6882027,-0.2748683,0.5912108,6
4.92,-35.55626,1.510629,-36.56556,-0.3407189762315079,-0.0797782016639357,-0.4628487163326449,53.07466,99.9579,179.9997,0.6851262,-0.2873092,0.5753167,6
4.94,-35.41517,1.10355,-36.56967,-0.2940773254873612,-0.1371424202674067,-0.4366136079560068,56.53171,95.58173,176.2925,0.662327,-0.2968884,0.5800721,6
4.96,-35.30944,1.299189,-36.5945,-0.2455187092031114,-0.1073185175744533,-0.4095643139346281,59.81003,96.33837,175.6046,0.6581834,-0.3074948,0.5634621,6
4.98,-35.20438,1.491904,-36.6204,-0.1934973945645182,-0.0780586546664024,-0.3885306908692776,63.09164,97.09019,174.9352,0.653401,-0.3178013,0.5463206,6
5.0,-35.05706,1.108961,-36.63028,-0.1383959455275691,-0.0526407388314152,-0.3736761368816514,62.66469,88.45331,167.9652,0.6315592,-0.308117,0.5706888,6
5.02,-34.95358,1.297267,-36.6591,-0.0766597193635774,-0.0453269927794831,-0.3535081860488454,65.8158,88.07359,166.0594,0.6266689,-0.3168606,0.5532531,6
5.04,-34.73999,1.144322,-36.67943,-0.013505706646522,-0.0372165970740062,-0.3382855332866876,58.36909,86.26917,167.9301,0.6310229,-0.2911144,0.5985284,6
5.06,-34.63609,1.325889,-36.70966,0.0445813630541742,-0.0203250410423329,-0.3253482918184192,61.46958,86.06697,166.1547,0.627323,-0.3001429,0.5816702,6
5.08,-34.53376,1.504591,-36.74076,0.1021721803883166,-0.0029121576066449,-0.3167993575417656,64.5641,85.6178,164.1552,0.6230378,-0.3088935,0.564283,6
5.1,-34.43317,1.680511,-36.77266,0.1588355503232428,0.011933319745203,-0.3125778514391486,67.64774,84.82706,161.8344,0.6181736,-0.3173597,0.546383,6
5.12,-34.31273,1.211902,-36.76166,0.2187245854859911,0.0309432258757365,-0.3106066020583302,43.05117,94.3226,174.0375,0.6941801,-0.2136656,0.6176649,6
5.14,-34.20442,1.385759,-36.79595,0.2781049712687231,0.0495689192560398,-0.3129197528479954,46.31026,95.23037,173.4382,0.6931899,-0.2257713,0.6021646,6
5.16,-34.06821,1.250223,-36.82026,0.3254550680716632,0.110294825398913,-0.3180176198591482,26.1424,99.04759,176.0607,0.7455745,-0.1212549,0.6260267,6
5.18,-33.95077,1.418696,-36.85888,0.3589304136073457,0.0997746034452481,-0.3170366691084529,29.6706,100.2748,175.848,0.7474548,-0.1371231,0.6120573,6
5.2,-33.83595,1.583453,-36.89833,0.3903382876899894,0.0878699776028813,-0.3192798757249546,33.20257,101.5319,175.7171,0.748516,-0.1528459,0.5974326,6
5.22,-33.81813,1.267969,-36.87003,0.4191290853876586,0.0715844017294726,-0.3244298444625455,8.120035,103.8499,177.6049,0.7859693,-0.02724249,0.6138462,6
5.24,-33.69958,1.434719,-36.91102,0.4552692019692612,0.0757369490801528,-0.3205441157982651,11.68234,105.1846,177.6738,0.7913008,-0.04577133,0.6025632,6
5.26,-33.5838,1.597661,-36.95279,0.4868520452907106,0.0794005449371696,-0.318792404076567,15.24103,106.5423,177.8295,0.7957559,-0.06424544,0.5906276,6
5.28,-33.48488,1.28528,-36.92214,0.5172230903906483,0.1270779992331425,-0.3205967829724958,353.3086,107.0755,178.7523,0.8024529,0.04342293,0.5937558,6
5.3,-33.36489,1.44853,-36.96387,0.530894949581104,0.1044657669362409,-0.3118501133312064,356.8812,108.3694,179.0441,0.8104464,0.02268586,0.5851212,6
5.32,-33.22661,1.295978,-36.96191,0.5396559044886531,0.0802091470423828,-0.3039625704364495,353.4668,107.7537,179.5478,0.8063006,0.0367741,0.588742,6
5.34,-33.10569,1.456687,-37.00218,0.5569027856588078,0.1223561693688307,-0.3018698577385406,357.0321,109.0363,179.9531,0.8140204,0.01536491,0.5802586,6
5.36,-32.98797,1.61349,-37.04323,0.5520399692800528,0.0879984600113735,-0.2857201251182175,0.5863888,110.3412,180.4374,0.8208283,-0.006055459,0.5711395,6
5.38,-33.01569,1.262038,-36.99139,0.5439444504191804,0.0997590872162972,-0.274811828406194,355.7412,108.8493,180.6237,0.8128954,0.01719207,0.5811982,6
5.4,-32.89815,1.425754,-37.03168,0.5287261079110479,0.1104724075203429,-0.2645352105102434,359.2719,110.1433,181.0427,0.8198517,-0.003822033,0.5724687,6
5.42,-32.78357,1.585748,-37.0727,0.4944390612737375,0.0470285394327928,-0.2401143977836293,2.791164,111.4633,181.5416,0.8259051,-0.02482641,0.5631227,6
5.44,-32.75749,1.240527,-37.01476,0.4829538296551812,0.0581012657802411,-0.2247191026858557,3.999932,109.3516,182.1109,0.8148862,-0.03519492,0.5782768,6
5.46,-32.63848,1.406631,-37.05545,0.4658249385821507,0.0684263391213847,-0.2103942387317214,7.609471,110.7031,182.5381,0.819806,-0.05589641,0.5683562,6
5.48,-32.52232,1.568905,-37.09689,0.4308905356615535,0.0535016297743779,-0.1874435721630556,11.20744,112.0949,183.0559,0.8237882,-0.07653026,0.5577996,6
5.5,-32.57239,1.226113,-37.02542,0.3916548813707994,0.0406048978396202,-0.1658737675527097,10.35736,109.6349,183.2138,0.8122056,-0.074813,0.5756748,6
5.52,-32.45389,1.396265,-37.066,0.3476826614760306,0.0268819321963973,-0.1452643502431945,13.97207,111.0258,183.6243,0.8155475,-0.09470479,0.5649059,6
5.54,-32.33796,1.562607,-37.10733,0.296624187838828,0.0081067053875932,-0.118735964680475,17.57471,112.4675,184.1337,0.8179575,-0.1144836,0.5535051,6
5.56,-32.39262,1.190787,-37.02034,0.2422024772496978,-0.0078946635100053,-0.0935234385734773,16.09248,109.5865,183.8132,0.8059005,-0.1075699,0.5743424,6
5.58,-32.27661,1.369168,-37.05819,0.1839929238557562,-0.0240791172780558,-0.0692392243153703,19.6666,111.0063,184.2016,0.807958,-0.1264276,0.5628252,6
5.6,-32.16257,1.543903,-37.09688,0.1522448438506995,0.0351908551503705,-0.0563774050095062,23.2292,112.4863,184.6958,0.8091126,-0.1451403,0.5506925,6
5.62,-32.24935,1.168161,-37.01737,0.0821533980984545,-0.0127721620822515,-0.0233599821935435,20.14486,107.903,184.1039,0.7918622,-0.1313565,0.584092,6
5.64,-32.13553,1.352688,-37.05291,0.028143253794453,-0.0024202346850563,-0.0007008784762376,23.67584,109.2984,184.3688,0.7931743,-0.1490329,0.5722416,6
5.66,-32.14216,1.145362,-37.00381,-0.0264743921506194,0.0086078081820514,0.0202509217295103,24.61219,105.114,184.0873,0.7706015,-0.1571598,0.599659,6
5.68,-32.02929,1.335958,-37.03548,-0.1047546265133148,-0.064741626275959,0.0555322576872097,28.1198,106.4627,184.2105,0.7711949,-0.1738653,0.5874098,6
5.7,-31.91751,1.523156,-37.06818,-0.1532204108416288,-0.0524617997210587,0.0780843170050786,31.62218,107.8674,184.4351,0.7709638,-0.1903808,0.5745451,6
5.72,-31.92451,1.124727,-37.00444,-0.2076444868871823,-0.0953382292543613,0.1061634455918234,32.09834,101.369,183.5799,0.7376808,-0.1983023,0.6152799,6
5.74,-31.81337,1.321463,-37.0326,-0.2605536007568561,-0.1356578484235893,0.1328985245823517,35.54767,102.5933,183.4618,0.7370403,-0.2132356,0.6023665,6
5.76,-31.70288,1.514932,-37.06186,-0.279756380258116,-0.0903718058844405,0.1461823126984072,38.99736,103.8646,183.4329,0.7356339,-0.2279463,0.5888404,6
5.78,-31.71303,1.117026,-37.0277,-0.2963935005664533,-0.0463394603026515,0.1572496844270343,39.63618,100.668,182.7296,0.7188277,-0.2335973,0.6065521,6
5.8,-31.60391,1.31604,-37.05592,-0.3154508554738493,-0.0575511767055887,0.1681871085521145,43.03216,101.7936,182.4864,0.7167456,-0.2469332,0.5928046,6
5.82,-31.49529,1.511894,-37.08525,-0.3304075653081475,-0.0657953824511205,0.1765799346993724,46.43008,102.9649,182.3251,0.7139383,-0.2600181,0.5784708,6
5.84,-31.43794,1.113645,-37.06496,-0.3342602366975584,-0.0147440079247474,0.1786307408650547,46.39077,99.82545,180.4085,0.7023134,-0.2561381,0.5929716,6
5.86,-31.33033,1.313804,-37.09183,-0.3347483234845483,-0.0498548290868172,0.1835317258236415,49.73637,100.8665,180.0843,0.6992079,-0.2683834,0.5781531,6
5.88,-31.22312,1.5109,-37.11981,-0.3317012103780414,-0.08370956436046,0.1862006786126988,53.0844,101.9539,179.8366,0.695413,-0.2803643,0.5627775,6
5.9,-31.17062,1.107043,-37.10625,-0.3102369311689146,-0.0310038767442944,0.1804668430932166,53.31972,98.38414,177.7371,0.6820935,-0.2798179,0.5772264,6
5.92,-31.06524,1.305114,-37.13405,-0.2635050152588549,-0.0625351424065571,0.1729449315645679,56.6113,99.20293,177.1759,0.6778657,-0.2906968,0.5615355,6
5.94,-30.84627,1.104426,-37.16289,-0.2146148246978247,-0.0942773923025926,0.1631035199533572,61.23017,92.62252,171.2357,0.6473672,-0.303194,0.5645813,6
5.96,-30.74328,1.295316,-37.19315,-0.1688780128670113,-0.0393793023508198,0.1482616576974909,64.42734,92.58932,169.7648,0.6420407,-0.3123047,0.5478842,6
5.98,-30.64126,1.483363,-37.2243,-0.1216790799526483,0.0133313795397574,0.1314988777644279,67.62167,92.33544,168.0926,0.6361112,-0.3211226,0.5306852,6
6.0,-30.5404,1.668614,-37.25627,-0.0643592697306112,-0.03601946331152,0.1195216320672596,70.81022,91.75721,166.1129,0.6295844,-0.3296412,0.5130001,6
6.02,-30.38175,1.144231,-37.24457,-0.0122881297211305,-0.0017985058645464,0.1034906897383303,58.38861,87.1322,167.8678,0.6356238,-0.287872,0.5934701,6
6.04,-30.27859,1.325892,-37.27699,0.0403014307768714,0.0316906718938944,0.0862839476477681,61.48108,86.80415,166.021,0.6313711,-0.2967521,0.5770833,6
6.06,-30.09663,1.195467,-37.28706,0.0874856260667247,0.0467044987191809,0.0701380900580312,48.3018,92.38642,173.1988,0.6741508,-0.2436601,0.6130123,6
6.08,-29.9917,1.37159,-37.32016,0.1344989147742428,0.0620220406389917,0.0531233457509197,51.45784,93.00114,172.3445,0.6719564,-0.2545309,0.5976983,6
6.1,-29.88867,1.544762,-37.35402,0.1809839322079973,0.0745580993276706,0.0356041063912311,54.61856,93.58028,171.4839,0.6691509,-0.2651718,0.5818537,6
6.12,-29.72412,1.250093,-37.37719,0.2289528224722299,0.0148004713946884,0.0228109358691952,26.20815,99.16911,176.0472,0.7461658,-0.1213275,0.6251141,6
6.14,-29.60673,1.418561,-37.41579,0.2743009206743716,0.0473029041051209,0.0032406170440433,29.73882,100.3282,175.8224,0.7476668,-0.1372266,0.6115464,6
6.16,-29.49192,1.583315,-37.45515,0.3180066356205002,0.0777981725068911,-0.0164035792430983,33.27308,101.5139,175.6741,0.7483574,-0.1529813,0.59733,6
6.18,-29.45382,1.267954,-37.43149,0.3451057987063901,0.081545962334418,-0.0278236207332547,8.13058,104.0634,177.6028,0.787108,-0.02715632,0.6123741,6
6.2,-29.33538,1.434704,-37.47246,0.3693948869527292,0.0853886081638194,-0.0386447588150398,11.69402,105.3351,177.666,0.7920874,-0.04565701,0.6015092,6
6.22,-29.21968,1.597647,-37.51414,0.3904062305199898,0.0864570140620916,-0.04837533838361,15.25421,106.6286,177.812,0.7961992,-0.06410357,0.5899993,6
6.24,-29.10074,1.285273,-37.48726,0.423503263238624,0.0874549931004296,-0.0570965782974211,353.3104,107.2743,178.7497,0.8034813,0.04336168,0.5923645,6
6.26,-28.98087,1.448532,-37.52891,0.4533767914252666,0.0879236758624799,-0.0644846680486725,356.8837,108.5068,179.0355,0.8111463,0.0227134,0.5841503,6
6.28,-28.86399,1.607903,-37.57124,0.4795345217042457,0.0850458918247967,-0.0700428455112414,0.4490614,109.7542,179.3974,0.817914,0.002046194,0.5753033,6
6.3,-28.82307,1.295966,-37.53175,0.5036119962706609,0.1468315081362854,-0.0842247994005225,353.462,108.031,179.5456,0.8077201,0.03670867,0.5867885,6
6.32,-28.7023,1.456686,-37.57201,0.4973146123917602,0.1103826494582984,-0.0789399448156462,357.0276,109.251,179.9463,0.8151043,0.01539681,0.5787334,6
6.34,-28.58469,1.613505,-37.61296,0.4843558667741847,0.120404189676284,-0.0782465328131456,0.5829855,110.4931,180.4221,0.8215855,-0.005926241,0.5700505,6
6.36,-28.57773,1.254614,-37.55131,0.466279836155683,0.129301288638036,-0.0758114423594964,357.4245,108.1353,181.1753,0.8095985,0.004885213,0.5864643,6
6.38,-28.45985,1.418871,-37.59007,0.4270728612034813,0.0635149281630373,-0.0566407331697931,0.9703337,109.3792,181.5692,0.8158601,-0.01606799,0.5780255,6
6.4,-28.34485,1.57941,-37.62953,0.4057121625978892,0.0731216864116789,-0.0492607001921676,4.505674,110.65,182.0412,0.821228,-0.03699763,0.5689667,6
6.42,-28.31361,1.23769,-37.56822,0.3807919412782001,0.0819258426411213,-0.0402885591174246,6.164297,108.598,182.6256,0.8099671,-0.04994673,0.5835585,6
6.44,-28.1937,1.40468,-37.60675,0.3329334529735965,0.0150356670730206,-0.0135883648261359,9.787496,109.9023,183.047,0.8140875,-0.07065927,0.5738359,6
6.46,-28.07653,1.567828,-37.64601,0.2957643851244977,0.0238882837167541,0.0003231259802856,13.39904,111.2496,183.5581,0.8172818,-0.09128586,0.5634738,6
6.48,-28.13271,1.217308,-37.5746,0.2553240246977908,0.0327678942363421,0.0157332649381993,11.89381,109.0101,183.3948,0.8076482,-0.08411755,0.5797516,6
6.5,-28.01448,1.389524,-37.61277,0.2112018609108785,0.0388681987556588,0.0331258757012671,15.49688,110.3472,183.7963,0.8103949,-0.1038968,0.5692328,6
6.52,-27.89862,1.55798,-37.6517,0.1515526938239406,0.0155734456652724,0.0557806468894073,19.08865,111.7361,184.2943,0.8122309,-0.1235542,0.5580875,6
6.54,-27.9435,1.183059,-37.56812,0.0909336510515843,-0.004651647175253,0.0795702785653569,17.41344,108.3254,183.95,0.7978103,-0.1161932,0.5826241,6
6.56,-27.82774,1.363477,-37.60344,0.0290030650746508,-0.0247815580247044,0.104937338115377,20.97664,109.6776,184.2964,0.7993814,-0.1348895,0.5714375,6
6.58,-27.71375,1.540301,-37.63959,-0.0352200885371329,-0.0467962418460289,0.1291816823099534,24.52989,111.0879,184.7441,0.8000757,-0.153434,0.5596368,6
6.6,-27.60179,1.713638,-37.67649,-0.0986713391448042,-0.0652653591461089,0.1540010003354277,28.07029,112.572,185.3042,0.7998934,-0.1718046,0.5472358,6
6.62,-27.73887,1.152961,-37.56429,-0.1616601074677022,-0.0833055891257035,0.1797829220455735,23.07541,105.559,184.0898,0.7754089,-0.1487479,0.5979671,6
6.64,-27.62545,1.34154,-37.59611,-0.2148886222095272,-0.1039165883181422,0.2025236515725312,26.59291,106.8629,184.2577,0.7759853,-0.165964,0.5862745,6
6.66,-27.51324,1.526694,-37.62888,-0.2655847569286611,-0.1205471675096987,0.2254259972040087,30.10453,108.2212,184.5235,0.7757359,-0.1829986,0.5739707,6
6.68,-27.56254,1.128665,-37.55148,-0.2961677172807038,-0.0781690523423859,0.2359933657627229,30.05313,101.2543,183.7389,0.7408383,-0.1887378,0.6188847,6
6.7,-27.45079,1.324107,-37.57864,-0.3240157987764558,-0.0367394667796021,0.2458124661764822,33.51622,102.4463,183.6675,0.7403217,-0.2043736,0.6065765,6
6.72,-27.392,1.118665,-37.5555,-0.3751463284485252,-0.1088163868645304,0.2672785256893251,37.3974,98.88541,183.0399,0.7138721,-0.2274667,0.6221326,6
6.74,-27.28171,1.317089,-37.58091,-0.4047838927189668,-0.0918728750947356,0.274051260072965,40.80886,99.95425,182.789,0.7120695,-0.2416117,0.6090616,6
6.76,-27.17192,1.512328,-37.60738,-0.4300358708008782,-0.0738804649456681,0.2792336049779358,44.22243,101.061,182.6128,0.7095484,-0.2555119,0.5953888,6
6.78,-27.06282,1.704403,-37.63485,-0.4616563172544219,-0.1416982974713549,0.2898480119355007,47.63693,102.2213,182.5232,0.706312,-0.2691545,0.5811282,6
6.8,-27.09604,1.114411,-37.59388,-0.4709362066940179,-0.120310279600464,0.2900457164575289,44.69891,99.10149,181.1697,0.7012628,-0.2538708,0.6029622,6
6.82,-26.98754,1.31462,-37.61844,-0.475088737595331,-0.0979496118375126,0.2887451643577705,48.06094,100.1277,180.899,0.6982322,-0.2668959,0.5887284,6
6.84,-26.8794,1.511746,-37.64407,-0.4679290424710571,-0.1629961309668695,0.2897458715101191,51.42488,101.2009,180.7055,0.6945159,-0.2796591,0.573929,6
6.86,-26.77601,1.107083,-37.63228,-0.4492116004812949,-0.1393036885358749,0.2822443992041723,53.31841,96.44584,177.7197,0.6722798,-0.285607,0.5886317,6
6.88,-26.66979,1.305188,-37.65691,-0.426381104410551,-0.1152686635028187,0.2730167485693533,56.61567,97.1801,177.1284,0.6679581,-0.2970182,0.5732478,6
6.9,-26.56405,1.500338,-37.68254,-0.3997352624991444,-0.0942078659610409,0.2623590411652605,59.91576,97.91729,176.5641,0.6630005,-0.3081461,0.5573298,6
6.92,-26.30754,1.109012,-37.70417,-0.3532159446621685,-0.095922343633824,0.2487884690880237,62.66193,87.59612,167.9066,0.6274385,-0.3109501,0.5751913,6
6.94,-26.20389,1.297389,-37.73206,-0.3031395269690353,-0.0962434930246051,0.2335004497092834,65.80991,87.00753,165.9048,0.6219425,-0.3201435,0.5584819,6
6.96,-26.10134,1.482931,-37.76079,-0.266916561154479,-0.0390754242188657,0.2168151926627297,68.94466,86.03014,163.5321,0.6158702,-0.3290404,0.541267,6
6.98,-26.00004,1.665693,-37.79029,-0.2135551644779774,-0.0525660408704794,0.2038818947641285,72.05793,84.46925,160.5912,0.6092271,-0.3376348,0.5235619,6
7.0,-25.83681,1.161557,-37.77536,-0.1583846631331935,-0.0664367299096863,0.1902202281976919,55.79025,86.05528,168.8248,0.6335012,-0.2816693,0.6119302,6
7.02,-25.73239,1.341041,-37.80523,-0.10166116554069,-0.0838661601456858,0.1761643357438211,58.8871,85.88673,167.1879,0.6297264,-0.2913983,0.5961339,6
7.04,-25.62959,1.517639,-37.83585,-0.0424759183466729,-0.0674149972681182,0.1574897229941045,61.97895,85.51254,165.3686,0.625381,-0.3008657,0.5798097,6
7.06,-25.45052,1.228648,-37.84385,0.0182258828442702,-0.0507347052811817,0.1382826135339243,37.8143,94.23746,174.7723,0.7025636,-0.1886565,0.6322679,6
7.08,-25.33805,1.400335,-37.87633,0.068009303505014,0.0094669407543568,0.1154368383795505,41.16948,95.13012,174.2791,0.7019004,-0.2024629,0.6179354,6
7.1,-25.2278,1.56869,-37.90958,0.1171145167105014,0.0664769274183574,0.0924740343892915,44.52924,96.03095,173.8317,0.7005459,-0.2160694,0.6030079,6
7.12,-25.10343,1.263527,-37.9092,0.1516552163544049,0.0281387927482361,0.0790940499031043,13.89658,100.7326,177.2078,0.7661353,-0.05851743,0.6307345,6
7.14,-24.98457,1.431036,-37.94522,0.1781188444418973,0.057420869528159,0.0640965507243231,17.43711,101.928,177.1804,0.7698916,-0.07654833,0.6194456,6
7.16,-24.86832,1.594791,-37.98198,0.2023283690494111,0.0854495360155957,0.0500013039637474,20.97766,103.1465,177.2313,0.7728214,-0.09449947,0.6075049,6
7.18,-24.82589,1.275613,-37.95236,0.2212189365755974,0.0426644095874761,0.0467101710241157,358.4084,104.6741,178.226,0.7913162,0.0207384,0.6110536,6
7.2,-24.70605,1.441072,-37.99017,0.249673208045003,0.0696274606612867,0.0354186035463524,1.970033,105.8739,178.4166,0.7979223,0.0006640637,0.6023571,6
7.22,-24.58898,1.602705,-38.02869,0.2754385381473674,0.0948134935706878,0.0256263704681467,5.525786,107.0894,178.6828,0.803662,-0.01940541,0.5930198,6
7.24,-24.46318,1.293783,-37.99929,0.2938554223828764,0.047471183411632,0.0279911911877768,352.8252,106.078,179.2903,0.7972313,0.04256023,0.6003911,6
7.26,-24.34133,1.455115,-38.03623,0.3092479904803515,0.0691302692231256,0.0224557395843616,356.4005,107.2407,179.642,0.8046452,0.02114253,0.5929167,6
7.28,-24.22253,1.612535,-38.07389,0.3205647143857177,0.0892280761768655,0.0190612393690736,359.9669,108.4217,180.0652,0.8111747,-0.000292216,0.5848038,6
7.3,-24.10704,1.766233,-38.11215,0.3273268183516862,0.1050793431139531,0.0182863669075024,3.522619,109.6301,180.5625,0.8168138,-0.02172039,0.5760615,6
7.32,-24.16759,1.262034,-38.02753,0.3134664423083264,0.0912250518024695,0.0230833514603698,355.7416,106.7435,180.6084,0.8020756,0.01790787,0.5960422,6
7.34,-24.04849,1.425706,-38.06282,0.2965864964611122,0.0787458194988837,0.029749247918656,359.2805,107.917,181.0078,0.8085763,-0.003416887,0.5882921,6
7.36,-23.93226,1.58565,-38.09883,0.2762481196765312,0.0648732949820123,0.0387464863061151,2.809472,109.1153,181.4798,0.8142032,-0.02473211,0.5799187,6
7.38,-23.92931,1.240561,-38.03294,0.2493693741206151,0.0528818801066574,0.0493669195658661,3.98822,106.6498,182.0903,0.8010372,-0.03540018,0.5973247,6
7.4,-23.80857,1.40668,-38.06755,0.2207151217735994,0.042795701328872,0.0614617509793387,7.602331,107.8778,182.4926,0.8055717,-0.05655851,0.5883796,6
7.42,-23.69057,1.56897,-38.1029,0.1898510105195123,0.0317494984218875,0.0754731452655663,11.20649,109.1432,182.9778,0.809203,-0.07765177,0.5787874,6
7.44,-23.70954,1.217305,-38.02821,0.1457386769560349,0.0172711698922871,0.0909855711512044,11.89581,106.5731,183.3886,0.7951397,-0.08549467,0.5967909,6
7.46,-23.58969,1.389486,-38.06116,0.0998871657626545,0.0057960297169337,0.1078250386502066,15.50526,107.8498,183.7805,0.7978023,-0.1058063,0.586742,6
7.48,-23.47216,1.557902,-38.09491,0.0519106162515865,-0.0055942780459957,0.1264206969025147,19.10411,109.1766,184.265,0.7995748,-0.1259954,0.5760509,6
7.5,-23.35719,1.722695,-38.12933,0.0270255315123799,0.0567477618975775,0.1305182885577238,22.69,110.5671,184.851,0.8004562,-0.1460392,0.5647304,6
7.52,-23.49938,1.183059,-38.02412,-0.0365278321049613,0.0144904880548301,0.1534706154865901,17.41087,106.3615,183.9556,0.7877059,-0.1179616,0.5962169,6
7.54,-23.38247,1.363459,-38.05499,-0.0997952899187515,-0.0248323148422514,0.1778816476806612,20.97515,107.6553,184.3044,0.7891652,-0.1371658,0.5854649,6
7.56,-23.26729,1.540272,-38.0867,-0.1393316458958886,0.0167106598721264,0.1856833033459235,24.52981,109.0058,184.7505,0.7897668,-0.1562162,0.5740892,6
7.58,-23.33693,1.153007,-38.00462,-0.2043043347695974,-0.0238141351830521,0.208011193473558,23.07256,102.9529,184.0777,0.7616311,-0.1517524,0.6154337,6
7.6,-23.22236,1.341617,-38.03147,-0.2674415545452704,-0.0610793603349228,0.2313117616800477,26.59131,104.192,184.2289,0.7621564,-0.169519,0.604162,6
7.62,-23.10893,1.526808,-38.05925,-0.3289962394255337,-0.0982630561459661,0.2559393817807169,30.10478,105.4823,184.4731,0.7618787,-0.1871031,0.5922655,6
7.64,-23.13989,1.128659,-37.99282,-0.3691568805610679,-0.1115012310485513,0.2704729567829798,30.04867,99.17671,183.745,0.7294948,-0.191991,0.6322291,6
7.66,-23.02735,1.324094,-38.01571,-0.4057182265871581,-0.1206059213862324,0.284935213402739,33.51208,100.3121,183.6755,0.7288907,-0.2081941,0.6202789,6
7.68,-22.91545,1.516255,-38.03959,-0.4389598879891716,-0.1288619877410113,0.2996398440599783,36.975,101.4905,183.6889,0.7275403,-0.2241824,0.6077061,6
7.7,-22.80441,1.705178,-38.06442,-0.4451265677639981,-0.0525195387045587,0.2982555919854315,40.43594,102.7273,183.7962,0.7254461,-0.2399396,0.5945241,6
7.72,-22.87605,1.117039,-38.00487,-0.4706370240066251,-0.089154856862303,0.3042346784720298,39.63336,97.19898,182.7292,0.7001464,-0.2409368,0.6280363,6
7.74,-22.7655,1.316059,-38.02653,-0.4833193179356732,-0.0635812555272978,0.3017539752331988,43.03829,98.19785,182.4744,0.6978058,-0.255298,0.6149595,6
7.76,-22.65536,1.511923,-38.04921,-0.4908393891889515,-0.0367403417671612,0.2977760434594554,46.4451,99.23422,182.2901,0.6947715,-0.2694044,0.6012837,6
7.78,-22.61954,1.113676,-38.02526,-0.4990539759246122,-0.0961717899662355,0.2981387644831228,46.38402,96.02621,180.4002,0.6823081,-0.2658302,0.6159206,6
7.8,-22.51071,1.313877,-38.04528,-0.5025129483210424,-0.1547276310157913,0.2977296124885678,49.73125,96.9306,180.0516,0.679035,-0.2791228,0.6017461,6
7.82,-22.40219,1.511031,-38.06631,-0.4802368883335393,-0.0989594047071501,0.2864097657694282,53.08084,97.86874,179.7646,0.6751066,-0.292146,0.5870028,6
7.84,-22.24828,1.103643,-38.06343,-0.4363809998892005,-0.1283358751069035,0.2756374326823518,56.51,93.29044,176.2556,0.6507561,-0.3038951,0.593147,6
7.86,-22.14218,1.299397,-38.08475,-0.3886488548871645,-0.1570406831947957,0.2634855707228842,59.78795,93.8,175.4899,0.6459231,-0.3153697,0.5775858,6
7.88,-22.03667,1.492249,-38.10701,-0.3366962190182172,-0.0985916770720226,0.2444891933581008,63.06791,94.26842,174.7038,0.6404861,-0.3265478,0.5614962,6
7.9,-21.93191,1.682228,-38.13013,-0.2812885183395681,-0.0418685614137967,0.2239410517364266,66.34978,94.68419,173.8832,0.6344498,-0.3374215,0.5448924,6
7.92,-21.7699,1.117881,-38.12156,-0.2149247046309739,-0.0900116276621706,0.2078964718358467,61.83287,84.16538,167.2721,0.6137027,-0.3152392,0.5946362,6
7.94,-21.66546,1.303998,-38.14584,-0.1682525659722205,-0.0524295601178944,0.190017107371708,64.95068,83.46067,165.1922,0.6084916,-0.3250057,0.5782791,6
7.96,-21.56219,1.48729,-38.17092,-0.108968501643472,-0.0583613194845773,0.1747138611704306,68.05267,82.3595,162.7336,0.6027257,-0.3344775,0.5614066,6
7.98,-21.35429,1.178077,-38.16316,-0.0484520859242527,-0.0645597954144105,0.1589494709107484,52.09443,86.12579,171.2258,0.6361937,-0.2729514,0.6315407,6
8.0,-21.24821,1.3559,-38.18824,0.0130181253458689,-0.0741713651093581,0.1430473213011707,55.22393,86.30273,170.0156,0.6331587,-0.2841125,0.6164221,6
8.02,-21.14382,1.53082,-38.2141,0.0656896355008744,0.0123476389041246,0.1205747176729596,58.35401,86.36824,168.7187,0.6295595,-0.2950213,0.6007668,6
8.04,-20.9705,1.239729,-38.22588,0.124076723210186,0.0066344200379762,0.1012849311843799,32.01188,93.57899,175.3898,0.7076145,-0.160461,0.6495221,6
8.06,-20.85384,1.409816,-38.25439,0.1837307548612043,-1.9587626685635406e-06,0.0819309398172061,35.45503,94.52926,175.0326,0.7079157,-0.1761191,0.6360905,6
8.08,-20.73949,1.576394,-38.2837,0.2325362696216784,0.058761988819984,0.0593790689819151,38.90208,95.49527,174.7323,0.7074972,-0.1915996,0.6220246,6
8.1,-20.62765,1.739586,-38.31374,0.266501961165122,0.0467477750913583,0.044928072483068,42.35338,96.48683,174.4945,0.7063568,-0.2068927,0.6073365,6
8.12,-20.61414,1.268052,-38.27863,0.2998949089693368,0.0341766658387991,0.0310437197416666,8.145451,99.99095,177.5959,0.7648491,-0.02961843,0.6399424,6
8.14,-20.49356,1.434956,-38.31021,0.3297994733834835,0.0886285686818557,0.0129905160775285,11.69734,101.1438,177.646,0.7695686,-0.04892121,0.6300536,6
8.16,-20.37557,1.598087,-38.34256,0.3561270967226138,0.0737783911740981,0.0049219647906388,15.24647,102.3159,177.7708,0.7734663,-0.06816742,0.6195053,6
8.18,-20.27878,1.285284,-38.30889,0.3798737680773172,0.0580205315788861,-0.001491926170182,353.3139,103.0225,178.7402,0.7809522,0.04488042,0.6217664,6
8.2,-20.15633,1.448617,-38.34068,0.4111993960713009,0.1104070290807215,-0.0158682227375352,356.8849,104.1401,179.0109,0.788298,0.02351289,0.614633,6
8.22,-20.03674,1.608075,-38.37325,0.4301911804581579,0.0890257421799019,-0.0179008788872749,0.4490116,105.2718,179.3507,0.7947897,0.002125329,0.6068462,6
8.24,-19.94972,1.282753,-38.33459,0.4458246926957505,0.0673169574522,-0.0175228128110749,353.7788,103.7593,179.7813,0.7854913,0.03499718,0.6164865,6
8.26,-19.8275,1.444648,-38.36425,0.455909276825186,0.1125034383504335,-0.0245780483175064,357.3307,104.8666,180.1687,0.7924491,0.01303441,0.6094917,6
8.28,-19.70821,1.602723,-38.39471,0.4600741910321799,0.1548816936802497,-0.0293485356460445,0.8733913,105.9956,180.624,0.7985526,-0.008935908,0.6018525,6
8.3,-19.59208,1.757159,-38.42587,0.4337818893291008,0.0993497058726727,-0.018345991645253,4.405265,107.1549,181.1504,0.8037963,-0.03089058,0.5935775,6
8.32,-19.6672,1.250367,-38.35278,0.4039794422083052,0.0436755602171014,-0.00466354573072,359.394,104.5376,181.4068,0.7908593,-0.006473178,0.6118519,6
8.34,-19.54625,1.414969,-38.38263,0.3961834521581111,0.0831972653573493,-0.0063682970168397,2.967721,105.6786,181.8064,0.7963317,-0.02819831,0.6041003,6
8.36,-19.42806,1.575812,-38.41325,0.3643456081795224,0.0490553816658355,0.0076952435462489,6.531966,106.8494,182.2791,0.8009364,-0.04988649,0.595703,6
8.38,-19.44576,1.232031,-38.34341,0.3301448591497318,0.0163136744282919,0.0237720856679644,8.243153,104.3347,182.9067,0.7863916,-0.0640495,0.613014,6
8.4,-19.32377,1.400607,-38.37217,0.3097347887308999,0.057309327762901,0.0269087699817012,11.86532,105.533,183.3013,0.7897822,-0.08532479,0.6039445,6
8.42,-19.2043,1.565364,-38.40173,0.2630076885508554,0.0208652571422464,0.0448007936215475,15.47738,106.7746,183.7804,0.7922932,-0.1064997,0.5942147,6
8.44,-19.24853,1.199559,-38.33058,0.2141016902982517,-0.0129103218719653,0.0645023974198597,14.76544,104.48,183.6982,0.7810816,-0.1039432,0.6102406,6
8.46,-19.12903,1.375864,-38.35758,0.1828078027712438,0.029589757376394,0.0698220013391592,18.35388,105.715,184.0803,0.7830063,-0.1242498,0.6002194,6
8.48,-19.0115,1.548496,-38.38542,0.1487372789284247,0.0708715813326337,0.0762696957944459,21.93234,107.0032,184.5543,0.7840754,-0.1444162,0.5895544,6
8.5,-18.89617,1.71758,-38.41401,0.0762002219674271,0.0059760300699108,0.1003726506359461,25.49838,108.3585,185.1298,0.7842887,-0.164418,0.5782582,6
8.52,-19.04022,1.16816,-38.31931,0.0029587559019195,-0.0565052939619798,0.126231183662286,20.1461,102.9355,184.108,0.7657996,-0.1364925,0.6178623,6
8.54,-18.92368,1.352627,-38.34416,-0.0330527281705474,-0.0144893993970803,0.1331891056109366,23.68863,104.1535,184.3664,0.7666737,-0.1554687,0.6072513,6
8.56,-18.80852,1.533597,-38.36988,-0.0929146612513627,-0.0549678471847507,0.1535002869289661,27.22406,105.4246,184.7169,0.7667342,-0.1742764,0.5960078,6
8.58,-18.87747,1.139004,-38.29701,-0.1515236769216497,-0.091891202455743,0.1749351705658224,26.29976,99.20493,184.0018,0.7359967,-0.1732425,0.6367578,6
8.6,-18.76336,1.331368,-38.31776,-0.1816872609556903,-0.0443499708625649,0.1806435018215912,29.79202,100.3448,184.0481,0.7358887,-0.1907551,0.6255421,6
8.62,-18.65008,1.520402,-38.33946,-0.223522945095232,-0.0803537649312939,0.1953726197933498,33.28134,101.5305,184.1794,0.7350243,-0.2080682,0.6136947,6
8.64,-18.658,1.121722,-38.28651,-0.2629410154002647,-0.1131521444265819,0.210379332343499,34.72084,95.59179,183.2929,0.7009615,-0.220676,0.647258,6
8.66,-18.54585,1.319324,-38.30451,-0.2787253428335996,-0.0590384720370697,0.2116943016473786,38.15411,96.58994,183.0966,0.6994447,-0.2364302,0.6351215,6
8.68,-18.43416,1.51372,-38.32349,-0.291601782390779,-0.0056827765303384,0.2120663319971978,41.58869,97.62249,182.9702,0.6972286,-0.2519464,0.6223621,6
8.7,-18.32312,1.704934,-38.34341,-0.3225926721708048,-0.0664511501980907,0.2189774288750605,45.02347,98.70325,182.9238,0.6943167,-0.2672099,0.6089934,6
8.72,-18.37696,1.114926,-38.30391,-0.3500552245368491,-0.1257652223248944,0.2256861999805863,43.28273,95.17357,181.7919,0.6822842,-0.2594428,0.6311104,6
8.74,-18.26687,1.314874,-38.32133,-0.34697863189758,-0.0709206038539062,0.2196667370976932,46.66019,96.08604,181.5121,0.6792924,-0.2737603,0.6177416,6
8.76,-18.15708,1.511732,-38.33974,-0.3403914577604072,-0.1016440812273447,0.2172107884759961,50.03944,97.03435,181.2968,0.6756417,-0.2878116,0.6037852,6
8.78,-18.08684,1.109911,-38.31974,-0.3298275230117458,-0.1304901196575735,0.2139622337518867,50.6839,93.08088,178.7672,0.6591396,-0.2873354,0.6182727,6
8.8,-17.97877,1.309063,-38.3365,-0.304488898629615,-0.0721917788868863,0.2030430401763308,53.99817,93.79459,178.2706,0.6551633,-0.3003526,0.6037657,6
8.82,-17.87104,1.505242,-38.35421,-0.2536455889988422,-0.0976434838232308,0.1927500499978105,57.31501,94.51725,177.8067,0.6505707,-0.3130876,0.5887021,6
8.84,-17.64893,1.104362,-38.35806,-0.2003875972944975,-0.122786014524045,0.1811974118670738,61.22924,86.95182,171.2619,0.6185756,-0.3233687,0.5960069,6
8.86,-17.54352,1.29525,-38.37752,-0.1518913036331699,-0.0606995237219078,0.164938636931895,64.43612,86.72953,169.7722,0.6131514,-0.3342701,0.5799788,6
8.88,-17.43896,1.483304,-38.3978,-0.1017657502440396,-0.0002701714491568,0.1475476813885796,67.6377,86.25792,168.0502,0.6071677,-0.3448652,0.5634325,6
8.9,-17.3354,1.668569,-38.41888,-0.0417608959607824,-0.0414372383842922,0.1355677386770182,70.83031,85.41822,165.9751,0.6006293,-0.3551468,0.5463825,6
8.92,-17.17776,1.144106,-38.40006,0.0196210883255758,-0.0844398221378146,0.1229212453012582,58.40923,81.48076,167.8554,0.6055828,-0.3073559,0.6239648,6
8.94,-17.07218,1.325792,-38.42138,0.0733756433927244,-0.0197783561339875,0.1050319709369187,61.50126,80.95708,165.9813,0.6011825,-0.3179348,0.6083124,6
8.96,-16.88933,1.195329,-38.4199,0.1380292920814003,-0.0224662300898601,0.0899476909498071,48.32956,86.84444,173.1869,0.6436953,-0.2595332,0.6447725,6
8.98,-16.7819,1.371458,-38.44158,0.2037214104079934,-0.0260428838146257,0.0746822269390898,51.48712,87.27383,172.3146,0.6412624,-0.2719821,0.6303422,6
9.0,-16.67621,1.544653,-38.46405,0.254205144104024,0.0398195989499286,0.0545103950785792,54.64763,87.65194,171.4169,0.6382651,-0.284192,0.6153693,6
9.02,-16.57242,1.715015,-38.48724,0.305269543804965,0.036395352841708,0.0381369927469101,57.81012,87.97007,170.4829,0.6347105,-0.2961548,0.5998666,6
9.04,-16.42325,1.257255,-38.48862,0.356364937753276,0.0320288727042601,0.0217524108278714,20.0565,95.17418,176.6099,0.7301797,-0.09589102,0.6600708,6
9.06,-16.30303,1.425424,-38.51485,0.3964658667496161,0.093119812552101,0.0034740621477551,23.57715,96.21745,176.4769,0.7325613,-0.1139507,0.648652,6
9.08,-16.18523,1.589895,-38.5419,0.4327701962116836,0.1511414722851795,-0.0140613507310778,27.10021,97.28113,176.4117,0.7341765,-0.1318966,0.6365674,6
9.1,-16.1594,1.271851,-38.5163,0.4515860535255611,0.1138980285233277,-0.0201060882716399,2.407139,99.64964,177.9794,0.7640272,-7.933192e-05,0.6446013,6
9.12,-16.03766,1.438216,-38.54446,0.4682715504590109,0.0750763735708525,-0.0250345702689136,5.964195,100.7477,178.0975,0.7696239,-0.0204051,0.636159,6
9.14,-15.9185,1.600788,-38.57342,0.4967627936438463,0.1264665481965403,-0.0383221426012365,9.517316,101.8614,178.2854,0.7744035,-0.04070377,0.6270537,6
9.16,-15.80204,1.291459,-38.54183,0.5198536124344482,0.1086531250495417,-0.0410351292054107,352.2221,101.8001,179.0625,0.7738844,0.0491068,0.6296326,6
9.18,-15.67803,1.453459,-38.5695,0.5397957696998572,0.0897780143802787,-0.0418355230654885,355.802,102.8539,179.373,0.7811525,0.02711149,0.6232412,6
9.2,-15.55692,1.611553,-38.59799,0.5588644661183133,0.137860670846956,-0.0503328628051873,359.3745,103.9232,179.7482,0.7875769,0.005093684,0.6161886,6
9.22,-15.49575,1.26979,-38.55354,0.5586238389716169,0.1099695995582145,-0.0470488142404112,354.0964,102.468,180.0309,0.7786837,0.03203373,0.6252998,6
9.24,-15.37411,1.432902,-38.57902,0.5541348143980975,0.0823018740478006,-0.0416312704871648,357.6298,103.5225,180.4251,0.7853122,0.009887687,0.6187431,6
9.26,-15.25526,1.592276,-38.60531,0.5494159173227526,0.1242240608981234,-0.0444671425952014,1.154365,104.5994,180.8839,0.7911091,-0.01226264,0.6115434,6
9.28,-15.13941,1.748088,-38.63233,0.5385970564532048,0.1636229334809859,-0.0456173327141717,4.668533,105.7069,181.4102,0.7960692,-0.03439385,0.6037086,6
9.3,-15.19698,1.246051,-38.56789,0.4951437745173697,0.1056468272467182,-0.0308141008204394,1.378569,103.3447,181.6293,0.7842354,-0.01861256,0.620184,6
9.32,-15.07463,1.411029,-38.59447,0.4482426963455574,0.0478536039495154,-0.0139302670915872,4.980236,104.4459,182.0348,0.7890568,-0.04063221,0.6125257,6
9.34,-14.95498,1.572201,-38.62184,0.4257238013949365,0.086054926566073,-0.010307693526383,8.572955,105.5798,182.5126,0.7930136,-0.06260218,0.6042082,6
9.36,-14.97798,1.226234,-38.55184,0.3750274567747318,0.0487081202406651,0.00828859785602,10.32318,102.971,183.1943,0.7774137,-0.07772042,0.6219085,6
9.38,-14.85578,1.396398,-38.57719,0.3219630726663955,0.0134405658724343,0.0286086147235087,13.94256,104.1265,183.5753,0.7801506,-0.09900326,0.6129354,6
9.4,-14.73593,1.562767,-38.60336,0.2861309391960358,0.0524962344604252,0.0358593520759713,17.5525,105.3268,184.0393,0.7820278,-0.1201718,0.6032985,6
9.42,-14.77843,1.190873,-38.53714,0.2242337283441631,0.0130624269734506,0.0564217669696383,16.0812,103.1898,183.8079,0.7726191,-0.1126245,0.6184126,6
9.44,-14.65924,1.36927,-38.56078,0.1604460131934113,-0.0233246086461607,0.0784036947455275,19.65787,104.3753,184.177,0.7740954,-0.1329552,0.6085923,6
9.46,-14.54183,1.544048,-38.58524,0.1186341155558807,0.0193886288968969,0.0869483333327414,23.22524,105.614,184.6354,0.7747387,-0.1531385,0.5981287,6
9.48,-14.42642,1.715319,-38.61046,0.0749688770731291,0.0610671752780939,0.0961597316284654,26.78104,106.9197,185.193,0.7745492,-0.1731496,0.587034,6
9.5,-14.56265,1.160738,-38.52251,-0.0066091045114484,-0.0057134399050713,0.1206463187794719,21.57062,100.9001,184.1382,0.7526535,-0.1464247,0.6303042,6
9.52,-14.44641,1.347337,-38.54391,-0.0880885018229946,-0.0699489782790134,0.1465230969198954,25.10164,102.048,184.3402,0.7531126,-0.1653201,0.6199207,6
9.54,-14.33137,1.530491,-38.56617,-0.1311249056061589,-0.0275047555871837,0.1555154270495364,28.62706,103.2453,184.6289,0.7527857,-0.184039,0.6089014,6
9.56,-14.38623,1.132728,-38.49894,-0.1942614580678203,-0.0680905796750177,0.1754576537107866,28.02539,97.04265,183.9701,0.7209162,-0.1854604,0.6485298,6
9.58,-14.27245,1.32685,-38.51635,-0.2552980035556247,-0.1052093601995588,0.1961238308367834,31.50324,98.09908,183.9536,0.7203441,-0.2028908,0.6374915,6
9.6,-14.15933,1.517687,-38.53469,-0.287082140107509,-0.0562780002446026,0.2028832669174525,34.97968,99.19617,184.0148,0.7190431,-0.2201132,0.6258193,6
9.62,-14.14298,1.118677,-38.48902,-0.3264557850676859,-0.091419643963515,0.214883988977121,37.38656,93.79343,183.0441,0.6855465,-0.2372968,0.6532565,6
9.64,-14.03116,1.317106,-38.50448,-0.3626482188456268,-0.1236413885822938,0.2267389994353204,40.8044,94.69051,182.7836,0.6833736,-0.2528825,0.6411134,6
9.66,-13.9197,1.512368,-38.52089,-0.3778653736565003,-0.0686145780485844,0.2273649004034732,44.22403,95.61536,182.5831,0.6805289,-0.2682179,0.6283514,6
9.68,-13.80882,1.704483,-38.5382,-0.4030462461698125,-0.0980531171337903,0.231770638807145,47.64466,96.58025,182.4518,0.6770157,-0.2832887,0.6149835,6
9.7,-13.84483,1.114429,-38.50546,-0.4241909933401544,-0.1251863176040377,0.2354530581627196,44.69159,93.88467,181.1669,0.6731201,-0.266441,0.6342613,6
9.72,-13.735,1.314676,-38.52031,-0.441551702397938,-0.1534101892487693,0.2386356182805089,48.05477,94.72997,180.8744,0.6698133,-0.2809078,0.6209038,6
9.74,-13.62543,1.511866,-38.5361,-0.4244205210902176,-0.1543939849727168,0.2361513175945857,51.41962,95.60742,180.6403,0.6658678,-0.2951059,0.6069654,6
9.76,-13.52261,1.107114,-38.5195,-0.4032134303925794,-0.1527418569957837,0.2324497192794474,53.30249,91.22544,177.7187,0.6448209,-0.3009921,0.6186798,6
9.78,-13.41507,1.305266,-38.53451,-0.3782044767845027,-0.1518234493926031,0.227768923958334,56.59881,91.77412,177.1017,0.6403024,-0.3139018,0.6040777,6
9.8,-13.30789,1.500491,-38.55041,-0.3437984974658485,-0.0656061032719241,0.2164544267176227,59.89702,92.30472,176.4877,0.6351929,-0.3265194,0.5889288,6
9.82,-13.04986,1.108986,-38.55315,-0.2976834025468884,-0.0890119360882147,0.2087095120205564,62.65024,82.34142,167.922,0.6003959,-0.3300173,0.6034489,6
9.84,-12.94451,1.297424,-38.57108,-0.2483943757287618,-0.1123208987948792,0.1997015309825673,65.79455,81.56019,165.8883,0.5947874,-0.3407924,0.5874066,6
9.86,-12.84013,1.483051,-38.58979,-0.2134460029931619,-0.0497043773197733,0.1874739487155698,68.92209,80.35963,163.451,0.5886451,-0.3512606,0.5708477,6
9.88,-12.73687,1.665921,-38.60923,-0.1620763810224157,-0.0576547878091385,0.1798861316814006,72.0232,78.5302,160.3983,0.5819741,-0.3614144,0.5537863,6
9.9,-12.57446,1.161469,-38.58524,-0.109283493995298,-0.0658530528098241,0.1716878161331045,55.80367,80.67812,168.8087,0.6041143,-0.2992105,0.6408727,6
9.92,-12.46806,1.341008,-38.60447,-0.0553317161504861,-0.0774764814862142,0.1631476000326834,58.89594,80.31994,167.1409,0.6001438,-0.3104765,0.6258167,6
9.94,-12.36315,1.517684,-38.62446,0.0011847488312395,-0.0550932083216639,0.1507317622181778,61.97987,79.73417,165.2661,0.595647,-0.3214709,0.6102229,6
9.96,-12.18334,1.228495,-38.62247,0.0589202298893303,-0.032352753465212,0.1379083727975718,37.85764,88.87086,174.7605,0.6721402,-0.2011179,0.6643398,6
9.98,-12.06862,1.400235,-38.64324,0.1056835563361677,0.0340483511798071,0.121420291665065,41.21045,89.58711,174.2465,0.6711854,-0.2163326,0.650971,6
10.0,-11.95596,1.568663,-38.66482,0.1514977187632543,0.097392275349494,0.1047189579108973,44.56699,90.30022,173.7628,0.6695886,-0.2313392,0.6369914,6
10.02,-11.83143,1.263496,-38.65991,0.1817340806347201,0.0654832749120427,0.0951038924637623,13.94006,95.32963,177.1976,0.7355338,-0.06375796,0.6660962,6
10.04,-11.70988,1.431037,-38.68344,0.2131481079026508,0.0315630989995338,0.0856009887182063,17.48048,96.35798,177.153,0.7388674,-0.08299471,0.656046,6
10.06,-11.59078,1.594839,-38.7078,0.2382461496028666,0.0863613948770959,0.0731448499004541,21.02133,97.40469,177.1751,0.7414284,-0.1021465,0.6453221,6
10.08,-11.47436,1.755066,-38.73289,0.2568534105002644,0.071285825869594,0.0696404334964881,24.56019,98.47939,177.2689,0.7432159,-0.1211879,0.6339372,6
10.1,-11.45435,1.279173,-38.6855,0.2735127146945254,0.0554468557932616,0.0672059341927671,354.477,100.021,178.4413,0.7647807,0.04136845,0.6423438,6
10.12,-11.33139,1.443858,-38.71068,0.3011533323827907,0.1078221483482172,0.0581885427334682,358.0381,101.0424,178.6684,0.7715685,0.01985144,0.63581,6
10.14,-11.21109,1.604719,-38.73665,0.320267457216155,0.088642666408017,0.0591392591643158,1.593641,102.0767,178.9589,0.7775395,-0.001680387,0.6286149,6
10.16,-11.10209,1.295962,-38.69834,0.3368862397111706,0.0686955537641451,0.0619201988802426,353.4576,100.5566,179.517,0.7677441,0.03970263,0.638197,6
10.18,-10.97724,1.456725,-38.72124,0.3505396713021642,0.1153995129093462,0.057688869408051,357.0292,101.5598,179.879,0.7744446,0.01720865,0.6321096,6
10.2,-10.85532,1.613591,-38.74498,0.3592336289617511,0.1588965180924468,0.0550601250944247,0.5928253,102.5831,180.3027,0.7803167,-0.005296602,0.6253576,6
10.22,-10.83462,1.254692,-38.69926,0.334612846238131,0.1035901177208246,0.0652942478785361,357.4087,101.0148,181.164,0.7716157,0.006542741,0.6356062,6
10.24,-10.71295,1.418966,-38.72133,0.3158733743183421,0.122355286670617,0.0666288647782176,0.9570597,102.0395,181.5389,0.7771952,-0.01569196,0.6290611,6
10.26,-10.59395,1.579533,-38.74421,0.2935804712701616,0.1404809003741915,0.0691638672790437,4.497068,103.0895,181.9782,0.7819533,-0.03790398,0.6218626,6
10.28,-10.47785,1.736564,-38.76782,0.2472141538274372,0.0844019383374949,0.0844810800397271,8.027295,104.1729,182.4858,0.7858858,-0.06007008,0.6140187,6
10.3,-10.54931,1.237725,-38.69412,0.1989133727213239,0.0286247027327239,0.1015442583735595,6.143744,101.7027,182.618,0.7734215,-0.05151429,0.6312122,6
10.32,-10.42583,1.404736,-38.71629,0.1738597802689685,0.0684317625363618,0.10687124224272,9.768514,102.7847,183.0225,0.7769277,-0.07364394,0.6232566,6
10.34,-10.30488,1.567923,-38.73927,0.1217551864000801,0.0317246487067602,0.1245265797353365,13.38391,103.906,183.5024,0.7795804,-0.09568731,0.6146274,6
10.36,-10.35621,1.208684,-38.66822,0.0682722105753416,-0.0025835469614629,0.1437951199531486,13.43579,101.4516,183.5681,0.7661326,-0.09795165,0.6312004,6
10.38,-10.23477,1.382931,-38.68885,0.0340452994775942,0.0381147958311244,0.1503029823327963,17.03777,102.5735,183.9444,0.7680314,-0.1191493,0.6221346,6
10.4,-10.11536,1.553467,-38.71032,-0.0022324740736201,0.0774473607552364,0.1577446653931336,20.63075,103.7437,184.4038,0.7690985,-0.1402127,0.6124063,6
10.42,-10.15908,1.175725,-38.6464,-0.0788115167294726,0.0115101010384011,0.1791731637541307,18.73094,100.3729,184.0825,0.753701,-0.1311245,0.6358083,6
10.44,-10.04078,1.35819,-38.66497,-0.131277446617737,0.028061967675665,0.1882133084881765,22.28616,101.4954,184.3754,0.754547,-0.1511962,0.6260684,6
10.46,-9.923922,1.537127,-38.68439,-0.1831353274943713,0.0457090060231321,0.1977445385957477,25.83416,102.6685,184.7537,0.7545987,-0.1711048,0.6156807,6
10.48,-9.808737,1.712632,-38.7046,-0.2617301074178402,-0.0194697986648761,0.2185945702008593,29.37275,103.9058,185.2273,0.7538576,-0.1908267,0.6046574,6
10.5,-9.94766,1.145441,-38.62483,-0.3386631172808075,-0.0821244033886284,0.240802107345238,24.59377,97.46657,184.088,0.7289251,-0.1665768,0.6497326,6
10.52,-9.83232,1.33607,-38.64061,-0.3767307940085252,-0.0370460626590672,0.2475657542981491,28.09928,98.52902,184.1932,0.7287757,-0.185205,0.6393527,6
10.54,-9.717854,1.523348,-38.65727,-0.4299864149447134,-0.075300778450463,0.262680385121576,31.60098,99.63598,184.3784,0.7278839,-0.2036391,0.6283324,6
10.56,-9.754094,1.124823,-38.59871,-0.4798442153735447,-0.1102633078558896,0.2784409671763708,32.07375,93.09573,183.5619,0.6914566,-0.2115859,0.6668975,6
10.58,-9.640953,1.321644,-38.61104,-0.5012677790891507,-0.0585679896947176,0.2815525910172454,35.52132,94.02001,183.403,0.6901269,-0.2285913,0.655711,6
10.6,-9.528252,1.515249,-38.62428,-0.5185341544988379,-0.0076279673372551,0.2840642696550901,38.96962,94.9743,183.3083,0.6881146,-0.2453683,0.6438869,6
10.62,-9.490561,1.115523,-38.59737,-0.5557252631585511,-0.0706987890682015,0.2916511185741433,41.84979,91.8129,182.3987,0.66549,-0.2624989,0.6551678,6
10.64,-9.379506,1.315223,-38.60886,-0.573596548573811,-0.0442019287596691,0.2895990221594946,45.24059,92.61729,182.1009,0.6624656,-0.2778781,0.6426263,6
10.66,-9.268699,1.511822,-38.62124,-0.5860113192342128,-0.0164398698581751,0.2866064670501567,48.63314,93.4466,181.8555,0.6588042,-0.2929887,0.6294781,6
10.68,-9.254419,1.113649,-38.59985,-0.5991818832066813,-0.0749792060876308,0.2872924065750233,46.36358,91.40297,180.4193,0.6569147,-0.2773291,0.6430353,6
10.7,-9.145115,1.313865,-38.61079,-0.6073461390954438,-0.1326532229753291,0.2876394655527985,49.70029,92.15175,180.0726,0.6533856,-0.2919414,0.629667,6
10.72,-9.036016,1.511078,-38.62263,-0.5888234984818861,-0.0759952358459463,0.2802224248767109,53.03884,92.92257,179.7722,0.6492466,-0.3062801,0.6157221,6
10.74,-8.882443,1.103673,-38.60957,-0.5484874480007931,-0.1045228674783279,0.2750822615170927,56.4883,88.4318,176.2584,0.6250804,-0.3189354,0.620274,6
10.76,-8.775473,1.299488,-38.62185,-0.5038784903317682,-0.1323907566944352,0.268984328194402,59.76155,88.76357,175.4676,0.6200611,-0.3317996,0.605423,6
10.78,-8.668978,1.492431,-38.63495,-0.4543357770941483,-0.0730912005537826,0.2571666347174473,63.03568,89.03165,174.6314,0.614479,-0.3443604,0.5900329,6
10.8,-8.563135,1.682531,-38.64886,-0.4008778494910102,-0.0155212850813657,0.2441960249780024,66.31046,89.21449,173.7259,0.608339,-0.3566085,0.5741175,6
10.82,-8.401556,1.11785,-38.62883,-0.3364135363549655,-0.0628877254661251,0.2361317102655071,61.83483,79.0694,167.259,0.5866945,-0.3332236,0.6212777,6
10.84,-8.295819,1.304035,-38.64344,-0.2911925638294047,-0.024505120986372,0.225201626680362,64.94652,78.1737,165.14,0.5813392,-0.344458,0.605554,6
10.86,-8.191139,1.487418,-38.65881,-0.2440447376247597,0.0140795503591183,0.213684489244172,68.03856,76.85201,162.6107,0.5754695,-0.355388,0.589305,6
10.88,-7.984152,1.177981,-38.63596,-0.1840085661892381,-0.0165595859417204,0.2064508969529157,52.11877,80.90334,171.1992,0.6067789,-0.2885836,0.6597108,6
10.9,-7.876628,1.355862,-38.6506,-0.1219028009011283,-0.0491148305295717,0.1991692998612011,55.24387,80.89988,169.9585,0.6035106,-0.3011526,0.6453304,6
10.92,-7.770644,1.530861,-38.66602,-0.0670959629072352,0.0159487052357698,0.1854727348876688,58.36725,80.76654,168.61,0.5997202,-0.3134614,0.6304027,6
10.94,-7.596092,1.239702,-38.66603,-0.0082029266875887,0.012462514412234,0.1737164370420334,32.03596,88.23856,175.3781,0.67657,-0.1709524,0.6817132,6
10.96,-7.477586,1.409837,-38.68263,0.0525048608815719,0.0079853364831327,0.1619923859961503,35.47685,89.02155,174.9992,0.6765569,-0.1879306,0.6692505,6
10.98,-7.361234,1.57648,-38.70008,0.1031168466946253,0.0688800752145752,0.147164811576836,38.92121,89.81098,174.6633,0.6758735,-0.2047239,0.656136,6
11.0,-7.24725,1.739751,-38.71833,0.1520484594732528,0.1266406868268515,0.1326276237060906,42.36964,90.61391,174.3737,0.6745182,-0.2213221,0.6423801,6
11.02,-7.2366,1.268041,-38.68789,0.1827894902296549,0.089130057008871,0.1262124930439805,8.184077,94.49759,177.5849,0.7332945,-0.03299353,0.6758312,6
11.04,-7.113758,1.434983,-38.70679,0.211489508718067,0.1204836527339501,0.1164464084971932,11.73611,95.49266,177.6162,0.7375673,-0.05341562,0.6671721,6
11.06,-6.993361,1.598166,-38.72654,0.2376781967473378,0.1504894351225837,0.1075591574077527,15.28604,96.50367,177.7117,0.7410714,-0.07377687,0.6578294,6
11.08,-6.899852,1.285259,-38.68945,0.2579923841911883,0.1103318172477174,0.1077837549674027,353.3211,97.49126,178.7315,0.7500418,0.04671687,0.6587279,6
11.1,-6.77509,1.448628,-38.70811,0.2763665833757996,0.0682609938032936,0.1097530998174054,356.8932,98.45628,178.9857,0.7568513,0.02440279,0.6529649,6
11.12,-6.653024,1.608136,-38.72763,0.3063599946243895,0.1163195693924344,0.1028107987911841,0.4595279,99.43473,179.2996,0.7628599,0.002069646,0.6465227,6
11.14,-6.569646,1.282861,-38.68649,0.3191438404846865,0.089408970794024,0.105497209351121,353.777,98.14236,179.7725,0.7543383,0.03705702,0.6542352,6
11.16,-6.445262,1.444773,-38.7028,0.3291345675699483,0.0623729344662346,0.1102118081668059,357.3307,99.09733,180.1435,0.7607692,0.01415901,0.6486033,6
11.18,-6.323643,1.602872,-38.72002,0.3371436758194202,0.1022971702935869,0.1075297447006189,0.8767235,100.0734,180.5731,0.7663993,-0.008747392,0.6422997,6
11.2,-6.205034,1.757338,-38.73809,0.339998189454662,0.1395825727630188,0.1063036560723365,4.413757,101.0778,181.0643,0.7712232,-0.03163819,0.6353315,6
11.22,-6.28672,1.250409,-38.67997,0.309247380307481,0.0790804567033238,0.1165863045541959,359.3811,98.80041,181.3977,0.7592491,-0.005746149,0.6506637,6
11.24,-6.163564,1.415035,-38.69648,0.2906162653969918,0.0954892915331244,0.1183574034230758,2.956543,99.78804,181.7802,0.7642493,-0.02849456,0.6442179,6
11.26,-6.043007,1.575912,-38.71387,0.2689241139145599,0.1114813295147632,0.1213885880378278,6.523989,100.8037,182.2261,0.768436,-0.05120598,0.6370978,6
11.28,-6.067055,1.232079,-38.65265,0.21943918969396,0.052159898428192,0.1361879157718677,8.23043,98.58112,182.8989,0.7546468,-0.0659147,0.6517096,6
11.3,-5.943009,1.400672,-38.66808,0.1683301295589137,-0.0063037780651002,0.1528395046885684,11.85435,99.62409,183.2776,0.7576313,-0.08833975,0.6438409,6
11.32,-5.821325,1.565459,-38.68438,0.1429148529941253,0.0310436972878035,0.156960084365088,15.46969,100.707,183.7304,0.7597906,-0.1106628,0.635282,6
11.34,-5.871959,1.199628,-38.62395,0.089528103011278,-0.0095879322657873,0.1716219012035233,14.75776,98.66261,183.6911,0.7491236,-0.1078777,0.6490893,6
11.36,-5.750614,1.375954,-38.63805,0.0349343128783921,-0.0473549427760907,0.1878561776865517,18.34787,99.74073,184.0566,0.7506985,-0.1294075,0.6401909,6
11.38,-5.631087,1.548624,-38.65302,0.0042283050131676,-0.0073973141748521,0.1917564486388343,21.92955,100.8675,184.503,0.7514716,-0.1507939,0.6306195,6
11.4,-5.513619,1.717759,-38.66881,-0.0277577458192337,0.0314004303911533,0.1964615762047206,25.50082,102.0553,185.0392,0.7514427,-0.1720119,0.6203864,6
11.42,-5.665883,1.168225,-38.59554,-0.0996626735764452,-0.0371552869452872,0.2127068266577962,20.13723,97.02075,184.1005,0.7329237,-0.1421323,0.6565493,6
11.44,-5.547743,1.352718,-38.60793,-0.1467273552302355,-0.0215595201441645,0.2176250740507983,23.681,98.08067,184.3412,0.7334785,-0.1624033,0.6469882,6
11.46,-5.43085,1.533735,-38.62119,-0.1924655440120085,-0.0046646187179852,0.2230167725581529,27.21889,99.18793,184.6626,0.733273,-0.1825017,0.6367672,6
11.48,-5.50602,1.139052,-38.56091,-0.262244688671211,-0.0715728177617626,0.2376033180202146,26.29086,93.28414,183.996,0.7021524,-0.1807289,0.673922,6
11.5,-5.390786,1.331447,-38.56974,-0.3299201235819385,-0.1360136795521118,0.2535456324116172,29.78333,94.26518,184.0256,0.7017359,-0.1996028,0.6636651,6
11.52,-5.27625,1.520536,-38.57946,-0.3578949372626362,-0.0903051091805112,0.2559890906352109,33.27339,95.28499,184.1281,0.7006153,-0.2182726,0.6527518,6
11.54,-5.288749,1.121757,-38.53204,-0.3966832066292844,-0.1284619912022372,0.2639069252513355,34.70591,89.61497,183.2875,0.6663048,-0.2308152,0.6829379,6
11.56,-5.175795,1.319398,-38.53846,-0.4318119413560046,-0.1636079844994547,0.2723724851139932,38.13853,90.45151,183.0726,0.6645214,-0.2480126,0.6716442,6
11.58,-5.063174,1.51386,-38.54575,-0.4411115217081087,-0.1116827759306229,0.2702029340640539,41.57236,91.31285,182.9136,0.6620901,-0.264966,0.6597062,6
11.6,-4.951092,1.705167,-38.5539,-0.4461266630023928,-0.0606159216723818,0.2674800409866691,45.00672,92.2098,182.8184,0.6590137,-0.2816593,0.6471363,6
11.62,-5.00754,1.114948,-38.52441,-0.4563075845897087,-0.1242141838972351,0.2693362054723209,43.27248,89.09816,181.7874,0.6479156,-0.2729021,0.666393,6
11.64,-4.896688,1.31494,-38.53041,-0.4512933555169023,-0.0980762080493935,0.2651820741825297,46.64907,89.84474,181.485,0.6447521,-0.2887295,0.6537677,6
11.66,-4.786013,1.511866,-38.53727,-0.441807941901318,-0.0707878664510983,0.2604919112770316,50.02726,90.61392,181.2305,0.6409787,-0.3042829,0.6405341,6
11.68,-4.717253,1.109946,-38.51379,-0.4281931506535007,-0.0457062004603979,0.2554568595137514,50.66516,87.00746,178.7658,0.6255112,-0.3036286,0.652371,6
11.7,-4.60847,1.309145,-38.51926,-0.395606230150507,-0.0495576664179596,0.2489638932554099,53.97816,87.55366,178.2463,0.6214461,-0.3182039,0.6385248,6
11.72,-4.499905,1.505397,-38.52556,-0.3588469171481177,-0.0509575606620955,0.2415966239755977,57.29309,88.0917,177.7396,0.6168112,-0.3324867,0.6241033,6
11.74,-4.277934,1.104351,-38.50969,-0.3182414232603623,-0.0532648664355048,0.233567822808796,61.21628,80.84599,171.2758,0.5859453,-0.3440452,0.6282,6
11.76,-4.171474,1.295298,-38.51765,-0.2626211714039589,-0.0466265791630299,0.2264448432350301,64.42039,80.44946,169.7576,0.5805463,-0.3565775,0.6127057,6
11.78,-4.065738,1.483437,-38.5264,-0.2048377245878456,-0.0383599498159148,0.2185713577140031,67.61676,79.77663,167.9781,0.5746309,-0.3687899,0.5966772,6
11.8,-3.960895,1.668808,-38.5359,-0.1452186877312908,-0.03171363575561,0.2101730861335191,70.80094,78.69576,165.8038,0.5682045,-0.3806748,0.5801277,6
11.82,-3.80473,1.14402,-38.50498,-0.0670988894427952,-0.0973243869221071,0.2071609048468605,58.42375,75.25359,167.8379,0.5708197,-0.3279054,0.6558241,6
11.84,-3.697868,1.325762,-38.51421,0.0035812190109264,-0.053984293832271,0.1988954218165703,61.51117,74.55417,165.9325,0.5663976,-0.3401127,0.6407304,6
11.86,-3.592273,1.504681,-38.52422,0.0742576106446453,-0.0113391694397619,0.1903918373062101,64.5832,73.53769,163.7274,0.561484,-0.352025,0.6250913,6
11.88,-3.408589,1.211731,-38.50237,0.1446199249820124,0.0275652506138954,0.1818957989530858,43.12776,82.23808,173.9767,0.6252999,-0.2443678,0.6869506,6
11.9,-3.296425,1.385752,-38.51185,0.1958565236347148,0.0437488591232331,0.1699184598713614,46.37822,82.70142,173.2886,0.6235523,-0.2595389,0.6736218,6
11.92,-3.18602,1.556678,-38.52217,0.2476304430092182,0.0604321741137835,0.1578423910423003,49.63152,83.13394,172.5967,0.621246,-0.2744769,0.6597002,6
11.94,-3.049195,1.257086,-38.51849,0.2994692373743622,0.0745413865770067,0.1459084260867262,20.11711,88.74238,176.598,0.6919581,-0.1043534,0.6999019,6
11.96,-2.926548,1.425122,-38.53017,0.3354332777015705,0.0857145805668813,0.1374214426082129,23.65289,89.63104,176.4466,0.694041,-0.123927,0.6895093,6
11.98,-2.806181,1.589443,-38.54276,0.3691800758014097,0.0975421311688852,0.1293292316167225,27.19145,90.53461,176.352,0.6954077,-0.1433801,0.6784167,6
12.0,-2.688349,1.750212,-38.55624,0.4001786944853682,0.1071058594434839,0.1219178094350894,30.73003,91.46185,176.3189,0.6960596,-0.1626828,0.6666384,6
12.02,-2.686632,1.275614,-38.51738,0.4297232474594872,0.0453502987360698,0.1225552181217022,358.4468,94.0507,178.21,0.7313548,0.02066558,0.6816839,6
12.04,-2.56231,1.441146,-38.53069,0.4719856202161625,0.0753566493140176,0.1171814545888887,2.008914,94.99271,178.3704,0.7372151,-0.001360378,0.6752812,6
12.06,-2.44048,1.602876,-38.54493,0.510179092964053,0.103478540743595,0.1129378429061747,5.566858,95.94767,178.5901,0.7423067,-0.02337883,0.6681857,6
12.08,-2.341379,1.293781,-38.50429,0.5437309432110262,0.1269719411116165,0.1101362523530644,352.8185,95.32705,179.2756,0.73747,0.04684271,0.6724404,6
12.1,-2.215144,1.455168,-38.51579,0.5527272483826469,0.1225829426172503,0.1094665017686296,356.3962,96.23521,179.5989,0.7440706,0.02359694,0.6673516,6
12.12,-2.091672,1.61266,-38.52826,0.5575231581572138,0.1190466323043221,0.1102456767735162,359.9673,97.1608,179.978,0.7498848,0.000333163,0.6615685,6
12.14,-2.06545,1.262133,-38.48464,0.5575955836753068,0.1135880819375776,0.1127615097388696,355.7252,95.79518,180.5897,0.7415503,0.02119021,0.6698402,6
12.16,-1.942168,1.42584,-38.49477,0.542475447560879,0.1046807814416788,0.1153842774411026,359.2673,96.7147,180.9608,0.7472979,-0.002016869,0.6644058,6
12.18,-1.821462,1.585834,-38.50586,0.5230275461165208,0.0973276858808376,0.1191016354704581,2.801891,97.65724,181.389,0.7522684,-0.02521522,0.6582915,6
12.2,-1.70357,1.742284,-38.51785,0.49873292313479,0.0887295991161374,0.1241939550964517,6.327854,98.63001,181.8776,0.7564581,-0.04838116,0.6515045,6
12.22,-1.786431,1.240584,-38.462,0.4505969777849543,0.004950106946473,0.1398993931445531,3.964972,96.44997,182.0889,0.7447764,-0.03662858,0.6661684,6
12.24,-1.661849,1.406716,-38.47244,0.4284880465008878,0.0197547653106524,0.1460462865318028,7.580057,97.42123,182.479,0.7486243,-0.05982491,0.6593398,6
12.26,-1.539731,1.569042,-38.48381,0.4025896877583692,0.0348053716848259,0.1533288029044746,11.18756,98.42673,182.9352,0.7516641,-0.08295334,0.6518102,6
12.28,-1.591596,1.217422,-38.42404,0.3724156817760888,0.0473117811207444,0.1620423364508774,11.87955,96.10915,183.3769,0.7374294,-0.09093796,0.6668132,6
12.3,-1.468223,1.389632,-38.43332,0.3210172247073475,0.0316161512779182,0.1696082766542721,15.49161,97.12487,183.7423,0.7395287,-0.1134044,0.6587147,6
12.32,-1.346905,1.558103,-38.4435,0.267566495306287,0.0192500434792465,0.1780836324708605,19.09563,98.18408,184.1825,0.7408333,-0.1357439,0.649919,6
12.34,-1.406447,1.183172,-38.38862,0.211637282533765,0.0072680063834744,0.1877444135118251,17.3977,95.60542,183.9397,0.72839,-0.1266986,0.6674182,6
12.36,-1.28636,1.363616,-38.39644,0.1512882079858007,-0.0065743217671017,0.1957020736410362,20.9651,96.63619,184.2571,0.7293833,-0.1481793,0.6584916,6
12.38,-1.167754,1.5405,-38.40515,0.0903788806672708,-0.0165567708686651,0.2043985769293286,24.52533,97.7149,184.6532,0.7296135,-0.1695001,0.6488867,6
12.4,-1.05086,1.713929,-38.41471,0.0285291503130049,-0.0257604230442775,0.2140863503897137,28.07652,98.854,185.1371,0.7290816,-0.1906363,0.6386143,6
12.42,-1.205996,1.153083,-38.3514,-0.0570452963741178,-0.1188960006225972,0.232589132992345,23.05602,92.8755,184.0809,0.7046545,-0.1629158,0.6799684,6
12.44,-1.089125,1.341705,-38.35711,-0.1026952853676079,-0.1025706520112078,0.2395033081334308,26.57526,93.85595,184.2184,0.7046809,-0.1830207,0.6703636,6
12.46,-0.9731698,1.526947,-38.36367,-0.1471529089800716,-0.0842569826374173,0.247023600425372,30.09042,94.87814,184.4299,0.7039933,-0.2029337,0.6600901,6
12.48,-1.034847,1.128732,-38.31134,-0.1907643671370439,-0.0671080484121839,0.2553772770265965,30.02677,88.75718,183.7349,0.6691304,-0.2070632,0.6958743,6
12.5,-0.9207481,1.324228,-38.31374,-0.2329459739999164,-0.0774082840325482,0.2597487116001176,33.48964,89.62432,183.6346,0.6680788,-0.2256914,0.6854377,6
12.52,-0.807088,1.516494,-38.31698,-0.271665738334164,-0.0837270738784096,0.2641655884676828,36.95244,90.52084,183.5956,0.6663706,-0.244095,0.6743375,6
12.54,-0.7935654,1.117099,-38.28309,-0.3072435393293055,-0.0893961369297745,0.268813336794774,39.60987,86.40414,182.7134,0.6380539,-0.2621606,0.6911276,6
12.56,-0.6816559,1.316201,-38.28431,-0.3210675888219308,-0.0099944991360672,0.2651889066761299,43.01341,87.12592,182.4176,0.6354222,-0.2791189,0.6793456,6
12.58,-0.5699447,1.51219,-38.28636,-0.3468566305310894,-0.0438272031945954,0.2651213964985288,46.41853,87.86514,182.166,0.6321842,-0.2958088,0.6669256,6
12.6,-0.4586293,1.705083,-38.28924,-0.3685856177773495,-0.0751884256960576,0.2650369246018424,49.82471,88.63101,181.9653,0.6283436,-0.3122147,0.6538799,6
12.62,-0.4120227,1.11288,-38.2581,-0.386535662652494,-0.1074805487690178,0.2650969280322277,48.07054,85.16513,179.5853,0.6190642,-0.2976568,0.67146,6
12.64,-0.302282,1.313059,-38.25861,-0.370120700582062,-0.1123625080386162,0.263957220971899,51.40997,85.74489,179.1481,0.615385,-0.3133071,0.6581329,6
12.66,-0.192661,1.510242,-38.25994,-0.3496392322899039,-0.1144401366467075,0.2623507385075463,54.75117,86.32648,178.7343,0.6111379,-0.328667,0.6442086,6
12.68,-0.08334866,1.704444,-38.26207,-0.3253931283971214,-0.117085584543867,0.2604423677732761,58.09375,86.91505,178.3466,0.6063274,-0.3437227,0.6297005,6
12.7,0.03086649,1.102091,-38.23756,-0.2914431177350208,-0.0342407978950134,0.2537324280756809,59.64395,81.76326,174.152,0.5862673,-0.3465401,0.6384839,6
12.72,0.1378389,1.295542,-38.24086,-0.2464795210204228,-0.0609051828943367,0.2520177677461044,62.89595,81.72819,173.0748,0.5809759,-0.3601292,0.6233853,6
12.74,0.2442728,1.486164,-38.24493,-0.1983902988083862,-0.0873093142269439,0.2496548489870882,66.14556,81.53664,171.8563,0.575167,-0.3733934,0.6077427,6
12.76,0.4788544,1.128629,-38.21292,-0.1645544965134365,-0.0275871456936997,0.2433769130838374,60.97537,72.15548,166.7517,0.5513769,-0.348776,0.6573586,6
12.78,0.5854806,1.312622,-38.21724,-0.1152390402570895,-0.0382970885612014,0.243825802347418,64.05486,71.10577,164.5467,0.5464866,-0.3612682,0.6420277,6
12.8,0.6910133,1.493819,-38.22234,-0.0646513324186467,-0.0490938270585805,0.2440216888692621,67.11042,69.62078,161.9217,0.5411226,-0.3734473,0.6261502,6
12.82,0.9153774,1.195212,-38.1881,-0.0130831400960029,-0.0631562811909158,0.2441479850511418,48.35881,78.26848,173.168,0.5936758,-0.2828385,0.6909571,6
12.84,1.024109,1.371443,-38.19242,0.0409526349066683,-0.0430102090737089,0.2414780538661016,51.50795,78.48769,172.273,0.5911616,-0.2973526,0.6774256,6
12.86,1.131304,1.544778,-38.19759,0.0959999523822586,-0.022340790732675,0.2387455884436704,54.658,78.63789,171.3312,0.5881464,-0.3116139,0.6633306,6
12.88,1.236789,1.715309,-38.20358,0.1516385197304108,-0.0042465503834528,0.2361192044460676,57.80811,78.70409,170.3255,0.5846359,-0.3256128,0.6486839,6
12.9,1.319206,1.249975,-38.19555,0.1955438698385077,0.0786065845873833,0.2288932662611529,26.2884,85.14877,176.0293,0.664228,-0.1445343,0.7113462,6
12.92,1.441607,1.418539,-38.20202,0.2221242913652241,0.0675879579674403,0.2254021627247251,29.81492,85.92673,175.7681,0.665094,-0.1638145,0.700204,6
12.94,1.561811,1.583431,-38.20945,0.248811997320557,0.0560223998696555,0.2222218018559969,33.34455,86.71439,175.5538,0.6652799,-0.1829307,0.6883576,6
12.96,1.644556,1.271812,-38.1791,0.270897166322591,0.1110205234398653,0.2173227231416961,2.461424,90.59982,177.9617,0.7107907,-0.002465434,0.7028507,6
12.98,1.768987,1.438186,-38.18668,0.2849142054385343,0.0963485638395637,0.2198324372770299,6.023391,91.50471,178.053,0.7158609,-0.02450126,0.6960573,6
13.0,1.891039,1.600775,-38.19522,0.2965116727851953,0.0811399071086715,0.2233207298527135,9.582417,92.4222,178.202,0.72019,-0.0465055,0.6885543,6
13.02,2.023111,1.291408,-38.15469,0.3051795337211894,0.0625230447371113,0.228007226771953,352.2325,92.90437,179.054,0.7227253,0.05263307,0.6877593,6
13.04,2.149601,1.453435,-38.16127,0.3211347437798709,0.0644826097398708,0.2333618267665311,355.8148,93.76935,179.3465,0.7293385,0.02911581,0.6831542,6
13.06,2.273418,1.611568,-38.16887,0.3338662329507601,0.0667817741794441,0.2400979089983836,359.3914,94.64944,179.6922,0.7351844,0.005574947,0.677841,6
13.08,2.394309,1.765985,-38.17744,0.3428352314802335,0.0666202181323489,0.248423599362991,2.961169,95.55132,180.093,0.7402576,-0.01796508,0.6718262,6
13.1,2.349185,1.269908,-38.12321,0.3505478526295396,0.1313481556034241,0.250199424860984,354.0941,93.61126,180.0236,0.7280751,0.03511105,0.6835589,6
13.12,2.472971,1.433033,-38.12807,0.3229873139094621,0.0982841370656478,0.2581806872933274,357.6297,94.47589,180.4009,0.7340673,0.01147481,0.6787527,6
13.14,2.5942,1.592435,-38.13395,0.292072214404348,0.0659230160020842,0.267656826512078,1.158111,95.36232,180.831,0.7393033,-0.01216564,0.6732579,6
13.16,2.603998,1.246121,-38.08926,0.2714862231949864,0.1071250276938315,0.2702920683343723,1.363051,93.69745,181.6074,0.7293131,-0.01836643,0.683933,6
13.18,2.728754,1.411142,-38.09402,0.2249497285109477,0.0750839322364846,0.2808229620862139,4.968343,94.60728,181.9809,0.7336493,-0.04207951,0.6779252,6
13.2,2.851035,1.572368,-38.09979,0.1760947493793732,0.0443294213770591,0.2926818655665082,8.566777,95.54675,182.4147,0.7372025,-0.06574433,0.6712042,6
13.22,2.839562,1.226293,-38.04327,0.1244798643023288,0.0119816251753936,0.3060686499902321,10.30694,93.51231,183.1853,0.7235094,-0.08167914,0.6838904,6
13.24,2.963899,1.396477,-38.04708,0.0993656348585224,0.0734473873998181,0.3108891083353287,13.92842,94.47488,183.5473,0.72586,-0.10484,0.6763848,6
13.26,3.086092,1.562885,-38.05188,0.0358072285292937,0.0330440459805816,0.3244714485796249,17.54226,95.47777,183.9794,0.7274312,-0.127883,0.6681633,6
13.28,3.205894,1.725661,-38.05761,-0.0290092351596453,-0.0045365499430889,0.339581958488405,21.14723,96.53132,184.4886,0.728222,-0.1507842,0.6592351,6
13.3,3.055845,1.190958,-38.00037,-0.0697419556375896,0.0343126962036836,0.3456260731797265,16.07002,93.79214,183.8018,0.7193817,-0.1194421,0.6796286,6
13.32,3.176865,1.369376,-38.00346,-0.1366937181802265,-0.0062824035404429,0.3580773894135465,19.64817,94.78291,184.1531,0.7205421,-0.1417114,0.6711709,6
13.34,3.29631,1.544198,-38.00746,-0.2038793259526155,-0.0434164724870308,0.371856704238259,23.21881,95.82113,184.5801,0.7209474,-0.1638267,0.6620201,6
13.36,3.222864,1.160859,-37.95253,-0.244808460448316,0.0008365236578165,0.3772719270854789,21.55871,90.7116,184.1164,0.693759,-0.1564415,0.6946366,6
13.38,3.340608,1.347517,-37.95317,-0.2854982569616826,0.0444072305857339,0.3832329826427898,25.09162,91.65813,184.2835,0.6939923,-0.1774192,0.6855113,6
13.4,3.457349,1.530753,-37.95468,-0.3626902874511621,-0.0223375717928481,0.3942298815902383,28.62042,92.64552,184.5223,0.6935204,-0.1982124,0.6756994,6
13.42,3.414174,1.132798,-37.90357,-0.4380877852326499,-0.0863524585756458,0.4068301804550778,28.0107,87.04491,183.963,0.6617005,-0.1984827,0.7088915,6
13.44,3.528739,1.326954,-37.90105,-0.4713992028761467,-0.0411914165719583,0.4101600071556222,31.48867,87.9042,183.926,0.6609339,-0.2181145,0.6989548,6
13.46,3.642815,1.517857,-37.89937,-0.5200460722549989,-0.0794309829900514,0.4182840802711025,34.9656,88.79478,183.9511,0.6595168,-0.2375276,0.6883402,6
13.48,3.756193,1.705545,-37.89852,-0.564942173228048,-0.114296173478262,0.4274990237529046,38.44072,89.72762,184.0462,0.6574509,-0.2567035,0.6770586,6
13.5,3.67284,1.118717,-37.85533,-0.5798622471072377,-0.0620584321712915,0.4289951171086414,37.36438,83.84625,183.0398,0.6263847,-0.2550346,0.710267,6
13.52,3.785091,1.317189,-37.85151,-0.5991107343794562,-0.0938744406139415,0.4327870020081876,40.78112,84.543,182.7585,0.624108,-0.2729184,0.6990392,6
13.54,3.897141,1.512527,-37.8485,-0.6136496001932377,-0.122929005722079,0.4371067392360199,44.19931,85.25462,182.5192,0.621235,-0.2905386,0.6871539,6
13.56,4.008791,1.704751,-37.8463,-0.6088047045132214,-0.0643226806406856,0.4363754996357558,47.6185,85.98947,182.3277,0.6177689,-0.3078793,0.6746225,6
13.58,4.009845,1.113735,-37.81535,-0.598827332636416,-0.0064476902575799,0.4355325678268693,46.37014,82.39354,180.3866,0.6044504,-0.2982834,0.6925536,6
13.6,4.119752,1.314023,-37.80998,-0.5965676499391466,-0.064373276048598,0.43736279368213,49.72278,82.96648,179.9865,0.6010518,-0.31489,0.6796912,6
13.62,4.229589,1.5113,-37.80539,-0.5892640747235647,-0.1214632625172619,0.4395654345630291,53.07699,83.54331,179.6118,0.5970985,-0.3312041,0.6662112,6
13.64,4.379403,1.103719,-37.77149,-0.5675360087356598,-0.0638029881517329,0.437038191547396,56.46746,79.38828,176.2518,0.5743047,-0.3454132,0.667674,6
13.66,4.486762,1.299593,-37.7671,-0.5252291005294363,-0.0897556228212543,0.442339998427137,59.74357,79.55257,175.4232,0.5696324,-0.3603259,0.6531855,6
13.68,4.593781,1.492609,-37.76348,-0.4791019330448569,-0.115212524222417,0.4471405307362115,63.01925,79.63025,174.5242,0.5644531,-0.3749141,0.6381249,6
13.7,4.70029,1.682793,-37.76063,-0.429459275708606,-0.143493327545467,0.4515606555014306,66.29414,79.58949,173.5209,0.5587706,-0.3891672,0.6225049,6
13.72,4.85785,1.117803,-37.7185,-0.3774031407204792,-0.0588142195718475,0.4516191707761114,61.83965,69.90237,167.2458,0.5352035,-0.3639684,0.6661123,6
13.74,4.964208,1.30404,-37.7159,-0.3101461966108891,-0.0717343194916042,0.4677413952201448,64.94782,68.83819,165.0894,0.5302967,-0.3772973,0.6506752,6
13.76,5.069658,1.487494,-37.71409,-0.2402798541942539,-0.085077881089342,0.4843028946025285,68.03284,67.32136,162.4944,0.5249306,-0.3902991,0.6346838,6
13.78,5.271571,1.177894,-37.66217,-0.1874122955509156,-0.0202324092206223,0.4958339137809764,52.14029,71.65303,171.1762,0.5516317,-0.3148183,0.7063541,6
13.8,5.379642,1.355819,-37.65881,-0.1338775087341535,0.0428162971634372,0.50742179986824,55.26229,71.49341,169.9091,0.5486736,-0.3294284,0.692431,6
13.82,5.48634,1.530881,-37.65633,-0.0891542974124632,0.0113980068478261,0.5308627361949076,58.38034,71.18783,168.5157,0.5452512,-0.3437589,0.6779325,6
13.84,5.659519,1.239638,-37.63174,-0.0597229454251968,0.0496626965378128,0.5499011486026655,32.07895,78.86341,175.3653,0.6185621,-0.1885519,0.7346116,6
13.86,5.778765,1.409816,-37.62808,-0.0298358839320871,0.0870324475334725,0.569812720285257,35.51798,79.50114,174.9669,0.618685,-0.2075403,0.722929,6
13.88,5.896047,1.576519,-37.62547,-0.0110025751015108,0.0537214876824897,0.6003216275437522,38.95984,80.13718,174.5993,0.6182068,-0.2263272,0.7105547,6
13.9,6.011156,1.739862,-37.62388,0.0093565294554172,0.018595209406461,0.6327165866284599,42.40545,80.77615,174.2639,0.6171256,-0.2449019,0.6974977,6
13.92,6.017683,1.268027,-37.59621,0.0340776972318084,0.0735428727621733,0.6646740433678708,8.226069,84.92798,177.5736,0.6743574,-0.03864171,0.7346117,6
13.94,6.141635,1.435004,-37.59365,0.0485825335235357,0.0587253511470777,0.7095490674208067,11.77822,85.78637,177.5872,0.6784743,-0.06089864,0.7271256,6
13.96,6.263346,1.598236,-37.59219,0.0618184875015579,0.0433587977584429,0.7567155684798434,15.32875,86.6577,177.6561,0.6818967,-0.08308782,0.7189063,6
13.98,6.350033,1.285237,-37.54327,0.0786321311731563,0.0955177955828414,0.8002504376720525,353.328,87.79005,178.7217,0.6916536,0.04965206,0.7197956,6
14.0,6.475828,1.448644,-37.53972,0.0923091260856512,0.1443483863232411,0.8452722125508396,356.9012,88.62325,178.9596,0.6981007,0.02568702,0.7154316,6
14.02,6.599142,1.6082,-37.53733,0.077662879964736,0.0975562952923201,0.8954240763951313,0.4694759,89.46921,179.249,0.703822,0.001702549,0.7103345,6
14.04,6.675012,1.282945,-37.48506,0.059360046797338,0.1196252321974342,0.9411237014690128,353.7762,88.22641,179.762,0.6949695,0.04041926,0.7169843,6
14.06,6.800038,1.444878,-37.47878,0.0373627876767692,0.1406029228848369,0.9887269475160848,357.3317,89.04986,180.1158,0.7010459,0.01589151,0.7127354,6
14.08,6.922523,1.603007,-37.47372,-0.0109210066078728,0.0860852424474583,1.0389662467172602,0.88064,89.8936,180.5201,0.7063972,-0.008645079,0.7077596,6
14.1,7.042222,1.757508,-37.46986,-0.0619086074524966,0.0314149527171717,1.0921234156608426,4.422174,90.76398,180.9777,0.7110183,-0.03316611,0.7020627,6
14.12,6.952099,1.25045,-37.42963,-0.0914587975371947,0.0708250101135455,1.1385095388534268,359.3714,88.5988,181.3858,0.6983939,-0.004520424,0.7155907,6
14.14,7.075936,1.415104,-37.42331,-0.1242305978183293,0.10787209820328,1.1861779287649394,2.948735,89.45368,181.7493,0.7031338,-0.02901704,0.7104285,6
14.16,7.197395,1.576017,-37.41815,-0.1909954298983514,0.0464235709119433,1.2346056199064073,6.519379,90.33491,182.168,0.7071381,-0.05347709,0.7045336,6
14.18,7.163024,1.232141,-37.36409,-0.2427569445135646,0.0610775036096118,1.2781160746069211,8.216145,88.15286,182.8865,0.6923137,-0.06892441,0.7175945,6
14.2,7.287499,1.400757,-37.35619,-0.296499982523837,0.0761425482637056,1.323408561879675,11.84195,89.06052,183.2463,0.6951817,-0.09326707,0.7108416,6
14.22,7.409832,1.565579,-37.34942,-0.378652914550357,0.0132034094611878,1.3657039327645435,15.46052,90.00497,183.6711,0.6973053,-0.1175042,0.7033377,6
14.24,7.529772,1.726756,-37.3438,-0.4422212424853931,0.0279577218141822,1.4012374644158196,19.07097,90.99562,184.1674,0.6986822,-0.1416131,0.6950907,6
14.26,7.401408,1.190944,-37.28354,-0.5070461621275761,0.0439262474502989,1.438295113356039,16.07695,87.70808,183.7937,0.6823026,-0.1234904,0.7168375,6
14.28,7.522268,1.36932,-37.27383,-0.5734788928649726,0.0582228494691525,1.4767900216703644,19.66462,88.65423,184.1342,0.6836362,-0.1469136,0.7087001,6
14.3,7.641653,1.544087,-37.26514,-0.6787439349317275,-0.0341861213251305,1.5049310256622492,23.24526,89.64619,184.5475,0.6842535,-0.1701771,0.6998307,6
14.32,7.5841,1.160867,-37.21748,-0.7438436463306457,-0.0205313298322744,1.5265261340594405,21.55853,84.76501,184.1156,0.6567953,-0.1618369,0.7296866,6
14.34,7.701243,1.347516,-37.20583,-0.8076210155867243,-0.0052351501000796,1.549914111920633,25.09413,85.66891,184.2793,0.657235,-0.183974,0.7208232,6
14.36,7.817478,1.530745,-37.19511,-0.8962983432566838,-0.0730316842652055,1.5680756185338511,28.62579,86.61214,184.5116,0.6570095,-0.2059199,0.7112404,6
14.38,7.932581,1.710627,-37.18533,-0.9544739750117636,-0.0546115867443165,1.5801799511830108,32.152,87.60614,184.821,0.6561202,-0.2276511,0.7009484,6
14.4,7.789423,1.132817,-37.14608,-1.009579002219236,-0.0342759186258197,1.593913191440194,28.00688,81.06347,183.961,0.6238232,-0.2055979,0.7424527,6
14.42,7.903001,1.326981,-37.13167,-1.0776767396914675,-0.0981869096963712,1.606389719789818,31.48515,81.87832,183.919,0.6233021,-0.2263985,0.7327247,6
14.44,8.016176,1.517897,-37.11811,-1.1188719077519844,-0.0728526762730291,1.6130851488986684,34.96249,82.72231,183.9357,0.6221705,-0.2469732,0.722289,6
14.46,7.998059,1.118777,-37.07509,-1.1557851213749013,-0.045782514402473,1.62071293109436,37.356,76.96396,183.019,0.5826872,-0.2661344,0.7465686,6
14.48,8.109017,1.317305,-37.05844,-1.1886936790496454,-0.0202657242026079,1.6292449027951967,40.77168,77.60325,182.7115,0.5807919,-0.28529,0.73547,6
14.5,8.219869,1.512706,-37.04258,-1.2178662873727324,-0.0146156577967662,1.638662184043616,44.18884,78.25209,182.4398,0.5783445,-0.3041715,0.7236824,6
14.52,8.266378,1.114511,-37.01132,-1.2375277365845008,-0.021897969408853,1.6321760074419285,44.67378,76.1859,181.1377,0.5676497,-0.3047554,0.7302498,6
14.54,8.375052,1.314869,-36.99327,-1.2512613162817066,-0.0254398612907886,1.6267333972186062,48.03453,76.76125,180.785,0.5649297,-0.3229354,0.7177497,6
14.56,8.483744,1.512209,-36.97598,-1.259317358921986,-0.0286459716219812,1.6223337647938785,51.3966,77.34394,180.4611,0.561689,-0.3408153,0.7045982,6
14.58,8.592267,1.706544,-36.95946,-1.26168233591084,-0.1199547457603903,1.6239174862728252,54.75968,77.94032,180.1702,0.5579311,-0.3583795,0.6908079,6
14.6,8.611929,1.107181,-36.92479,-1.242701251080496,-0.0947960942299031,1.621889530193382,53.27308,73.48694,177.7096,0.5418153,-0.3484967,0.7107731,6
14.62,8.718359,1.305421,-36.90693,-1.2180311844450613,-0.0688289615657506,1.61976476174853,56.56628,73.77039,177.0452,0.5381537,-0.3652339,0.6967857,6
14.64,8.824683,1.500771,-36.88982,-1.1745868646847146,-0.1252714652964229,1.632980735544633,59.85991,74.0051,176.3493,0.534013,-0.3816422,0.6821868,6
14.66,9.039707,1.109015,-36.81616,-1.1328539961665776,-0.0925794003446382,1.6408416150077958,62.63096,63.55876,167.8998,0.4939887,-0.391948,0.693346,6
14.68,9.144609,1.297588,-36.79957,-1.087142869285766,-0.0597223488770697,1.6474344461926638,65.7636,62.47065,165.7758,0.4896015,-0.4067219,0.6776793,6
14.7,9.248841,1.483385,-36.78381,-1.0377344835585824,-0.0299055334719414,1.6527963447468936,68.8732,60.91073,163.1931,0.4847918,-0.4211423,0.6614347,6
14.72,9.35224,1.666456,-36.7689,-0.9841257396459486,-0.100809392361543,1.6650200271379632,71.94742,58.64503,159.9157,0.4795617,-0.4351975,0.6446264,6
14.74,9.540433,1.178191,-36.63838,-0.934654426780793,-0.062138533756552,1.6704928759648174,52.11882,58.18119,171.0013,0.4655342,-0.3484393,0.7658408,6
14.76,9.645653,1.356445,-36.61336,-0.8824677627117783,-0.0236015315411948,1.6747170559498912,55.20924,57.82076,169.5345,0.4636169,-0.3648592,0.7520666,6
14.78,9.749716,1.531833,-36.58944,-0.8231652416544251,-0.0537835759877855,1.683669116775646,58.29184,57.27889,167.9058,0.4613094,-0.3809711,0.7376701,6
14.8,9.852453,1.704436,-36.56663,-0.7749100904682835,-0.0126032561568307,1.6850285594017895,61.36336,56.50366,166.0614,0.4586178,-0.3967665,0.722662,6
14.82,9.888559,1.239872,-36.46207,-0.7249929819384873,0.0275592453874426,1.6854825025687843,32.07065,62.11929,175.2638,0.5052099,-0.2159366,0.8167089,6
14.84,10.00245,1.4103,-36.4268,-0.6737820295754056,0.0637151978473379,1.68499394971579,35.49544,62.65376,174.7536,0.5065743,-0.2374513,0.8054552,6
14.86,10.11472,1.577254,-36.39301,-0.6382197116645936,0.0736727674192564,1.681066587819089,38.92345,63.17345,174.2613,0.5074498,-0.2587385,0.7934346,6
14.88,10.14645,1.268225,-36.29171,-0.6031604326070654,0.0844862033316676,1.6768519467661882,8.228557,64.96426,177.4896,0.5368499,-0.04877352,0.8403393,6
14.9,10.26293,1.435406,-36.24933,-0.5690631502346417,0.0932386315442194,1.6723244640350303,11.77736,65.76748,177.4166,0.5418761,-0.0739612,0.8338748,6
14.92,10.37764,1.598839,-36.20865,-0.5381249454490067,0.0307709997439184,1.6732695893870604,15.32582,66.57738,177.3946,0.5463499,-0.09906973,0.826573,6
14.94,10.43274,1.285361,-36.08831,-0.4920891021445268,0.0602769896347414,1.6707167101699794,353.3314,65.96181,178.6618,0.5428312,0.05513177,0.8377447,6
14.96,10.54877,1.448915,-36.03975,-0.448384791393652,0.0880894220487431,1.668026258372043,356.9055,66.76006,178.8402,0.5497327,0.02811277,0.8348428,6
14.98,10.6629,1.60862,-35.99311,-0.4075239756718867,0.1114635358164876,1.665189906490145,0.4756516,67.56748,179.0681,0.5560647,0.001072308,0.8310889,6
15.0,10.77489,1.764646,-35.94845,-0.3876663066668526,0.1071275405950343,1.6470767019658084,4.041186,68.39028,179.3468,0.5618209,-0.02596112,0.8264876,6
15.02,10.70974,1.283101,-35.87948,-0.3706657222851877,0.1038249766150501,1.6296112443977675,353.7756,64.95809,179.7171,0.5360845,0.0471233,0.8424132,6
15.04,10.82251,1.445136,-35.82533,-0.3569930871461719,0.0987799292776485,1.6128124188841442,357.3326,65.74433,180.0258,0.5426239,0.01942639,0.8396534,6
15.06,10.93341,1.60337,-35.77324,-0.3559136476488447,0.0904495302754413,1.584546725096038,0.883961,66.54817,180.3828,0.5486039,-0.008282166,0.8360403,6
15.08,10.88554,1.250556,-35.71716,-0.3579189046851387,0.0838554916025845,1.556979958996206,359.3662,63.59084,181.3402,0.5268989,-0.00146145,0.8498297,6
15.1,10.9956,1.415297,-35.66012,-0.3634916170677524,0.0761985169673716,1.530140592592419,2.946923,64.405,181.6566,0.5323668,-0.02945737,0.846,6
15.12,11.10397,1.576295,-35.60506,-0.3922002432130709,-0.0064668119013245,1.4991284248422394,6.521886,65.24249,182.0264,0.537279,-0.05741967,0.8412998,6
15.14,11.21041,1.73372,-35.5521,-0.392540397474086,0.0096548360430232,1.4646046106675126,10.08997,66.11021,182.4524,0.5416307,-0.08531485,0.8357347,6
15.16,11.09996,1.226405,-35.5041,-0.395567320583321,0.0262046079533958,1.4312612046536133,10.29884,62.11795,183.1487,0.5115316,-0.09097426,0.8541295,6
15.18,11.20821,1.396679,-35.4432,-0.4017614958546509,0.0403921641447649,1.39918138930482,13.92219,62.9898,183.4693,0.5152059,-0.1189919,0.84793,6
15.2,11.3151,1.563186,-35.38413,-0.3885797833944477,0.1096008717659585,1.360958798056542,17.53922,63.89771,183.8533,0.5183308,-0.1468763,0.8408394,6
15.22,11.23618,1.191062,-35.3599,-0.4220977096302483,0.0679692133402627,1.3036603052146685,16.06632,61.48209,183.7717,0.5019161,-0.1367013,0.8529422,6
15.24,11.34025,1.369548,-35.29839,-0.4568962453090914,0.0293666050497356,1.249189766498871,19.64746,62.38092,184.0869,0.504762,-0.1640579,0.845522,6
15.26,11.44345,1.544445,-35.23839,-0.4933580815269784,-0.0091837130317586,1.197717165783632,23.22227,63.32261,184.4709,0.507082,-0.1912374,0.8372339,6
15.28,11.54554,1.715862,-35.18002,-0.5219063736777394,-0.0258183161551217,1.1300022789322677,26.78919,64.31813,184.932,0.5088751,-0.218211,0.8280876,6
15.3,11.38524,1.160906,-35.20625,-0.5501636766496318,-0.0382870282176465,1.065504507910159,21.55441,58.45578,184.1065,0.4735175,-0.1802648,0.8600129,6
15.32,11.48501,1.347594,-35.14413,-0.57854620376586,-0.0497040246003225,1.00441344563432,25.08764,59.31472,184.2581,0.4756562,-0.2065482,0.8516642,6
15.34,11.58437,1.530874,-35.0832,-0.6026315910024929,-0.061984590863691,0.9328664868264428,28.61729,60.21072,184.4747,0.4773144,-0.2326176,0.8424683,6
15.36,11.49986,1.13287,-35.07289,-0.6253519447911655,-0.0699118686285881,0.8650692168082106,28.00222,54.17064,183.9455,0.4341128,-0.2304877,0.8671591,6
15.38,11.59476,1.327077,-35.00909,-0.6471010618787862,-0.0767365759708249,0.8012352446045607,31.47959,54.93682,183.8844,0.4355517,-0.2555959,0.8577462,6
15.4,11.68967,1.518044,-34.94619,-0.6682592640496701,-0.0856569849163469,0.7415848172545925,34.95626,55.72895,183.8779,0.4365647,-0.2804502,0.8475071,6
15.42,11.67278,1.118773,-34.90446,-0.6746210314371646,-0.0961457289078213,0.6689894060858332,37.35187,50.50843,183.023,0.3963909,-0.3001704,0.8601066,6
15.44,11.76456,1.317299,-34.84013,-0.6778193269377768,-0.1025646015489404,0.6009909163453298,40.76739,51.10919,182.7163,0.3967975,-0.323728,0.8490052,6
15.46,11.85657,1.512705,-34.77652,-0.6782518134188722,-0.1082674266287073,0.5378153574987303,44.18426,51.71743,182.4423,0.3968268,-0.3469751,0.8371105,6
15.48,11.94865,1.705011,-34.71374,-0.6567066971996605,-0.0285228033942515,0.475147126940671,47.60212,52.33934,182.2048,0.3964791,-0.3698903,0.8244346,6
15.5,12.04064,1.787586,-34.65189,-0.6457483203225949,-0.0621126953646022,0.4108448577645527,51.02062,52.98269,182.0092,0.3957551,-0.3924526,0.8109901,6
15.52,11.96724,1.113733,-34.66397,-0.6315333315193148,-0.0931582677973472,0.351790916962166,46.36323,49.48923,180.3921,0.3835539,-0.3588179,0.8354166,6
15.54,12.05642,1.314031,-34.59991,-0.6048289977221621,-0.036488301828732,0.2957990736315832,49.71547,49.97837,179.9875,0.383351,-0.3809733,0.8223956,6
15.56,12.14592,1.511332,-34.5365,-0.5682763206098036,-0.0656915386572714,0.253781425835947,53.06894,50.4646,179.5998,0.3827957,-0.4027772,0.808633,6
15.58,12.23743,1.103747,-34.43895,-0.5294863739109772,-0.0934775536950959,0.2163154002499245,56.45401,46.19934,176.2481,0.3597323,-0.4234963,0.8039302,6
15.6,12.32478,1.299661,-34.37679,-0.4888652631419883,-0.123211267386284,0.1836552290357964,59.72856,46.26584,175.3988,0.3588031,-0.4438647,0.7889848,6
15.62,12.41222,1.49273,-34.31538,-0.4193719434788159,-0.1167453661987932,0.1697187531494908,63.00196,46.23267,174.4647,0.3575563,-0.4638365,0.7733534,6
15.64,12.59418,1.117777,-34.14574,-0.3486194678885947,-0.1088423514541414,0.1597752756491779,61.84185,36.54128,167.2354,0.321524,-0.4550282,0.7916722,6
15.66,12.68137,1.304053,-34.08517,-0.2770458692094877,-0.1027671445902222,0.1540715553628633,64.94686,35.37542,165.054,0.3206741,-0.4738452,0.7757156,6
15.68,12.7682,1.487559,-34.02569,-0.2214321168005635,-0.0140874521492461,0.1442716167738726,68.02647,33.74072,162.4166,0.3195472,-0.4922538,0.7591034,6
15.7,12.85453,1.668353,-33.96739,-0.1653661664876815,-0.0206371401848696,0.1458116359956296,71.06725,31.42066,159.1051,0.3181466,-0.5102378,0.7418513,6
15.72,12.9457,1.177815,-33.85347,-0.110077165457378,-0.0271258228338296,0.1522069125878573,52.15531,38.89211,171.1786,0.3300203,-0.3902885,0.8331986,6
15.74,13.03417,1.355742,-33.79175,-0.0559670443367656,-0.0367029569321634,0.163714348311414,55.27776,38.65481,169.9143,0.3305429,-0.4102865,0.8192313,6
15.76,13.12193,1.530816,-33.73146,-0.0162936614359696,0.0478433341332673,0.163137284894054,58.3952,38.2651,168.5158,0.3307867,-0.4299389,0.8045888,6
15.78,13.24185,1.239604,-33.63071,0.0228302004076788,0.0404873260881442,0.168833047788417,32.09899,45.98858,175.3611,0.3854059,-0.2390988,0.8795686,6
15.8,13.33954,1.409803,-33.56261,0.0603086247206836,0.0326122467755291,0.1793216340542578,35.53705,46.54201,174.9543,0.3882098,-0.2635127,0.8686695,6
15.82,13.43611,1.576535,-33.49636,0.0956245601691625,0.021127560985421,0.1947135047661419,38.97767,47.08929,174.5714,0.390638,-0.2876727,0.8569449,6
15.84,13.53138,1.739916,-33.43209,0.132641848134368,0.0309652316456901,0.2050108617434194,42.42173,47.63361,174.2126,0.3926867,-0.3115642,0.8444027,6
15.86,13.57996,1.271926,-33.36305,0.1661130599043137,0.0414767015819483,0.2185204357161989,2.471643,53.32433,177.9589,0.4488967,-0.01128077,0.893146,6
15.88,13.68242,1.438471,-33.29337,0.1954444813388516,0.0497465561230841,0.2352879619833707,6.020052,54.10725,178.0409,0.4549298,-0.03899353,0.8888143,6
15.9,13.78354,1.601271,-33.22575,0.23187659428172,0.1238268712933811,0.2450273711042001,9.566,54.90119,178.1727,0.4604998,-0.06665949,0.8835931,6
15.92,13.87062,1.291411,-33.11932,0.2467189234603641,0.1051652747225298,0.2473557692781001,352.2351,55.76781,179.0513,0.4660969,0.06370915,0.8821007,6
15.94,13.97447,1.453506,-33.04752,0.2574312102801199,0.085840567380293,0.2524805892986199,355.8143,56.51278,179.3352,0.4729075,0.03491168,0.880336,6
15.96,14.07675,1.611726,-32.97802,0.2720359991427856,0.1340145076755227,0.2482086392595257,359.3884,57.27274,179.6646,0.4792265,0.006086715,0.8776703,6
15.98,14.17726,1.766247,-32.91093,0.2598544794488147,0.1077456547479684,0.2330300434444816,2.956785,58.05342,180.0417,0.4850477,-0.02273577,0.8741072,6
16.0,14.11615,1.270007,-32.90199,0.242898356652077,0.0818650174266679,0.2199418479887427,354.0909,56.59386,180.0211,0.4734193,0.04529715,0.879328,6
16.02,14.21706,1.433151,-32.83063,0.2206044927710908,0.0535715823435818,0.2089521387950577,357.6263,57.33863,180.3901,0.4797099,0.01654025,0.8771763,6
16.04,14.3165,1.592579,-32.76149,0.2186598888303841,0.1152453521477481,0.1961456459813253,1.155681,58.10488,180.8046,0.4855114,-0.01222545,0.8741443,6
16.06,14.30433,1.24615,-32.72666,0.17501338311755,0.0797864050251664,0.1723226451774797,1.35023,56.87583,181.6066,0.4759811,-0.01703561,0.8792648,6
16.08,14.40624,1.411184,-32.65501,0.1277948959918267,0.0456662576592012,0.1512356789708691,4.955765,57.66512,181.973,0.4810772,-0.04616375,0.8754429,6
16.1,14.50671,1.572434,-32.58553,0.1000010315111481,0.0861632277160021,0.131905850214129,8.555413,58.4828,182.3921,0.4856648,-0.07523945,0.8707096,6
16.12,14.47025,1.226328,-32.55335,0.0329566011971711,0.0513312972071306,0.0973089073673429,10.2944,56.8609,183.1841,0.4717969,-0.09203836,0.8766983,6
16.14,14.57156,1.396518,-32.48165,-0.0364096492485752,0.018925205569982,0.0661778996349293,13.91646,57.70217,183.5389,0.4754761,-0.1208482,0.8708164,6
16.16,14.67169,1.562945,-32.41189,-0.1085252060355488,-0.0139741461870106,0.0384263623452376,17.53187,58.58121,183.9557,0.4786496,-0.1495227,0.864022,6
16.18,14.7704,1.72575,-32.34419,-0.1515778254037205,0.0489814962361702,0.0144155429309229,21.13972,59.50722,184.4408,0.4813143,-0.1780332,0.8563228,6
16.2,14.86751,1.778433,-32.27868,-0.2420179125306809,0.0084227116027082,-0.0371773130994155,24.73838,60.49093,185.0029,0.4834682,-0.2063483,0.8477281,6
16.22,14.66027,1.183181,-32.35249,-0.3331497581538492,-0.0289485906046126,-0.084364863379275,17.39332,56.80955,183.9473,0.465369,-0.1491154,0.8714574,6
16.24,14.75805,1.363568,-32.28265,-0.397721803308134,0.0141210827533592,-0.1223327863851984,20.96762,57.67641,184.2632,0.4680291,-0.1769231,0.8640304,6
16.26,14.85515,1.540405,-32.21428,-0.4621929271766727,0.0562804763055081,-0.1567820676925517,24.53583,58.58703,184.6468,0.4702053,-0.204542,0.8557237,6
16.28,14.7609,1.153168,-32.22572,-0.571870841284472,-0.0109653472203073,-0.2191910113282107,23.04614,53.56112,184.0696,0.4348826,-0.1938991,0.8773894,6
16.3,14.85466,1.341817,-32.15629,-0.6804998386788075,-0.0753053351025922,-0.275331689073909,26.56839,54.36994,184.1842,0.4368818,-0.2204947,0.8689898,6
16.32,14.94816,1.527106,-32.08796,-0.749196137206448,-0.031452098693856,-0.3128861875277566,30.08738,55.21337,184.3601,0.4384446,-0.2468622,0.8597357,6
16.34,14.88935,1.128764,-32.0779,-0.8395756254693865,-0.0706720623235715,-0.3637415591871482,30.01041,49.80847,183.7365,0.3988723,-0.2479672,0.8791746,6
16.36,14.97921,1.324276,-32.00826,-0.9260436109315906,-0.1062554081224595,-0.4081555976784234,33.4739,50.50813,183.6248,0.4001175,-0.2732459,0.8695632,6
16.38,15.06917,1.516584,-31.93942,-0.9814508661060048,-0.0547752908931456,-0.438855234746625,36.93731,51.22911,183.5613,0.4009753,-0.2982564,0.8591239,6
16.4,15.15907,1.70572,-31.87152,-1.03154756623861,-0.0036850856990083,-0.4637479504602422,40.4001,51.98001,183.5517,0.4014451,-0.3229747,0.8478675,6
16.42,15.07918,1.117109,-31.8952,-1.0993712024000768,-0.0662431739750001,-0.5093919997309748,39.58999,47.72199,182.7181,0.3731635,-0.318651,0.8634974,6
16.44,15.16696,1.316231,-31.82656,-1.1436233651949,-0.0388682220594774,-0.5461653552504315,42.99302,48.2747,182.4111,0.3733605,-0.3423367,0.8520544,6
16.46,15.25502,1.512268,-31.75857,-1.180082218675912,-0.0099019405655357,-0.5775126673089015,46.39716,48.83371,182.1332,0.3732066,-0.3656982,0.8398249,6
16.48,15.3432,1.705238,-31.69135,-1.2092235819841697,0.0173153863641882,-0.6035853559598601,49.80211,49.40474,181.8876,0.3727024,-0.3887142,0.8268209,6
16.5,15.33338,1.112918,-31.66704,-1.2547704881882056,-0.0718576253116252,-0.6574820774424146,48.0536,46.07113,179.5785,0.358774,-0.3733802,0.8399344,6
16.52,15.41881,1.313154,-31.59891,-1.2926566491629656,-0.1451415406534744,-0.7043808921096786,51.39132,46.46603,179.1101,0.3585454,-0.3956579,0.8266842,6
16.54,15.50456,1.510423,-31.53136,-1.2985315938818878,-0.0919796147521447,-0.7334372746183102,54.73006,46.84493,178.6441,0.3579912,-0.4175747,0.8126969,6
16.56,15.63692,1.102131,-31.40123,-1.2943568940018646,-0.1222920689273185,-0.7602507563662964,59.61629,42.33345,174.1494,0.3365588,-0.4469665,0.79894,6
16.58,15.72141,1.295662,-31.33627,-1.281632768933743,-0.151999135293578,-0.7811052730001244,62.86514,42.09945,173.0273,0.3354993,-0.4671575,0.7834521,6
16.6,15.8059,1.486389,-31.27213,-1.26118156219116,-0.0941209244285148,-0.801340238815412,66.10951,41.67849,171.7311,0.3341455,-0.486935,0.7672917,6
16.62,15.99045,1.128527,-31.09223,-1.2227484890152072,-0.1089026364946403,-0.8246488475175306,60.98311,33.22019,166.758,0.3007455,-0.4545937,0.8035157,6
16.64,16.0753,1.31256,-31.02831,-1.1765791644871038,-0.1240359318915697,-0.8429742337397692,64.06051,31.99692,164.5371,0.3001177,-0.4737571,0.7878603,6
16.66,16.15973,1.493821,-30.96556,-1.137471910529278,-0.0579525520801434,-0.8727302944400472,67.11032,30.31521,161.8708,0.2992335,-0.4925171,0.7715467,6
16.68,16.24359,1.672377,-30.90406,-1.092677026700533,0.0065571389232243,-0.8986910492819851,70.11894,27.97646,158.5588,0.2980958,-0.5108569,0.7545899,6
16.7,16.33625,1.195048,-30.79282,-1.042797828615102,0.0514099712081665,-0.920883805108125,48.39268,39.67113,173.1574,0.3319683,-0.3663897,0.8482001,6
16.72,16.42288,1.37131,-30.72779,-0.9868647789994852,-0.0070631586290896,-0.9668963678150028,51.54056,39.72192,172.2513,0.33288,-0.3872969,0.8350641,6
16.74,16.50877,1.544698,-30.66424,-0.9249493333144369,0.0316217762835912,-1.0166789403041276,54.68757,39.68993,171.2813,0.3335139,-0.4078804,0.8212469,6
16.76,16.59377,1.715304,-30.60225,-0.8575396177569354,0.0695263995557418,-1.0630358529800104,57.8327,39.55541,170.226,0.3338716,-0.4281236,0.8067607,6
16.78,16.69713,1.257179,-30.51789,-0.7897359281932332,0.0367677612704394,-1.1195811428602216,20.16694,47.78591,176.5871,0.4033632,-0.1481329,0.8976704,6
16.8,16.79573,1.42545,-30.44586,-0.7207115011931342,0.0717561063642323,-1.178458514892121,23.68358,48.46389,176.416,0.4073521,-0.1744762,0.8894144,6
16.82,16.89313,1.590068,-30.3758,-0.6483982210359076,0.1058620896067585,-1.2352714474703703,27.20258,49.14931,176.2863,0.410933,-0.2006532,0.8802832,6
16.84,16.95087,1.275667,-30.29153,-0.5737149814383677,0.1362540686961582,-1.2899601042287103,358.486,52.0704,178.1828,0.4386416,0.0188289,0.8984252,6
16.86,17.05122,1.441333,-30.21795,-0.5065721983422651,0.0720756369466446,-1.3422974998757518,2.04481,52.81066,178.3057,0.4448354,-0.009406072,0.8953127,6
16.88,17.15022,1.603224,-30.14648,-0.4297823086165864,0.0994973405961643,-1.3923752078178766,5.60066,53.56091,178.4752,0.4505755,-0.03762338,0.8913018,6
16.9,17.24767,1.761497,-30.07726,-0.3521378876924985,0.1254621683753431,-1.4405682501375638,9.152946,54.32711,178.6932,0.4558566,-0.06579506,0.8863974,6
16.92,17.2314,1.293698,-30.07037,-0.29160585876145,0.0770157487476577,-1.4778140526732622,352.8068,56.40878,179.3171,0.4713497,0.05809349,0.8796927,6
16.94,17.33445,1.455061,-29.99755,-0.2288720174161698,0.0979904000677307,-1.5180471636485504,356.3803,57.11229,179.6696,0.4776992,0.02911768,0.8779508,6
16.96,17.43589,1.612555,-29.92703,-0.1674375175984037,0.1183536129452731,-1.5567670644792877,359.9482,57.83561,180.0651,0.4835545,0.0001208896,0.8753141,6
16.98,17.38606,1.262237,-29.93915,-0.1082087275006697,0.1354259347405587,-1.5940210488726474,355.7094,55.61292,180.5688,0.466318,0.0307972,0.8838109,6
17.0,17.48569,1.425986,-29.86653,-0.0846772895482006,0.0538861729688342,-1.624417007943161,359.2538,56.33232,180.9128,0.4720509,0.00198074,0.8815114,6
17.02,17.58388,1.586037,-29.79608,-0.0379925910955032,0.0687532824667638,-1.6434008512160947,2.792493,57.07304,181.3015,0.4773031,-0.02682902,0.8783276,6
17.04,17.68041,1.742554,-29.72794,0.0078658708214947,0.0834636265451464,-1.66025694459243,6.324769,57.84079,181.7379,0.4820698,-0.05560342,0.8742637,6
17.06,17.52027,1.238041,-29.73967,0.0520273760639482,0.0952794327117131,-1.675112881356859,6.110062,52.09757,182.5232,0.4373517,-0.05752456,0.8974415,6
17.08,17.61686,1.405373,-29.66108,0.0717861826127745,0.0825148722179716,-1.6785381325056663,9.731594,52.87,182.8194,0.4415751,-0.08684263,0.8928719,6
17.1,17.71224,1.568917,-29.58459,0.091200589501784,0.0727890396689827,-1.6791316118992872,13.34818,53.67105,183.17,0.4453317,-0.1160674,0.8873714,6
17.12,17.55478,1.209001,-29.62683,0.1094926280145864,0.0632202866200622,-1.677086068681355,13.41416,49.57973,183.4901,0.413,-0.1186631,0.9027117,6
17.14,17.64591,1.383456,-29.54506,0.1163747919591275,0.0501416951229916,-1.6690223870990517,17.01961,50.38253,183.7696,0.4163235,-0.1476775,0.8965172,6
17.16,17.73625,1.554237,-29.4651,0.1228731171200196,0.0409457605380997,-1.6580129669108723,20.61979,51.22073,184.1089,0.4192109,-0.1765309,0.889398,6
17.18,17.8256,1.721467,-29.38709,0.1282940732647421,0.0326565313581848,-1.6442831827388558,24.21355,52.10393,184.5159,0.421661,-0.2051964,0.8813616,6
17.2,17.59678,1.175998,-29.51667,0.1319660061347711,0.0223554149244392,-1.6280289690822225,18.71251,46.50596,184.0128,0.3840713,-0.1629138,0.9082393,6
17.22,17.68172,1.358646,-29.4333,0.0931581507632803,-0.0802943750973967,-1.6194471720104575,22.271,47.30367,184.2162,0.3868511,-0.1912667,0.9009967,6
17.24,17.76628,1.537807,-29.35134,0.0989587305356787,-0.0677169705265573,-1.5861885197603036,25.82534,48.13705,184.4801,0.3892368,-0.2194189,0.8928509,6
17.26,17.85029,1.713568,-29.27093,0.1055359116689818,-0.053198735264994,-1.5490453716933934,29.3743,49.01636,184.813,0.391228,-0.2473429,0.8838106,6
17.28,17.61649,1.13929,-29.41342,0.1122546457925164,-0.0398096186263181,-1.5082886706663556,26.27533,39.85597,183.9276,0.3244005,-0.2249305,0.9176328,6
17.3,17.69325,1.331856,-29.32762,0.112589174105421,-0.0544171517097247,-1.460769724311398,29.77361,40.55129,183.8675,0.3265828,-0.252155,0.9090394,6
17.32,17.77012,1.521139,-29.24273,0.1152474810554871,-0.0645006483803518,-1.4083474626677588,33.27085,41.26888,183.8575,0.3284463,-0.2791278,0.8995663,6
17.34,17.67426,1.121617,-29.29329,0.1197024999439673,-0.0733453313637835,-1.3513326403974038,34.67334,40.91185,183.3638,0.3252715,-0.2888665,0.8970478,6
17.36,17.75176,1.319113,-29.21184,0.1336356388318123,-0.0806538893469379,-1.2856079522804054,38.10887,41.54103,183.2084,0.3265187,-0.3145128,0.8866729,6
17.38,17.82954,1.513473,-29.13106,0.1504431422549004,-0.083777922024335,-1.2151932811731032,41.54463,42.18933,183.0955,0.3274549,-0.3398572,0.8754698,6
17.4,17.90747,1.704719,-29.05108,0.1696416834682304,-0.0860904056713288,-1.140434395804245,44.98018,42.86503,183.0309,0.3280796,-0.3648758,0.8634495,6
17.42,17.82537,1.114469,-29.15835,0.1907461211535732,-0.0909121243651858,-1.061660405612591,43.25455,49.07245,182.0163,0.3800751,-0.3420254,0.8482192,6
17.44,17.91012,1.314042,-29.08827,0.2296900343912624,-0.0965407298870758,-0.9650100615376188,46.62736,49.73425,181.9361,0.3800596,-0.3655448,0.8359002,6
17.46,17.99517,1.510611,-29.01878,0.2713348242271758,-0.0984569639433759,-0.8641226041453915,49.99965,50.4332,181.9108,0.3796962,-0.3887271,0.8228295,6
17.48,18.08037,1.70419,-28.94999,0.3152318018746647,-0.1000590761820132,-0.7593510938704715,53.37088,51.18308,181.9526,0.3789859,-0.4115517,0.8090197,6
17.5,18.00113,1.10708,-29.11518,0.360931713956111,-0.1046939134521477,-0.6510344660911955,53.26798,45.21282,177.7816,0.3515565,-0.4071169,0.8217181,6
17.52,18.08549,1.305218,-29.04808,0.4225654724204726,-0.1093620991170883,-0.5274611687271547,56.57127,45.4368,177.181,0.350737,-0.4286044,0.807527,6
17.54,18.17006,1.500476,-28.98162,0.486170923199674,-0.1115698926834227,-0.4012676190466866,59.87481,45.61315,176.5478,0.3496062,-0.4497101,0.7926321,6
17.56,18.26497,1.108645,-28.94827,0.5512862702569361,-0.1146528907319438,-0.27282089630474,62.64714,41.50655,168.1637,0.3512083,-0.4523376,0.7755663,6
17.58,18.35335,1.296942,-28.89021,0.6196654708268943,-0.1057759625765357,-0.1373132767249587,65.81161,40.55452,166.315,0.3496032,-0.4712968,0.7594941,6
17.6,18.44141,1.482489,-28.8331,0.6879808554778633,-0.0949808383468074,-0.0009552502884191,68.95797,39.18335,164.0584,0.347697,-0.4898481,0.7427848,6
17.62,18.60107,1.160845,-28.837,0.7557763451924364,-0.085483531848596,0.1358961490148367,55.87513,46.28012,169.0109,0.3868377,-0.3955937,0.7910199,6
17.64,18.69586,1.340166,-28.78785,0.8075700996678239,0.0014322625292451,0.2554013659557337,58.99447,45.76597,167.5574,0.3856139,-0.4142827,0.7764103,6
17.66,18.78981,1.516692,-28.73989,0.8651971947588151,-0.0027960750389493,0.3861167181876994,62.10423,45.03052,165.8973,0.3840685,-0.4326251,0.7611659,6
17.68,18.88276,1.690509,-28.6932,0.9206882724217054,-0.0070974495224856,0.5158766325000763,65.19973,43.99334,163.9484,0.3821991,-0.4506009,0.7453024,6
17.7,18.97457,1.755039,-28.64783,0.9735590120941549,-0.0145940528949873,0.6442863578244076,68.2746,42.5313,161.586,0.3800071,-0.4681966,0.7288333,6
17.72,19.07612,1.239671,-28.79897,1.0224565149226668,0.0028973510141074,0.7661700176352721,32.07676,65.31382,175.585,0.5271789,-0.2124574,0.8028039,6
17.74,19.18626,1.410149,-28.7612,1.0684649053105293,0.0211239918106821,0.8858304902502154,35.46352,65.9277,175.4161,0.5280651,-0.2346007,0.7918885,6
17.76,19.29484,1.577317,-28.72481,1.1110135008325552,0.037029600418373,1.0028078310453918,38.85066,66.55611,175.2859,0.5284653,-0.2565241,0.7802559,6
17.78,19.37106,1.267958,-28.78638,1.1495443587727023,0.047621181192672,1.1166686928597018,8.248018,74.0526,177.6971,0.6016548,-0.04533315,0.795261,6
17.8,19.48972,1.434989,-28.75551,1.1806063381859435,0.1288050476661285,1.223403278368532,11.77366,74.78115,177.8285,0.6054785,-0.0700279,0.7890025,6
17.82,19.60645,1.59835,-28.72604,1.1875614997214965,0.1094459107244494,1.3197429311801725,15.29686,75.52777,178.0062,0.6086991,-0.09464052,0.7819714,6
17.84,19.72102,1.75819,-28.698,1.188641480078175,0.0898924784823097,1.4115355316281089,18.81647,76.29939,178.2357,0.611316,-0.1191534,0.7741748,6
17.86,19.76941,1.291522,-28.6705,1.1889520865243033,0.1386018357686962,1.4958781549252635,352.2294,75.88505,179.0361,0.6129864,0.05859519,0.7871382,6
17.88,19.89107,1.453792,-28.63874,1.171215486479387,0.1163668763789821,1.5728133167452425,355.7986,76.56026,179.3014,0.6189036,0.03254865,0.7845876,6
17.9,20.01048,1.612215,-28.60851,1.14612806568702,0.0940101716336921,1.6438341435566928,359.3633,77.2495,179.6079,0.624189,0.006476778,0.7812462,6
17.92,20.00728,1.270263,-28.51592,1.1130733918586997,0.0687097129184878,1.7084627377696058,354.0904,72.24687,179.9332,0.5887187,0.04198127,0.8066925,6
17.94,20.12426,1.433629,-28.47662,1.0737119494323268,0.0593846534565167,1.769287809996963,357.6278,72.92743,180.2132,0.5942161,0.01554189,0.8040368,6
17.96,20.23918,1.593287,-28.43894,1.026275462494027,0.0518974007906458,1.823426804421804,1.160522,73.6241,180.535,0.5991169,-0.01090529,0.800584,6
17.98,20.35182,1.749404,-28.40292,0.9701428106794684,0.0434739451098386,1.870425585967596,4.688007,74.34213,180.9007,0.6034164,-0.03733385,0.7963379,6
18.0,20.23121,1.246364,-28.3304,0.9271402445747404,0.1070284750916781,1.921904806705209,1.343982,69.24175,181.5202,0.5679266,-0.01718709,0.822889,6
18.02,20.34683,1.411597,-28.28438,0.8527583706363493,0.0732461645076791,1.9571551621233545,4.953537,69.95493,181.7966,0.5720932,-0.04438351,0.8189,6
18.04,20.46054,1.573048,-28.24003,0.7711687565064489,0.0413759534431681,1.9855525409817465,8.558841,70.69051,182.1219,0.5756634,-0.07153781,0.8140669,6
18.06,20.5721,1.730888,-28.19742,0.6818286177523833,0.0085280310438478,2.0067016627471777,12.15858,71.45478,182.4981,0.5786336,-0.09861065,0.8083956,6
18.08,20.40993,1.217753,-28.1232,0.6224458425245705,0.0705307888867369,2.0318607094913035,11.86423,65.30185,183.279,0.5339211,-0.1023356,0.8387172,6
18.1,20.52094,1.390186,-28.06964,0.523196025481151,0.0310204556718027,2.0282553520966475,15.48332,66.05666,183.531,0.53635,-0.1295239,0.8326275,6
18.12,20.63054,1.558901,-28.01764,0.4186528327266745,-0.0054706910442391,2.016643260561953,19.09771,66.84258,183.8384,0.538218,-0.1565705,0.8256775,6
18.14,20.52749,1.183478,-27.97942,0.3460556001307817,0.0360865221585225,2.014109560304414,17.38339,62.55617,183.8521,0.5085991,-0.1463303,0.8470023,6
18.16,20.63276,1.364135,-27.92223,0.2696303428134707,0.0766979156222532,2.002366974566684,20.95601,63.31931,184.0653,0.510305,-0.1730028,0.8398464,6
18.18,20.73717,1.541262,-27.86633,0.1563675105336495,0.0102216045416856,1.9646169888313607,24.52451,64.11655,184.3363,0.5114911,-0.1994933,0.8318455,6
18.2,20.84049,1.714955,-27.81182,0.0401392209428324,-0.0532956544657698,1.9185265039976125,28.08766,64.95768,184.6733,0.5121586,-0.2257777,0.8230076,6
18.22,20.65899,1.15335,-27.82978,-0.0318506171043875,-0.0105571940977444,1.894570655528684,23.0357,57.98846,184.0141,0.4685526,-0.1911749,0.8599188,6
18.24,20.75839,1.342154,-27.76923,-0.1249444113496065,-0.0501086818850163,1.8521302618605184,26.55548,58.70033,184.0654,0.4696425,-0.2169857,0.8517991,6
18.26,20.85742,1.527611,-27.70969,-0.2181765141144449,-0.0856567051053846,1.801589190049158,30.073,59.43927,184.1693,0.4702694,-0.2425757,0.8428497,6
18.28,20.95589,1.709779,-27.65125,-0.3118403379497292,-0.1204209277869348,1.7425475100388017,33.58796,60.21431,184.3324,0.4704337,-0.2679244,0.8330792,6
18.3,20.80971,1.125053,-27.653,-0.3586525937041465,-0.0455497172506878,1.707811371947535,32.04487,51.14893,183.4981,0.4071221,-0.2615193,0.8702176,6
18.32,20.9026,1.322055,-27.58843,-0.4254938980516041,-0.0826147037322048,1.649825484837964,35.49669,51.69643,183.2463,0.4073004,-0.2859901,0.8605395,6
18.34,20.99558,1.515882,-27.52456,-0.4888632247044548,-0.1163600791835135,1.5839208044213002,38.94934,52.24944,183.025,0.4070895,-0.3101836,0.8500516,6
18.36,20.98535,1.115676,-27.49084,-0.5230865068270756,-0.0622858883263901,1.52980609083684,41.81202,48.68679,182.3459,0.3783321,-0.3329245,0.8539442,6
18.38,21.07456,1.315545,-27.42521,-0.5529051000513485,-0.008557741639649,1.4682497061863955,45.20013,49.10498,181.9578,0.3775907,-0.3560514,0.8423396,6
18.4,21.16403,1.512366,-27.36015,-0.5915517368452621,-0.0690563563783363,1.3916557398222769,48.58921,49.51522,181.5819,0.3765004,-0.3788465,0.8299688,6
18.42,21.2536,1.706154,-27.29577,-0.6259659389736503,-0.127877873738526,1.3074134886411302,51.9791,49.91906,181.2176,0.3750623,-0.4012892,0.8168435,6
18.44,21.2793,1.110069,-27.22797,-0.6323450985915025,-0.0716580270536852,1.2430692992250147,50.63099,45.83449,178.7363,0.3563278,-0.3899451,0.8307284,6
18.46,21.36501,1.309396,-27.16164,-0.6282878567736838,-0.1010336782395926,1.1822529477440842,53.94734,46.04724,178.1424,0.3552847,-0.4117453,0.8172409,6
18.48,21.45095,1.505808,-27.09589,-0.6209311510859905,-0.1286928365312078,1.1147387254480337,57.26396,46.2147,177.519,0.3539248,-0.433177,0.8030371,6
18.5,21.53698,1.69932,-27.03082,-0.6105642517461565,-0.1579936864334454,1.0402120677565576,60.58044,46.3251,176.8526,0.3522498,-0.4542211,0.7881308,6
18.52,21.62213,1.104355,-26.92599,-0.5728060824398264,-0.0740737118546038,0.9933523726493916,61.19272,39.31796,171.2792,0.3251871,-0.4559143,0.7952362,6
18.54,21.70658,1.295435,-26.86189,-0.5167746543398462,-0.0942075475111567,0.9604545266112394,64.39098,38.5774,169.6825,0.3236217,-0.4757293,0.7796721,6
18.56,21.79088,1.483745,-26.79865,-0.4577094731215503,-0.1143759562709368,0.921009494729367,67.57615,37.50549,167.7661,0.3217788,-0.4951314,0.7634494,6
18.58,21.93984,1.143857,-26.63272,-0.3974565817558919,-0.0501940148900465,0.8795909431083553,58.45421,32.74837,167.7745,0.2945059,-0.4396077,0.8178775,6
18.6,22.02404,1.325747,-26.56754,-0.3354389468113794,0.0128356712881665,0.8323904851984789,61.52809,31.69675,165.7779,0.2937717,-0.4592259,0.8029673,6
18.62,22.1077,1.504855,-26.50357,-0.2723268354860222,-0.0192627347831672,0.7832925234319772,64.57904,30.27978,163.4295,0.2927907,-0.4784583,0.7873962,6
18.64,22.19068,1.681252,-26.44089,-0.2179474597986117,0.022990359286949,0.7381080075503439,67.59702,28.35825,160.5885,0.2915674,-0.4972899,0.771178,6
18.66,22.33118,1.228518,-26.29007,-0.1636102031146418,0.0653259642637824,0.6890384184098095,37.91708,41.0705,174.7133,0.3454331,-0.2886157,0.8794591,6
18.68,22.42107,1.400737,-26.21915,-0.1096834238005328,0.104750784815513,0.6359679446005901,41.22937,41.37541,174.1322,0.3470794,-0.3120233,0.8681038,6
18.7,22.51001,1.569749,-26.14992,-0.0576445083156111,0.0497738056498611,0.5786418998887015,44.54296,41.64943,173.5437,0.3484142,-0.3351487,0.8559847,6
18.72,22.6017,1.263497,-26.06228,-0.004775230239892,0.0081073484558842,0.518993365931951,14.05068,47.39386,177.1656,0.4015291,-0.1020964,0.9073156,6
18.74,22.69835,1.431231,-25.9868,0.0468770372141342,0.0641587777278815,0.4861455414578559,17.58099,48.04236,177.0748,0.4057246,-0.1292729,0.900784,6
18.76,22.79379,1.595279,-25.91329,0.0902256299260408,0.0502589798668829,0.4536910895592423,21.11252,48.69835,177.0246,0.4095151,-0.156326,0.8933678,6
18.78,22.88782,1.755796,-25.84187,0.1309730644638826,0.036130931054007,0.422021481707489,24.64336,49.36759,177.0177,0.4128981,-0.1832181,0.8850763,6
18.8,22.98025,1.80628,-25.77268,0.1731867230084938,0.0898308400511909,0.4055775783223008,28.17303,50.05644,177.0572,0.4158703,-0.209923,0.8759187,6
18.82,22.9543,1.285267,-25.73605,0.2099789593423393,0.1407222833360104,0.3911077121466242,353.3311,52.16951,178.7129,0.4383414,0.05716698,0.8968549,6
18.84,23.05303,1.448826,-25.6592,0.2325351721309285,0.0965945597412631,0.379663196193031,356.8962,52.82066,178.9333,0.4443884,0.028394,0.8953764,6
18.86,23.15033,1.608572,-25.58453,0.2497059174750266,0.0513011343393269,0.3718185330859245,0.4574754,53.4839,179.1937,0.4499833,-0.0003991164,0.8930004,6
