t,pX,pY,pZ,aX,aY,aZ,reX,reY,reZ,rtX,rtY,rtZ,ID
2.3,-43.30571,1.101702,-38.82837,2.8967115520883144,-0.0496337769701546,2.494285932883701,14.63772,356.356,163.6092,-0.01306312,-0.1305218,0.9818046,4
2.32,-43.30647,1.301532,-38.82785,2.939063967227045,-0.0806995806093425,2.504042712388001,14.65486,356.3618,163.6321,-0.0130179,-0.1306589,0.9818145,4
2.34,-43.29435,1.155047,-38.80702,2.9776503521362105,-0.0857900513068989,2.510920585783576,14.7677,0.04482641,163.6536,0.01865458,-0.1271555,0.9816274,4
2.36,-43.29541,1.354795,-38.80618,3.0121774167787123,-0.0667741835579309,2.514709778809104,14.79334,0.05338883,163.6872,0.01872216,-0.1273701,0.9816387,4
2.38,-43.25872,1.15629,-38.73445,3.052262038604674,-0.0913824931039057,2.5136013058829736,17.93294,1.982244,165.486,0.03663408,-0.1524265,0.97938,4
2.4,-43.27158,1.351704,-38.71353,3.08945746917002,-0.0914258815375543,2.5105462619434062,18.55555,2.11879,165.9222,0.03786271,-0.1577425,0.9789474,4
2.42,-43.15898,1.173937,-38.61194,3.1260047184123607,-0.1134200902388359,2.503517964881844,16.79142,7.950102,167.8586,0.0835987,-0.1375882,0.9802988,4
2.44,-43.15533,1.368803,-38.58023,3.1593245341174896,-0.1110836398319453,2.49426477914064,17.75535,7.9578,167.8845,0.08442181,-0.1458588,0.979005,4
2.46,-43.15168,1.563411,-38.54861,3.1890079861862946,-0.086312832254329,2.4825291972443315,18.72169,7.965508,167.9091,0.08523879,-0.154139,0.9776372,4
2.48,-43.01241,1.194647,-38.43691,3.2081630033441995,-0.1089692500091827,2.460954091989632,9.667867,16.63896,170.9259,0.1503219,-0.0717149,0.9819032,4
2.5,-42.9924,1.380521,-38.36826,3.2243843901887788,-0.1075890197245911,2.437569417714108,11.81261,16.64182,170.9412,0.1515402,-0.09013309,0.9799707,4
2.52,-42.80993,1.218296,-38.22543,3.2411551317974734,-0.1281266160884538,2.413684298191296,2.302855,24.9089,174.2344,0.2163338,-0.008752869,0.9748172,4
2.54,-42.76892,1.390858,-38.12327,3.254515212522845,-0.1251550483434454,2.388241711956643,5.571905,24.9209,174.409,0.2175688,-0.03689274,0.973619,4
2.56,-42.72853,1.560438,-38.02264,3.264070166590466,-0.1005495584112426,2.3609647403988294,8.842988,24.94306,174.5855,0.2186269,-0.06502014,0.9716247,4
2.58,-42.52542,1.263664,-37.9318,3.2552086836403484,-0.1263814226941883,2.3191902282817187,357.0826,31.23939,178.3495,0.2687827,0.02839019,0.962757,4
2.6,-42.45824,1.415131,-37.79393,3.2432310224247543,-0.1280445645652,2.2762480794123423,1.546576,31.23448,178.7607,0.26931,-0.01008571,0.9628985,4
2.62,-42.39284,1.560875,-37.65968,3.22381109042582,-0.1558269278386508,2.226565615163592,6.012173,31.26172,179.1735,0.2694251,-0.04856066,0.9615657,4
2.64,-42.332,1.257052,-37.78016,3.20171200530314,-0.1590144165189868,2.175918958836066,356.2508,35.89452,180.7617,0.3081767,0.02907237,0.9507436,4
2.66,-42.2645,1.414995,-37.66005,3.1766203856328827,-0.1395001654365407,2.124117967486212,0.2651015,35.88049,181.2232,0.3079831,-0.005488859,0.9513294,4
2.68,-42.18779,1.244492,-37.67853,3.131464568794774,-0.1691309317398998,2.0582325996804247,1.563419,39.60915,181.7108,0.3385522,-0.01789214,0.9407305,4
2.7,-42.11746,1.407813,-37.57166,3.084740371246501,-0.1735443251066496,1.9922472350103293,5.314332,39.63404,182.1253,0.3377858,-0.04988736,0.9398986,4
2.72,-42.05217,1.231221,-37.56704,3.024689965863284,-0.2042490015994295,1.9184322789858743,8.341619,42.4557,183.0076,0.3592153,-0.07724878,0.9300503,4
2.74,-41.97842,1.399133,-37.46608,2.963541610022576,-0.2087161383759279,1.8447178261585184,12.02694,42.52971,183.4259,0.3576044,-0.1083676,0.9275076,4
2.76,-41.906,1.563222,-37.36693,2.901084154396917,-0.1888976540432002,1.7710197755995862,15.71049,42.63279,183.8557,0.3556197,-0.1393632,0.9239949,4
2.78,-41.91816,1.208241,-37.44986,2.8147146125312528,-0.2221004588182532,1.681543770888858,13.47609,45.08028,183.6552,0.3770333,-0.1204531,0.9181998,4
2.8,-41.84168,1.382421,-37.35592,2.728505448782207,-0.2278212498008364,1.5930653950672662,17.08602,45.18416,184.0491,0.3748229,-0.150488,0.9144658,4
2.82,-41.81351,1.182644,-37.36266,2.6295519983257734,-0.2613089687040815,1.4979683119723075,17.42998,46.5722,184.0742,0.3855643,-0.1529792,0.9094926,4
2.84,-41.73631,1.362957,-37.27313,2.5313474465741743,-0.2662065113709698,1.4043464606381235,20.99585,46.70066,184.4643,0.3829069,-0.1823297,0.9048588,4
2.86,-41.66,1.539836,-37.18465,2.433839774047972,-0.2445392248536258,1.3122534857780863,24.55969,46.85911,184.8734,0.3798756,-0.2114923,0.8993413,4
2.88,-41.69493,1.160322,-37.25243,2.3146836551236403,-0.2784521333917686,1.2071332176119052,21.58918,46.21544,184.2535,0.3788582,-0.1864502,0.9055989,4
2.9,-41.61698,1.346908,-37.16765,2.1975820486180524,-0.2825829026937137,1.1046268044919945,25.10991,46.3138,184.5016,0.3757016,-0.2147832,0.900111,4
2.92,-41.59855,1.138473,-37.16028,2.082566629885968,-0.2589920793623795,1.0048486896159474,26.33089,45.23885,184.1636,0.3666149,-0.2237094,0.9014071,4
2.94,-41.52123,1.330668,-37.07821,1.953290165688972,-0.2922293135655267,0.8985133916087227,29.81856,45.30446,184.3029,0.3629947,-0.2512464,0.8948824,4
2.96,-41.44431,1.519733,-36.99659,1.8270940740638268,-0.2945217753930924,0.7957599832010285,33.30464,45.38105,184.4492,0.3590345,-0.2785304,0.8875341,4
2.98,-41.46666,1.124586,-37.03587,1.704103439763414,-0.2679658199688809,0.6967643846120426,32.11561,43.55996,183.6153,0.3482864,-0.2679816,0.8951774,4
3.0,-41.38725,1.321504,-36.95905,1.5698594219863686,-0.297979804691169,0.590968994107822,35.553,43.46198,183.4394,0.3439016,-0.2940605,0.8875743,4
3.02,-41.30807,1.515402,-36.88243,1.43995105022396,-0.296547417677482,0.4897953910250754,38.98912,43.34586,183.2478,0.3392082,-0.3198671,0.8791738,4
3.04,-41.32284,1.117019,-36.91777,1.3115521266651715,-0.3221015344540937,0.3904723356469679,39.6759,43.42321,182.713,0.3404205,-0.3234353,0.876651,4
3.06,-41.24707,1.114962,-36.86554,1.1878838949076558,-0.3159845983173068,0.2963615022335313,43.28492,43.97911,181.7572,0.3427563,-0.3472796,0.8639003,4
3.08,-41.16632,1.315193,-36.79457,1.0691708000115954,-0.2802990594036197,0.207715573962794,46.63499,43.69505,181.3553,0.3373746,-0.3714129,0.8540518,4
3.1,-41.08565,1.51256,-36.72367,0.9481987627735622,-0.3015666759711035,0.1191610306158184,49.9825,43.35529,180.9005,0.331704,-0.3952197,0.8434712,4
3.12,-41.07068,1.112877,-36.72467,0.8330057094876882,-0.2911709577299467,0.0367679880562308,48.0899,43.68293,179.5517,0.3412333,-0.3768729,0.8470725,4
3.14,-40.98989,1.31327,-36.65559,0.7349207687834403,-0.3082846451123916,-0.0313103951675826,51.39973,43.27235,179.0139,0.3356942,-0.4002294,0.8361849,4
3.16,-40.85307,1.103639,-36.55351,0.6423871242139336,-0.2944446178201135,-0.0933187978924809,56.57511,42.29247,176.1849,0.3322054,-0.431167,0.8151388,4
3.18,-40.77253,1.299611,-36.48711,0.5556795662507943,-0.2516693707922688,-0.1489519348783883,59.827,41.49952,175.2523,0.3261412,-0.4532255,0.8025436,4
3.2,-40.69225,1.492898,-36.42093,0.4750766078966961,-0.1819174250094545,-0.1979032657624815,63.06969,40.50225,174.1174,0.3198089,-0.4749018,0.7892929,4
3.22,-40.57406,1.109159,-36.33432,0.4083181082317573,-0.1905849076343589,-0.2336896733581364,62.6676,35.0045,167.8365,0.307979,-0.4659418,0.7934551,4
3.24,-40.49363,1.297792,-36.26933,0.3479817653456152,-0.1696736603988418,-0.2621849217978873,65.78019,33.02837,165.6429,0.3018786,-0.4867208,0.7794758,4
3.26,-40.32644,1.144479,-36.14194,0.3053303979815318,-0.165833887472377,-0.2753142038866247,58.34969,33.37883,167.8748,0.2986639,-0.4378471,0.8168928,4
3.28,-40.24594,1.326363,-36.07579,0.2693499895466136,-0.1336620977634224,-0.2805314232099354,61.4139,31.65491,165.8826,0.2930954,-0.4587469,0.8038092,4
3.3,-40.16632,1.505589,-36.01036,0.2403285080152484,-0.0750416220950663,-0.2775558889346001,64.44177,29.49692,163.46,0.2872969,-0.4792775,0.7900942,4
3.32,-40.07018,1.195734,-35.94842,0.2200788568365475,-0.0590438717203717,-0.269244424721391,48.24804,39.63842,173.2279,0.3316114,-0.3655559,0.8489197,4
3.34,-39.98857,1.372106,-35.88084,0.2090717738323286,-0.0459396631270389,-0.2507805183650244,51.38213,38.9102,172.275,0.3269961,-0.3876193,0.8380354,4
3.36,-39.90806,1.545725,-35.81418,0.2083933196362819,-0.0312896824807737,-0.2273477099214531,54.50646,38.03803,171.1826,0.3221283,-0.4093753,0.8265036,4
3.38,-39.75871,1.250305,-35.75989,0.2181277288281968,-0.0205745140193245,-0.1929372765879868,26.12315,46.87466,176.0343,0.3943976,-0.1938221,0.8901128,4
3.4,-39.66427,1.418994,-35.68512,0.2328066436071258,0.0422757723799619,-0.1579819443900145,29.64481,46.71723,175.6978,0.3918364,-0.2203047,0.8830596,4
3.42,-39.55261,1.26857,-35.62392,0.2498573803770369,0.0300485728182009,-0.1246405045921585,8.002551,51.66332,177.5718,0.4358996,-0.05358238,0.8970384,4
3.44,-39.45691,1.436133,-35.55049,0.262383086402747,0.0684847991364357,-0.0944054925129789,11.51162,51.65444,177.5195,0.4353147,-0.08086797,0.8944184,4
3.46,-39.36291,1.600133,-35.47836,0.286899309012969,0.0565901119806856,-0.057518763862995,15.01968,51.64213,177.4659,0.4343219,-0.10807,0.8909605,4
3.48,-39.31669,1.279364,-35.45792,0.3231296050865841,0.0388073488671369,-0.0133426083833381,354.3858,55.00814,178.4205,0.460615,0.04979169,0.8861413,4
3.5,-39.21875,1.444283,-35.38351,0.350855027257575,0.0960001035795022,0.0259893168137184,357.9446,54.99884,178.5594,0.461429,0.02171184,0.8869069,4
3.52,-39.09513,1.293798,-35.29946,0.3848366858460315,0.0782225241653642,0.0636281500859672,352.8379,56.0195,179.2873,0.4683529,0.05805874,0.8813094,4
3.54,-38.99706,1.455221,-35.22202,0.4035489060115251,0.1078521121955556,0.091435949426712,356.4229,55.99414,179.5581,0.469088,0.02936796,0.8825916,4
3.56,-38.901,1.612831,-35.14617,0.4267861046599348,0.1341792372552915,0.1143878051490991,0.006943788,55.98577,179.8268,0.4693615,0.0006561207,0.883005,4
3.58,-38.90776,1.269634,-35.15972,0.439175930164505,0.0831799270158712,0.1188459639861259,354.0981,56.70007,180.0147,0.4742331,0.0452456,0.878893,4
3.6,-38.81203,1.432992,-35.08425,0.433139086617146,0.0988078898978245,0.1198053086355717,357.6332,56.67797,180.321,0.4746351,0.01684783,0.879936,4
3.62,-38.74649,1.250209,-35.04812,0.4209906524704987,0.0665353086134269,0.1051734862300124,359.4486,57.23127,181.3717,0.4789421,-0.001509285,0.8777518,4
3.64,-38.64877,1.414811,-34.9735,0.4102547796256131,0.0361314697715172,0.0795317801405017,3.050255,57.23759,181.6617,0.4784211,-0.03030401,0.8776075,4
3.66,-38.55293,1.575717,-34.90033,0.4011992701340823,0.071783946098533,0.0800161375425414,6.65126,57.26226,181.9531,0.4774246,-0.05906267,0.8765912,4
3.68,-38.57775,1.237651,-34.91891,0.3726093031989945,0.0340890869781248,0.0583602863491954,6.202637,57.65321,182.5929,0.4802589,-0.05827853,0.8751663,4
3.7,-38.47898,1.404769,-34.84444,0.3444918561030494,0.0464222650703496,0.0489866285379507,9.846771,57.69535,182.8947,0.4786505,-0.08729094,0.8734413,4
3.72,-38.46319,1.217375,-34.82492,0.3173129965837775,0.058211787769052,0.0333991668791266,11.90209,57.82269,183.3577,0.4779849,-0.1048057,0.8717461,4
3.74,-38.3658,1.389961,-34.75296,0.264893934860325,0.0426431352156177,0.0079488622827135,15.50384,57.88906,183.6377,0.4755518,-0.1331967,0.8687266,4
3.76,-38.26993,1.558954,-34.68213,0.2141763533934551,0.029095132214288,-0.0222423875676005,19.1042,57.97536,183.9277,0.4726472,-0.1614476,0.8648453,4
3.78,-38.33419,1.190865,-34.72372,0.1483492789669638,-0.0381632376546811,-0.0678045728552234,16.09605,57.98643,183.7717,0.4756424,-0.1381851,0.8678267,4
3.8,-38.23812,1.36962,-34.65416,0.0973994038537799,-0.0268410930758608,-0.0912084852053505,19.66968,58.06577,184.03,0.4726327,-0.1660659,0.8638742,4
3.82,-38.2336,1.168159,-34.63928,0.035271308691307,-0.0696715714977762,-0.1254015595670434,20.16213,56.28508,184.0722,0.4586077,-0.1707492,0.8705486,4
3.84,-38.1395,1.352958,-34.57131,-0.0172530059903284,-0.0545918959688284,-0.1480033577251971,23.70247,56.33882,184.216,0.4550453,-0.1979183,0.865747,4
3.86,-38.04627,1.534437,-34.50396,-0.0674249655049417,-0.0389582142682778,-0.1731173391404681,27.24168,56.40417,184.3679,0.4510492,-0.2248909,0.8601195,4
3.88,-38.11178,1.145403,-34.5407,-0.1367362681372403,-0.107428994070416,-0.2144646092187194,24.61349,54.08337,184.0544,0.4371978,-0.2054374,0.8730921,4
3.9,-38.01992,1.336359,-34.47424,-0.1862909163490478,-0.0914373978234126,-0.2348848782587573,28.11032,54.08241,184.0522,0.4330974,-0.2317639,0.8673785,4
3.92,-37.92862,1.524143,-34.40818,-0.2323096210179276,-0.0747140001267045,-0.2563596242485402,31.60579,54.08127,184.0499,0.4285956,-0.2578645,0.8608599,4
3.94,-37.95389,1.124802,-34.40912,-0.2785390689199616,-0.0847893602612332,-0.2748242271336933,32.11101,50.28664,183.5352,0.4003942,-0.2628385,0.8731488,4
3.96,-37.86452,1.321897,-34.34375,-0.3204809124475103,-0.0919118006034981,-0.2937414957880255,35.55135,50.14132,183.2743,0.3954411,-0.2879436,0.8658867,4
3.98,-37.77539,1.51596,-34.27857,-0.3582849181479588,-0.0994169413802822,-0.3134063840358729,38.99012,49.9691,182.9901,0.3901316,-0.3127814,0.8578437,4
4.0,-37.78979,1.117147,-34.2896,-0.3898615775272471,-0.1069494509419175,-0.3264398998375246,39.65135,49.16059,182.6685,0.3840255,-0.3174529,0.8585326,4
4.02,-37.70148,1.316534,-34.22601,-0.4165404775702903,-0.1118709397212934,-0.3386820972154369,43.03718,48.88854,182.2569,0.3783142,-0.3414412,0.8497357,4
4.04,-37.63455,1.114509,-34.18371,-0.4397176693614284,-0.1740861774072559,-0.3513372213800734,44.70306,49.09706,181.1128,0.3808722,-0.3496288,0.8427637,4
4.06,-37.54761,1.315048,-34.12067,-0.4443405088584189,-0.1477960237202712,-0.3470066892406285,48.04875,48.7827,180.6787,0.3749899,-0.3730152,0.8328314,4
4.08,-37.46074,1.512731,-34.05769,-0.4433448950195142,-0.0911052874850243,-0.3381355277098374,51.39159,48.40547,180.1844,0.3687876,-0.3960745,0.822187,4
4.1,-37.42667,1.109958,-34.03465,-0.4376337365249867,-0.0363798476651986,-0.3276101282253232,50.70724,47.62244,178.7055,0.3692407,-0.3876092,0.8247559,4
4.12,-37.34078,1.309397,-33.97307,-0.4260327020640888,-0.0994242021577607,-0.3148320868574981,53.99787,47.09854,178.0441,0.3630449,-0.4100291,0.8135939,4
4.14,-37.17672,1.102202,-33.85593,-0.4004245450176675,-0.0745120487493855,-0.2903215170112752,59.703,44.55397,174.0238,0.3523506,-0.4428371,0.7916563,4
4.16,-37.0918,1.295894,-33.79597,-0.3572420251665891,-0.1023370807100354,-0.2544282577824441,62.92542,43.43262,172.746,0.345655,-0.4639629,0.7786375,4
4.18,-37.00727,1.486928,-33.73628,-0.3189833549249279,-0.0701607018785483,-0.2225405961436437,66.1322,41.99379,171.153,0.3386779,-0.4847002,0.7649866,4
4.2,-36.92323,1.675334,-33.67694,-0.2779159095167909,-0.0389650591846368,-0.1898415426860809,69.31699,40.09381,169.1006,0.3314258,-0.5050354,0.7507131,4
4.22,-36.78703,1.129001,-33.57435,-0.2308132963428528,-0.0837232735554742,-0.1538569216654015,60.94381,35.43395,166.7022,0.3164503,-0.4494467,0.7976101,4
4.24,-36.7029,1.313176,-33.5134,-0.1868421936357842,-0.045216794295329,-0.1202265260730377,63.99364,33.33917,164.3408,0.3101546,-0.4697317,0.7841574,4
4.26,-36.54195,1.178363,-33.39804,-0.140931019994178,-0.0078855702534472,-0.0861598464181891,52.0386,39.39346,171.2233,0.3335949,-0.388621,0.832273,4
4.28,-36.45726,1.356391,-33.33493,-0.0953994596994185,0.0104493704936251,-0.0576150647555895,55.14866,38.30495,169.8714,0.3282816,-0.4098983,0.8206723,4
4.3,-36.37365,1.531685,-33.27263,-0.0484498952398135,0.0286096920654743,-0.0289574771236047,58.24025,36.98439,168.2919,0.3227121,-0.4308473,0.808431,4
4.32,-36.2805,1.228574,-33.23346,0.0052758485509967,-0.0006025336688062,-0.0007106538690804,37.79001,45.23778,174.7371,0.3772155,-0.2819053,0.8667028,4
4.34,-36.18764,1.399863,-33.16405,0.0581668543848756,0.0399146433487245,0.0281777066974129,41.19338,44.83408,174.1026,0.3732262,-0.30641,0.857296,4
4.36,-36.07642,1.25764,-33.11234,0.1118114932633851,0.0779827679795776,0.0564811929569604,19.93811,50.27324,176.5858,0.4228477,-0.1441891,0.8890426,4
4.38,-35.97979,1.426277,-33.0418,0.1582285190321606,0.0426058441078648,0.0762631734393899,23.42867,50.18503,176.3472,0.4208977,-0.170543,0.8835673,4
4.4,-35.8848,1.591387,-32.97245,0.1958968292669567,0.0740703025468551,0.0977183497965654,26.92023,50.0778,176.0952,0.4185542,-0.1967476,0.8772665,4
4.42,-35.86147,1.27205,-32.97064,0.2319430935164641,0.1033821395272416,0.1174346372447869,2.307137,54.55773,177.9485,0.4584758,-0.009687185,0.8882988,4
4.44,-35.76213,1.438696,-32.89935,0.2650744643348117,0.108706068179388,0.1372421656846851,5.858945,54.55872,177.9624,0.4584658,-0.03727693,0.8870643,4
4.46,-35.65757,1.285345,-32.82953,0.295818463349236,0.1130807316308833,0.1555404155553574,353.3054,56.68326,178.7291,0.4733189,0.05664264,0.8788847,4
4.48,-35.55743,1.448753,-32.75605,0.3237429933807298,0.113653252189622,0.1719667232346502,356.8876,56.66744,178.914,0.4741835,0.02839924,0.8799564,4
4.5,-35.45925,1.60839,-32.68401,0.3422221000007077,0.1113823683622342,0.1836416351575693,0.4688145,56.6632,179.0976,0.4745835,0.0001360038,0.8801659,4
4.52,-35.37783,1.28259,-32.63109,0.3577392053948491,0.1085531197035007,0.1938174542814588,353.7875,57.52945,179.7573,0.4804055,0.04851905,0.8753687,4
4.54,-35.2793,1.44464,-32.55653,0.3657534796949155,0.1491272919693876,0.2004725498309754,357.3501,57.50707,180.0468,0.4809226,0.02007509,0.8764582,4
4.56,-35.18279,1.602963,-32.4835,0.3577183352324002,0.1140016421970974,0.1937274675557367,0.9118502,57.50271,180.3345,0.4809719,-0.008380399,0.8766952,4
4.58,-35.19646,1.25447,-32.50468,0.3463118199378057,0.0785581665816868,0.1844987254354131,357.4732,57.88449,181.1474,0.4839792,0.01444954,0.8747447,4
4.6,-35.09856,1.41883,-32.432,0.3462818143672939,0.1145850918327524,0.1856228775421855,1.038394,57.88087,181.4264,0.4837441,-0.01395258,0.8750742,4
4.62,-35.04837,1.240401,-32.39161,0.3230786411087329,0.0770642232124786,0.1700695192366312,4.054989,58.31802,182.0727,0.4862916,-0.03969752,0.8728932,4
4.64,-34.94864,1.40653,-32.31829,0.3021898300688983,0.0909111489673052,0.1585613724196419,7.697334,58.34854,182.3707,0.4850518,-0.06865533,0.8716624,4
4.66,-34.85077,1.568916,-32.24636,0.2641775751026332,0.0540461034393364,0.1361409219222733,11.33854,58.39867,182.6737,0.4833193,-0.09753542,0.8695459,4
4.68,-34.89526,1.226151,-32.27023,0.2239948609431472,0.0180876263237784,0.1120293602806787,10.37346,58.28807,183.1657,0.4826467,-0.09232398,0.8707063,4
4.7,-34.79597,1.396513,-32.19831,0.1991028229100964,0.0544646689395187,0.0994914088841381,14.00615,58.34624,183.4411,0.4803992,-0.120935,0.8680306,4
4.72,-34.69834,1.563194,-32.12758,0.1523100425469365,0.0118536352204979,0.0728420971796737,17.6375,58.42375,183.7252,0.4776671,-0.149416,0.864479,4
4.74,-34.78996,1.19948,-32.1869,0.1160629569589186,0.0239124388735636,0.0527188098651709,14.79352,58.57055,183.6572,0.4812577,-0.127708,0.8665061,4
4.76,-34.69243,1.37615,-32.11762,0.0782627260505535,0.03623843081028,0.0312964988734183,18.38342,58.64543,183.9194,0.4783945,-0.1557223,0.8628517,4
4.78,-34.71358,1.17564,-32.12152,0.0157372153612831,-0.0324687057229075,-0.0061100913002039,18.76003,57.55239,184.0576,0.4695979,-0.1595795,0.8670227,4
4.8,-34.61794,1.358358,-32.05369,-0.0236452505838231,-0.0196771901635839,-0.0276249935043275,22.32154,57.62084,184.2527,0.4661809,-0.1870289,0.8625172,4
4.82,-34.61629,1.152942,-32.0387,-0.0630391719862313,-0.0062896657743663,-0.0493066034128841,23.09864,55.18788,184.0575,0.4472578,-0.1933925,0.8710472,4
4.84,-34.52287,1.341781,-31.97201,-0.1085058702837136,-0.0206991911358112,-0.0742764127867547,26.62688,55.20847,184.1065,0.4433079,-0.2200895,0.8656226,4
4.86,-34.43011,1.527374,-31.90579,-0.152787952975141,-0.0318240005327986,-0.0986420489506048,30.15335,55.23316,184.1584,0.4389398,-0.2465641,0.859381,4
4.88,-34.48878,1.132644,-31.93472,-0.1961555721471386,-0.04289003831876,-0.1226004470748347,28.06394,52.54849,183.9448,0.4217218,-0.2320658,0.8731078,4
4.9,-34.39796,1.32707,-31.86932,-0.2333591177444436,-0.0546550710470463,-0.1422567148147018,31.53452,52.48869,183.8246,0.417192,-0.2577844,0.8666975,4
4.92,-34.30752,1.518403,-31.80419,-0.2678126561879375,-0.0632799937906059,-0.1603900072987123,35.00397,52.41759,183.695,0.4122807,-0.2832589,0.8594939,4
4.94,-34.3053,1.118708,-31.78978,-0.3043945947930191,-0.1284978948211453,-0.1814077438524859,37.42829,49.411,183.0064,0.3880751,-0.3017632,0.8636602,4
4.96,-34.21634,1.31743,-31.72577,-0.3211205657910305,-0.1050280118534086,-0.1911678543581394,40.83751,49.1697,182.6242,0.3825329,-0.3260966,0.8553103,4
4.98,-34.12754,1.513179,-31.66187,-0.3344761160805385,-0.080998296888764,-0.199251449982118,44.24434,48.88324,182.2007,0.3766513,-0.3501323,0.8462005,4
5.0,-34.12803,1.115032,-31.67163,-0.3447227463974927,-0.059741216754709,-0.2058500307426003,43.28749,49.41322,181.73,0.3834002,-0.3408982,0.8466405,4
5.02,-34.04023,1.315308,-31.609,-0.3505627181730921,-0.067054405926282,-0.2096522247826446,46.64605,49.10575,181.2951,0.3774842,-0.3644049,0.8370603,4
5.04,-33.96122,1.112931,-31.55305,-0.352133463482942,-0.0717952968628901,-0.2109038279555468,48.09861,48.30616,179.5188,0.3752158,-0.3702739,0.8325425,4
5.06,-33.87465,1.313376,-31.49118,-0.3394254750941279,-0.0751745173092061,-0.2017809864881106,51.40953,47.86985,178.9474,0.3691773,-0.3930614,0.8219067,4
5.08,-33.78814,1.511017,-31.42937,-0.3231558238571903,-0.0766735240916685,-0.1907300735726926,54.71629,47.34171,178.2869,0.3628287,-0.4155102,0.8105796,4
5.1,-33.70184,1.705863,-31.3677,-0.3035585974298249,-0.0796787065059682,-0.1779193270497359,58.01789,46.69403,177.5094,0.3561756,-0.437602,0.7985713,4
5.12,-33.60614,1.102174,-31.30033,-0.2545326677094914,-0.0778464099125159,-0.1439845089534421,59.7047,44.71466,174.0385,0.3534015,-0.442571,0.7911839,4
5.14,-33.52101,1.29583,-31.24031,-0.2031647836338339,-0.0754207819699397,-0.108816551266754,62.9351,43.60371,172.7727,0.3466974,-0.463748,0.7781346,4
5.16,-33.34382,1.118188,-31.11143,-0.1614411412524954,-0.015112991710615,-0.0809346182990373,61.79937,36.94443,167.2203,0.3243937,-0.4537942,0.7906933,4
5.18,-33.2598,1.30457,-31.05099,-0.1129327093127927,-0.028914566928103,-0.0480930685815312,64.8789,34.91037,164.9451,0.3180064,-0.4741342,0.7770799,4
5.2,-33.17649,1.488326,-30.99106,-0.0633702879079249,-0.043743977253489,-0.0145368674446082,67.91387,32.2895,162.086,0.3113662,-0.4940885,0.762848,4
5.22,-33.06981,1.161885,-30.91279,-0.0129747049458357,-0.0628213939043466,0.0195649941978715,55.74555,36.68497,168.7999,0.3201636,-0.4144924,0.8207133,4
5.24,-32.98554,1.341666,-30.85057,0.0431755400043725,-0.0451059833284529,0.0527528532464525,58.80683,35.1701,166.9999,0.3144923,-0.435209,0.8083441,4
5.26,-32.90227,1.518757,-30.78909,0.0997479979354878,-0.0276738651594674,0.0862696778015519,61.83731,33.30471,164.8537,0.3085756,-0.4555778,0.7953439,4
5.28,-32.74252,1.229023,-30.70244,0.1448117761579679,0.0338126681026539,0.1116241141589147,37.73772,45.35531,174.7493,0.3781129,-0.2813762,0.8664767,4
5.3,-32.65123,1.400927,-30.63441,0.1841740881744007,0.0241820111191952,0.1280734912496779,41.07913,44.96219,174.1303,0.3741999,-0.3054326,0.8572629,4
5.32,-32.52166,1.257696,-30.56923,0.2239934370424818,0.0129161997008172,0.1445811600062883,19.8907,50.37932,176.5876,0.4236876,-0.1437334,0.8887219,4
5.34,-32.42486,1.426334,-30.49891,0.2623270445322809,0.0682825908230821,0.1642056718578088,23.38121,50.29054,176.3469,0.4217353,-0.1700686,0.8832605,4
5.36,-32.3297,1.591445,-30.42979,0.2972244568891575,0.0527223066393249,0.1786503096396874,26.87274,50.18263,176.0929,0.4193889,-0.1962552,0.8769736,4
5.38,-32.29063,1.272043,-30.41603,0.3278721927078409,0.0822994846883682,0.1944630456819767,2.321211,54.63219,177.9465,0.4590538,-0.009771993,0.8879968,4
5.4,-32.19118,1.438691,-30.3449,0.3556672300642085,0.1096855389134376,0.2084875292268506,5.873099,54.63311,177.9593,0.4590416,-0.03734845,0.8867586,4
5.42,-32.09353,1.60168,-30.27506,0.3826830392979135,0.065935314319305,0.2212038802451439,9.423957,54.63482,177.9722,0.4585884,-0.06488092,0.8846691,4
5.44,-31.98417,1.29164,-30.20438,0.4172427234216127,0.0915012173402181,0.2424182589645447,352.2032,57.10596,179.0384,0.4763473,0.06371824,0.8765851,4
5.46,-31.88366,1.453814,-30.13054,0.447898845858556,0.1143372249843862,0.2617712719357694,355.7883,57.08358,179.2522,0.4772561,0.03539559,0.8779715,4
5.48,-31.78518,1.612188,-30.0582,0.4581155922618816,0.1088504018874568,0.2675330200123031,359.3724,57.07465,179.4639,0.4776962,0.007045955,0.8784956,4
5.5,-31.78168,1.28262,-30.05881,0.4642720434295393,0.1034409782209323,0.2712546017650008,353.7768,57.58029,179.7625,0.4807932,0.04856799,0.8751497,4
5.52,-31.68352,1.444822,-29.98447,0.4659759833837795,0.0953315806164089,0.2726017767451947,357.3265,57.55755,180.0555,0.4813078,0.02021382,0.876241,4
5.54,-31.58736,1.603324,-29.91164,0.4557614636450848,0.082972533118283,0.2654570342869138,0.8752028,57.55297,180.3468,0.4813575,-0.008151042,0.8764858,4
5.56,-31.57442,1.250401,-29.91264,0.441524855803828,0.0713671211493301,0.2557492088498994,359.4196,58.14806,181.3736,0.4859513,-0.001397862,0.8738891,4
5.58,-31.47613,1.415213,-29.83986,0.4228747089501938,0.0577137003532247,0.2431544248140866,3.001293,58.15425,181.6664,0.4854357,-0.02995002,0.8737594,4
5.6,-31.37973,1.576371,-29.76848,0.415655210015704,0.1147689745842467,0.2412559074351952,6.582227,58.17886,181.9609,0.4844429,-0.05846555,0.8727707,4
5.62,-31.42261,1.237712,-29.79684,0.3768388420853461,0.0736906334263141,0.2182369047924943,6.189066,58.44205,182.5894,0.4862791,-0.05811621,0.8718435,4
5.64,-31.32295,1.404888,-29.72388,0.3422850797416767,0.0842085877631524,0.1982385094646601,9.827601,58.48391,182.8897,0.484664,-0.08698966,0.8701364,4
5.66,-31.32553,1.217454,-29.71566,0.3043150131747243,0.094211558677034,0.1760960219434975,11.8909,58.50066,183.3534,0.4831456,-0.1045558,0.8689095,4
5.68,-31.22738,1.390091,-29.64505,0.2396578235836735,0.0251871546375436,0.1363769475231762,15.48726,58.5661,183.6299,0.4806989,-0.1328138,0.865914,4
5.7,-31.13076,1.559146,-29.57554,0.193706054220526,0.0325761267443486,0.1091024605085024,19.08226,58.65118,183.916,0.4777772,-0.1609323,0.862062,4
5.72,-31.17071,1.183104,-29.59234,0.1324668386370433,-0.0128664420984876,0.0729075511831749,17.42065,58.15272,183.9163,0.4755669,-0.1486904,0.8659034,4
5.74,-31.07445,1.363831,-29.5243,0.0695014370140736,-0.0557846776684749,0.0354092856512733,20.9872,58.22758,184.1439,0.472343,-0.1763075,0.8616857,4
5.76,-30.97928,1.541141,-29.45703,0.0326651531572466,-0.0201593169599321,0.0157384233623174,24.55239,58.31997,184.3825,0.4686611,-0.2037451,0.8566319,4
5.78,-31.04681,1.160751,-29.49274,-0.0052978838660551,0.014118795859917,-0.0046417785641934,21.58434,56.05597,184.0958,0.4553903,-0.1816759,0.8696959,4
5.8,-30.95267,1.347702,-29.4264,-0.0565385242065343,-0.0056329721495518,-0.0334098923830366,25.10996,56.089,184.1791,0.4516144,-0.2084577,0.8646319,4
5.82,-30.8593,1.531384,-29.36061,-0.1066753274357084,-0.0219135552906774,-0.0614552046241172,28.63453,56.12889,184.2673,0.4474121,-0.2350347,0.8587509,4
5.84,-30.90331,1.132712,-29.37306,-0.1420278875346721,0.0198058111919456,-0.0811402390899216,28.04813,52.65745,183.9406,0.4225793,-0.2318572,0.8727314,4
5.86,-30.81222,1.327125,-29.30787,-0.1917582400673878,-0.0226593005105436,-0.1090955637486006,31.52145,52.59552,183.816,0.418036,-0.2575701,0.8663277,4
5.88,-30.72151,1.518438,-29.24296,-0.2395202424241134,-0.062608897183518,-0.1359495975243558,34.99368,52.52188,183.6818,0.4131097,-0.2830391,0.8591292,4
5.9,-30.75974,1.121794,-29.25924,-0.2629376629782483,-0.0167647258446257,-0.1476678612982067,34.74018,50.10168,183.2475,0.3962866,-0.2818019,0.8678535,4
5.92,-30.67038,1.319736,-29.19531,-0.2894386645918994,-0.0557459938457846,-0.1631168567974064,38.1559,49.90683,182.9197,0.3910302,-0.3064042,0.8600881,4
5.94,-30.61394,1.115583,-29.1614,-0.3130220646223511,-0.092561338744066,-0.1769788991981027,41.88196,49.57267,182.3501,0.3848083,-0.332442,0.8508057,4
5.96,-30.52551,1.315581,-29.09879,-0.3207254017750283,-0.0423806926668929,-0.1818412315193027,45.25533,49.27622,181.9201,0.3788819,-0.3561123,0.8415613,4
5.98,-30.43718,1.51267,-29.03625,-0.3250738594649176,0.0064344231393764,-0.1849085593829129,48.62593,48.92237,181.4361,0.3726263,-0.3794648,0.8315842,4
6.0,-30.34908,1.706865,-28.97387,-0.3363941773904733,-0.0609054574791831,-0.1937114619461368,51.99324,48.49639,180.8827,0.3660471,-0.4024792,0.8208839,4
6.02,-30.35982,1.112934,-28.98171,-0.3309915400393959,-0.0393041097944437,-0.1896923638627283,48.08816,48.36445,179.5318,0.375612,-0.3701539,0.8324048,4
6.04,-30.27308,1.313361,-28.91969,-0.3215683747074478,-0.0171744870663222,-0.1832413572543756,51.40638,47.93291,178.9666,0.3695683,-0.3929996,0.8217451,4
6.06,-30.13651,1.103718,-28.82366,-0.2937643578694335,-0.0220671176200681,-0.1640938074337175,56.53078,46.29868,176.1807,0.3605712,-0.4236471,0.8031939,4
6.08,-30.05115,1.299763,-28.7634,-0.2630700737066269,-0.0254101662024835,-0.1434266759004909,59.78341,45.47916,175.2164,0.3540103,-0.4452393,0.7908447,4
6.1,-29.96606,1.493116,-28.70334,-0.2297120217392323,-0.0305494263021066,-0.1213928657233385,63.0262,44.44932,174.044,0.3471592,-0.4664555,0.7778484,4
6.12,-29.75092,1.118093,-28.54764,-0.1762746734355964,-0.1150773198396075,-0.0849354087269254,61.81131,36.96566,167.1962,0.3246281,-0.4537655,0.7905265,4
6.14,-29.66645,1.304501,-28.48746,-0.1229200055873671,-0.0843034280872103,-0.0486888645979548,64.89285,34.89878,164.8846,0.3181716,-0.4740927,0.7769063,4
6.16,-29.58269,1.488272,-28.42778,-0.0684137228631613,-0.0545317517762324,-0.0118043000706755,67.92835,32.23494,161.979,0.311461,-0.4940324,0.7626653,4
6.18,-29.46073,1.161854,-28.33791,-0.0233452248654115,-0.0424168362584095,0.0172439348498931,55.75061,36.7058,168.7907,0.320343,-0.4144626,0.8206161,4
6.2,-29.37631,1.341635,-28.2758,0.0219504469061755,-0.029573559355047,0.0463767984503307,58.81239,35.18287,166.9813,0.3146505,-0.4351718,0.8082458,4
6.22,-29.29288,1.518722,-28.21442,0.0672823947211669,-0.0191254614613064,0.0754220750511018,61.8431,33.30758,164.8238,0.3087124,-0.4555328,0.7952436,4
6.24,-29.11828,1.228982,-28.1167,0.1197256858806565,-0.0039267374198545,0.1020550864390084,37.74747,45.37445,174.7466,0.3782568,-0.2814146,0.8663829,4
6.26,-29.02693,1.400889,-28.04873,0.1728895193970774,0.0110888137640481,0.1290110361744991,41.0891,44.97996,174.1256,0.3743375,-0.3054654,0.8571678,4
6.28,-28.93702,1.569619,-27.98182,0.2264532718316574,0.0228191001564778,0.1560226773728454,44.42612,44.51311,173.4383,0.3700945,-0.3292448,0.8472118,4
6.3,-28.88082,1.257213,-27.97102,0.2684757542055558,0.0978592333245657,0.1789343897319675,19.98654,50.38468,176.5845,0.4236937,-0.1444643,0.8885582,4
6.32,-28.78276,1.425319,-27.89965,0.2972309603943341,0.0782946428278232,0.1888097479131114,23.52722,50.29555,176.3442,0.4217041,-0.1711857,0.8829882,4
6.34,-28.6864,1.589811,-27.82952,0.3193591917783247,0.1045273283465181,0.1982353335327831,27.06781,50.18696,176.0902,0.4193096,-0.1977444,0.8765715,4
6.36,-28.60175,1.275722,-27.78585,0.3388429311288115,0.1290813315195376,0.2060077889621956,358.3712,55.58793,178.185,0.4659888,0.0199569,0.8845349,4
6.38,-28.5017,1.441382,-27.71424,0.3546807019418607,0.082844852446158,0.210310603881052,1.938948,55.58812,178.2584,0.4664019,-0.007880231,0.8842807,4
6.4,-28.4035,1.603338,-27.64397,0.3762337701555651,0.1064058042866299,0.2215278578165915,5.505709,55.59291,178.3321,0.4663629,-0.03570189,0.8831695,4
6.42,-28.28963,1.293852,-27.56949,0.3942664754820417,0.1277035545071126,0.2310244585332284,352.8327,57.30077,179.2583,0.4781612,0.05794911,0.8760213,4
6.44,-28.18935,1.455354,-27.49506,0.4006533517481769,0.0737283318277899,0.2324160862739224,356.4175,57.27793,179.502,0.4789309,0.02951571,0.8772853,4
6.46,-28.09112,1.613047,-27.42215,0.4015959514336242,0.08841159121598,0.2320998047885329,0.001326564,57.27037,179.7438,0.4792298,0.001061361,0.8776867,4
6.48,-28.10153,1.269752,-27.43159,0.3976632374883215,0.1016932939436492,0.2290827503703463,354.0961,57.8012,180.0018,0.482651,0.04507737,0.8742976,4
6.5,-28.00416,1.433128,-27.35828,0.3884681814892565,0.1108898267893943,0.223037697549818,357.6316,57.77987,180.2972,0.4830708,0.01684182,0.8753337,4
6.52,-27.90871,1.592877,-27.28642,0.3675858833793803,0.0933635839309564,0.2079702499141329,1.166119,57.77679,180.5911,0.4830277,-0.01140161,0.8755308,4
6.54,-27.88116,1.246081,-27.27586,0.3436306774647,0.0769485695283153,0.1909675642086421,1.404954,58.39644,181.5933,0.4876,-0.01748367,0.8728706,4
6.56,-27.78201,1.411264,-27.203,0.3162249448868639,0.0588372211290557,0.1717113267630643,5.015655,58.41318,181.892,0.4867958,-0.04623631,0.8722638,4
6.58,-27.68476,1.572744,-27.13152,0.278871606183463,0.041178120238955,0.1488898144576276,8.62579,58.44902,182.1936,0.4855051,-0.07493779,0.8707855,4
6.6,-27.58958,1.730681,-27.06157,0.2391099681121749,0.0254106876133379,0.1245927362632168,12.2347,58.50469,182.5009,0.4837297,-0.1035567,0.8684378,4
6.62,-27.68461,1.226225,-27.1207,0.1965695338859854,0.0086604399729265,0.0985323932214967,10.35073,58.42707,183.1695,0.4837129,-0.09214345,0.8701338,4
6.64,-27.58541,1.396608,-27.04893,0.1510124273472302,-0.0131456647380586,0.0718301290487355,13.97797,58.48646,183.4512,0.4814713,-0.1207243,0.8674676,4
6.66,-27.48786,1.563321,-26.97836,0.1038192234465631,-0.0318437116129942,0.0439466745125178,17.60379,58.5656,183.7419,0.4787454,-0.149175,0.8639285,4
6.68,-27.55387,1.190846,-27.0161,0.0697391889439473,0.0022731812584765,0.0241702097158267,16.09876,58.68968,183.7768,0.4809509,-0.1379829,0.8648907,4
6.7,-27.45674,1.369491,-26.94738,0.0339611534019379,0.034874405915494,0.0032754717554381,19.6835,58.77094,184.0412,0.4779099,-0.1658895,0.8609388,4
6.72,-27.45329,1.168169,-26.93185,-0.0352634104022517,-0.039266356904365,-0.0388401415763262,20.16181,56.90485,184.0732,0.4633082,-0.1704689,0.8680564,4
6.74,-27.35828,1.352912,-26.86473,-0.084302438805389,-0.0301261491657151,-0.0683294548708772,23.70959,56.95919,184.2186,0.459713,-0.1976261,0.8632621,4
6.76,-27.26416,1.534323,-26.79823,-0.1328804602283244,-0.020028182601497,-0.0975056377661425,27.25623,57.02523,184.372,0.4556778,-0.224586,0.8576412,4
6.78,-27.17109,1.71248,-26.73248,-0.2031420911887131,-0.0938689110489863,-0.1392489971391994,30.80107,57.1044,184.5351,0.451207,-0.2513168,0.8512009,4
6.8,-27.28737,1.139002,-26.79697,-0.2481010285444735,-0.0823292397489051,-0.164923703958848,26.31828,53.69136,183.974,0.4324239,-0.2182457,0.8718399,4
6.82,-27.19539,1.331642,-26.73153,-0.2909826873557137,-0.0693199636642423,-0.1892105749646355,29.80991,53.66232,183.9123,0.4280874,-0.2442795,0.8657772,4
6.84,-27.10389,1.521137,-26.66643,-0.3446340970426669,-0.141136443656048,-0.2193634291992454,33.30009,53.62772,183.8462,0.4233555,-0.2700764,0.8589135,4
6.86,-27.1247,1.121781,-26.66572,-0.375580077420262,-0.1240261550429484,-0.2364542467904336,34.74428,50.17448,183.2552,0.3968135,-0.2817946,0.8675991,4
6.88,-27.0351,1.31968,-26.60152,-0.4032054624602188,-0.1056195687246937,-0.2516664027861792,38.17134,49.98424,182.9353,0.3915479,-0.3064938,0.8598009,4
6.9,-26.94571,1.514573,-26.53746,-0.427761740189664,-0.0892139406690258,-0.2651763922774433,41.59648,49.75874,182.5837,0.3859319,-0.3309106,0.8512321,4
6.92,-26.89897,1.115023,-26.51115,-0.4463778033950678,-0.1007596439258162,-0.2779253704876785,43.29619,49.54657,181.7366,0.3843528,-0.3408196,0.8461769,4
6.94,-26.81085,1.315272,-26.44839,-0.4602869415961903,-0.10894842593937,-0.2878170084236187,46.66598,49.24332,181.3078,0.3784182,-0.3644053,0.8365619,4
6.96,-26.72281,1.512622,-26.38568,-0.4647950508879948,-0.0573149435163132,-0.2905279679832753,50.03303,48.88022,180.8221,0.3721555,-0.3876669,0.8262206,4
6.98,-26.63499,1.707083,-26.32313,-0.4653008010632478,-0.0916350105886961,-0.2909076747146564,53.39682,48.44129,180.2632,0.3655704,-0.4105845,0.8151628,4
7.0,-26.61876,1.109959,-26.31277,-0.4615352428969399,-0.1243542636390737,-0.2886381088089158,50.70333,47.95215,178.7212,0.3715649,-0.3871058,0.8237287,4
7.02,-26.53234,1.309364,-26.25124,-0.4536984335164042,-0.1588847587502646,-0.2838558361784624,54.00739,47.43702,178.0709,0.3653369,-0.4096039,0.8125289,4
7.04,-26.44603,1.505985,-26.18979,-0.4098152399429158,-0.163484963802181,-0.2536745964668601,57.30639,46.80739,177.3087,0.3588027,-0.4317502,0.8006474,4
7.06,-26.26601,1.104476,-26.06179,-0.3623864713664928,-0.1666937976210282,-0.221500664053619,61.23608,41.87941,171.1783,0.3432315,-0.4506133,0.7873672,4
7.08,-26.18102,1.29561,-26.00197,-0.319121416705693,-0.1107372220377113,-0.1925957101658957,64.42043,40.36237,169.4738,0.3365573,-0.4714181,0.7739369,4
7.1,-26.09652,1.484091,-25.9425,-0.273026506814952,-0.0565714970128962,-0.162065867632835,67.57866,38.39737,167.3237,0.32961,-0.491829,0.7598792,4
7.12,-25.8879,1.144382,-25.79004,-0.2178502953046099,-0.1044024250514448,-0.1246620524369248,58.37111,36.24429,167.8059,0.3192435,-0.4319864,0.8089347,4
7.14,-25.80335,1.326319,-25.72871,-0.1797747615947487,-0.0694500770467975,-0.0999804672024575,61.43212,34.45656,165.7404,0.3132122,-0.4524898,0.7960096,4
7.16,-25.71971,1.505581,-25.66805,-0.1406227584447252,-0.0345918467063456,-0.0747431864783774,64.45422,32.21918,163.229,0.3069339,-0.472628,0.7824556,4
7.18,-25.61241,1.195575,-25.59363,-0.0898062287620646,-0.0685398761466386,-0.0454294918307942,48.28736,42.09793,173.1858,0.349854,-0.3615807,0.8413974,4
7.2,-25.52757,1.371989,-25.53005,-0.043370814803787,-0.0286147277208883,-0.019509126236282,51.42006,41.34647,172.2031,0.3449468,-0.3833174,0.8306217,4
7.22,-25.44387,1.545646,-25.46733,0.0035879844456205,0.0101747505987319,0.0066063753766925,54.54242,40.44639,171.0762,0.3397728,-0.4047499,0.819203,4
7.24,-25.28447,1.250234,-25.40078,0.0547284719952214,-0.0218312874408236,0.0300388257033845,26.17563,48.88121,176.0147,0.4099268,-0.1920151,0.8829486,4
7.26,-25.18721,1.418957,-25.32973,0.0934627711818389,0.0134128141252445,0.0487504230195843,29.69613,48.7163,175.6629,0.4072154,-0.2181935,0.8759365,4
7.28,-25.09162,1.58412,-25.25989,0.1309877978135802,0.0472316767082479,0.0664963615197518,33.21587,48.51905,175.285,0.4041157,-0.244165,0.8680907,4
7.3,-24.99786,1.74585,-25.1914,0.1669356407417694,0.0767370338973084,0.0829810037018368,36.73487,48.28415,174.8755,0.4006311,-0.2699079,0.8594179,4
7.32,-24.98283,1.27192,-25.20307,0.1949908577426051,0.0811792570459513,0.0965672352547475,2.356002,54.77317,177.9495,0.4601477,-0.01002274,0.8874242,4
7.34,-24.88299,1.438443,-25.13186,0.2214151846413088,0.0860148999763218,0.1092817691295788,5.918634,54.77439,177.9665,0.4601291,-0.03768143,0.8861731,4
7.36,-24.78497,1.601285,-25.06195,0.2457869105060344,0.0883829375796235,0.120810337177704,9.480248,54.7767,177.9837,0.4596659,-0.06529599,0.8840664,4
7.38,-24.69311,1.291563,-25.00417,0.2676300585558735,0.0907623363133299,0.1326414780302087,352.2139,57.24543,179.0375,0.4774171,0.06360923,0.8760099,4
7.4,-24.59236,1.453706,-24.93049,0.2865594543509333,0.0930451528873925,0.1435105386655948,355.802,57.223,179.2524,0.4783267,0.03527556,0.8773937,4
7.42,-24.49364,1.612045,-24.85831,0.3021348282789358,0.0924258135976643,0.1530608637723305,359.389,57.21406,179.4652,0.4787657,0.006915493,0.8779141,4
7.44,-24.45151,1.26971,-24.83054,0.2998064258213442,0.0838642510736236,0.1499805477452667,354.1029,57.8979,180.0012,0.4833898,0.0450066,0.8738927,4
7.46,-24.35379,1.432992,-24.75725,0.2936073201883209,0.0765274978951647,0.1447801907592594,357.6462,57.87663,180.2967,0.4838106,0.01672165,0.8749279,4
7.48,-24.25801,1.592631,-24.68542,0.2831542491815875,0.0676492990244474,0.1371380821737369,1.188538,57.87364,180.5907,0.4837657,-0.01157081,0.875121,4
7.5,-24.16435,1.748784,-24.61518,0.2840638070134451,0.1291342608558701,0.138866272982542,4.729814,57.88886,180.8853,0.4832555,-0.0398443,0.8744724,4
7.52,-24.21441,1.246075,-24.66263,0.2578979993989456,0.0938099349338428,0.1215825126247618,1.401796,58.48703,181.5927,0.4882904,-0.01746175,0.8724847,4
7.54,-24.1151,1.411236,-24.58989,0.2296500109793169,0.0593413052896098,0.1030348249033763,5.014382,58.50375,181.8913,0.4874856,-0.04621805,0.8718789,4
7.56,-24.01767,1.572689,-24.51854,0.208843480297669,0.0983304026002558,0.0918953500192629,8.626441,58.53958,182.1928,0.4861932,-0.07492364,0.870401,4
7.58,-24.05184,1.226233,-24.53253,0.1631664422911636,0.0616457028624335,0.0649111056211055,10.34659,58.49914,183.1684,0.4842634,-0.09209526,0.8698317,4
7.6,-23.95252,1.396605,-24.46088,0.1156556400972692,0.0270120418092922,0.0367531373399567,13.97468,58.55844,183.4499,0.48202,-0.1206729,0.8671672,4
7.62,-23.85485,1.563305,-24.39043,0.0659925818440001,-0.0084846629154363,0.0071851205725326,17.60139,58.63748,183.7402,0.4792916,-0.1491207,0.8636298,4
7.64,-23.90391,1.190865,-24.41573,0.0215832862599372,-0.025979515370414,-0.0176661049840265,16.09579,58.76189,183.7765,0.4814987,-0.137934,0.86459,4
7.66,-23.80668,1.369504,-24.34713,-0.023588017849347,-0.0397781874420763,-0.0431360940160971,19.68081,58.84312,184.0408,0.4784553,-0.165834,0.8606406,4
7.68,-23.71067,1.544666,-24.27938,-0.0698289434839076,-0.0528698964702031,-0.0694366709613154,23.2643,58.94431,184.3171,0.4749425,-0.1935621,0.8558465,4
7.7,-23.61605,1.716455,-24.21262,-0.0931582989780022,0.0121672043558145,-0.0807127563082912,26.84598,59.06767,184.6083,0.470964,-0.2210887,0.8502135,4
7.72,-23.74507,1.160755,-24.28741,-0.1484877716740262,-0.0307751677797443,-0.1119375058535059,21.58579,56.22961,184.0993,0.4567004,-0.1816143,0.8690047,4
7.74,-23.65056,1.347637,-24.22109,-0.1888508910813415,-0.0140388660513418,-0.1345435088866886,25.12069,56.26432,184.1869,0.45291,-0.2084602,0.8639283,4
7.76,-23.55681,1.531233,-24.15532,-0.2276175030366714,0.004128898869069,-0.1561157423521959,28.6545,56.30628,184.2796,0.4486898,-0.2350999,0.8580314,4
7.78,-23.61835,1.13274,-24.1798,-0.2842437093466365,-0.0619361320772026,-0.1876983166576322,28.0418,52.80408,183.941,0.4237024,-0.2317116,0.8722014,4
7.8,-23.52703,1.327135,-24.11477,-0.3388218005081391,-0.1256362512324656,-0.2179375927268716,31.51798,52.74251,183.8171,0.4191489,-0.2574306,0.8657984,4
7.82,-23.4361,1.518424,-24.05002,-0.3603112909763486,-0.0779579946004059,-0.2275484044648195,34.99293,52.66929,183.6837,0.414211,-0.2829044,0.8586003,4
7.84,-23.43465,1.118733,-24.03566,-0.3869268034698931,-0.1145143260473722,-0.2416850891213076,37.41105,49.63311,183.006,0.3897729,-0.3014165,0.8629481,4
7.86,-23.34538,1.317451,-23.97198,-0.4100496822912056,-0.1482053895569222,-0.2537359518318069,40.82186,49.39085,182.6222,0.3842111,-0.3257311,0.8546103,4
7.88,-23.25626,1.513193,-23.90843,-0.4131269346195525,-0.0945130931142547,-0.2542477857108101,44.23025,49.10317,182.1968,0.3783079,-0.3497477,0.8455124,4
7.9,-23.16745,1.705977,-23.84509,-0.4120438425867667,-0.0416286344799271,-0.2523941348974254,47.6359,48.7599,181.7193,0.3720692,-0.3734455,0.835663,4
7.92,-23.19333,1.114524,-23.87326,-0.421110141849494,-0.1038036130571697,-0.2583993870502823,44.70178,49.52373,181.1142,0.3840051,-0.3490639,0.8413454,4
7.94,-23.10563,1.315054,-23.81073,-0.4194317387150788,-0.0762135184680407,-0.2561842540578567,48.05736,49.2063,180.6759,0.3780621,-0.3724625,0.831408,4
7.96,-23.01799,1.512711,-23.74826,-0.4060931578552917,-0.1050443032598274,-0.2463433821922334,51.41005,48.82513,180.1766,0.3717943,-0.3955323,0.8207552,4
7.98,-22.93498,1.107155,-23.6903,-0.3889200016476368,-0.1324687791454517,-0.2343006233761215,53.32655,47.31453,177.6675,0.3668855,-0.403651,0.8147237,4
8.0,-22.84888,1.305545,-23.62934,-0.3681235959076865,-0.1618748681267097,-0.2202020978753882,56.61195,46.68057,176.8937,0.3604904,-0.4257625,0.8029918,4
8.02,-22.76296,1.501186,-23.56851,-0.3332261801238632,-0.0782827548034405,-0.1963958917264965,59.89027,45.89692,175.9725,0.353796,-0.4475084,0.7905934,4
8.04,-22.55428,1.109111,-23.41931,-0.2754050833368491,-0.1029739291750179,-0.1559321029147118,62.6545,38.49873,167.837,0.332035,-0.45826,0.7837569,4
8.06,-22.46941,1.297782,-23.35964,-0.2149081704245863,-0.1279994309542075,-0.1139215317833901,65.77145,36.47685,165.5923,0.3254122,-0.4786599,0.7699628,4
8.08,-22.38515,1.483814,-23.30039,-0.1660590365106347,-0.0673347373574914,-0.0805428204113827,68.84529,33.84032,162.7357,0.3185275,-0.4986632,0.7555491,4
8.1,-22.30164,1.667254,-23.24167,-0.1146360606893641,-0.0783002205420184,-0.0446816520558481,71.85499,30.29388,158.9714,0.3113866,-0.5182561,0.740527,4
8.12,-22.17325,1.161761,-23.14544,-0.0616789420191938,-0.0895330259185003,-0.0075786087989522,55.76586,36.70602,168.7652,0.3204283,-0.414504,0.8205021,4
8.14,-22.08844,1.341536,-23.08351,-0.0261033316312095,-0.0253754917470353,0.0165750778432673,58.82985,35.16087,166.9297,0.3146831,-0.4352049,0.808122,4
8.16,-22.00464,1.518608,-23.02232,0.0151097431314379,-0.0286381987715942,0.041382543741208,61.86189,33.25781,164.7407,0.3086914,-0.4555565,0.7951074,4
8.18,-21.84568,1.228799,-22.93595,0.0573246790738939,-0.0326486407067061,0.067129486510868,37.79118,45.40331,174.7383,0.3784631,-0.2816806,0.8661555,4
8.2,-21.75421,1.400715,-22.8681,0.0965510060469663,0.0324734861547546,0.0913665501372524,41.1336,45.00527,174.1123,0.3745275,-0.3057207,0.8569316,4
8.22,-21.66416,1.569453,-22.8013,0.133004940132519,0.0277613925296286,0.1119299023034221,44.47136,44.53413,173.4192,0.3702675,-0.3294888,0.846966,4
8.24,-21.54795,1.263613,-22.75438,0.1702582348509032,0.0220813003342303,0.1330154771658671,13.88029,51.99062,177.1744,0.4376317,-0.0978474,0.8906672,4
8.26,-21.4495,1.431339,-22.6833,0.1964505028498271,0.0823169799844335,0.1535869991952849,17.41847,51.95255,177.0333,0.4363272,-0.12487,0.8865954,4
8.28,-21.35277,1.595444,-22.61348,0.2197241308979438,0.1395470373705284,0.1724719764993727,20.95672,51.90424,176.8864,0.4346058,-0.1517737,0.8816769,4
8.3,-21.25796,1.756078,-22.54503,0.2255841392288422,0.1019658126004211,0.1797837196668501,24.49381,51.84473,176.7325,0.4324701,-0.1785249,0.8759183,4
8.32,-21.2416,1.279276,-22.54601,0.2297424299865484,0.0627589864637812,0.1865719310408189,354.4387,56.52165,178.4091,0.4722898,0.04929142,0.8799984,4
8.34,-21.14134,1.444144,-22.47435,0.2433650112623362,0.1138879657809008,0.2042923909794352,358.0047,56.51311,178.5386,0.4731146,0.02137181,0.8807366,4
8.36,-21.04299,1.605297,-22.40405,0.2438055421800506,0.0933811609599309,0.2137970321916764,1.569811,56.51263,178.6674,0.4734807,-0.006560808,0.880621,4
8.38,-20.95778,1.296025,-22.34928,0.2417251014118413,0.0721376772740387,0.2229651266139041,353.4663,57.51425,179.4949,0.4800912,0.05207467,0.8753547,4
8.4,-20.85782,1.456923,-22.27437,0.2373828113860954,0.1176843232864408,0.2330094645713916,357.0459,57.49164,179.7682,0.4807183,0.02357219,0.8764938,4
8.42,-20.75996,1.614014,-22.20103,0.2133467747156139,0.0883414957426927,0.2294915528144487,0.6245548,57.48612,180.0396,0.4808738,-0.00494499,0.8767729,4
8.44,-20.74566,1.254668,-22.20105,0.1862771494206838,0.0594642323453077,0.2250149312516698,357.4274,58.0858,181.1417,0.4855135,0.0147892,0.8738843,4
8.46,-20.64781,1.419095,-22.12872,0.1640045009679362,0.10281337062864,0.22561776366509,0.9843585,58.08187,181.425,0.4852856,-0.01354569,0.8742252,4
8.48,-20.55186,1.579906,-22.0578,0.1380185648529179,0.1436638044727112,0.2242340042154911,4.540302,58.09554,181.7088,0.4845874,-0.04185927,0.8737189,4
8.5,-20.45798,1.737255,-21.98841,0.0775908139110299,0.0865891894441023,0.2005558651280106,8.095143,58.12709,181.9953,0.48342,-0.07012442,0.8723663,4
8.52,-20.52579,1.237756,-22.03491,0.015514262737903,0.0298433259085763,0.1766199709674785,6.170638,58.60781,182.5893,0.4875473,-0.05796593,0.871145,4
8.54,-20.42609,1.404956,-21.96221,-0.0272601263514995,0.0688709510297409,0.169455389860579,9.805232,58.65004,182.893,0.485935,-0.08680519,0.8694456,4
8.56,-20.3282,1.568435,-21.89082,-0.0998894138376527,0.0313076076879812,0.1449489460694115,13.43853,58.71259,183.2033,0.4838311,-0.1155484,0.8668666,4
8.58,-20.38438,1.208658,-21.91932,-0.1736250795230276,-0.0038073464687718,0.1209082684436948,13.45213,58.82089,183.5449,0.4842939,-0.1170635,0.866494,4
8.6,-20.28595,1.383114,-21.84919,-0.2292800907694441,0.0362616413266399,0.1095466959643065,17.06191,58.89548,183.8282,0.4816042,-0.1453456,0.8631254,4
8.62,-20.18896,1.553989,-21.78009,-0.3139400227821149,-0.0028246861810407,0.080327308577266,20.67021,58.99073,184.1226,0.478435,-0.1734744,0.858897,4
8.64,-20.23864,1.175717,-21.80252,-0.3988709610501311,-0.0387066950558298,0.0523815871061934,18.74616,57.85561,184.0551,0.4719072,-0.159338,0.8657911,4
8.66,-20.14264,1.358421,-21.73522,-0.4625250626110704,0.0059453565856582,0.0395348464069704,22.3072,57.92376,184.2493,0.4684802,-0.1867455,0.8612989,4
8.68,-20.04764,1.537744,-21.66862,-0.5260378596360633,0.0497110083078832,0.0279946404160753,25.86695,58.00719,184.4537,0.4646009,-0.2139643,0.8559745,4
8.7,-19.9538,1.713772,-21.60284,-0.6268315477998732,-0.0162634639537364,-0.0137165689687397,29.42501,58.10777,184.6703,0.4602733,-0.2409644,0.8498248,4
8.72,-20.08279,1.145459,-21.67633,-0.7261684360860827,-0.0796955152114054,-0.0523195137863377,24.60842,54.79153,184.0524,0.4425943,-0.2049793,0.87038,4
8.74,-19.98984,1.33636,-21.61086,-0.7908660055003858,-0.035116849692082,-0.067059246754511,28.11511,54.78995,184.0488,0.4384457,-0.2312896,0.8646771,4
8.76,-19.89745,1.524073,-21.54579,-0.8774872221623178,-0.0740236766683274,-0.1000088526802747,31.62039,54.78813,184.0452,0.4338885,-0.2573734,0.858167,4
8.78,-19.94121,1.124849,-21.55786,-0.960578058087734,-0.1096129593258902,-0.128333113147455,32.09348,50.88729,183.5337,0.4049913,-0.2622222,0.8710731,4
8.8,-19.85105,1.321931,-21.49343,-1.0171320532930967,-0.0583258259009547,-0.1389245320837635,35.53662,50.74067,183.2703,0.3999945,-0.2872682,0.8638369,4
8.82,-19.76113,1.515977,-21.42917,-1.0803891548456268,-0.0913727495824723,-0.1571069225672454,38.97813,50.56691,182.9834,0.3946369,-0.3120466,0.8558203,4
8.84,-19.73127,1.11558,-21.41149,-1.1386179822972258,-0.1217073652827637,-0.1703531538151845,41.8736,49.73711,182.3609,0.3860097,-0.3322266,0.8502885,4
8.86,-19.64254,1.315538,-21.34876,-1.178636410753438,-0.0645065854103728,-0.1714882327714,45.25749,49.44697,181.9401,0.3800701,-0.3559759,0.841015,4
8.88,-19.55391,1.512573,-21.28611,-1.2130863765952764,-0.0081304993437387,-0.1678649155567617,48.63868,49.10041,181.4661,0.3737983,-0.3794055,0.8310052,4
8.9,-19.46551,1.706696,-21.22362,-1.2525270947961888,-0.0673904616335174,-0.1728205184842983,52.01669,48.68299,180.924,0.3672001,-0.4024954,0.8202685,4
8.92,-19.47684,1.112936,-21.23237,-1.2860919986880712,-0.1258277096987013,-0.1732181533363093,48.07946,48.52808,179.5403,0.3767852,-0.3698751,0.8319086,4
8.94,-19.3899,1.313354,-21.17048,-1.2968148816559864,-0.0696494508391195,-0.1556751685980808,51.40082,48.09904,178.9784,0.3707272,-0.3927312,0.8212466,4
8.96,-19.25349,1.103731,-21.07519,-1.288514313449565,-0.0987275640187995,-0.1235155462966353,56.51122,46.48837,176.1937,0.3618798,-0.4231956,0.8026963,4
8.98,-19.16794,1.299786,-21.01516,-1.2742678145563815,-0.1271676312693845,-0.0880677810746695,59.765,45.67177,175.2326,0.3553019,-0.44478,0.7903565,4
9.0,-19.08265,1.493148,-20.95533,-1.253647376156187,-0.0682531824858417,-0.0489687072609426,63.00901,44.64571,174.0643,0.3484327,-0.4659883,0.7773694,4
9.02,-18.99777,1.683841,-20.89577,-1.2081447093846451,-0.0852677327415539,0.0054986143998054,66.24001,43.32618,172.6045,0.3412782,-0.4868062,0.7637452,4
9.04,-18.77904,1.128892,-20.73503,-1.157799719431666,-0.1029064135999296,0.0618514969753336,60.95561,35.44744,166.6722,0.3166556,-0.4494205,0.7974555,4
9.06,-18.69438,1.313079,-20.67435,-1.1213394506177925,-0.0366765658578736,0.106523280258739,64.00797,33.31548,164.2692,0.3102808,-0.4696954,0.7839911,4
9.08,-18.61053,1.494608,-20.61426,-1.0815918065216013,0.0278443485979351,0.1518474685884574,67.01007,30.59655,161.2826,0.3036588,-0.4895872,0.7699013,4
9.1,-18.52005,1.178228,-20.54299,-1.0292268110272056,-0.0033929669097425,0.1958303822995919,52.0717,38.9838,171.2037,0.3306608,-0.3895673,0.8332983,4
9.12,-18.43599,1.356332,-20.47946,-0.9732726299437642,-0.0365879618232831,0.2408924307659719,55.17448,37.89518,169.8521,0.3253968,-0.4108374,0.8216993,4
9.14,-18.35299,1.531714,-20.41673,-0.9208696389308082,0.0280492114314502,0.2810451496357893,58.25887,36.5749,168.2733,0.3198801,-0.43178,0.8094615,4
9.16,-18.2301,1.239897,-20.34782,-0.8560404058647415,0.0241007904614266,0.3159480314145235,31.98093,45.50679,175.3385,0.3818243,-0.2387087,0.8814303,4
9.18,-18.13745,1.410264,-20.27615,-0.7877822051160581,0.0191554200820128,0.3514592612925398,35.41029,45.2297,174.8393,0.3785882,-0.2639585,0.8732302,4
9.2,-18.04632,1.577267,-20.20564,-0.7279328678122619,0.0797408573521827,0.383341958128752,38.83686,44.90173,174.2961,0.3750094,-0.2889653,0.8642378,4
9.22,-17.97452,1.268192,-20.1596,-0.663412253557812,0.0700701526175177,0.4088154615041999,8.127712,50.78513,177.5375,0.4290167,-0.05481566,0.9002585,4
9.24,-17.87823,1.435359,-20.08459,-0.5978014834573893,0.0596522529748988,0.433083138129088,11.67891,50.77096,177.4552,0.4284176,-0.08242439,0.8975657,4
9.26,-17.78366,1.598879,-20.01094,-0.5357126432198698,0.1162430327838919,0.4586224673332548,15.22904,50.75131,177.3707,0.4274073,-0.1099459,0.8940117,4
9.28,-17.69098,1.758896,-19.93876,-0.4754084837348171,0.1696027271199745,0.4814758700350348,18.77811,50.72576,177.2834,0.425987,-0.1373539,0.8896007,4
9.3,-17.70007,1.285409,-19.93557,-0.4227353697643912,0.1289849490657534,0.4908934511420733,353.3114,53.48793,178.6927,0.4486145,0.05721734,0.8917471,4
9.32,-17.60362,1.448967,-19.85763,-0.3711599775021625,0.0864457818709056,0.4986366677824141,356.889,53.47496,178.8445,0.4494703,0.02877668,0.892826,4
9.34,-17.50905,1.608765,-19.78122,-0.3097016894689128,0.1342334332802504,0.5145629662945921,0.4656381,53.47148,178.9952,0.4498871,0.0003157975,0.8930334,4
9.36,-17.48703,1.282789,-19.75492,-0.2594013424724855,0.1070196824648497,0.5161029478198902,353.7832,53.94604,179.7377,0.4527918,0.04936307,0.889963,4
9.38,-17.39303,1.444878,-19.67481,-0.211219016244432,0.0796954013502733,0.5156198738128492,357.3453,53.9249,180.0109,0.4532869,0.02060354,0.8910639,4
9.4,-17.30094,1.603243,-19.59634,-0.1639764933056966,0.1194757409204948,0.514917969813204,0.906441,53.92076,180.2824,0.4533414,-0.008167831,0.8912986,4
9.42,-17.32043,1.250467,-19.60135,-0.1285946044600456,0.0856888550931352,0.5008701075740758,359.4063,53.20315,181.3421,0.4478012,-0.0006122706,0.8940415,4
9.44,-17.22806,1.415296,-19.52105,-0.0958292779559573,0.0528050121971361,0.4839436065287534,2.993035,53.20867,181.6056,0.4473029,-0.02962109,0.8938915,4
9.46,-17.13746,1.576463,-19.4423,-0.0539575259606783,0.0949392723678712,0.4746095043578213,6.578852,53.23083,181.871,0.4463643,-0.05859508,0.8928615,4
9.48,-17.04881,1.734127,-19.36524,-0.0156010803789425,0.1347723760951489,0.4621243537867725,10.16351,53.27004,182.1402,0.4449868,-0.08750317,0.8909532,4
9.5,-17.17704,1.232156,-19.43072,-0.0064712796204771,0.0753822978526008,0.4262607454385008,8.256063,51.54478,182.8363,0.4319321,-0.07553805,0.8986917,4
9.52,-17.08611,1.401019,-19.34798,0.0008345554747417,0.0168657480537032,0.3883444803682305,11.8902,51.58833,183.0852,0.4301318,-0.1048728,0.8964094,4
9.54,-16.99677,1.566186,-19.26669,0.0298144260488728,0.054334871350956,0.3653159653522544,15.52304,51.64891,183.3407,0.4278977,-0.134093,0.8932225,4
9.56,-17.103,1.199742,-19.30364,0.0352429660473458,0.0137805979624504,0.3247711778637772,14.77604,49.14281,183.6033,0.4084943,-0.1298507,0.9031289,4
9.58,-17.01678,1.376426,-19.22031,0.0390780742868857,-0.0238849056810036,0.2824313182353162,18.37675,49.20251,183.8124,0.4059022,-0.1587759,0.899275,4
9.6,-16.93173,1.549581,-19.1381,0.0637150576882406,0.0163373780836382,0.2529025940893192,21.97616,49.27776,184.0305,0.4029091,-0.1875353,0.894532,4
9.62,-17.04362,1.168398,-19.18339,0.0677549171282099,-0.0239417836417867,0.209884919392103,20.15333,44.81273,183.9998,0.3694199,-0.1747547,0.9120159,4
9.64,-16.96314,1.353306,-19.0994,0.0708533463314775,-0.0608491704113053,0.1658758323040516,23.70245,44.83851,184.0688,0.3662769,-0.2029793,0.9069236,4
9.66,-16.88339,1.534883,-19.01618,0.0943864000937175,-0.0156109118909907,0.1343154072723829,27.2505,44.8699,184.1417,0.3627837,-0.2310011,0.9009628,4
9.68,-16.80454,1.7132,-18.93388,0.0959711762183854,-0.0526915084143799,0.0886938157014753,30.79706,44.90823,184.2207,0.3589461,-0.2587937,0.8941399,4
9.7,-16.98942,1.139225,-19.07248,0.0976089981958752,-0.0865093039289404,0.0432400807219921,26.30395,39.08933,183.9023,0.3182771,-0.2253917,0.9197221,4
9.72,-16.91533,1.332041,-18.98736,0.0989227732055881,-0.1202770270747562,-0.0021531736234425,29.79219,39.02451,183.7645,0.3146509,-0.2527749,0.9132226,4
9.74,-16.84163,1.521708,-18.90267,0.120541753778673,-0.1290891711960783,-0.034155503782232,33.2789,38.94807,183.6184,0.3107371,-0.2799169,0.9058776,4
9.76,-16.9426,1.121917,-18.97178,0.143531922869827,-0.1338756175163247,-0.0649419893411265,34.72379,34.41713,183.2098,0.2742774,-0.2928444,0.9138277,4
9.78,-16.87284,1.319928,-18.88647,0.1675092772014712,-0.137952706293164,-0.0946223100288303,38.14657,34.19742,182.84,0.2700522,-0.3191238,0.9054311,4
9.8,-16.80322,1.514933,-18.80135,0.2124163972681241,-0.0570085918074709,-0.1118055303497298,41.56709,33.93702,182.4339,0.2655854,-0.345109,0.8962235,4
9.82,-16.81429,1.115049,-18.80319,0.2428601195386601,-0.0894655809387085,-0.1405018220234439,43.28439,34.01382,181.7313,0.266509,-0.3567481,0.8903857,4
9.84,-16.74601,1.315317,-18.71928,0.2753983365242818,-0.1195434126796222,-0.1671241858589196,46.65325,33.70283,181.2914,0.2619081,-0.3819451,0.88007,4
9.86,-16.6778,1.512686,-18.63545,0.318627078301922,-0.0619214379750105,-0.1848259697437844,50.01926,33.33047,180.7932,0.2570802,-0.4068021,0.8689903,4
9.88,-16.60975,1.707169,-18.55183,0.3633606950102364,-0.0901011583456773,-0.2009959813765822,53.38181,32.88045,180.22,0.25203,-0.4312976,0.8571574,4
9.9,-16.61509,1.10991,-18.56025,0.4095483057758755,-0.1165342629639655,-0.2150264895102447,50.69023,33.8697,178.7614,0.2676578,-0.4066377,0.8631582,4
9.92,-16.54681,1.309257,-18.47907,0.456827648787254,-0.1446294387865167,-0.2270092131966519,53.99696,33.38627,178.151,0.2629241,-0.4306491,0.8512534,4
9.94,-16.47863,1.505821,-18.39799,0.5375566385908657,-0.1426850205868428,-0.2144075238444132,57.29912,32.79524,177.4354,0.2579701,-0.4542907,0.8386345,4
9.96,-16.32248,1.104299,-18.24757,0.618544154532618,-0.1392091772857801,-0.2001457347300437,61.2355,30.60238,171.3071,0.2636798,-0.4726298,0.8175052,4
9.98,-16.2522,1.295301,-18.17106,0.6919706410990178,-0.0764321650328691,-0.1893509962042339,64.43285,29.20358,169.7355,0.2585811,-0.4947519,0.8034096,4
10.0,-16.18234,1.483656,-18.09502,0.7646220401624049,-0.0153090829074082,-0.1771506445300135,67.6075,27.38756,167.7487,0.2532694,-0.5164584,0.7886646,4
10.02,-15.9771,1.1441,-17.93149,0.8428389221018677,-0.0560603893058952,-0.158641085121757,58.40597,27.47818,167.9032,0.2560986,-0.4494623,0.8309909,4
10.04,-15.90431,1.325891,-17.85664,0.9196052232322494,-0.0987544980085986,-0.138603664475081,61.48636,25.79398,165.9582,0.2513012,-0.4711106,0.8175572,4
10.06,-15.83232,1.505011,-17.7826,0.9744041011783022,-0.0351802934436526,-0.1323721972392861,64.53208,23.68195,163.5889,0.2463056,-0.4923782,0.8034781,4
10.08,-15.76121,1.681532,-17.70949,1.0367180170358798,-0.038892861616518,-0.1227608054890112,67.52887,20.97592,160.6286,0.2411131,-0.5132446,0.7887677,4
10.1,-15.62333,1.211833,-17.64965,1.0959930479084636,-0.0433111617846276,-0.1121648321281387,43.07597,36.95861,174.0255,0.3125749,-0.3323508,0.8749501,4
10.12,-15.54471,1.385898,-17.57281,1.1506777773751276,0.0227351794000374,-0.1025280766193466,46.32338,36.4528,173.3067,0.3088816,-0.356169,0.8645996,4
10.14,-15.46724,1.557001,-17.4971,1.2051032730371822,0.0193367246487927,-0.095971185636168,49.56479,35.85162,172.4973,0.3049352,-0.3796874,0.8535411,4
10.16,-15.31852,1.257125,-17.45652,1.256315664122076,0.0149186329252857,-0.0886982013417359,20.05805,45.23818,176.6217,0.3832999,-0.1495185,0.9066079,4
10.18,-15.22843,1.425256,-17.37583,1.2976859496371929,0.0760697487507461,-0.0819788332313236,23.5907,45.16567,176.4267,0.3816115,-0.1769313,0.9009415,4
10.2,-15.13989,1.589791,-17.29655,1.332744583998621,0.1341308856468473,-0.0766342656506593,27.12403,45.0769,176.2196,0.3795568,-0.204179,0.8944156,4
10.22,-15.02342,1.275646,-17.25329,1.3500258264003866,0.0966954069190791,-0.0824512759639179,358.4063,51.76023,178.2181,0.4362,0.01929738,0.8996079,4
10.24,-14.92922,1.441283,-17.17434,1.3646952236656489,0.1285167971391942,-0.0852426379099267,1.969646,51.76059,178.3256,0.4366072,-0.00908526,0.8993694,4
10.26,-14.83677,1.603223,-17.09686,1.3724794052819786,0.1589045535333397,-0.0895800659417254,5.531973,51.76765,178.4335,0.436592,-0.03745101,0.898261,4
10.28,-14.74624,1.761618,-17.02098,1.3712646376030224,0.1190939888960654,-0.0978421562855582,9.093264,51.78155,178.5426,0.4361546,-0.06577246,0.8962845,4
10.3,-14.69545,1.293789,-17.02035,1.3630376898368366,0.077283585668419,-0.1070104177718886,352.8235,54.54728,179.2857,0.4569868,0.05847792,0.8872473,4
10.32,-14.59952,1.455259,-16.94044,1.3622593381581347,0.125141480766896,-0.1072507750457887,356.4052,54.52174,179.5577,0.4577062,0.02964854,0.8885418,4
10.34,-14.50556,1.612923,-16.86219,1.341483795726682,0.0968989798463303,-0.119630950242074,359.986,54.51324,179.8275,0.457976,0.0007982324,0.8889634,4
10.36,-14.47282,1.262057,-16.86867,1.3132371455333685,0.0688131786334264,-0.133615245016508,355.7421,56.02816,180.5955,0.4695284,0.03035646,0.8821203,4
10.38,-14.3781,1.425865,-16.79194,1.2876310712194765,0.1104081690576559,-0.1421936194159223,359.2899,56.0146,180.9081,0.4696037,0.001749743,0.8828201,4
10.4,-14.28525,1.586044,-16.71673,1.2537261875843264,0.1494577769881804,-0.1535143777053429,2.836655,56.0204,181.2202,0.4692256,-0.02685053,0.8826674,4
10.42,-14.25119,1.240577,-16.71188,1.1881147989183156,0.0909525329743436,-0.1835423433802885,3.986891,57.2769,182.0833,0.4783568,-0.03923216,0.8772887,4
10.44,-14.15377,1.40684,-16.63651,1.1325912654113266,0.1087070097355561,-0.2027788407022299,7.608841,57.30926,182.4033,0.4771458,-0.06824612,0.8760672,4
10.46,-14.05815,1.569391,-16.56256,1.070591275006784,0.1261788779389387,-0.223821683136111,11.23021,57.36244,182.7281,0.4754543,-0.09718593,0.8739645,4
10.48,-13.96453,1.728389,-16.49014,0.9797872631378493,0.0671412353968415,-0.2603912033091444,14.85018,57.43761,183.0611,0.473285,-0.1260197,0.8709831,4
10.5,-14.05119,1.217342,-16.56028,0.8835397363291868,0.0092876693149324,-0.2983345875961924,11.89587,57.98072,183.3739,0.479176,-0.1047926,0.8710938,4
10.52,-13.95351,1.38971,-16.4878,0.8137090476635096,0.0481330747863757,-0.3167373030819125,15.51302,58.05172,183.6735,0.4767355,-0.1333609,0.8680544,4
10.54,-13.85735,1.558454,-16.41645,0.7178019606669506,0.0083391491345308,-0.3493370836196512,19.12874,58.14408,183.9836,0.4738179,-0.1617874,0.8641459,4
10.56,-13.9097,1.183125,-16.45312,0.6178176492717753,-0.0284707133194478,-0.3833369479122035,17.41117,58.07298,183.9297,0.4749554,-0.1487054,0.8662488,4
10.58,-13.81364,1.363752,-16.38444,0.5425147671845845,0.0139293848285723,-0.401434384154987,20.98324,58.15306,184.1732,0.4717415,-0.176436,0.8620123,4
10.6,-13.71868,1.540951,-16.31654,0.4641536582866974,0.0552735092181685,-0.4210762783843849,24.55389,58.25191,184.4285,0.4680685,-0.2039863,0.8569363,4
10.62,-13.75821,1.153054,-16.3344,0.3505119139009391,-0.0121157818525733,-0.4613009830364762,23.07164,55.61064,184.0608,0.450492,-0.1929723,0.869431,4
10.64,-13.66453,1.341893,-16.26843,0.2646342600875668,0.0055851091388678,-0.4833406601623915,26.59277,55.63278,184.1135,0.4465379,-0.21958,0.8640358,4
10.66,-13.57152,1.527496,-16.20293,0.1789468917790386,0.0246788163393996,-0.5058680651016412,30.11251,55.65928,184.1693,0.4421634,-0.2459694,0.8578275,4
10.68,-13.62916,1.132765,-16.23389,0.0736956370419039,-0.0404974625963185,-0.5395272231362584,28.02353,53.17855,183.9504,0.4265536,-0.2313533,0.8708506,4
10.7,-13.53777,1.327149,-16.16938,-0.0308361878995946,-0.103348961366986,-0.5735595115735601,31.49249,53.12205,183.8366,0.4220039,-0.257006,0.8644717,4
10.72,-13.44676,1.51844,-16.10514,-0.0953973471565901,-0.0547652158993479,-0.5751916722196675,34.96037,53.05487,183.7141,0.4170687,-0.2824161,0.8573025,4
10.74,-13.44286,1.118731,-16.0931,-0.1655026934993604,-0.0904533884287653,-0.5827726284877848,37.39392,50.25387,183.016,0.3944395,-0.300712,0.8608757,4
10.76,-13.35308,1.317428,-16.03025,-0.2322063627240875,-0.1233162190293592,-0.5900061282512474,40.80328,50.01776,182.6417,0.3888524,-0.3249651,0.8525672,4
10.78,-13.26347,1.513153,-15.96751,-0.2694965732985699,-0.068746239644213,-0.5741600556371587,44.21033,49.73744,182.2271,0.3829203,-0.3489215,0.8435012,4
10.8,-13.17417,1.705923,-15.90499,-0.3016522844150859,-0.0150129133704079,-0.5573961336709967,47.61473,49.40291,181.7615,0.3766488,-0.3725605,0.8336865,4
10.82,-13.19854,1.114511,-15.9349,-0.3431547587630548,-0.0763666797578978,-0.549714700764734,44.69303,50.34165,181.1255,0.3899792,-0.3479511,0.8386242,4
10.84,-13.11007,1.315025,-15.8735,-0.3669416227435849,-0.0479185020160821,-0.5281722972382532,48.04853,50.03037,180.6956,0.3839809,-0.3712714,0.8287247,4
10.86,-13.02167,1.512666,-15.81214,-0.384315433911133,-0.018338993465568,-0.5052006791170092,51.40132,49.65661,180.2059,0.3776528,-0.3942648,0.8181123,4
10.88,-12.93667,1.107162,-15.75719,-0.3862754570122468,-0.07632125871094,-0.4752689954860658,53.30817,48.2986,177.6831,0.3738407,-0.4018664,0.811637,4
10.9,-12.84963,1.305547,-15.6976,-0.3826866357943248,-0.1345087030978697,-0.4451094595438949,56.59414,47.67244,176.9185,0.3673615,-0.4238851,0.7999567,4
10.92,-12.76277,1.501184,-15.63812,-0.3626330041033681,-0.0779352615446902,-0.4012401905496225,59.87317,46.89831,176.0084,0.3605771,-0.44554,0.7876126,4
10.94,-12.55024,1.109076,-15.49412,-0.3192812592772571,-0.1001428577183563,-0.3444228286306847,62.6492,39.62383,167.8602,0.3396257,-0.4557567,0.7805358,4
10.96,-12.4643,1.297749,-15.436,-0.2709953096943156,-0.1227159425254095,-0.2876473346906636,65.76759,37.61223,165.6269,0.3328838,-0.4760482,0.7668015,4
10.98,-12.37899,1.483783,-15.37831,-0.2310785635651158,-0.059634969465224,-0.2416487522510408,68.84325,34.98873,162.7844,0.3258738,-0.495945,0.7524505,4
11.0,-12.29441,1.667224,-15.32111,-0.1875390720089025,0.0018171246019793,-0.1962963506488144,71.85543,31.45909,159.0379,0.3186015,-0.5154338,0.7374932,4
11.02,-12.16317,1.161628,-15.22916,-0.13569992398788,-0.0339743514616754,-0.1489594664749582,55.78456,37.91442,168.7638,0.3290565,-0.4122037,0.8169982,4
11.04,-12.07713,1.341409,-15.16897,-0.1003966569678684,0.0071604179547297,-0.1153817457674453,58.84951,36.37226,166.9323,0.3231888,-0.4327747,0.8046708,4
11.06,-11.99211,1.518488,-15.10949,-0.0631285649102406,0.0480714747371654,-0.08340501754064,61.88263,34.47253,164.7475,0.3170678,-0.4529981,0.7917118,4
11.08,-11.83044,1.228609,-15.02796,-0.0153838233601522,0.0198192792149284,-0.054451490834487,37.83613,46.68724,174.7362,0.3881146,-0.2801505,0.8617344,4
11.1,-11.73753,1.400539,-14.96214,0.0359046933555846,-0.0106379880994679,-0.0261328248731005,41.17831,46.29008,174.1121,0.3840756,-0.3040355,0.852545,4
11.12,-11.64607,1.569294,-14.89735,0.080350151636408,0.0501063200263787,0.0030595461058624,44.51583,45.82,173.4212,0.3797044,-0.3276502,0.8426181,4
11.14,-11.52798,1.263566,-14.85429,0.1255341707807538,0.0407037769165555,0.0267715829291739,13.92461,53.33951,177.1718,0.4480752,-0.09729195,0.8854065,4
11.16,-11.42791,1.431292,-14.78552,0.1726929820930454,0.0304379497341798,0.0488429645390722,17.46277,53.30168,177.032,0.446719,-0.1241468,0.8813393,4
11.18,-11.32959,1.595397,-14.71795,0.2106680093501756,0.0865005881510773,0.0740221814898798,21.00105,53.25366,176.8863,0.444936,-0.1508838,0.8764305,4
11.2,-11.23321,1.756031,-14.65173,0.247149649690104,0.139428643406633,0.0960714523792647,24.5382,53.19452,176.7336,0.4427287,-0.1774692,0.8706865,4
11.22,-11.21635,1.279249,-14.65435,0.2723841414716514,0.0981600662633656,0.1072548248569809,354.4657,57.9307,178.4092,0.483083,0.04894945,0.874133,4
11.24,-11.11439,1.444119,-14.58515,0.2928714051037746,0.126316982297631,0.1213695410116506,358.0317,57.92216,178.5397,0.4839131,0.02119628,0.8748548,4
11.26,-11.01435,1.605275,-14.51725,0.3110841760667483,0.1527326499637712,0.1327666990026921,1.596718,57.92173,178.6696,0.4842741,-0.006569275,0.8747285,4
11.28,-10.92739,1.296008,-14.46562,0.3163155679951844,0.1044329286438374,0.1335195327098177,353.4621,58.97333,179.4946,0.4911964,0.05180421,0.8691693,4
11.3,-10.82558,1.456908,-14.39325,0.3196212498197741,0.0549011265772786,0.1318745929445679,357.0417,58.95062,179.7688,0.4918382,0.02346476,0.8703017,4
11.32,-10.72589,1.614,-14.3224,0.3263510500128012,0.0947254482156114,0.1385395958240449,0.6202765,58.94505,180.0413,0.4919973,-0.004889635,0.8705799,4
11.34,-10.71126,1.254712,-14.32353,0.3197435887241062,0.0606555390830639,0.1334385734431031,357.4167,59.58225,181.1392,0.4968833,0.01462397,0.8674678,4
11.36,-10.61157,1.419134,-14.25376,0.3108756197455972,0.0271743084357277,0.1255150029592622,0.9735357,59.57826,181.4235,0.4966615,-0.01354358,0.8678139,4
11.38,-10.51381,1.579939,-14.18533,0.3082802238267913,0.0672168064605149,0.1268900879263423,4.529365,59.59194,181.7083,0.4959584,-0.04168995,0.8673189,4
11.4,-10.41817,1.737283,-14.11839,0.3025388636541989,0.1047653873323084,0.1252292333771387,8.084061,59.62355,181.9959,0.4947753,-0.0697879,0.8659843,4
11.42,-10.48699,1.237773,-14.16386,0.2660675993661177,0.0440202121009077,0.102959131152736,6.156283,60.13509,182.5867,0.4991213,-0.05775248,0.8645738,4
11.44,-10.3854,1.404966,-14.09381,0.2371188663717326,0.0591255051544847,0.0890248185324362,9.790773,60.17735,182.8912,0.4974892,-0.08641568,0.8628992,4
11.46,-10.28566,1.568437,-14.02504,0.2060815104088235,0.0743369988909521,0.0729289413833096,13.42396,60.23997,183.2024,0.4953538,-0.1149833,0.8603515,4
11.48,-10.3424,1.2087,-14.05251,0.1491571841955037,0.0111536559707087,0.0399003646821376,13.44415,60.37302,183.5447,0.4959917,-0.1165762,0.8598608,4
11.5,-10.24212,1.383144,-13.98505,0.0912796411584804,-0.0502499560067103,0.0050622395218014,17.05391,60.44778,183.8288,0.4932582,-0.1446777,0.8565304,4
11.52,-10.1433,1.554006,-13.91858,0.0589273834027117,-0.0128315875565017,-0.0106525378382953,20.66222,60.54324,184.124,0.4900334,-0.1726267,0.8523465,4
11.54,-10.19357,1.175757,-13.9401,0.0043872035423321,-0.0551748895623178,-0.0395333231184307,18.73862,59.43152,184.0549,0.4837765,-0.1586035,0.8592278,4
11.56,-10.09577,1.358449,-13.87544,-0.0501646678070106,-0.0942650101106367,-0.0693832892686925,22.2996,59.49992,184.25,0.4802898,-0.1858247,0.8547843,4
11.58,-9.998981,1.537759,-13.81146,-0.0829446237295153,-0.0520605046229672,-0.0843757439681984,25.8593,59.58368,184.4552,0.4763394,-0.212858,0.8495148,4
11.6,-9.903382,1.713774,-13.74826,-0.1154178263896058,-0.0106992105837963,-0.0997504841835288,29.41733,59.68467,184.6728,0.4719295,-0.2396742,0.8434262,4
11.62,-10.03446,1.14551,-13.81859,-0.1714232623986663,-0.0806205380392152,-0.127923105272026,24.5975,56.38614,184.0527,0.4546748,-0.2039421,0.8641535,4
11.64,-9.93973,1.336396,-13.7557,-0.2062982776272177,-0.0635526787404367,-0.1432935420872854,28.10426,56.38493,184.05,0.4504495,-0.23006,0.8585103,4
11.66,-9.845574,1.524094,-13.69321,-0.2392305908756847,-0.0447584662523672,-0.1579738987580066,31.60959,56.38352,184.0471,0.4458044,-0.2559522,0.8520659,4
11.68,-9.889872,1.124876,-13.70442,-0.2704956155506492,-0.0274548934621926,-0.1721669345664516,32.07929,52.49723,183.5351,0.417204,-0.2608038,0.8653277,4
11.7,-9.797947,1.321948,-13.64253,-0.2980986901642424,-0.0379236781761871,-0.1845602015916321,35.52255,52.35121,183.2728,0.4121089,-0.2856525,0.8581646,4
11.72,-9.70627,1.515983,-13.58081,-0.3219993629271344,-0.0445212320492234,-0.1952918884096699,38.96423,52.17814,182.9869,0.4066418,-0.3102352,0.8502259,4
11.74,-9.676278,1.115592,-13.56432,-0.3424338122829851,-0.0506096600239428,-0.2045387248580386,41.85545,51.35077,182.3638,0.3979634,-0.3302013,0.8448217,4
11.76,-9.58582,1.315545,-13.5041,-0.3529348108979984,-0.0550644811771056,-0.2096480224811152,45.23943,51.06114,181.9436,0.3918963,-0.3537552,0.8356361,4
11.78,-9.495462,1.512574,-13.44396,-0.3594046540273887,-0.0559857131917971,-0.2128342220262589,48.6207,50.71519,181.4703,0.3854865,-0.3769916,0.825719,4
11.8,-9.40535,1.706691,-13.38397,-0.3620662364620612,-0.0567848774600223,-0.2142703265162289,51.99879,50.29855,180.9291,0.37874,-0.3998903,0.8150796,4
11.82,-9.417093,1.11294,-13.3927,-0.3535396025879482,-0.1460523207948771,-0.2092647225863311,48.06897,50.15479,179.546,0.3885537,-0.3673574,0.8265188,4
11.84,-9.328435,1.313358,-13.33329,-0.3252597649811179,-0.1189826483793193,-0.1895098056326314,51.39059,49.72646,178.9848,0.3823462,-0.390026,0.8159451,4
11.86,-9.239849,1.510955,-13.27393,-0.2934019393641945,-0.0913067159945331,-0.1680761522730005,54.70815,49.20768,178.336,0.3758155,-0.4123565,0.8046811,4
11.88,-9.087162,1.102174,-13.17336,-0.2581951267640407,-0.0663507299333337,-0.145128006230548,59.65995,46.56926,174.0796,0.3660628,-0.4385944,0.7856315,4
11.9,-9.000109,1.295851,-13.11597,-0.2105707699822936,-0.0639029566580055,-0.1136126259660892,62.89431,45.46611,172.8221,0.3591533,-0.4596021,0.772684,4
11.92,-8.913448,1.486855,-13.05884,-0.1602966019315841,-0.0598082433888488,-0.0808710953881415,66.1134,44.04975,171.2536,0.3519498,-0.4802223,0.7591055,4
11.94,-8.704679,1.128779,-12.9157,-0.1076006386459398,-0.0573577901482088,-0.0470651505446664,60.96209,37.41463,166.7116,0.3301412,-0.4452468,0.7919615,4
11.96,-8.61847,1.312967,-12.85757,-0.0574188472800702,-0.0414802391435346,-0.0153092082457007,64.01609,35.32161,164.3527,0.3236154,-0.4653367,0.7785977,4
11.98,-8.533092,1.494505,-12.79999,-0.0067549208931479,-0.0242051297936499,0.0166013026226401,67.02158,32.65166,161.4201,0.3168328,-0.4850484,0.7646149,4
12.0,-8.448666,1.673455,-12.74305,0.0441794351637988,-0.0086863233441872,0.0485020629442265,69.95705,29.16368,157.6724,0.3098006,-0.5043657,0.7500256,4
12.02,-8.33159,1.195401,-12.66641,0.1081443924819032,-0.063680362925188,0.0836409034987477,48.32727,43.70889,173.1497,0.3617254,-0.3589555,0.8361932,4
12.04,-8.244608,1.371822,-12.60553,0.1659698857108359,-0.0196416179313277,0.1142396012896933,51.46188,42.93834,172.1426,0.3566157,-0.3804828,0.8254806,4
12.06,-8.158794,1.545479,-12.54547,0.2235968883596734,0.0230813908915427,0.1444375749134334,54.58562,42.01519,170.9875,0.3512295,-0.4017069,0.8141276,4
12.08,-8.013296,1.250112,-12.49451,0.2807228498136129,0.0614735917049993,0.1739856776391697,26.24316,50.53832,176.0036,0.4226313,-0.1906749,0.8767869,4
12.1,-7.91394,1.418845,-12.4264,0.3176740332528994,0.0727202853349559,0.1895513098448911,29.76385,50.37075,175.6469,0.4198044,-0.2166252,0.8697999,4
12.12,-7.816281,1.584016,-12.35946,0.3535293116133913,0.0845865075082887,0.204120021598972,33.28382,50.17036,175.2638,0.4165772,-0.2423708,0.8619847,4
12.14,-7.722922,1.27188,-12.31808,0.3879061966748159,0.0941052301686773,0.2174023554006048,2.417427,56.46494,177.9451,0.4732021,-0.01010138,0.880519,4
12.16,-7.620992,1.438402,-12.24987,0.4157725062355057,0.102173114912604,0.2304693189787146,5.980594,56.4661,177.961,0.473158,-0.03754754,0.8792529,4
12.18,-7.520916,1.601243,-12.1829,0.4405057787060975,0.1105451153622217,0.2418315624560558,9.542759,56.46827,177.977,0.4726566,-0.06494974,0.8771372,4
12.2,-7.422879,1.760549,-12.1173,0.4616638449981408,0.116369759562793,0.2511689854330665,13.10392,56.47149,177.9934,0.4716988,-0.09228151,0.8741751,4
12.22,-7.393431,1.291499,-12.10534,0.4766114680871117,0.0487390335261671,0.2558990596112445,352.2253,58.94722,179.0339,0.4903757,0.0631574,0.86883,4
12.24,-7.29053,1.453659,-12.03471,0.4996574532110215,0.0735745691928123,0.2691281626757411,355.8132,58.92488,179.2482,0.4913055,0.03502918,0.8701965,4
12.26,-7.189715,1.612014,-11.96552,0.5180711464364108,0.096843992965574,0.2801847239857749,359.4,58.91602,179.4604,0.491752,0.006874548,0.870707,4
12.28,-7.163942,1.269849,-11.95121,0.5314308705013262,0.1158318429498881,0.2887394144348298,354.0993,59.61733,179.9988,0.4964457,0.04466553,0.8665403,4
12.3,-7.064062,1.433118,-11.88088,0.5204116495615114,0.104773276613527,0.2808404513803146,357.6427,59.59602,180.2945,0.4968829,0.01657304,0.8675699,4
12.32,-6.966166,1.592743,-11.81194,0.505297247059003,0.0952395938334838,0.2705277305879343,1.185169,59.59301,180.5886,0.4968418,-0.01152742,0.8677642,4
12.34,-6.939205,1.24612,-11.80294,0.4857009021303672,0.0844592719977591,0.2574948156173935,1.380152,60.21495,181.5905,0.5013943,-0.01737957,0.8650239,4
12.36,-6.83774,1.411273,-11.73322,0.4582253476360219,0.075699726854211,0.2423674727574643,4.992707,60.23156,181.8892,0.5005836,-0.04593521,0.8644352,4
12.38,-6.738211,1.572718,-11.66483,0.4275816339499538,0.0689974698780837,0.2253998389866511,8.604713,60.2673,182.1909,0.4992722,-0.07444018,0.8629822,4
12.4,-6.640814,1.730618,-11.59791,0.393384228429832,0.0614862174678635,0.2063030906196177,12.21545,60.32287,182.4983,0.4974619,-0.1028625,0.8606665,4
12.42,-6.73815,1.226298,-11.65442,0.3363001388957938,-0.0242443692115946,0.1734880414676272,10.32353,60.25274,183.1658,0.4975333,-0.09159357,0.8623317,4
12.44,-6.636698,1.396654,-11.58583,0.3010411724794299,-0.0112130004836311,0.1555124319706353,13.95137,60.31206,183.4478,0.4952533,-0.1199645,0.8597072,4
12.46,-6.536932,1.563338,-11.51838,0.2629075184515361,0.0028845850887473,0.1356259029407978,17.57782,60.39115,183.7387,0.492475,-0.1482063,0.8562173,4
12.48,-6.604589,1.190954,-11.55439,0.221551859270521,0.0152047950651984,0.1135900830252789,16.08182,60.51876,183.7756,0.4947102,-0.1371934,0.8571191,4
12.5,-6.505309,1.369572,-11.48879,0.1690639096474421,-0.0004053831142412,0.0851613775047999,19.66684,60.60001,184.0402,0.4916088,-0.1648863,0.8532199,4
12.52,-6.407268,1.544712,-11.42401,0.1157925510152829,-0.0122846839226782,0.0561157630918367,23.2504,60.70126,184.3169,0.4880249,-0.192409,0.8484828,4
12.54,-6.459697,1.160834,-11.44285,0.0614309327003794,-0.0234798129158749,0.0262596968741277,21.57148,57.9926,184.099,0.4700313,-0.1806047,0.8618941,4
12.56,-6.363177,1.347691,-11.37944,0.0278145437627845,0.0448724326741901,0.0084480827315442,25.10684,58.02753,184.1872,0.4661652,-0.2072412,0.8568787,4
12.58,-6.267449,1.531262,-11.31656,-0.0351422639111408,0.0033126734144255,-0.025503717902555,28.64109,58.06976,184.2805,0.4618565,-0.2336726,0.8510491,4
12.6,-6.17268,1.711614,-11.25431,-0.0973123752683816,-0.0348304659137866,-0.0589961603506778,32.17388,58.12026,184.3803,0.4571102,-0.2598709,0.8444126,4
12.62,-6.245297,1.12875,-11.27892,-0.1589203554839012,-0.0727735989192624,-0.0921705651698392,30.0489,53.65603,183.7121,0.4281649,-0.2453253,0.8651973,4
12.64,-6.152382,1.32445,-11.2169,-0.1993642107203831,-0.0855906446158366,-0.1120330071536099,33.51706,53.55571,183.5217,0.4232841,-0.2705518,0.8584312,4
12.66,-6.059789,1.517064,-11.1551,-0.2372625362753981,-0.0942212453115431,-0.1305337805319215,36.98389,53.43665,183.3155,0.4180166,-0.2955229,0.8508798,4
12.68,-5.967671,1.706624,-11.09361,-0.2728404584879634,-0.1019830579862428,-0.1478133378137749,40.44934,53.29532,183.0897,0.4123672,-0.3202157,0.84255,4
12.7,-6.019199,1.117156,-11.12362,-0.2856541958868519,-0.0245683331613892,-0.1530262414856467,39.62164,51.49667,182.6842,0.4014468,-0.3147539,0.8506199,4
12.72,-5.928195,1.316486,-11.06322,-0.3119566096804889,-0.0603959188896945,-0.1691279728181256,43.02106,51.23179,182.2832,0.3955567,-0.338581,0.8419003,4
12.74,-5.837324,1.512863,-11.0029,-0.3343489868965368,-0.0936825708273056,-0.1831636787873571,46.41795,50.91649,181.8353,0.3893176,-0.362101,0.832437,4
12.76,-5.791236,1.113755,-10.97777,-0.3438329675047709,-0.0391106186292296,-0.1885239772101279,46.37374,50.85676,180.3675,0.393557,-0.3568517,0.8307117,4
12.78,-5.701979,1.314232,-10.91831,-0.3499765986868617,-0.0701828658882202,-0.1922363521026846,49.71351,50.48852,179.8726,0.3873926,-0.3797761,0.8205068,4
12.8,-5.612794,1.51186,-10.8589,-0.3523719693490203,-0.0993466100467605,-0.1939060702167168,53.04991,50.04457,179.3046,0.3808977,-0.4023683,0.8096015,4
12.82,-5.470061,1.10374,-10.76525,-0.3512169190353197,-0.1300109167401385,-0.1936630259522727,56.49159,48.23453,176.2119,0.3740308,-0.4198121,0.7971998,4
12.84,-5.382502,1.299786,-10.70759,-0.3137717301989203,-0.1304921370209328,-0.1695013871441919,59.75578,47.42105,175.2543,0.367255,-0.4412768,0.7849228,4
12.86,-5.295226,1.493123,-10.65013,-0.2732899040323088,-0.1292791055236068,-0.1438724915304812,63.0102,46.39818,174.0896,0.3601763,-0.4623658,0.7719993,4
12.88,-5.208359,1.683774,-10.59293,-0.2299965975457618,-0.1296914224834585,-0.116921143597291,66.25169,45.08175,172.6333,0.3528008,-0.4830651,0.7584388,4
12.9,-5.059691,1.117938,-10.49171,-0.1937554677503221,-0.0444544535267108,-0.0949894500281747,61.82676,38.89819,167.204,0.3378716,-0.449576,0.7848883,4
12.92,-4.9732,1.30436,-10.43432,-0.148993352047052,-0.0593310466114906,-0.0670276146670357,64.91167,36.83123,164.8927,0.3311838,-0.4697079,0.7713611,4
12.94,-4.887438,1.48814,-10.37741,-0.1024021747968383,-0.0743289021080624,-0.0379539138646403,67.95064,34.16615,161.9862,0.3242311,-0.4894554,0.7572161,4
12.96,-4.70221,1.178054,-10.25209,-0.0725794134344764,-0.0106933074806367,-0.0208655302690048,52.10947,41.36726,171.1746,0.3479885,-0.3852868,0.8260422,4
12.98,-4.61529,1.356136,-10.19218,-0.0316565068634275,-0.0141549975388496,-0.0006782181625861,55.21656,40.26584,169.8078,0.3424509,-0.4062946,0.8145332,4
13.0,-4.529469,1.531486,-10.13302,0.0101307867374206,-0.0181286185445812,0.0201084252932941,58.30489,38.92941,168.2105,0.3366464,-0.4269775,0.8023884,4
13.02,-4.353196,1.239761,-10.05061,0.0525296192420203,-0.0257496323307127,0.0412895898689049,32.03078,48.94756,175.3512,0.4080542,-0.2347504,0.8694706,4
13.04,-4.256675,1.410084,-9.984189,0.0940683050266332,-0.0085576057608352,0.0568082307963865,35.46318,48.6801,174.87,0.4045966,-0.2596411,0.8613448,4
13.06,-4.161736,1.577044,-9.918853,0.1362141677568134,0.0089857979227652,0.072417233529887,38.8929,48.36324,174.3459,0.4007716,-0.2842915,0.8524373,4
13.08,-4.068536,1.740747,-9.854713,0.1786321453541038,0.0238154070972756,0.0878552965252182,42.32072,47.98724,173.7685,0.3965816,-0.3086883,0.8427531,4
13.1,-4.031862,1.268107,-9.860291,0.21185886810632,0.1028871545347278,0.104103778683528,8.179007,55.16589,177.5552,0.4630967,-0.05334202,0.8831791,4
13.12,-3.930504,1.435232,-9.792295,0.2305927692314248,0.0877230763336465,0.1089798527557992,11.73072,55.15519,177.4933,0.4623969,-0.08048582,0.8804986,4
13.14,-3.830962,1.598711,-9.725515,0.2477040658476422,0.0722065309897919,0.1129067784866383,15.28142,55.14035,177.4298,0.4612533,-0.1075447,0.8769732,4
13.16,-3.736539,1.285307,-9.672434,0.2631741244871385,0.1245356701572783,0.1192546472540789,353.3207,58.69874,178.7108,0.4886992,0.05627884,0.8704333,4
13.18,-3.633782,1.448828,-9.603001,0.2733781181700438,0.1077659584345369,0.1217509476836494,356.8979,58.68409,178.8826,0.4895894,0.02837018,0.8714786,4
13.2,-3.533042,1.60859,-9.534928,0.2805625914537406,0.0901265892720331,0.1232800825502961,0.4741865,58.68018,179.0531,0.4900015,0.0004418306,0.8716728,4
13.22,-3.450268,1.282871,-9.484536,0.2843226340927659,0.0687832733870467,0.1235295724907112,353.78,59.54157,179.7486,0.4956956,0.04818032,0.8667974,4
13.24,-3.349128,1.444923,-9.413608,0.2942465972894759,0.1347218701307897,0.1300350568198521,357.3417,59.51944,180.0342,0.4962362,0.01998851,0.8678776,4
13.26,-3.250049,1.603249,-9.344126,0.2826508978682907,0.1012958568270023,0.1208900603384501,0.9024751,59.51509,180.3181,0.4962945,-0.008214643,0.868114,4
13.28,-3.153217,1.758015,-9.276217,0.2677805618252497,0.0684910862300095,0.1102174692358267,4.462195,59.5284,180.6025,0.4958708,-0.03640186,0.8675073,4
13.3,-3.204449,1.250454,-9.322309,0.2602100487079535,0.1080478263414869,0.1057506451690514,359.3871,60.11984,181.3678,0.5009179,-0.001350065,0.8653961,4
13.32,-3.103608,1.415232,-9.252968,0.2358379152710136,0.0742743481370111,0.0911277867381387,2.971383,60.12582,181.6586,0.500405,-0.02968527,0.8652824,4
13.34,-3.004708,1.576349,-9.184964,0.2090815171191897,0.0418053300473089,0.0750198247711698,6.554786,60.15013,181.9511,0.4993997,-0.0579842,0.8643169,4
13.36,-3.01731,1.232115,-9.186647,0.189934443582865,0.0831891319055081,0.0659422333455501,8.234866,60.40335,182.8773,0.5000307,-0.07463221,0.8626646,4
13.38,-2.915521,1.40087,-9.117691,0.1671876408925877,0.122775113976017,0.0548307374158199,11.86645,60.45455,183.1705,0.498072,-0.1031331,0.8605175,4
13.4,-2.815503,1.565927,-9.049934,0.1103565646458857,0.0608973734606748,0.022642313776179,15.49668,60.52578,183.4716,0.4956106,-0.1315217,0.8575016,4
13.42,-2.851722,1.199671,-9.063629,0.0518932065810497,0.0007630219615603,-0.0106173139570179,14.76168,60.65457,183.6656,0.4969524,-0.1268432,0.8576401,4
13.44,-2.751709,1.37619,-8.997464,0.0204158359379162,0.0382617766914031,-0.0268381478622328,18.35918,60.73286,183.9401,0.4940274,-0.1547185,0.8540292,4
13.46,-2.653049,1.54918,-8.932196,-0.0350631646117825,-0.0031952298316387,-0.0566520301356787,21.95521,60.83152,184.2263,0.490614,-0.1824323,0.8495737,4
13.48,-2.555924,1.718753,-8.867946,-0.0910182881484205,-0.0413174033853736,-0.0869344865366801,25.54951,60.95264,184.5268,0.4867157,-0.2099549,0.8442792,4
13.5,-2.678134,1.168288,-8.933955,-0.1228573872505238,0.0012155101287079,-0.1025076135809718,20.141,58.91605,184.0684,0.4784996,-0.169345,0.8598137,4
13.52,-2.580748,1.353009,-8.87029,-0.1740544690560957,-0.0380632150881896,-0.1281784202675829,23.68933,58.96888,184.2099,0.4748196,-0.1962485,0.8550907,4
13.54,-2.484269,1.534398,-8.807218,-0.2244046529971182,-0.0736893223591108,-0.1533337782362822,27.23646,59.03311,184.3592,0.4706851,-0.2229556,0.8495485,4
13.56,-2.38887,1.712531,-8.744852,-0.2517536934948467,-0.0254651260102906,-0.1656942840755666,30.78206,59.11022,184.5182,0.4661006,-0.2494378,0.8431938,4
13.58,-2.497343,1.132798,-8.794207,-0.2775551304492361,0.0222953570911307,-0.1771381176365541,28.03079,54.75482,183.9427,0.4384983,-0.230278,0.8648829,4
13.6,-2.403632,1.327137,-8.73208,-0.3266317454245688,-0.0422255900064357,-0.2017874965950163,31.51749,54.69436,183.821,0.4338265,-0.25584,0.858538,4
13.62,-2.310318,1.518352,-8.670218,-0.3732032990890931,-0.104363181863853,-0.2249363539707798,35.00264,54.62254,183.6902,0.4287553,-0.2811553,0.8514005,4
13.64,-2.309457,1.118773,-8.65664,-0.39249494476909,-0.0533885627571648,-0.2337658776427372,37.37783,51.57836,183.0095,0.4044029,-0.2992379,0.8562916,4
13.66,-2.218009,1.317474,-8.595955,-0.4168767844662111,-0.0867062535782191,-0.2474276835149343,40.79173,51.33697,182.6268,0.3987008,-0.323336,0.8480477,4
13.68,-2.126726,1.513193,-8.535378,-0.4375169837120193,-0.1173349807570489,-0.259102548488594,44.20325,51.05034,182.2027,0.3926439,-0.3471381,0.8390481,4
13.7,-2.035757,1.705949,-8.47501,-0.4546134111797425,-0.1486605579464057,-0.2689226077646687,47.61205,50.70824,181.7266,0.386238,-0.3706235,0.8293015,4
13.72,-2.063344,1.11453,-8.502785,-0.4469018116317348,-0.0676063660337819,-0.2633504660559327,44.68479,51.46063,181.1221,0.3981723,-0.3463642,0.8347958,4
13.74,-1.973552,1.315056,-8.443239,-0.4356971414351489,-0.1012773605175828,-0.2561305743066303,48.04137,51.14341,180.6839,0.3920611,-0.3695391,0.8249615,4
13.76,-1.883831,1.512706,-8.383741,-0.4204349021070033,-0.1329545188102256,-0.2466712468775999,51.39508,50.76249,180.1848,0.3856127,-0.392388,0.8144169,4
13.78,-1.799745,1.107191,-8.329177,-0.3946233996463744,-0.0771484677311015,-0.2298426150709689,53.2921,49.26068,177.6832,0.3806651,-0.4000592,0.8085281,4
13.8,-1.711633,1.305594,-8.271152,-0.3645879368291173,-0.0223671104406028,-0.2106456178726882,56.57793,48.62855,176.9112,0.3740746,-0.421954,0.7969124,4
13.82,-1.623692,1.501247,-8.213242,-0.3229280681852134,-0.0814786353281013,-0.1841643084053694,59.85676,47.84726,175.9925,0.3671736,-0.4434866,0.7846348,4
13.84,-1.410772,1.109044,-8.071639,-0.2859996495172634,-0.0509616150938097,-0.1611485037124037,62.6382,40.47898,167.88,0.3453717,-0.4537834,0.7780746,4
13.86,-1.323932,1.297744,-8.014863,-0.2462477904989917,-0.0198916112916008,-0.1366613378342017,65.75613,38.4638,165.6425,0.3385162,-0.4739707,0.7643984,4
13.88,-1.237721,1.483805,-7.958499,-0.1898441670644157,-0.0629943258177659,-0.100936926358224,68.83121,35.83614,162.7952,0.3313882,-0.4937652,0.7501073,4
13.9,-1.152261,1.667272,-7.902626,-0.1315562911731866,-0.1078333165415124,-0.0640752342781222,71.84253,32.30172,159.0434,0.3239934,-0.5131533,0.7352118,4
13.92,-1.021328,1.161504,-7.811222,-0.0809338250730756,-0.0445704840903606,-0.0328739500434784,55.80265,38.63835,168.7528,0.3342395,-0.4108241,0.8148065,4
13.94,-0.9344778,1.341308,-7.752208,-0.0164634076621291,-0.0486395582450639,0.0033639472756594,58.86667,37.09022,166.9145,0.3282817,-0.4312963,0.8025173,4
13.96,-0.8486549,1.51841,-7.693892,0.0493151679312853,-0.053472177229407,0.0406304320052163,61.89867,35.18305,164.7215,0.3220666,-0.4514222,0.7895983,4
13.98,-0.6872407,1.228514,-7.613081,0.1010971497014083,0.0114769221065695,0.0683786621965865,37.86685,47.32466,174.7289,0.3928954,-0.2794193,0.8594673,4
14.0,-0.5935726,1.400465,-7.548388,0.1523624366661236,0.0738301458355683,0.0955289439009295,41.20801,46.92484,174.1012,0.3887965,-0.3032083,0.8502983,4
14.02,-0.5013673,1.569241,-7.484704,0.1963601246659214,0.0410285772149718,0.1119577856428963,44.54445,46.45164,173.406,0.3843615,-0.3267275,0.8403941,4
14.04,-0.3837453,1.263538,-7.441952,0.2279457944901719,0.0760022079875296,0.1254243025687037,13.95641,53.91576,177.1669,0.4525168,-0.0971335,0.8831055,4
14.06,-0.2829469,1.431271,-7.374253,0.2577765134732526,0.1100307397955947,0.1377464360099094,17.49442,53.87723,177.0248,0.451135,-0.1239039,0.8790379,4
14.08,-0.1839143,1.595382,-7.307743,0.2828691161084311,0.0728657488247668,0.1450493013049978,21.03257,53.82837,176.8768,0.4493221,-0.150557,0.8741308,4
14.1,-0.08684024,1.756023,-7.242549,0.3067043004940747,0.0342342196809891,0.1514915779998233,24.56958,53.76819,176.7216,0.4470809,-0.1770587,0.868391,4
14.12,-0.0709956,1.279233,-7.244593,0.3371313320535831,0.0861780839132164,0.1670869660366183,354.4872,58.46064,178.4066,0.4871258,0.04874448,0.8718965,4
14.14,0.03163767,1.44411,-7.176381,0.3643065923874311,0.1349726127093293,0.1809623332135393,358.0533,58.45226,178.5354,0.4879579,0.02106289,0.8726084,4
14.16,0.1323236,1.605272,-7.109463,0.383265845808758,0.0882847306144362,0.1888288367399505,1.618433,58.45188,178.6637,0.4883167,-0.00663126,0.8724744,4
14.18,0.2188194,1.295995,-7.058129,0.3999975881117613,0.1110878398231302,0.1976573381509044,353.4575,59.46757,179.4917,0.494938,0.05174582,0.8670413,4
14.2,0.321271,1.456902,-6.986682,0.4126071180901559,0.1326454268211215,0.2046148128818009,357.0372,59.44493,179.7647,0.4955864,0.02346885,0.8681714,4
14.22,0.4215859,1.614,-6.916725,0.4108644746553238,0.0785285143303293,0.2012556107422786,0.6158966,59.43937,180.0359,0.4957484,-0.004823041,0.8684493,4
14.24,0.5195748,1.767462,-6.84839,0.4080360236214555,0.0963269485712398,0.1987709760994805,4.193574,59.45077,180.3074,0.4954244,-0.03310215,0.8678759,4
14.26,0.4978873,1.250532,-6.874218,0.4008350519654546,0.1137655363192226,0.1937446176669389,359.3746,60.28199,181.3719,0.5021427,-0.001292062,0.8646848,4
14.28,0.5985829,1.415398,-6.805181,0.388870447703474,0.1281338708682682,0.1858733555549889,2.949824,60.28798,181.6671,0.5016315,-0.02955906,0.8645762,4
14.3,0.6973417,1.576623,-6.737471,0.3477285224935159,0.0440426291912716,0.1595405108199062,6.523934,60.3125,181.9641,0.5006291,-0.05778903,0.8636209,4
14.32,0.7023432,1.232144,-6.727355,0.3258373547230963,0.05855235137994,0.1484025158667776,8.228028,60.57116,182.8782,0.5012964,-0.0745634,0.8619345,4
14.34,0.8042344,1.400918,-6.658698,0.3010245900065771,0.0732368821688265,0.1356639402673486,11.85692,60.62256,183.1729,0.4993374,-0.1030305,0.8597932,4
14.36,0.9043543,1.566,-6.591235,0.2513254396320715,0.0107152951728889,0.1081514459282348,15.48446,60.69411,183.4754,0.4968753,-0.1313855,0.856785,4
14.38,1.002517,1.727529,-6.525093,0.2162326927699942,0.0252297273699643,0.0896647391764564,19.11105,60.78724,183.7885,0.4939123,-0.159603,0.8529136,4
14.4,0.8856926,1.199696,-6.59307,0.1789605865208035,0.0408012937784616,0.069805303918248,14.75767,60.82862,183.6658,0.4982575,-0.1267573,0.8568878,4
14.42,0.9858726,1.376217,-6.527208,0.1193044344535539,-0.023241753330363,0.0374676078984873,18.3542,60.90706,183.9409,0.4953288,-0.1546067,0.8532828,4
14.44,1.084696,1.54921,-6.462239,0.0783868829562423,-0.0054417618806176,0.0160408476896151,21.94927,61.00586,184.2276,0.4919105,-0.182295,0.8488345,4
14.46,1.024396,1.168308,-6.486979,0.0364342448657462,0.0139026230433113,-0.0060901698952956,20.13716,59.0739,184.0682,0.4796877,-0.1692388,0.8591581,4
14.48,1.12196,1.353025,-6.423582,-0.0068831312296749,0.0317907428661464,-0.0291284449678203,23.68552,59.12669,184.2097,0.4760016,-0.1961232,0.854441,4
14.5,1.218614,1.534408,-6.360775,-0.0518704578329927,0.0301985136260868,-0.0532604562843179,27.23272,59.19091,184.3589,0.4718599,-0.2228114,0.8489053,4
14.52,1.177179,1.139117,-6.370279,-0.1031727040099439,0.0138404158231603,-0.0801274843920549,26.2885,55.8457,183.9733,0.448774,-0.2166166,0.8636044,4
14.54,1.271588,1.331729,-6.308346,-0.152745940210507,0.0018640384309944,-0.1059407306224511,29.78081,55.8163,183.9108,0.4443261,-0.2423872,0.8576306,4
14.56,1.365509,1.521195,-6.246731,-0.2008526154094483,-0.0089566251887651,-0.1308613554662215,33.27167,55.78133,183.8439,0.4394677,-0.2679228,0.8508628,4
14.58,1.458788,1.707554,-6.185538,-0.2632116681482649,-0.1048737770695754,-0.1633141541155915,36.76151,55.73977,183.7715,0.4342029,-0.2932027,0.8433075,4
14.6,1.377766,1.121832,-6.223477,-0.2933435860553779,-0.0858090029736611,-0.1780812869682482,34.69967,52.35166,183.2598,0.4132744,-0.2794907,0.8600076,4
14.62,1.46973,1.319717,-6.1627,-0.3201291788279737,-0.0649774908104521,-0.1911172263131879,38.1269,52.16227,182.9409,0.4078675,-0.3039231,0.8523197,4
14.64,1.561487,1.514596,-6.10206,-0.3501433162031775,-0.1292770157658042,-0.2080567201483593,41.55219,51.93775,182.5906,0.4020954,-0.3280753,0.8438679,4
14.66,1.59163,1.115032,-6.089036,-0.3632585120742937,-0.1036507712452928,-0.2161518698403806,43.27308,51.69851,181.7466,0.4001801,-0.3379636,0.8388888,4
14.68,1.682054,1.315277,-6.029628,-0.3725255008123026,-0.0765002294349714,-0.2222257999061589,46.64304,51.39521,181.3175,0.3940657,-0.3612896,0.8293927,4
14.7,1.772393,1.512622,-5.970277,-0.378184107998844,-0.0511793782750402,-0.2264390681204812,50.01022,51.03208,180.8316,0.3876097,-0.3842941,0.8191766,4
14.72,1.862504,1.70708,-5.911076,-0.3892790973050475,-0.1429825296352953,-0.2348856196859711,53.37413,50.59318,180.2725,0.3808178,-0.4069572,0.80825,4
14.74,1.945897,1.107176,-5.857691,-0.379060913421279,-0.117942632413134,-0.2283600980304541,53.29728,49.40627,177.6939,0.381647,-0.3998732,0.8080443,4
14.76,2.034273,1.305547,-5.79955,-0.3643443610718869,-0.0918185553566567,-0.2193497889755736,56.59271,48.78232,176.9321,0.3750447,-0.4218349,0.7963923,4
14.78,2.122478,1.501152,-5.74152,-0.3298639777882831,-0.1506808312187377,-0.1977951812018378,59.88166,48.01065,176.0248,0.3681288,-0.4434356,0.7840737,4
14.8,2.210377,1.694009,-5.683692,-0.2915042357412739,-0.1203075471170551,-0.1740349105717041,63.16207,47.03798,174.9187,0.3609055,-0.4646574,0.7710996,4
14.82,2.351804,1.109025,-5.590307,-0.2500768389453551,-0.0897598232412971,-0.1487075263484286,62.63954,40.6355,167.8869,0.3464056,-0.4534536,0.777612,4
14.84,2.438817,1.29771,-5.533664,-0.2058111775582753,-0.0622879953046476,-0.1219532669419044,65.76051,38.62369,165.6533,0.3395351,-0.4736471,0.7639307,4
14.86,2.525199,1.483752,-5.477432,-0.1601593437623963,-0.0480615179738765,-0.0943951991419908,68.83871,35.99954,162.8099,0.3323907,-0.4934472,0.7496338,4
14.88,2.710165,1.161472,-5.351696,-0.1136652379786161,-0.0322435033054758,-0.0663375416343785,55.80723,38.80167,168.7524,0.3353986,-0.4105205,0.8143099,4
14.9,2.797192,1.341269,-5.292892,-0.0665396237447307,-0.0179894461750343,-0.0379303865271068,58.87241,37.25399,166.9148,0.329424,-0.4309824,0.8020233,4
14.92,2.883189,1.518363,-5.234784,-0.0060845721587756,-0.0740513564494423,-0.0060299642747261,61.90556,35.34719,164.7224,0.323191,-0.4510979,0.7891069,4
14.94,3.060126,1.228456,-5.144137,0.04875622363781,-0.0308571375701007,0.0216171092847016,37.8846,47.48135,174.7265,0.3940621,-0.2793133,0.8588769,4
14.96,3.15397,1.40041,-5.079703,0.1037696818399837,0.0112165185962009,0.0492553448958096,41.22579,47.08123,174.0985,0.3899487,-0.3030817,0.8497096,4
14.98,3.246349,1.569189,-5.016274,0.1586584394475978,0.0491540973626461,0.0766503402205713,44.56228,46.60765,173.403,0.3854982,-0.3265806,0.8398075,4
15.0,3.337118,1.734892,-4.953949,0.1938199185500928,0.0611326105195018,0.0903990173726853,47.8944,46.04419,172.623,0.3807132,-0.3497994,0.8291756,4
15.02,3.380202,1.263515,-4.962901,0.2282963038885028,0.0738672906122956,0.1035654924725089,13.9801,54.07112,177.1646,0.4537087,-0.09720303,0.8824649,4
15.04,3.481186,1.43125,-4.895485,0.2617118654483588,0.0843919875708569,0.1158738881892824,17.51803,54.03245,177.0222,0.4523186,-0.123951,0.8783935,4
15.06,3.5804,1.595364,-4.829254,0.2892307730675454,0.094939515938769,0.1281720637806755,21.05609,53.98343,176.8739,0.4504963,-0.1505815,0.8734835,4
15.08,3.659314,1.279216,-4.789714,0.3140665843839572,0.1058537726414252,0.1392035342035455,354.5034,58.64557,178.4062,0.4885373,0.04860475,0.8711143,4
15.1,3.762167,1.444092,-4.721822,0.3357838513582144,0.1142861259852694,0.14866354385385,358.0697,58.6372,178.5353,0.4893684,0.02094311,0.871821,4
15.12,3.863069,1.605254,-4.655218,0.3518030582894556,0.0507827566020706,0.1538959737216095,1.635055,58.63686,178.6639,0.489725,-0.006730907,0.8716825,4
15.14,3.961832,1.762855,-4.590027,0.3766588974396054,0.0797293718232729,0.1678594023602988,5.199373,58.64454,178.7928,0.489607,-0.03439054,0.8706995,4
15.16,4.026234,1.282899,-4.554619,0.39738584933524,0.1070959155307578,0.1801202131643837,353.7831,59.90786,179.741,0.4984615,0.04810948,0.8652115,4
15.18,4.128078,1.444908,-4.484449,0.4135704903435855,0.1301713781312732,0.190364696664693,357.3495,59.88625,180.0202,0.4990102,0.01995257,0.8662877,4
15.2,4.227844,1.603182,-4.415711,0.4266470250073229,0.1982681821006492,0.2004305125552382,0.9150206,59.88205,180.2977,0.4990729,-0.008215821,0.8665197,4
15.22,4.25597,1.250464,-4.405991,0.4086242086508542,0.166354799614485,0.1881555963143255,359.3798,60.48339,181.3649,0.5036614,-0.001323557,0.8638022,4
15.24,4.357324,1.415227,-4.337322,0.3873509455906669,0.1352025418415893,0.1740676208691348,2.965534,60.48931,181.6539,0.5031497,-0.02961877,0.8636916,4
15.26,4.456725,1.576328,-4.269978,0.3624883304599255,0.1020201481025004,0.1579031919190952,6.55038,60.51343,181.9445,0.5021424,-0.05787757,0.8627299,4
15.28,4.553986,1.733923,-4.204084,0.3327350628744361,0.0940416049597794,0.1420754008304381,10.13403,60.5562,182.2392,0.500641,-0.08607132,0.8609195,4
15.3,4.478718,1.232132,-4.248276,0.3007621295902321,0.088203652946417,0.1250054567429345,8.228549,60.78614,182.8762,0.5029137,-0.07453126,0.8609921,4
15.32,4.580974,1.400881,-4.180003,0.2661972395004111,0.0816389138911289,0.1064313805174764,11.86028,60.83729,183.1693,0.5009487,-0.1029866,0.8588529,4
15.34,4.68145,1.565932,-4.112918,0.2214441972715584,0.0725601774338174,0.081937173615339,15.49067,60.90845,183.4701,0.4984781,-0.1313298,0.8558468,4
15.36,4.627373,1.199709,-4.13832,0.1749057377859566,0.0665923547520617,0.0562284333523858,14.756,61.03998,183.665,0.4998393,-0.1266719,0.8559684,4
15.38,4.727835,1.376218,-4.072824,0.1262457191741428,0.0607969841241939,0.0290902588267518,18.35365,61.11825,183.9396,0.4969029,-0.1545019,0.8523685,4
15.4,4.826937,1.549198,-4.008217,0.0751559915777235,0.0522929085310253,0.0003267639449913,21.94984,61.2169,184.2258,0.4934751,-0.1821707,0.8479254,4
15.42,4.784143,1.168317,-4.021461,0.0210161174875032,0.0402710788209266,-0.0288761228199952,20.13536,59.30526,184.0684,0.4814229,-0.1691133,0.8581901,4
15.44,4.881967,1.353029,-3.958445,-0.0327470973262931,0.0318374962279434,-0.0579343593118453,23.68406,59.35816,184.2101,0.4777274,-0.1959726,0.85348,4
15.46,4.978879,1.534406,-3.896016,-0.0864336461639463,0.0239201139700158,-0.0870247398804721,27.23158,59.4225,184.3597,0.4735745,-0.2226359,0.8479521,4
15.48,5.074707,1.712527,-3.834287,-0.116682408989978,0.0957405821676076,-0.1030044410773307,30.77755,59.49974,184.519,0.4689688,-0.2490746,0.8416135,4
15.5,5.169285,1.780813,-3.773363,-0.1756052150056013,0.0587295438564632,-0.1340600771949154,34.32227,59.59199,184.6903,0.4639149,-0.2752669,0.8344698,4
15.52,5.000614,1.132821,-3.860795,-0.2323982015858319,0.024775803479571,-0.1638843871816099,28.02366,55.18797,183.9436,0.4417713,-0.229918,0.8632323,4
15.54,5.094771,1.327151,-3.799355,-0.2667316384132532,0.0766681934610034,-0.1818649838420782,31.51026,55.12812,183.8232,0.4370783,-0.2554286,0.8569058,4
15.56,5.18853,1.518358,-3.738173,-0.3117219721696542,0.0431754443859816,-0.2064466985812439,34.99532,55.05703,183.6936,0.4319827,-0.2806928,0.8497881,4
15.58,5.172291,1.118785,-3.735876,-0.3533658025435762,0.0124268237786296,-0.2293334641567254,37.36722,52.00016,183.0105,0.4075646,-0.2987305,0.854824,4
15.6,5.264179,1.317483,-3.67586,-0.3918796428196784,-0.0189156901986393,-0.2506535146940549,40.78109,51.75906,182.6281,0.4018339,-0.322776,0.8466032,4
15.62,5.3559,1.513199,-3.615952,-0.4065742411487401,-0.0236931754571592,-0.259816905019392,44.19258,51.47276,182.2045,0.3957456,-0.3465261,0.8376282,4
15.64,5.402634,1.114532,-3.594917,-0.4166057556080313,-0.0249636474501041,-0.2671916250156712,44.67857,51.87489,181.1248,0.4011889,-0.3457593,0.833373,4
15.66,5.492862,1.315057,-3.53602,-0.4222112702143303,-0.0261141770090553,-0.2728880990034553,48.03539,51.55762,180.6866,0.3950417,-0.3688856,0.8235618,4
15.68,5.583019,1.512706,-3.47717,-0.4144330347094656,0.0582452343461302,-0.2699055418671106,51.38935,51.17666,180.1873,0.3885547,-0.3916863,0.8130414,4
15.7,5.672965,1.707489,-3.418458,-0.4048239044075352,0.0264535177101587,-0.2727311147299494,54.7399,50.71438,179.6093,0.3817337,-0.414142,0.8018214,4
15.72,5.700234,1.107199,-3.401977,-0.3902978907267975,-0.0038232355505474,-0.2744760794434484,53.28259,49.70356,177.6882,0.3837841,-0.3992196,0.8070943,4
15.74,5.788778,1.305605,-3.34462,-0.3711167359180083,-0.0359603787337415,-0.2751783994670065,56.56843,49.07264,176.9176,0.3771514,-0.4210651,0.7955054,4
15.76,5.877151,1.501261,-3.287374,-0.3465830900634299,0.0454507206286232,-0.2740336264917178,59.84727,48.29287,176.0006,0.3702055,-0.4425492,0.7832559,4
15.78,6.074827,1.109024,-3.158118,-0.2954303621121832,0.0185062649894543,-0.279911337321063,62.63327,40.93811,167.8934,0.3484375,-0.4527302,0.7767379,4
15.8,6.162101,1.297732,-3.102014,-0.2406394986169326,-0.0084273056091819,-0.2861145076066895,65.75154,38.92547,165.6587,0.3415296,-0.4728687,0.7630897,4
15.82,6.248744,1.483801,-3.046316,-0.182542792230143,-0.0386152798891913,-0.2925803631214329,68.82701,36.30118,162.815,0.3343469,-0.4926152,0.7488275,4
15.84,6.334631,1.667277,-2.991104,-0.1132591368229289,-0.0263267217929475,-0.321370787649333,71.8389,32.77136,159.0679,0.326895,-0.5119563,0.7339619,4
15.86,6.543869,1.17798,-2.850889,-0.0416572891453161,-0.012988698241878,-0.3507347514843335,52.12824,41.80399,171.1429,0.3512255,-0.3844898,0.8245779,4
15.88,6.631661,1.356059,-2.791923,0.0319053341929673,-0.0017249252626369,-0.3805219515293035,55.2372,40.68014,169.7486,0.3455875,-0.4054236,0.8130858,4
15.9,6.718341,1.531396,-2.733702,0.0921882522049093,0.0802568386190626,-0.4210753540426101,58.32669,39.31623,168.1189,0.3396789,-0.426032,0.8009568,4
15.92,6.894989,1.23969,-2.653082,0.1479869492076631,0.0696551066868747,-0.4951461667949393,32.06714,49.43578,175.3436,0.4117452,-0.2343613,0.8676295,4
15.94,6.992175,1.410012,-2.587564,0.2069932965299932,0.0584259571871149,-0.5702912727161604,35.50039,49.1653,174.8574,0.4082401,-0.2591814,0.8595101,4
15.96,7.087767,1.576968,-2.523119,0.2548853666907344,0.1131316653650148,-0.6512440516262737,38.93095,48.84492,174.3279,0.4043642,-0.2837615,0.85061,4
15.98,7.181609,1.740665,-2.459854,0.2928787150546856,0.0988927730291806,-0.7621270769191023,42.35951,48.46469,173.7444,0.4001198,-0.3080881,0.8409343,4
16.0,7.218264,1.274993,-2.466433,0.3319922040163643,0.0842795152156762,-0.875456071726076,8.219587,55.69939,177.5524,0.4671997,-0.05340102,0.8809865,4
16.02,7.320273,1.442117,-2.399395,0.3716772467067921,0.0663276356759236,-0.9908478614076264,11.77174,55.68854,177.4899,0.4664823,-0.08047606,0.8782989,4
16.04,7.420457,1.605594,-2.333557,0.4183070346998585,0.1372603454231976,-1.0973910808409424,15.32285,55.67348,177.4257,0.465317,-0.107466,0.8747685,4
16.06,7.515579,1.301637,-2.28225,0.4531218726656478,0.1165779055915498,-1.2373600428656562,353.3278,59.28192,178.7096,0.4931243,0.05613457,0.8679377,4
16.08,7.619028,1.465164,-2.213854,0.4871551329876737,0.0950685763033978,-1.3794352659904894,356.905,59.26726,178.8817,0.4940192,0.02829551,0.8689768,4
16.1,7.720447,1.624932,-2.1468,0.5225847812637381,0.1414179692095637,-1.5192930389179935,0.4812782,59.26336,179.0527,0.4944315,0.000436719,0.8691671,4
16.12,7.804229,1.309488,-2.098012,0.53700386055029,0.114012779375903,-1.6775862165681534,353.778,60.17086,179.7481,0.5004476,0.04805884,0.8640616,4
16.14,7.906134,1.471531,-2.028167,0.5492239585166747,0.0866861082164967,-1.837944137660098,357.3399,60.14865,180.0347,0.5009941,0.01993555,0.8651394,4
16.16,8.00596,1.629847,-1.959746,0.5587625750853409,0.056634928084203,-1.9997649874149888,0.9007139,60.14428,180.3195,0.5010536,-0.008199087,0.8653762,4
16.18,8.103522,1.784601,-1.892877,0.5699829744524993,0.115010357117685,-2.158191812461865,4.460529,60.15762,180.6048,0.5006264,-0.03631773,0.8647724,4
16.2,8.198644,1.808078,-1.82768,0.5458957904628101,0.0781070196394491,-2.323464675270713,8.019216,60.18894,180.8927,0.4997135,-0.06439311,0.8633293,4
16.22,8.114132,1.286446,-1.897121,0.5196458359984772,0.0422531645794687,-2.4913157552844947,1.347539,61.06337,181.5958,0.5077894,-0.01720157,0.8612887,4
16.24,8.216009,1.451758,-1.828976,0.5012191570084679,0.0807565106593664,-2.652463462693736,4.943226,61.08016,181.9015,0.5069821,-0.04556068,0.8607179,4
16.26,8.315949,1.613398,-1.762129,0.4794927516437524,0.1157165677730158,-2.814818005937904,8.538115,61.11642,182.2103,0.5056723,-0.07386802,0.8592943,4
16.28,8.282347,1.275739,-1.776029,0.4208791521627182,0.0510095776565275,-2.975205111964337,10.30195,61.1646,183.1667,0.5043918,-0.09126361,0.8583574,4
16.3,8.384694,1.446118,-1.709037,0.3602855745011144,-0.0121464044465395,-3.137711910531128,13.92517,61.22453,183.4521,0.5020986,-0.1195047,0.8557581,4
16.32,8.485343,1.612833,-1.643157,0.3229756891721778,0.0217434441042789,-3.285367520740928,17.547,61.30441,183.7465,0.4993015,-0.1476176,0.8522995,4
16.34,8.435526,1.250276,-1.667633,0.2597136018269268,-0.0234298036031318,-3.425919023041364,16.06924,61.51361,183.7773,0.5021416,-0.1367353,0.8528038,4
16.36,8.535854,1.428879,-1.603709,0.1948008402195264,-0.06516436118225,-3.567873252324952,19.65292,61.59564,184.0446,0.4990112,-0.164309,0.8489339,4
16.38,8.634931,1.604007,-1.540584,0.1509023362057697,-0.027267581869821,-3.6969493073433655,23.23514,61.69785,184.3241,0.4953914,-0.1917132,0.8442313,4
16.4,8.732574,1.775762,-1.478375,0.1056624337746143,0.0100684529329723,-3.825573991142421,26.81558,61.82244,184.6184,0.491286,-0.2189179,0.8387019,4
16.42,8.600297,1.230577,-1.548366,0.0267818097327643,-0.0616223239117051,-3.935291438204096,21.55761,59.09114,184.1012,0.4782834,-0.1799282,0.8573672,4
16.44,8.69795,1.41741,-1.486754,-0.0313018317267728,-0.047709691243526,-4.033964487268003,25.09229,59.12734,184.1926,0.4743752,-0.2064353,0.8523904,4
16.46,8.794803,1.600959,-1.425647,-0.0888320932052508,-0.0318054691822556,-4.131980479723908,28.62588,59.17108,184.2894,0.4700167,-0.2327381,0.8466041,4
16.48,8.890682,1.778887,-1.365155,-0.1460555738343143,-0.0170330977989138,-4.2288679427534825,32.15801,59.22338,184.3927,0.4652127,-0.2588087,0.8400151,4
16.5,8.77809,1.209945,-1.414544,-0.225789913116347,-0.1161229045237361,-4.309229040428076,30.02993,54.86796,183.7171,0.4373048,-0.244248,0.8606604,4
16.52,8.87224,1.405625,-1.354415,-0.3046058291168751,-0.1971107686442435,-4.3889361777494615,33.49822,54.76978,183.5307,0.4323601,-0.2693341,0.8539468,4
16.54,8.966064,1.59822,-1.294494,-0.3432863041032785,-0.1553420420000212,-4.445417727566356,36.96525,54.65323,183.3288,0.42702,-0.294166,0.8464516,4
16.56,8.963546,1.190444,-1.292309,-0.3897380106674497,-0.1980513842078005,-4.495288592973858,39.60354,52.81173,182.6904,0.4111919,-0.3131616,0.8460106,4
16.58,9.055872,1.38976,-1.23393,-0.4334669720273334,-0.2373273752278056,-4.542855887750175,43.00354,52.54956,182.2934,0.4052094,-0.3368372,0.8373581,4
16.6,9.148064,1.586123,-1.175637,-0.4581597996482007,-0.1883674266629871,-4.579011051581804,46.40106,52.23749,181.8499,0.3988692,-0.3602075,0.8279654,4
16.62,9.203675,1.178842,-1.146389,-0.4808760949784936,-0.2248562651527773,-4.613488681029503,46.36348,55.24012,180.4506,0.4248004,-0.3504623,0.8152145,4
16.64,9.296308,1.379168,-1.092412,-0.5004549688567557,-0.2584910749215912,-4.644155685285613,49.70771,54.93543,180.041,0.4183958,-0.3730742,0.8051637,4
16.66,9.388857,1.576647,-1.038483,-0.5102841039119035,-0.2039462706410482,-4.6649474482369,53.04934,54.56799,179.5709,0.4116344,-0.39536,0.7944258,4
16.68,9.481182,1.77129,-0.9846855,-0.5166448069725182,-0.1496791212533491,-4.680975669374263,56.38785,54.1196,179.0218,0.4045224,-0.4173008,0.7830105,4
16.7,9.553686,1.16256,-0.9862443,-0.5196781256384913,-0.1181941320919527,-4.69200144822285,56.47202,58.52027,176.4325,0.4432533,-0.3991369,0.7610279,4
16.72,9.648362,1.358308,-0.9417045,-0.5143275643116765,-0.2116448940156633,-4.706799321488191,59.74784,57.91499,175.7199,0.4358088,-0.4198398,0.7491805,4
16.74,9.742723,1.551364,-0.8973283,-0.4970986009813205,-0.1875644643850351,-4.709545906175214,63.01752,57.14982,174.8486,0.4279996,-0.4401794,0.7367219,4
16.76,9.836628,1.741748,-0.8531705,-0.4767818159047603,-0.1625441391086473,-4.7058101573519,66.27944,56.1625,173.7565,0.4198369,-0.460147,0.723659,4
16.78,10.08755,1.183678,-0.8668046,-0.4423133764566127,-0.2122059185932789,-4.708705026204861,61.01939,57.99202,167.0922,0.4648979,-0.3942904,0.721114,4
16.8,10.18673,1.367391,-0.8364362,-0.4216862650875639,-0.1753933879969866,-4.7150765542485855,64.13318,56.29587,165.1821,0.4568018,-0.4126561,0.7086735,4
16.82,10.28493,1.54847,-0.8063726,-0.3994819586203959,-0.1377575359194877,-4.71440523259329,67.21474,54.11752,162.7924,0.4483435,-0.4306872,0.6956724,4
16.84,10.49729,1.250663,-0.895174,-0.3758026621642116,-0.1023976507019533,-4.706465857279398,48.39293,71.66983,173.472,0.5520701,-0.3013376,0.7246209,4
16.86,10.60095,1.426617,-0.8745093,-0.3464665953193808,-0.1618598554889667,-4.70485819762137,51.55569,71.19118,172.8472,0.5451761,-0.3202389,0.715011,4
16.88,10.70319,1.599833,-0.8541328,-0.3331752708985525,-0.1235390432249878,-4.709260842665999,54.71371,70.61631,172.1289,0.5378618,-0.3388862,0.704851,4
16.9,10.80387,1.770397,-0.834079,-0.3190955527040107,-0.0852153836745651,-4.708022365248864,57.86578,69.91633,171.2878,0.5301306,-0.3572615,0.6941508,4
16.92,10.87051,1.308545,-1.042549,-0.3069283457777361,-0.1180048020224534,-4.705500371062008,26.29679,85.26952,176.2126,0.664736,-0.1454625,0.7109172,4
16.94,10.99009,1.4771,-1.036567,-0.3068676766611511,-0.08212024751903,-4.701499385332362,29.80906,85.20913,176.0842,0.6602458,-0.1668573,0.7049159,4
16.96,11.10762,1.64214,-1.030704,-0.308163914480253,-0.0462735135023951,-4.693769794663411,33.32138,85.13609,175.9448,0.6551319,-0.1880883,0.6982532,4
16.98,11.15384,1.335025,-1.222381,-0.3110734805368214,-0.0133077332864519,-4.682052863701325,2.450201,98.23268,178.1245,0.7559952,-0.001621799,0.6540234,4
17.0,11.27533,1.501415,-1.233164,-0.3255112060626706,-0.0757887392111459,-4.659329703064295,5.988719,98.24727,178.3225,0.7555107,-0.02312889,0.6528873,4
17.02,11.39459,1.66417,-1.243771,-0.3319588459437497,-0.0459207546399881,-4.62349651376592,9.526161,98.27402,178.5207,0.754303,-0.04459292,0.6511281,4
17.04,11.51142,1.82343,-1.254162,-0.3402276971578324,-0.0165187427940268,-4.584896450538577,13.06247,98.31365,178.723,0.7523751,-0.06600814,0.6487473,4
17.06,11.55692,1.364277,-1.48824,-0.3506252364834561,0.0096565132809823,-4.543304844199181,352.7753,110.1864,179.4591,0.8182752,0.03991752,0.5713441,4
17.08,11.67777,1.525764,-1.516352,-0.372926637268905,0.007935184951688,-4.488635328172755,356.318,110.1444,179.9005,0.8194348,0.01910533,0.572271,4
17.1,11.79614,1.683491,-1.543885,-0.3973185338543545,0.0081279409491624,-4.432532000392797,359.86,110.1298,180.3382,0.8197991,-0.001719496,0.5726424,4
17.12,11.78362,1.339721,-1.690629,-0.4241071234786004,0.0074489307294661,-4.374851816200756,355.6866,116.9927,180.7315,0.8521113,0.01422578,0.5219671,4
17.14,11.89791,1.503484,-1.731434,-0.4614416481932135,0.0028958010018712,-4.304890083768225,359.2034,116.9725,181.1853,0.8524862,-0.005184551,0.5226014,4
17.16,12.00995,1.663652,-1.771446,-0.5010215743183455,0.0008715909280954,-4.235303607582049,2.719347,116.9801,181.6372,0.8520452,-0.0245772,0.5227354,4
17.18,12.11954,1.811615,-1.810581,-0.5431333443188779,-0.0014304585801107,-4.166006506923946,6.234123,117.0156,182.0916,0.8507894,-0.04394067,0.5223694,4
17.2,12.00804,1.320337,-1.888819,-0.5880293082728185,-0.006753784602033,-4.096898919694627,3.931069,122.5322,182.1924,0.8758701,-0.03325097,0.4809472,4
17.22,12.11866,1.486521,-1.942026,-0.6574045368293633,-0.0917060336533259,-4.003834617764709,7.528273,122.5759,182.6298,0.874199,-0.05161257,0.4805669,4
17.24,12.22721,1.649018,-1.994253,-0.7012645753175315,-0.0751046239406808,-3.8934029408505775,11.12483,122.6478,183.0736,0.8716539,-0.0699148,0.4797068,4
17.26,12.33349,1.797474,-2.045405,-0.7465172830840392,-0.0574617282690453,-3.785247273136452,14.72009,122.7491,183.5262,0.8682377,-0.08812715,0.4783694,4
17.28,12.20314,1.28077,-2.077214,-0.7934444071499733,-0.0415798427646757,-3.6793831218555217,13.40606,127.8174,183.6825,0.8898458,-0.07996765,0.439939,4
17.3,12.30617,1.454957,-2.139957,-0.8460075323659964,-0.0551958092442482,-3.536577135031814,16.99602,127.9298,184.1107,0.8857625,-0.09669149,0.438586,4
17.32,12.40769,1.625577,-2.201781,-0.8988271345717922,-0.0646032446765401,-3.398177364003873,20.58404,128.073,184.5553,0.8807999,-0.1133137,0.4367976,4
17.34,12.3413,1.241232,-2.208029,-0.9521311309337616,-0.0727898995784667,-3.2643453841810937,18.70232,129.8611,184.212,0.8906241,-0.1016456,0.4232124,4
17.36,12.43772,1.42358,-2.274309,-0.9994898038655996,-0.083183696154013,-3.101617427998828,22.24517,129.9874,184.5731,0.8852775,-0.1169594,0.4214227,4
17.38,12.53311,1.602561,-2.339893,-1.0459432299049607,-0.0889973552469352,-2.944403341838629,25.78615,130.142,184.9527,0.8790789,-0.1321552,0.4192275,4
17.4,12.6273,1.778264,-2.404672,-1.0916981860116657,-0.0933617313190359,-2.793001010000634,29.325,130.3277,185.3539,0.8720347,-0.1472076,0.4166318,4
17.42,12.4939,1.204001,-2.341815,-1.136940925962438,-0.0993553107455123,-2.647693685053394,24.57416,129.1967,184.1471,0.8787501,-0.1231636,0.4258165,4
17.44,12.58362,1.394651,-2.411414,-1.1632413007172295,-0.1109859972007939,-2.4678006648033226,28.07562,129.2402,184.2451,0.8720518,-0.1363587,0.4236497,4
17.46,12.67278,1.582123,-2.480588,-1.1867336444690435,-0.1177536155674281,-2.294923204493032,31.57569,129.2916,184.3484,0.8645411,-0.1494133,0.4210904,4
17.48,12.76123,1.766465,-2.549218,-1.20759948076712,-0.1229353479039969,-2.129516750095436,35.07467,129.3524,184.4591,0.8562256,-0.1623205,0.4181401,4
17.5,12.68903,1.171998,-2.511678,-1.2260093790670863,-0.1293977541960245,-1.9720229456036087,34.69316,127.1081,183.3452,0.8503934,-0.157671,0.4327087,4
17.52,12.77346,1.369662,-2.582801,-1.227143723369604,-0.1388684625461288,-1.7892480896085714,38.13058,126.972,183.116,0.8414642,-0.1687608,0.4297202,4
17.54,12.85769,1.564312,-2.653756,-1.2235095744892752,-0.1441911394168999,-1.6155406389434446,41.56654,126.8106,182.8642,0.8317786,-0.1796951,0.4263449,4
17.56,12.86725,1.158585,-2.695419,-1.2152958505754912,-0.1487557462773572,-1.4514760502972472,43.26525,127.8786,181.8133,0.8323897,-0.1751511,0.4135693,4
17.58,12.94755,1.358697,-2.767952,-1.1935987526247025,-0.1502203547313499,-1.2832703417595006,46.64,127.6228,181.4514,0.8217617,-0.1851295,0.409741,4
17.6,13.02777,1.55591,-2.840411,-1.1665290569915243,-0.1478660412303261,-1.1253985178837822,50.01247,127.3165,181.0415,0.8104204,-0.1949435,0.4055568,4
17.62,13.09645,1.146446,-2.925861,-1.134274400315138,-0.1451208641140986,-0.9785125966417302,50.64837,127.4304,178.7924,0.8123932,-0.1808662,0.3962142,4
17.64,13.1735,1.345781,-2.998802,-1.0915738557889614,-0.0552484747906402,-0.8389261177825266,53.95699,126.9626,178.2015,0.8004959,-0.1900127,0.3914814,4
17.66,13.25044,1.542331,-3.07164,-1.0333065240872226,-0.0800166911611072,-0.7230612530778765,57.26126,126.3908,177.5088,0.7879268,-0.1989963,0.3864199,4
17.68,13.32716,1.73611,-3.144264,-0.9711320590393492,-0.1035404554735755,-0.6184516295341299,60.56003,125.6806,176.6799,0.7746975,-0.2078098,0.3810342,4
17.7,13.40353,1.791265,-3.216563,-0.9052547808203948,-0.1291822681414217,-0.5257637081577422,63.85157,124.7806,175.6629,0.7608196,-0.2164457,0.375329,4
17.72,13.51616,1.135877,-3.352219,-0.8181979887048576,-0.1145095957342587,-0.4534407822671934,62.64322,119.1316,167.9711,0.7600919,-0.1846996,0.3833802,4
17.74,13.58989,1.324467,-3.425546,-0.7286279643409492,-0.0981991062329974,-0.3917551414443887,65.77985,117.1868,165.8121,0.7461498,-0.1923003,0.3769956,4
17.76,13.66308,1.510407,-3.498341,-0.636803687510084,-0.0834995670043732,-0.3413162352293674,68.87621,114.6446,163.058,0.7316034,-0.1997366,0.3703088,4
17.78,13.81471,1.181754,-3.664774,-0.542973636600931,-0.0736083164001582,-0.3027357453100018,55.83268,117.935,168.7793,0.7771313,-0.1661806,0.414132,4
17.8,13.88938,1.361495,-3.738704,-0.4710139095031613,0.0251313428027723,-0.2680006436758951,58.9063,116.4175,166.9781,0.7647215,-0.173451,0.4083875,4
17.82,13.96316,1.53853,-3.811758,-0.3982639006359156,0.0226204623029568,-0.2505004459662251,61.94909,114.5463,164.8275,0.7517108,-0.1805821,0.4023219,4
17.84,14.03595,1.712936,-3.883827,-0.3251408170540193,0.020125275291395,-0.2452257200156034,64.94986,112.1997,162.2052,0.7381112,-0.1875681,0.3959405,4
17.86,14.13784,1.251703,-4.052604,-0.2692687466945069,0.0859626414666206,-0.2348409398728099,32.0433,128.9646,175.3693,0.8714939,-0.08375895,0.4036567,4
17.88,14.21915,1.422513,-4.134566,-0.219790320839385,0.0829761267100629,-0.2376060229944785,35.42659,128.7115,174.9138,0.8637562,-0.09344245,0.3996881,4
17.9,14.29914,1.590058,-4.215206,-0.1717077832880877,0.0797400174052444,-0.252974506273399,38.80708,128.4125,174.4185,0.8552586,-0.1030408,0.3953682,4
17.92,14.35982,1.272489,-4.327064,-0.1254330061816086,0.0731623519573732,-0.2812452404284801,8.220075,135.6205,177.5638,0.923924,-0.007429216,0.3752076,4
17.94,14.44362,1.439755,-4.415121,-0.0784736003609416,0.0872431253116952,-0.2886491946731178,11.75714,135.6118,177.5134,0.921663,-0.01869516,0.3736128,4
17.96,14.52593,1.603401,-4.50161,-0.036247088160914,0.1021819077107782,-0.306543360503165,15.29344,135.5997,177.4617,0.9185249,-0.02994077,0.3716624,4
17.98,14.60659,1.763571,-4.586371,0.0007213845287075,0.1150903796259318,-0.3351061587875498,18.82871,135.584,177.4083,0.9145129,-0.04115475,0.3693588,4
18.0,14.61693,1.285266,-4.621475,0.0423016799083377,0.1934670238580344,-0.3449071437118483,353.3275,139.4877,178.7166,0.9362799,0.03063602,0.3462207,4
