t,pX,pY,pZ,aX,aY,aZ,reX,reY,reZ,rtX,rtY,rtZ,ID
6.24,-43.15646,1.116046,-35.74469,2.6466836480985787,-0.1179606171641779,1.9037742129503057,16.23739,355.2719,159.0179,-0.01446072,-0.1461808,0.9736609,15
6.26,-43.00689,1.320998,-35.64139,2.669115706552807,-0.1386335818050176,1.8448677494884065,18.49041,353.8354,154.3082,-0.01607542,-0.1682117,0.9628352,15
6.28,-42.86007,1.518072,-35.53407,2.688997332636609,-0.1340674418100935,1.7827490356181723,20.79189,352.5278,149.6121,-0.01465804,-0.1905692,0.9502669,15
6.3,-42.64942,1.150313,-35.03633,2.7060543433062696,-0.1060730955165263,1.7174130928291316,17.81269,2.096901,162.2955,0.04168272,-0.1501682,0.9755754,15
6.32,-42.62883,1.348798,-34.92123,2.7214623918209977,-0.1469017354621898,1.6480272804614715,16.7686,4.287282,163.5176,0.05750909,-0.1389009,0.9776293,15
6.34,-42.61013,1.560745,-34.84094,2.735999854704896,-0.1621151553193112,1.5768494819277743,12.95804,5.655334,163.6982,0.06450078,-0.1046138,0.9815891,15
6.36,-42.6497,1.164973,-34.50568,2.7492481866768728,-0.1536146353644032,1.5037981887915652,18.04514,12.09319,167.5401,0.1203432,-0.1437404,0.9745393,15
6.38,-42.62569,1.365844,-34.49572,2.757779520107196,-0.1901939652848332,1.427364521724115,18.31429,12.87718,166.9991,0.1279004,-0.1445888,0.9727012,15
6.4,-42.49907,1.554935,-34.33092,2.7659239621927227,-0.2017335030193045,1.3497342249994313,22.02175,12.74092,164.4475,0.1335954,-0.1733338,0.9636917,15
6.42,-42.26983,1.194294,-34.14933,2.7732236424748606,-0.1901474738281494,1.2708269382113384,10.46812,24.58904,169.6789,0.2192067,-0.06969801,0.9673009,15
6.44,-42.18511,1.378761,-34.07539,2.7778247396490823,-0.224164751855212,1.1929473038743756,13.31572,24.92979,168.2935,0.2248131,-0.09075382,0.9622353,15
6.46,-42.1018,1.558798,-33.9976,2.7818809816525043,-0.2336478127541056,1.114284498701834,16.32068,25.26899,167.041,0.2307632,-0.1131886,0.9562318,15
6.48,-42.03927,1.238296,-34.01537,2.7849343900772787,-0.2204934957233177,1.034766664565435,359.9602,33.57687,173.5293,0.2883594,0.01663323,0.9558576,15
6.5,-42.00159,1.433424,-33.99981,2.7865330299526985,-0.1865152063466927,0.9543317992627944,0.8564248,34.23125,172.9974,0.2941797,0.0108436,0.953768,15
6.52,-41.96392,1.62812,-33.98443,2.767632058187866,-0.2230968355832902,0.8684230981699415,1.762999,34.87694,172.4788,0.2999634,0.005007405,0.9515703,15
6.54,-41.68526,1.29599,-33.84179,2.748639029815916,-0.2350416709291902,0.7829529557816173,352.5473,42.36439,179.1985,0.3601383,0.0631207,0.9306064,15
6.56,-41.61789,1.47361,-33.78957,2.7291502399888934,-0.2242292095574107,0.697864098237968,354.8681,43.04551,178.972,0.3661145,0.04493355,0.9294493,15
6.58,-41.55095,1.649453,-33.73832,2.691623909400393,-0.2641257542946957,0.6083939005042858,357.1954,43.71466,178.7769,0.3719216,0.02668422,0.9278803,15
6.6,-41.4845,1.823559,-33.68807,2.654684521286793,-0.2785612823706342,0.5201443314011662,359.5285,44.37434,178.6124,0.3775565,0.008382666,0.9258984,15
6.62,-41.49134,1.270186,-33.75941,2.617984930139792,-0.269435568257247,0.4331050629397657,357.258,47.82622,181.057,0.4054193,0.01813379,0.9137713,15
6.64,-41.44907,1.457939,-33.72927,2.5634366800549104,-0.3094474102752593,0.3443079176626868,358.6744,48.48009,181.0496,0.4106123,0.006787492,0.9116907,15
6.66,-41.40686,1.64502,-33.69954,2.510497046571251,-0.3231262660249138,0.2576689570790336,0.09406834,49.13293,181.0613,0.4157237,-0.004596974,0.9094435,15
6.68,-41.36055,1.2476,-33.69384,2.458875993546492,-0.3124154856950256,0.1732204005728546,6.289684,51.60925,182.675,0.433377,-0.05952185,0.8992405,15
6.7,-41.31336,1.434978,-33.65872,2.408282939952106,-0.2791769213188851,0.0910011972133411,7.933094,52.27316,182.7739,0.4378254,-0.07271936,0.8960714,15
6.72,-41.28928,1.221385,-33.65842,2.322039121109917,-0.3220462353776477,-5.7599414477138566e-05,11.47018,54.06716,183.2892,0.4494968,-0.1019532,0.8872204,15
6.74,-41.24137,1.411577,-33.6273,2.2392380086171624,-0.336960527206603,-0.0873956281916701,13.08264,54.72525,183.3255,0.4535005,-0.114381,0.8834817,15
6.76,-41.19353,1.600982,-33.59661,2.15970309710199,-0.325912000223693,-0.1709063750401958,14.69552,55.38839,183.3814,0.4573942,-0.1267905,0.8795412,15
6.78,-41.14577,1.7896,-33.56636,2.0558190870562045,-0.3685477228479275,-0.2572023718586336,16.30933,56.05803,183.4585,0.4611771,-0.1391885,0.8753981,15
6.8,-41.19226,1.183395,-33.59491,1.9566234536150608,-0.3816704985178436,-0.3385538759410953,16.90467,55.48359,183.9121,0.4557233,-0.1457311,0.8772667,15
6.82,-41.1431,1.376475,-33.56214,1.862057566700836,-0.3673217228921376,-0.4147924721022575,18.61138,56.15047,183.9747,0.4592098,-0.1586948,0.8728341,15
6.84,-41.09392,1.56871,-33.52975,1.74813228068282,-0.4084468580213001,-0.4910363911829014,20.31802,56.82576,184.0592,0.4625741,-0.1716243,0.8681816,15
6.86,-41.12336,1.148836,-33.53226,1.6400214835950775,-0.4185774067129493,-0.5610013265685292,22.83386,54.28103,184.0307,0.4406765,-0.1917673,0.8749182,15
6.88,-41.0749,1.345602,-33.49947,1.5377887377619786,-0.399801245458902,-0.6244662850004388,24.5527,54.92482,184.0257,0.4437166,-0.2043779,0.869933,15
6.9,-41.02633,1.541534,-33.46697,1.441490884390066,-0.3541396406633569,-0.6812064213213085,26.27327,55.5774,184.0429,0.4466371,-0.2169528,0.8647233,15
6.92,-41.02176,1.125109,-33.44224,1.3216081017086267,-0.3920966089758373,-0.7397343158012326,30.48715,52.41882,183.651,0.4183836,-0.2493454,0.8688797,15
6.94,-40.97121,1.324655,-33.40779,1.209476277161186,-0.3979616162932452,-0.7900716636422609,32.30727,53.00711,183.5443,0.4207303,-0.2621119,0.8630032,15
6.96,-40.92047,1.523286,-33.3736,1.105258806299318,-0.373851083252506,-0.8319502601255717,34.13128,53.60302,183.4579,0.4229481,-0.274827,0.856877,15
6.98,-40.86959,1.720998,-33.33969,0.9964503931907228,-0.4053032705329141,-0.8692653797014942,35.95902,54.20834,183.3929,0.4250362,-0.2874869,0.8505018,15
7.0,-40.84413,1.114884,-33.32383,0.8964101110356806,-0.4041671253650002,-0.8971252910495742,40.69719,53.2608,182.4966,0.4133897,-0.3199241,0.8413277,15
7.02,-40.78254,1.315789,-33.2848,0.8053714666229723,-0.3725646483268892,-0.9152218302866112,42.90036,53.75285,182.2726,0.4142043,-0.3344711,0.8333164,15
7.04,-40.72074,1.515382,-33.24608,0.7204412608667985,-0.3968603970336851,-0.9221964338006544,45.10737,54.25052,182.0667,0.4148426,-0.3489014,0.8249645,15
7.06,-40.63563,1.112425,-33.19043,0.6449031773611429,-0.3885430985134276,-0.9187403511849488,47.41376,53.27042,179.6703,0.4115101,-0.3582084,0.8179264,15
7.08,-40.56169,1.313298,-33.14472,0.5790473807591896,-0.3497120161761817,-0.90451475501031,50.05828,53.64851,179.3226,0.4111038,-0.3751302,0.80745,15
7.1,-40.48751,1.512301,-33.0994,0.5231558015955562,-0.2824056572707311,-0.8791778321118371,52.70639,54.02175,178.9828,0.4104555,-0.3918546,0.7965103,15
7.12,-40.29038,1.102678,-32.98029,0.4804184767493691,-0.2995979505434615,-0.8381618030389162,59.32515,50.88759,174.2223,0.3953736,-0.4275071,0.7729596,15
7.14,-40.20871,1.297351,-32.93443,0.4479772674656832,-0.2851033587941675,-0.7856568395214514,62.17704,50.70364,173.281,0.3933919,-0.4443444,0.7596123,15
7.16,-40.12711,1.489859,-32.88915,0.4261349521661959,-0.2409324445868116,-0.7212861511676603,65.02763,50.38766,172.2175,0.3911406,-0.4608902,0.7457585,15
7.18,-39.97948,1.11892,-32.79829,0.4288043855857983,-0.243209921791986,-0.6338250869572706,61.58513,44.06355,167.442,0.3722069,-0.436458,0.7705169,15
7.2,-39.89322,1.306408,-32.75202,0.4421447450357805,-0.2153442099780854,-0.5340125534480906,64.46175,43.0027,165.539,0.3700333,-0.4532484,0.7561765,15
7.22,-39.80739,1.491543,-32.70657,0.4664595243149607,-0.1592642006636178,-0.4214745532174486,67.31836,41.56913,163.2734,0.3675915,-0.4697108,0.7412989,15
7.24,-39.60433,1.179265,-32.58198,0.5140544951198089,-0.1431934809702889,-0.2873646930595068,51.89468,47.15,171.3351,0.3889001,-0.3727125,0.8085726,15
7.26,-39.51341,1.358359,-32.53463,0.5735953626846095,-0.0985427571886006,-0.1394559844273879,54.8723,46.85373,170.1768,0.3877625,-0.3910148,0.7956901,15
7.28,-39.42332,1.534877,-32.48836,0.6229130154664348,-0.0579491258951462,0.0071004807565051,57.8447,46.42006,168.8959,0.3863343,-0.4090232,0.7822226,15
7.3,-39.33418,1.708882,-32.44324,0.6613737039110639,-0.0238614275193679,0.1511459981009562,60.81067,45.8101,167.4518,0.3846154,-0.4267307,0.7681764,15
7.32,-39.2359,1.240231,-32.40525,0.6715538350023857,-0.004561735414233,0.2298749872191319,31.88331,55.33746,175.41,0.4558832,-0.2251754,0.8457966,15
7.34,-39.13085,1.410802,-32.35301,0.6898531883529033,0.0121540935929953,0.3016801260425934,35.28117,55.75743,175.0282,0.4568126,-0.2482933,0.8354345,15
7.36,-39.02721,1.578007,-32.30226,0.7164641943992489,0.0205879618227672,0.3709570605892143,38.68076,56.16672,174.6603,0.4573181,-0.2711799,0.8243101,15
7.38,-38.94648,1.268237,-32.26325,0.7539736994902659,0.0410262469705284,0.3992275743910425,8.058444,61.75615,177.5909,0.5130991,-0.04953082,0.8551929,15
7.4,-38.83528,1.43535,-32.21061,0.8008225919751428,0.0579196257144569,0.4328581550390549,11.59836,62.38692,177.599,0.5169765,-0.07561891,0.8497623,15
7.42,-38.72575,1.598764,-32.1596,0.8415005192767335,0.0693443360038751,0.4486448556393996,15.13709,63.02692,177.6474,0.520341,-0.1016264,0.8434989,15
7.44,-38.628,1.285405,-32.09351,0.8581368042644026,0.0881465301296285,0.4466195186111346,353.295,65.57837,178.7446,0.5400517,0.05508155,0.8395268,15
7.46,-38.51452,1.448815,-32.04061,0.873006756422372,0.1049032296145393,0.4383621857390474,356.865,66.18539,178.9834,0.5455661,0.02775831,0.8375744,15
7.48,-38.40296,1.608406,-31.98947,0.8856207399794842,0.1167526788941327,0.4226789809251259,0.4312715,66.80576,179.2596,0.5505276,0.0004149796,0.8347834,15
7.5,-38.29353,1.764341,-31.94019,0.8984002309496848,0.1953493026056193,0.4132567931324078,3.993299,67.44422,179.575,0.5549321,-0.02692097,0.8311577,15
7.52,-38.31802,1.282582,-31.92474,0.8884823905077273,0.1717851631819682,0.3977528798055707,353.7823,66.83615,179.7828,0.5498468,0.0463092,0.833501,15
7.54,-38.20551,1.444557,-31.87115,0.8841383296024663,0.1432626383138326,0.3850482823898065,357.3365,67.43378,180.1363,0.5549623,0.01867187,0.83155,15
7.56,-38.09497,1.602753,-31.81938,0.8489744594175823,0.185156193717347,0.3559742502007443,0.8857021,68.05211,180.5264,0.5595179,-0.008976031,0.8287696,15
7.58,-38.10789,1.250339,-31.80289,0.7945861093890132,0.1510978820038223,0.3194558430773111,359.4218,67.38828,181.3937,0.5547623,-0.002548806,0.8319048,15
7.6,-37.99597,1.41502,-31.75054,0.74037194810992,0.1150683949317561,0.2796976293919022,3.001015,68.01886,181.7455,0.558742,-0.03022073,0.8287883,15
7.62,-37.88591,1.57598,-31.6999,0.6858793158084273,0.0737930024296268,0.2364473954593,6.575303,68.67419,182.1384,0.5621508,-0.05785453,0.8248345,15
7.64,-37.90346,1.231961,-31.67206,0.6201637339703838,0.0607354690634977,0.2035542023706917,8.271841,67.81718,182.906,0.55472,-0.07394639,0.8285215,15
7.66,-37.79081,1.400625,-31.61975,0.5593451661055875,0.0466489114357176,0.1713524859111554,11.89774,68.50099,183.2629,0.5571153,-0.1015706,0.823461,15
7.68,-37.67982,1.565521,-31.56901,0.503190628036081,0.0279838121730782,0.1397404843341254,15.51803,69.2182,183.6701,0.5589277,-0.1290814,0.8175483,15
7.7,-37.57073,1.726795,-31.51995,0.4508354370629446,0.0888270866775722,0.1121649032465943,19.13233,69.97611,184.1329,0.560155,-0.1564521,0.8107899,15
7.72,-37.7212,1.199448,-31.55131,0.3646940962013003,0.0438555876430306,0.0729763773122984,14.78412,68.35069,183.6942,0.5533386,-0.1243416,0.8223497,15
7.74,-37.61092,1.375865,-31.50082,0.28790689492262,0.0581099769311873,0.0398399140371932,18.37566,69.06728,184.0367,0.5546371,-0.1511643,0.8159079,15
7.76,-37.50186,1.548673,-31.45163,0.2169095204849966,0.0708303312338944,0.008287379571862,21.96164,69.82299,184.4354,0.5553668,-0.177825,0.8086386,15
7.78,-37.58833,1.168108,-31.45141,0.1240591600634148,-0.0008437700425956,-0.0284044957835942,20.1662,66.44624,184.0882,0.5338712,-0.1656066,0.8265202,15
7.8,-37.48143,1.352725,-31.4017,0.0382350747993589,-0.0736756607987796,-0.0626890535940436,23.71191,67.13885,184.2906,0.5343636,-0.1913233,0.8191227,15
7.82,-37.37528,1.533915,-31.35302,-0.026518668421894,-0.0322425793981199,-0.0858093810465585,27.25401,67.86563,184.5472,0.5343246,-0.2168438,0.8109196,15
7.84,-37.43934,1.13893,-31.34289,-0.1054638547738378,-0.0752921201603065,-0.1110407708331635,26.32465,63.26686,183.9939,0.5036381,-0.2115558,0.8327115,15
7.86,-37.33617,1.331421,-31.29302,-0.1759914346591777,-0.1169825754708295,-0.1331312645770088,29.81712,63.88312,183.9963,0.5033217,-0.2360155,0.8242702,15
7.88,-37.23329,1.520664,-31.24393,-0.226312154052664,-0.0693345929112926,-0.1468903072431473,33.3079,64.52249,184.0439,0.5025211,-0.2602398,0.8150449,15
7.9,-37.13089,1.706702,-31.1957,-0.2674388369665417,-0.0232662397881442,-0.1573544447477104,36.79696,65.19279,184.1422,0.5012373,-0.2842088,0.8050448,15
7.92,-37.23835,1.121702,-31.21025,-0.3244222391902616,-0.0919317818135069,-0.1730810639544513,34.75613,59.98214,183.2812,0.469447,-0.2722354,0.8305054,15
7.94,-37.13789,1.319427,-31.1606,-0.3642451837920015,-0.0687405374463526,-0.1835598705444217,38.187,60.44938,183.0367,0.4680426,-0.2951479,0.8205993,15
7.96,-37.03742,1.514037,-31.11157,-0.3996310282017292,-0.1008670054043994,-0.1920243123627028,41.61838,60.92045,182.8171,0.4662012,-0.3177807,0.8099367,15
7.98,-37.02668,1.114976,-31.09271,-0.4241729469852746,-0.1313375755625018,-0.1963865267109383,43.30107,59.15063,181.7564,0.4537749,-0.3278672,0.8110471,15
8.0,-36.92821,1.315073,-31.04373,-0.4378017995906864,-0.1639215661431698,-0.1966226534075574,46.67521,59.51206,181.4038,0.4514559,-0.3494714,0.7994693,15
8.02,-36.82961,1.512166,-30.99527,-0.4366355353343314,-0.0819048289754499,-0.1900450344806521,50.04993,59.86541,181.0603,0.4487283,-0.3707563,0.7871771,15
8.04,-36.75311,1.109897,-30.93999,-0.4229445314538669,-0.1154389976121867,-0.1752670052785205,50.71521,57.55887,178.7444,0.4391406,-0.3705774,0.7897263,15
8.06,-36.65646,1.309144,-30.89204,-0.4000306284130923,-0.1479396960258326,-0.1572867118179983,54.0257,57.72397,178.1842,0.4362899,-0.390909,0.7766691,15
8.08,-36.55972,1.505503,-30.84464,-0.3713842546381114,-0.092871945789929,-0.1386806279086148,57.33606,57.84321,177.5922,0.433057,-0.4108947,0.7629409,15
8.1,-36.46306,1.698989,-30.79786,-0.3309421618851305,-0.1204303107069464,-0.1134537565636071,60.64598,57.90426,176.9547,0.4294449,-0.4305177,0.7485541,15
8.12,-36.34603,1.10443,-30.7219,-0.2837218893153181,-0.1479360481167821,-0.0866240636000275,61.24575,51.66567,171.2079,0.4090167,-0.4283908,0.7552524,15
8.14,-36.25031,1.295392,-30.67702,-0.24830117991148,-0.087861462388646,-0.0693560963692809,64.44347,50.86699,169.6293,0.4053542,-0.4467151,0.7401792,15
8.16,-36.15496,1.483603,-30.63287,-0.1944168571559617,-0.1005841097533269,-0.0400579403972227,67.62734,49.73027,167.723,0.4013472,-0.4646544,0.724488,15
8.18,-35.96384,1.14438,-30.51281,-0.1369056420138656,-0.1138472395785886,-0.01031169621253,58.36902,45.82665,167.8349,0.385592,-0.4106016,0.7795216,15
8.2,-35.86765,1.32617,-30.46771,-0.0859382285963832,-0.046765372082871,0.0129051703056113,61.44619,44.72918,165.8683,0.3827277,-0.4286372,0.7650353,15
8.22,-35.77226,1.505188,-30.4236,-0.0208981794743836,-0.047269479975099,0.0426402023467966,64.49992,43.26579,163.5483,0.3795466,-0.4463168,0.7499254,15
8.24,-35.59293,1.212076,-30.32066,0.0464963795131749,-0.0489477229850073,0.0725441413415111,43.02018,53.30207,173.9878,0.4339264,-0.3053729,0.8217385,15
8.26,-35.49197,1.386109,-30.27298,0.0982363787558364,0.0192550457213328,0.0905296146460985,46.26925,53.40037,173.2701,0.4330793,-0.3261409,0.8097507,15
8.28,-35.39222,1.557089,-30.22657,0.1496793174528266,0.0844903727377593,0.107271059207457,49.51802,53.44191,172.5146,0.4318607,-0.3466264,0.7970788,15
8.3,-35.29384,1.725111,-30.18149,0.190978820904017,0.054276776221055,0.1184335024078016,52.76655,53.41557,171.7084,0.4302722,-0.3668171,0.7837319,15
8.32,-35.24514,1.257235,-30.16354,0.2337729398361894,0.0217611611244208,0.1294892259127316,19.98931,60.09265,176.6057,0.4973345,-0.135564,0.8495365,15
8.34,-35.13374,1.425316,-30.11292,0.2761094384774782,0.0798261889007577,0.1412392995494449,23.52384,60.62753,176.4288,0.4993806,-0.1604917,0.8415319,15
8.36,-35.02399,1.58972,-30.06383,0.3118506822192248,0.0674514547682922,0.1529461704078643,27.06075,61.16518,176.2832,0.5009309,-0.1852686,0.8327028,15
8.38,-34.95911,1.275714,-30.01423,0.3462519030380075,0.054320629606964,0.1635067904332841,358.368,65.08429,178.2004,0.5376105,0.02045114,0.8429269,15
8.4,-34.84556,1.441295,-29.96373,0.3819972034389636,0.1085570054432922,0.1743534798995365,1.931747,65.68331,178.3264,0.5423912,-0.006242071,0.8398302,15
8.42,-34.73385,1.603106,-29.91485,0.4133196726361907,0.093530591751095,0.1875573111335509,5.493019,66.29204,178.4903,0.5466277,-0.03292169,0.8359004,15
8.44,-34.63448,1.29383,-29.8402,0.441235898296429,0.0774113522714641,0.1995486698924753,352.8316,66.78328,179.2762,0.5489419,0.05566412,0.8334959,15
8.46,-34.52004,1.455243,-29.78741,0.4666859424441849,0.1283467624601129,0.2076899420437183,356.4116,67.35218,179.5748,0.5541249,0.02811201,0.8318364,15
8.48,-34.40766,1.61279,-29.73642,0.4865725744540263,0.1757028327044905,0.2134574636844979,359.9874,67.938,179.9082,0.5587441,0.0005392514,0.8293399,15
8.5,-34.29755,1.766644,-29.6873,0.4734903410450606,0.1232664352954732,0.2078654553117318,3.558444,68.54519,180.2787,0.5627954,-0.0270261,0.8260096,15
8.52,-34.37436,1.261988,-29.69345,0.4562755781638454,0.0702453500059035,0.2010394994437025,355.7594,67.54119,180.598,0.5556415,0.02785602,0.8305822,15
8.54,-34.26283,1.425748,-29.64161,0.4542091322274393,0.108954176199775,0.1977234353986898,359.3039,68.12077,180.9444,0.5600786,0.0004164376,0.8283764,15
8.56,-34.15321,1.585823,-29.59147,0.4298321339907316,0.0746073141863289,0.1894972527004825,2.843718,68.72187,181.327,0.5639555,-0.02701615,0.8253512,15
8.58,-34.17115,1.240555,-29.5675,0.4020156601674314,0.0412477971952246,0.1799600725404282,4.008985,67.86332,182.0843,0.5572421,-0.03916283,0.8294144,15
8.6,-34.05832,1.406764,-29.51527,0.3884634711392811,0.082091089005846,0.1740562180201759,7.628241,68.49195,182.4381,0.5602036,-0.06692049,0.8254082,15
8.62,-33.94729,1.569196,-29.46467,0.3486901223023437,0.0473398178193331,0.1619186130546404,11.24295,69.14933,182.8358,0.5625819,-0.09460538,0.8205522,15
8.64,-33.98973,1.217251,-29.44408,0.3060260837683244,0.0146779696242319,0.1487045155169499,11.91121,67.97215,183.3771,0.5531979,-0.1023782,0.826049,15
8.66,-33.87813,1.389552,-29.39251,0.2788732733987142,0.0564088964290775,0.1375424124419919,15.52557,68.64368,183.7166,0.5547625,-0.1296117,0.8203543,15
8.68,-33.768,1.558153,-29.34235,0.2480662543758582,0.0966780591534605,0.1246680539039051,19.13466,69.35056,184.1076,0.5557528,-0.1567042,0.8138189,15
8.7,-33.65957,1.723186,-29.2937,0.1775060687170797,0.0325049808233535,0.0992306038196391,22.73772,70.10062,184.5559,0.5561678,-0.1836268,0.8064505,15
8.72,-33.81595,1.183029,-29.32654,0.1048997863868943,-0.0294690803748867,0.0732384580601999,17.42427,67.75423,183.9393,0.5463343,-0.1446188,0.8230727,15
8.74,-33.70745,1.363572,-29.27648,0.0685242859013977,0.010531248869917,0.0585197666022696,20.99305,68.43857,184.2301,0.5470149,-0.1709446,0.8162813,15
8.76,-33.59995,1.540603,-29.22755,0.0049047203468486,-0.0307253397529667,0.0369369669745007,24.55711,69.16029,184.5754,0.5471445,-0.1970913,0.8086764,15
8.78,-33.68782,1.152963,-29.22707,-0.0590022305995288,-0.0684963699970544,0.0156481222133684,23.0875,64.68347,184.0649,0.5178207,-0.1875554,0.8310586,15
8.8,-33.58303,1.341716,-29.17706,-0.0944131406225849,-0.0234135361854023,0.0018026140189375,26.60776,65.31117,184.1621,0.5177254,-0.2126818,0.8233033,15
8.82,-33.47874,1.527141,-29.12791,-0.1479699868840303,-0.0614244722875809,-0.0152067842367409,30.12543,65.96636,184.3072,0.5171255,-0.2375925,0.8147541,15
8.84,-33.5282,1.128655,-29.11175,-0.2004019014061673,-0.0959723408665574,-0.0313797576163108,30.07127,61.02736,183.727,0.4828344,-0.2393196,0.8358572,15
8.86,-33.42695,1.324247,-29.06124,-0.2266130245173108,-0.0443736261121575,-0.0410992441281008,33.53343,61.54401,183.5972,0.4818519,-0.2631142,0.8269098,15
8.88,-33.32582,1.516667,-29.01139,-0.2506525892391158,0.006606877335105,-0.0501555872267354,36.99544,62.0728,183.5008,0.4804139,-0.2866551,0.8171898,15
8.9,-33.22499,1.705946,-28.96229,-0.294441209106254,-0.0562557339403027,-0.0667523816862689,40.45699,62.61967,183.4416,0.4785226,-0.3099204,0.8067074,15
8.92,-33.30163,1.117076,-28.97452,-0.3356123516345812,-0.1173273061746258,-0.0820768647342733,39.65308,59.01217,182.7041,0.4562277,-0.3060341,0.8224289,15
8.94,-33.20248,1.316258,-28.92485,-0.3430539156082299,-0.0647731550427779,-0.0868496995277676,43.0545,59.37886,182.3772,0.4540364,-0.3282616,0.81172,15
8.96,-33.14767,1.114468,-28.88866,-0.3539560797823746,-0.0968412131050088,-0.0913336890460834,44.70356,58.66459,181.1353,0.4497612,-0.3360085,0.8080986,15
8.98,-33.05037,1.314858,-28.83913,-0.3610413302834936,-0.1266082347529195,-0.0942729190056463,48.05647,58.98555,180.7755,0.4472436,-0.3574575,0.7963302,15
9.0,-32.95291,1.512286,-28.7901,-0.3511520655146487,-0.0688783434028477,-0.0912739734800194,51.4097,59.29528,180.4202,0.4443278,-0.3785843,0.7838612,15
9.02,-32.85548,1.706765,-28.74165,-0.3253156115094788,-0.0973574063291287,-0.0783416736823725,54.76318,59.59359,180.0675,0.4410164,-0.3993706,0.7707032,15
9.04,-32.73793,1.103646,-28.66042,-0.2964255169032213,-0.1247369037591691,-0.0645743077967377,56.54618,55.4969,176.2162,0.4236617,-0.4054363,0.771714,15
9.06,-32.6423,1.299494,-28.61312,-0.2614659926812601,-0.0649116257430752,-0.0511051187876288,59.823,55.34559,175.3568,0.4201181,-0.4249524,0.7576362,15
9.08,-32.54678,1.492528,-28.56643,-0.2235842362017792,-0.0066095475341092,-0.0370081611192825,63.09673,55.06847,174.3831,0.4162126,-0.4440958,0.7429157,15
9.1,-32.41897,1.10908,-28.48722,-0.1759776848556327,-0.05638502613851,-0.0146408926962742,62.66333,47.77829,167.8743,0.3941939,-0.4362495,0.7543856,15
9.12,-32.32392,1.297592,-28.44192,-0.1262702937853199,-0.1077155809815459,0.0081649558497596,65.79359,46.46099,165.771,0.3904482,-0.4542331,0.7391031,15
9.14,-32.22935,1.483378,-28.39739,-0.0778580427943507,-0.0461024576760666,0.0269134392075249,68.89685,44.6423,163.1762,0.3863753,-0.4718323,0.7232105,15
9.16,-32.03514,1.16177,-28.27339,-0.0163832179846576,-0.0535840137128818,0.0557499687770652,55.76253,45.82681,168.7958,0.3845494,-0.395089,0.7925102,15
9.18,-31.93898,1.341406,-28.22719,0.0460331253058332,-0.0616985550071013,0.0848657669930958,58.84101,44.93528,167.0529,0.3819331,-0.4135059,0.7786255,15
9.2,-31.84374,1.518252,-28.18203,0.0946408387328006,0.0051011714532663,0.1027346912355882,61.90113,43.7574,165.0369,0.3790041,-0.4315812,0.7641127,15
9.22,-31.66278,1.228873,-28.08916,0.1517125321956589,0.0039281756271272,0.1228515607181055,37.76587,54.52626,174.7628,0.4461158,-0.2675812,0.8334211,15
9.24,-31.55879,1.400654,-28.03921,0.2094808307274274,0.0017134180577091,0.1431949271506782,41.11544,54.74604,174.2054,0.445714,-0.2896743,0.8222576,15
9.26,-31.45617,1.569179,-27.9906,0.254777121064599,0.0657466549050964,0.1546991843724972,44.46556,54.93191,173.6351,0.4449112,-0.311503,0.8103643,15
9.28,-31.35508,1.734549,-27.94341,0.2980274235362943,0.1266267110146497,0.1649005411729418,47.81724,55.07936,173.0453,0.4437072,-0.3330577,0.7977484,15
9.3,-31.32266,1.263597,-27.92781,0.3245987959790763,0.0922298874088158,0.1691845575243156,13.85587,61.2579,177.1978,0.5081431,-0.09139495,0.852444,15
9.32,-31.21124,1.431209,-27.87646,0.3504813845234613,0.0560062222381873,0.1731159195354559,17.3954,61.80756,177.1158,0.5107961,-0.1169342,0.8459403,15
9.34,-31.1015,1.59513,-27.82664,0.3824540483803522,0.1098772381233287,0.180498958810233,20.93574,62.36306,177.068,0.5129443,-0.1423599,0.8386106,15
9.36,-31.02512,1.279253,-27.76709,0.4085448133677345,0.0944047506689851,0.1896921779608007,354.4264,65.60545,178.4253,0.5404949,0.04829841,0.8398295,15
9.38,-30.91178,1.444014,-27.71564,0.4316873740544036,0.0779892183676121,0.1981295074161728,357.9905,66.16357,178.6058,0.5455325,0.02133165,0.837818,15
9.4,-30.80032,1.604993,-27.66582,0.4578045505921397,0.1290048910371062,0.2054041906240353,1.55166,66.73219,178.8208,0.5500234,-0.005648985,0.8349761,15
9.42,-30.69543,1.296004,-27.58702,0.4692315753619986,0.1061922515492849,0.2109305625073991,353.4676,66.58238,179.513,0.5477954,0.04995351,0.8346593,15
9.44,-30.58176,1.456811,-27.53276,0.4764137924414675,0.0830426794818544,0.2155508917590216,357.0429,67.12376,179.8386,0.5526225,0.02227907,0.8330311,15
9.46,-30.47015,1.613757,-27.48032,0.4804138306520147,0.1268621796500331,0.215075555818804,0.613922,67.68421,180.1975,0.5568897,-0.005409685,0.8305675,15
9.48,-30.36083,1.767016,-27.42977,0.4782761785658485,0.167887931254322,0.2122353263361263,4.180165,68.26793,180.5922,0.560593,-0.03308533,0.827272,15
9.5,-30.44366,1.254605,-27.44391,0.4454730261774946,0.1109460852421919,0.1989294103646957,357.4326,67.30286,181.1641,0.5541608,0.01302014,0.8320463,15
9.52,-30.33265,1.418946,-27.39164,0.4084076108980725,0.0538554505647879,0.1845460576948063,0.9844199,67.86425,181.5024,0.5580485,-0.01444507,0.8296606,15
9.54,-30.22352,1.579619,-27.34101,0.3943098573191688,0.0920497385829686,0.1770524065592682,4.531733,68.44776,181.8764,0.5613778,-0.04188799,0.8264532,15
9.56,-30.23862,1.237716,-27.31098,0.3544477348990442,0.0565375890813242,0.1636015209223993,6.177248,67.61206,182.606,0.5544131,-0.05739295,0.8301861,15
9.58,-30.12601,1.404823,-27.25783,0.3116779713435633,0.022427255489427,0.149400914968047,9.807571,68.22585,182.9611,0.5567577,-0.08518782,0.8258666,15
9.6,-30.01518,1.568146,-27.20625,0.2843799051577309,0.0621085332402742,0.1380719328407984,13.43276,68.87017,183.3606,0.5585216,-0.1128861,0.8206943,15
9.62,-30.06208,1.208584,-27.18782,0.2298980574869338,0.0242995288960922,0.1192727588057351,13.45767,67.81522,183.5629,0.5507219,-0.1144199,0.8258551,15
9.64,-29.95155,1.382934,-27.13592,0.1728415557202463,-0.0108382615534269,0.0997624211357792,17.06311,68.46693,183.9009,0.5518444,-0.1415162,0.8199705,15
9.66,-29.84238,1.55363,-27.08534,0.1355504968027832,0.0303727290202162,0.0837862295702587,20.66345,69.15488,184.2899,0.5523998,-0.1684602,0.8132519,15
9.68,-29.73478,1.720794,-27.03618,0.0689687321157244,-0.0070290258040377,0.0582376544386242,24.25782,69.88696,184.736,0.552388,-0.1952223,0.8057073,15
9.7,-29.88059,1.17564,-27.06479,0.0009895421350392,-0.0414844014386897,0.0324152252510852,18.75048,66.98731,184.0764,0.5392974,-0.1551285,0.8254844,15
9.72,-29.77326,1.358223,-27.01434,-0.0687426112630738,-0.0760301966235775,0.0063281553790477,22.30782,67.63664,184.3297,0.5395877,-0.1812279,0.8185989,15
9.74,-29.66681,1.537343,-26.96493,-0.1248706512515607,-0.0894045561897458,-0.0137211379569062,25.86115,68.32107,184.6348,0.5393399,-0.2071405,0.8109058,15
9.76,-29.74513,1.145395,-26.96142,-0.1803620681830988,-0.0985523470110892,-0.0331090039279886,24.61411,63.68485,184.0673,0.5087104,-0.19925,0.8334482,15
9.78,-29.64163,1.336175,-26.91085,-0.2355543306989367,-0.1066368564329049,-0.0518441015953956,28.12059,64.26617,184.1181,0.5082279,-0.2241328,0.8255574,15
9.8,-29.53853,1.523677,-26.86107,-0.2616401985661474,-0.0325727343153814,-0.0628314179169895,31.62498,64.87141,184.2126,0.5072555,-0.2487912,0.816879,15
9.82,-29.56891,1.124788,-26.83631,-0.3156353370863072,-0.0700201367083921,-0.0826686580659128,32.10185,59.7712,183.5515,0.4711871,-0.2544473,0.8370913,15
9.84,-29.46867,1.321729,-26.78532,-0.3669466395472081,-0.1044092647416983,-0.1009615610283916,35.54779,60.21541,183.3488,0.4697636,-0.2779218,0.827915,15
9.86,-29.36848,1.515536,-26.73494,-0.3928997608445344,-0.0519340752181767,-0.1129093837375982,38.99394,60.66422,183.171,0.4679008,-0.3011316,0.8179733,15
9.88,-29.26852,1.706231,-26.68523,-0.4276583943321106,-0.0838293664606077,-0.1280719491089144,42.44015,61.12189,183.0204,0.4656011,-0.3240556,0.807276,15
9.9,-29.32128,1.115523,-26.69387,-0.4585573243164762,-0.1131766871721191,-0.1415114623920308,41.87803,58.76818,182.3853,0.4516786,-0.3208687,0.8172809,15
9.92,-29.22285,1.315331,-26.64412,-0.4858693210786957,-0.1433589222431421,-0.1532546289988499,45.26598,59.08395,182.0386,0.4490622,-0.34284,0.8062438,15
9.94,-29.12433,1.51212,-26.59487,-0.486361268331672,-0.1457610091394383,-0.153357218355465,48.65425,59.38883,181.6975,0.4460388,-0.3644962,0.7944845,15
9.96,-29.07863,1.112896,-26.55356,-0.4822185873588815,-0.1449816726392562,-0.1515362966858982,48.08682,57.31201,179.556,0.4393248,-0.3558249,0.8006158,15
9.98,-28.98226,1.313181,-26.50404,-0.467056096523867,-0.0847243559595568,-0.1458890851914867,51.41314,57.49144,179.0665,0.4364087,-0.3767641,0.7882616,15
10.0,-28.88575,1.51055,-26.45501,-0.4471456188970117,-0.0256127862646083,-0.1384229773585552,54.73948,57.63566,178.5558,0.4331096,-0.3973698,0.7752239,15
10.02,-28.70671,1.102125,-26.34722,-0.4199164302442821,-0.0819791681340925,-0.1250082923720747,59.69624,53.68209,174.0799,0.414032,-0.4232657,0.7612648,15
10.04,-28.61172,1.295642,-26.30044,-0.3887844741017927,-0.1389383183038238,-0.1101697893898605,62.93907,53.21566,172.92,0.4100972,-0.4422793,0.7466961,15
10.06,-28.51696,1.486393,-26.2543,-0.3570623712804615,-0.0806318871752715,-0.0989315299271416,66.1748,52.52754,171.5484,0.4058137,-0.4609105,0.7315025,15
10.08,-28.42258,1.674411,-26.20886,-0.3084763384909776,-0.0978559329093711,-0.0755660808751046,69.40068,51.51745,169.8635,0.4011855,-0.4791476,0.7156954,15
10.1,-28.27827,1.128857,-26.1099,-0.2573524613974278,-0.1152892929215571,-0.051398864610368,60.95796,44.63937,166.7399,0.3792817,-0.4282939,0.7696752,15
10.12,-28.18326,1.31288,-26.06378,-0.2088657186626425,-0.0501131147383465,-0.0314349358931385,64.02852,43.18895,164.4862,0.3757372,-0.4462918,0.7548549,15
10.14,-28.08896,1.494165,-26.01855,-0.1467715203793265,-0.0530572990482681,-0.0024669885558399,67.06628,41.24978,161.7541,0.3718823,-0.4639182,0.7394193,15
10.16,-27.91278,1.195538,-25.90452,-0.0829876708350396,-0.0567645206556373,0.0273012866726003,48.29282,50.73234,173.1845,0.412198,-0.3457406,0.8126526,15
10.18,-27.8162,1.371823,-25.85671,-0.0328729320624785,0.0113213642606678,0.045782643945917,51.43647,50.56412,172.2485,0.4104105,-0.365476,0.800254,15
10.2,-27.72069,1.54526,-25.81004,0.016980957952434,0.0769607695775567,0.0637829885263623,54.57686,50.29439,171.2262,0.4082915,-0.3849131,0.787218,15
10.22,-27.56081,1.25018,-25.74295,0.0599088558250051,0.04771757495541,0.0769917502934305,26.18588,57.48996,176.027,0.4750135,-0.1822594,0.8496869,15
10.24,-27.45112,1.418788,-25.69007,0.0915776060809281,0.0859208694424851,0.0838478847931987,29.71156,57.89567,175.7277,0.4758722,-0.2067602,0.840598,15
10.26,-27.34304,1.58376,-25.63869,0.1221929965748809,0.1229541445004315,0.0901141065039263,33.23938,58.29427,175.4465,0.4762623,-0.2310622,0.8306916,15
10.28,-27.23678,1.745231,-25.58887,0.1454874733669173,0.088791228722846,0.0953158137105898,36.76917,58.68824,175.1835,0.4761837,-0.2551424,0.8199767,15
10.3,-27.23264,1.271877,-25.57275,0.1682007067119117,0.0529172462931901,0.1004450193781734,2.362751,63.49675,177.9669,0.5263062,-0.008196104,0.8498603,15
10.32,-27.12037,1.43829,-25.52049,0.1999338246268078,0.1073440612476739,0.1099473893752978,5.925139,64.04558,178.0355,0.5302213,-0.03473506,0.8461101,15
10.34,-27.00988,1.600956,-25.4698,0.2274535668922572,0.0924063411192926,0.1218033028364087,9.485708,64.60283,178.1393,0.5336081,-0.06123252,0.841526,15
10.36,-26.91778,1.291536,-25.39754,0.2525241947431524,0.0764067234819147,0.1334237372956108,352.2134,65.75682,179.051,0.5411145,0.06150616,0.838163,15
10.38,-26.80418,1.453592,-25.34325,0.2793515616603059,0.1279371811536107,0.1429966203406469,355.7984,66.27168,179.3133,0.5460647,0.03396931,0.8369193,15
10.4,-26.69259,1.611784,-25.29069,0.3018718051180951,0.175800724047023,0.151303807712678,359.3799,66.80101,179.6069,0.5504614,0.006406367,0.8348363,15
10.42,-26.65353,1.269699,-25.24079,0.2940940704628354,0.1247679775113739,0.1492397315163893,354.1012,66.38227,180.0162,0.5467147,0.04298222,0.8357366,15
10.44,-26.54312,1.432898,-25.18623,0.2840242727920352,0.1427483815769095,0.1425833011674657,357.64,66.89809,180.3604,0.5511296,0.01544942,0.8341597,15
10.46,-26.43462,1.5924,-25.13336,0.2696056910137789,0.1600242496548654,0.1344219624750318,1.174565,67.43427,180.736,0.5549979,-0.01209054,0.8317639,15
10.48,-26.32825,1.748368,-25.08227,0.2330711506379876,0.1029730079230386,0.1200617151995904,4.704319,67.99482,181.1458,0.5583162,-0.03961052,0.8285524,15
10.5,-26.39399,1.246042,-25.08974,0.1932917378023235,0.0460271827865547,0.1050856576280749,1.399803,67.09277,181.6114,0.5523729,-0.01794986,0.833389,15
10.52,-26.28222,1.411111,-25.03575,0.1782948931720835,0.0856881472553622,0.0988509621996258,5.007535,67.65088,181.9629,0.5554299,-0.04581113,0.8302391,15
10.54,-26.17232,1.572416,-24.98338,0.1389549651758543,0.0508010771948419,0.0864028655910127,8.61125,68.23496,182.352,0.5579152,-0.07362103,0.8262431,15
10.56,-26.2152,1.226207,-24.96323,0.0976111880225971,0.0176126547546528,0.0737759461314802,10.34425,66.89663,183.1822,0.5466402,-0.09043096,0.8320454,15
10.58,-26.10397,1.39648,-24.90931,0.0721658071052568,0.0580809153157181,0.0637569385197225,13.96839,67.50314,183.5128,0.5481125,-0.1179564,0.8269677,15
10.6,-25.99433,1.563016,-24.85685,0.0438067124864849,0.0968980155008939,0.0527512974073229,17.58776,68.14191,183.8895,0.5490173,-0.1453524,0.8210419,15
10.62,-26.05196,1.190832,-24.84859,-0.0243947318727304,0.0321167366020155,0.0275981475977777,16.09434,67.13006,183.7924,0.5432795,-0.1346967,0.8271632,15
10.64,-25.94374,1.369359,-24.7962,-0.070371376653147,0.0472579770538736,0.0074397339836682,19.67546,67.76247,184.1087,0.5438382,-0.1614446,0.8208762,15
10.66,-25.83663,1.544334,-24.74498,-0.117029105818446,0.0633076153129607,-0.0127212010132842,23.25194,68.43153,184.4756,0.5438476,-0.188023,0.8137679,15
10.68,-25.919,1.168212,-24.7549,-0.1917539726512136,-0.0020278917386051,-0.0409722000138428,20.14646,65.49517,184.0809,0.527025,-0.1659774,0.8309407,15
10.7,-25.81347,1.352908,-24.70361,-0.2664690109740233,-0.0649260745608867,-0.0684071799481582,23.68181,66.09957,184.2705,0.5269841,-0.1917614,0.8239612,15
10.72,-25.7087,1.53421,-24.65327,-0.3037235531044344,-0.0221423539558138,-0.0835662592484638,27.21401,66.73455,184.5075,0.5264264,-0.2173509,0.8161817,15
10.74,-25.7729,1.138992,-24.64439,-0.3610724256273463,-0.0622261826984846,-0.1034416525559351,26.31145,62.1075,183.986,0.495219,-0.2123309,0.8377788,15
10.76,-25.67099,1.331518,-24.59271,-0.4166419291796517,-0.0988413016061475,-0.1217333663646482,29.80079,62.63404,183.9744,0.4943758,-0.2369609,0.8297162,15
10.78,-25.56939,1.520815,-24.54174,-0.4431683116865588,-0.0500446630902115,-0.1317275156939517,33.28868,63.17937,184.0008,0.493062,-0.2613575,0.8208712,15
10.8,-25.46827,1.706925,-24.49156,-0.4667769015575662,-0.0019062973404439,-0.1402603681225325,36.77523,63.74995,184.0698,0.4912789,-0.2855002,0.8112525,15
10.82,-25.57518,1.121743,-24.50887,-0.5123055258077707,-0.0671795314599742,-0.1570811629947326,34.73853,58.62994,183.2741,0.4596575,-0.2735427,0.8360174,15
10.84,-25.47604,1.319501,-24.45722,-0.5343431784594257,-0.0430760279628508,-0.1680829273630779,38.16785,59.00543,183.0143,0.4577538,-0.2967001,0.82645,15
10.86,-25.37691,1.51416,-24.40611,-0.5516881211204785,-0.0176480967631049,-0.1771316334901134,41.5975,59.37893,182.7714,0.455427,-0.3195786,0.8161265,15
10.88,-25.36636,1.114996,-24.38776,-0.5743621295264711,-0.0778912374963669,-0.1877571292207305,43.29029,57.68937,181.7532,0.4434232,-0.3299156,0.8167928,15
10.9,-25.26927,1.315123,-24.33663,-0.5927035770350124,-0.1369443435779654,-0.1961831968417993,46.6634,57.95739,181.3851,0.4406467,-0.3518194,0.805526,15
10.92,-25.17206,1.512259,-24.28597,-0.5841209909066287,-0.0814509923010885,-0.1937990652247605,50.03667,58.20959,181.0165,0.4374751,-0.3734035,0.7935451,15
10.94,-25.09647,1.109926,-24.22961,-0.5650731569399063,-0.1120866655771559,-0.1840046037683085,50.70294,55.99059,178.7404,0.4283252,-0.3733825,0.7956958,15
10.96,-25.00128,1.309206,-24.17935,-0.5416403562069738,-0.1412921154482428,-0.1722487625645832,54.01233,56.06019,178.1634,0.4250627,-0.3940606,0.7829283,15
10.98,-24.90602,1.505613,-24.12957,-0.5061951603452997,-0.0834857064235588,-0.1574576646655057,57.321,56.07384,177.5429,0.4214312,-0.4143928,0.7694892,15
11.0,-24.81084,1.69916,-24.08034,-0.4661901938292536,-0.0271453599103216,-0.1409166619073474,60.62862,56.01547,176.8617,0.4174342,-0.4343619,0.7553909,15
11.02,-24.69551,1.104421,-24.00215,-0.415714628282998,-0.0819387529275237,-0.1161294904432441,61.23468,50.00619,171.2189,0.3980106,-0.4323718,0.7611696,15
11.04,-24.60136,1.295429,-23.9546,-0.3739494006465942,-0.0476602902154613,-0.0988341846705012,64.43037,49.10843,169.6208,0.3939986,-0.4511026,0.7463496,15
11.06,-24.50757,1.483698,-23.90773,-0.3293454342534083,-0.0130384608994621,-0.0805264532691643,67.61069,47.85726,167.6786,0.3896553,-0.4694479,0.7309113,15
11.08,-24.31896,1.144287,-23.78353,-0.2705574869264153,-0.0506057791675529,-0.0510863013727576,58.38432,44.10351,167.8216,0.3738621,-0.4147417,0.7851359,15
11.1,-24.2245,1.326115,-23.73545,-0.209769021443666,-0.0900494168779848,-0.0206960747430189,61.45868,42.90792,165.8363,0.3706324,-0.4331888,0.7708865,15
11.12,-24.13084,1.505185,-23.68832,-0.1548477848882696,-0.0249412901601142,0.0024715541272297,64.50735,41.33374,163.4837,0.367099,-0.4512778,0.756014,15
11.14,-23.95352,1.211966,-23.58183,-0.0895004851668614,-0.0274145491079396,0.0300810149590691,43.05769,51.51703,173.9772,0.4210646,-0.3088111,0.8282643,15
11.16,-23.85449,1.386037,-23.53079,-0.0224195200743868,-0.0308797807538911,0.058664996715307,46.30469,51.5241,173.246,0.419795,-0.3299427,0.8165702,15
11.18,-23.75667,1.557066,-23.48097,0.0335828645729776,0.0331159504582957,0.0776670062823736,49.55052,51.46745,172.4682,0.418169,-0.3507904,0.8041921,15
11.2,-23.66021,1.725151,-23.43244,0.0891836159673489,0.0940650757534635,0.0961779082006204,52.79513,51.33387,171.629,0.4161886,-0.371342,0.7911383,15
11.22,-23.61012,1.257198,-23.41552,0.1307288347382216,0.0596733593402457,0.1087731103250835,20.03139,58.24395,176.5974,0.4835531,-0.1376367,0.8573802,15
11.24,-23.5008,1.425301,-23.36099,0.1636119825618416,0.093115544449677,0.1188946807345274,23.56548,58.69366,176.4098,0.4851086,-0.1628797,0.8497484,15
11.26,-23.39309,1.589735,-23.30795,0.1941576978986359,0.1254467322514958,0.1281965061197891,27.10188,59.14303,176.2475,0.4861864,-0.1879711,0.8412893,15
11.28,-23.32811,1.275697,-23.25912,0.2146802315911729,0.0870146793660242,0.1388469972111576,358.3936,63.23326,178.1958,0.5239288,0.02018885,0.8515015,15
11.3,-23.21667,1.4413,-23.20455,0.23313927938058,0.0469502316020011,0.1493990601273211,1.957653,63.75147,178.3133,0.5281581,-0.006733845,0.8488469,15
11.32,-23.10704,1.603141,-23.15157,0.2640752367684218,0.0970847054434469,0.164538211678114,5.519522,64.27862,178.4637,0.5318615,-0.03364263,0.8453558,15
11.34,-23.00845,1.293822,-23.07653,0.282471395630453,0.0756024734395491,0.1807344797914818,352.8278,64.90822,179.2715,0.5352268,0.05618349,0.8423656,15
11.36,-22.89625,1.455254,-23.01951,0.2977309772710832,0.0533663336348203,0.1969598479022543,356.4084,65.39728,179.5617,0.5398503,0.0284362,0.8411691,15
11.38,-22.78606,1.612826,-22.96427,0.3118220988332365,0.0978264068551638,0.2095728590605667,359.9854,65.90299,179.8817,0.5439285,0.0006685634,0.8391311,15
11.4,-22.67811,1.766712,-22.91089,0.3208753782331124,0.1391060313910044,0.2206737721216023,3.558303,66.42915,180.2338,0.5474579,-0.02709194,0.8362547,15
11.42,-22.75245,1.262042,-22.92306,0.2928224487254103,0.081524792142007,0.2237708433935608,355.7487,65.62061,180.5907,0.5416402,0.02838229,0.8397763,15
11.44,-22.64313,1.425812,-22.86704,0.2721395523375283,0.0980892651798306,0.2267350858486594,359.294,66.12022,180.9287,0.5455323,0.0007417193,0.8380283,15
11.46,-22.53569,1.585903,-22.81269,0.2479564264292433,0.1140338565264606,0.2284694066251025,2.835236,66.64081,181.298,0.548883,-0.02689167,0.8354566,15
11.48,-22.55234,1.240574,-22.79255,0.1911438930913944,0.0557235786397323,0.2338517889523941,3.998027,65.95064,182.0789,0.5433261,-0.03912602,0.8386011,15
11.5,-22.44171,1.406792,-22.73616,0.1322837423704181,-0.0022775073626451,0.2384828282984705,7.617966,66.49836,182.4249,0.5457721,-0.06711876,0.8350306,15
11.52,-22.33286,1.56924,-22.68137,0.0964460709390708,0.0353842100084066,0.2507434190062745,11.23398,67.07357,182.8095,0.5476542,-0.09503889,0.8306054,15
11.54,-22.37406,1.217306,-22.66518,0.029446755644876,-0.0035277237320825,0.2615314458386639,11.9028,66.04355,183.3731,0.5392271,-0.1028507,0.8352463,15
11.56,-22.2646,1.389613,-22.60958,-0.0389514868064702,-0.0400275310514788,0.2713565682709431,15.51793,66.63329,183.7045,0.5403062,-0.1303493,0.8299616,15
11.58,-22.1566,1.558227,-22.55536,-0.086529879711457,-0.0014453852012573,0.2846971907398048,19.12845,67.25629,184.0816,0.5408298,-0.1577069,0.8238316,15
11.6,-22.05026,1.723282,-22.50264,-0.1357784681910798,0.0358013666869525,0.2964160173911838,22.73369,67.91958,184.5101,0.5407977,-0.1848947,0.8168633,15
11.62,-22.20343,1.183089,-22.54397,-0.218727531801071,-0.0333912147071104,0.2988154186676923,17.41535,65.79508,183.935,0.5321973,-0.1454738,0.832299,15
11.64,-22.09698,1.363636,-22.49009,-0.2773859496131612,-0.0196637844255318,0.3069084264264634,20.98486,66.39708,184.2173,0.532415,-0.1720885,0.8258982,15
11.66,-21.99151,1.540682,-22.43731,-0.335758367380373,-0.0044773657265522,0.314176134065288,24.55025,67.03378,184.5481,0.5321006,-0.1985245,0.8186795,15
11.68,-22.07764,1.153021,-22.44243,-0.3942650490022781,0.009129553589023,0.3205107989423745,23.07721,62.74191,184.0625,0.503682,-0.1887586,0.8397245,15
11.7,-21.97482,1.34178,-22.3889,-0.4577818889787015,-0.0063824370732069,0.319543673389155,26.59778,63.28705,184.1519,0.503135,-0.2141982,0.8323268,15
11.72,-21.87252,1.527221,-22.33618,-0.5188353412685531,-0.0177153368966003,0.3190418864885829,30.11598,63.8564,184.2829,0.5021012,-0.2394216,0.8241314,15
11.74,-21.9211,1.128694,-22.32402,-0.5777785005759548,-0.0280946526979677,0.318923962360361,30.05492,59.07904,183.7257,0.4685788,-0.2409388,0.8439742,15
11.76,-21.8218,1.324298,-22.27025,-0.6265153399937633,-0.0377156259603441,0.3183964227417473,33.51686,59.51232,183.5876,0.4671627,-0.2650718,0.8353468,15
11.78,-21.72263,1.516742,-22.21707,-0.6713489758416595,-0.0433591391694597,0.318495493471195,36.97861,59.95359,183.4762,0.4653088,-0.2889511,0.8259439,15
11.8,-21.62377,1.706059,-22.16459,-0.7126159634770453,-0.0483604150252016,0.3191428917347139,40.43999,60.40739,183.3943,0.4630188,-0.3125547,0.8157753,15
11.82,-21.69837,1.117094,-22.18136,-0.7574038186189571,-0.1395120579165051,0.3159912761733774,39.63905,57.02534,182.7023,0.441927,-0.3084412,0.8302481,15
11.84,-21.60114,1.316295,-22.12854,-0.76785048378804,-0.1147484852428461,0.3234203617432634,43.03999,57.30651,182.3651,0.4393426,-0.3310412,0.8198205,15
11.86,-21.50384,1.512457,-22.07619,-0.7734001795343288,-0.0885773311485689,0.3315381849476155,46.44115,57.57524,182.0317,0.436359,-0.3533358,0.8086556,15
11.88,-21.47505,1.113715,-22.04884,-0.774394770426893,-0.0643363398021444,0.3402757277481321,46.38772,56.17227,180.3778,0.4315996,-0.3488894,0.811543,15
11.9,-21.37983,1.314072,-21.99641,-0.7659792047127132,-0.0685139260359244,0.3493667893385992,49.73068,56.35382,179.9464,0.4285956,-0.3704565,0.7996853,15
11.92,-21.28448,1.511495,-21.94442,-0.7522163495580072,-0.0696033950342243,0.3591815794983586,53.07347,56.50686,179.5001,0.4252145,-0.3916931,0.7871318,15
11.94,-21.15225,1.103683,-21.85762,-0.7334354249207053,-0.0710042886644222,0.3696780888865607,56.51684,53.51535,176.2219,0.4102817,-0.4094495,0.7790477,15
11.96,-21.0586,1.299589,-21.80734,-0.6902961344068674,-0.0691661255505658,0.3906426467929575,59.7872,53.27267,175.3468,0.4064422,-0.4293509,0.7652332,15
11.98,-20.96506,1.492702,-21.7576,-0.6432613723927108,-0.0654592465531284,0.4111535142703264,63.05373,52.8927,174.3446,0.4022568,-0.4488799,0.7507756,15
12.0,-20.87178,1.683048,-21.70848,-0.5926859881838062,-0.0631943483328667,0.4311799078291418,66.31525,52.32175,173.1603,0.3977288,-0.4680232,0.7356863,15
12.02,-20.73476,1.117969,-21.6137,-0.5218968921411546,-0.1369988688477398,0.4629193424807734,61.82458,44.28537,167.2311,0.3742826,-0.4369271,0.768219,15
12.04,-20.64143,1.304244,-21.56496,-0.4518938447204923,-0.0967277731487934,0.4893548883768734,64.92413,42.80691,165.02,0.3704247,-0.455323,0.7533214,15
12.06,-20.5487,1.487795,-21.51702,-0.3800759661879316,-0.0570151799591479,0.5147131672087344,67.9916,40.8164,162.306,0.3662602,-0.4733386,0.7378084,15
12.08,-20.37424,1.178161,-21.39817,-0.3067951072625279,-0.0209766691120586,0.5389883308758558,52.08131,46.57299,171.21,0.3850535,-0.3748419,0.8095657,15
12.1,-20.27976,1.356119,-21.34788,-0.2438712660491635,-0.0027081784137607,0.5508315337569698,55.19871,46.02622,169.9138,0.3825991,-0.3943096,0.7966016,15
12.12,-20.18626,1.531266,-21.29864,-0.179687062363258,0.0163830572660608,0.561636424640092,58.30649,45.29799,168.4493,0.3798355,-0.4134555,0.7830026,15
12.14,-20.02507,1.239811,-21.21972,-0.1146619316377477,0.0332053946968357,0.5713488062151839,31.98654,54.10684,175.3723,0.4467671,-0.2275252,0.8503547,15
12.16,-19.92033,1.410019,-21.16449,-0.0612571865373481,0.0486115361961944,0.5692500380859502,35.42454,54.36611,174.9458,0.4466888,-0.2511835,0.8404313,15
12.18,-19.81705,1.576795,-21.11066,-0.0079963350381473,0.064558195025412,0.5655075476175924,38.86343,54.60412,174.5195,0.446193,-0.2746049,0.8297314,15
12.2,-19.71542,1.740247,-21.05833,0.0446046877711201,0.0780328196152276,0.5600345188755371,42.30436,54.81954,174.0899,0.4452785,-0.2977773,0.8182613,15
12.22,-19.7092,1.268133,-21.04527,0.0952244176481684,0.0187539088286612,0.5539656864069147,8.131558,59.65945,177.5619,0.4973686,-0.05093794,0.8643782,15
12.24,-19.6,1.435181,-20.98831,0.1520831669154372,0.0512866144978569,0.5511532641023877,11.68388,60.149,177.5358,0.5003019,-0.07734163,0.8595845,15
12.26,-19.4925,1.59852,-20.9329,0.2059827773219336,0.0823356940774318,0.5459811683662665,15.23526,60.64371,177.5406,0.5027419,-0.1036622,0.853952,15
12.28,-19.43743,1.285379,-20.86288,0.2563268188648644,0.109124008345752,0.5383751696167498,353.312,62.006,178.7041,0.5136077,0.05580944,0.855966,15
12.3,-19.32758,1.448849,-20.80311,0.2967693528383974,0.1124967670093972,0.5254740911022644,356.8879,62.48198,178.8983,0.5182004,0.02820055,0.8547741,15
12.32,-19.2196,1.608503,-20.74505,0.3337887064013793,0.1159196484180407,0.5108892925310315,0.4609831,62.96889,179.1219,0.5222738,0.0005717594,0.852734,15
12.34,-19.17669,1.282785,-20.67492,0.3667713953041618,0.1165904716397109,0.4945146522114889,353.7824,62.00115,179.7435,0.5141835,0.04763706,0.8559613,15
12.36,-19.06928,1.444814,-20.61211,0.3803794591373872,0.1094843711952872,0.4662789537130067,357.3413,62.46828,180.0531,0.5184063,0.01959667,0.8548199,15
12.38,-18.96375,1.603069,-20.55111,0.3894517401518782,0.1037517227733921,0.435686439864237,0.8964764,62.9537,180.3914,0.5221123,-0.008455307,0.8528343,15
12.4,-18.86032,1.757719,-20.49204,0.3934260470628499,0.0966287133850747,0.4026696904451303,4.447608,63.46103,180.7607,0.5252981,-0.03649087,0.8500075,15
12.42,-18.98222,1.250439,-20.47967,0.3781136457484586,0.0148518666541398,0.363905121812357,359.4026,61.59066,181.3605,0.5119831,-0.001600731,0.8588979,15
12.44,-18.87644,1.415184,-20.4163,0.3856216678242155,0.0307157454749169,0.3331971897969912,2.985014,62.08632,181.6732,0.515128,-0.02984056,0.8565934,15
12.46,-18.7724,1.576216,-20.35466,0.3891607341808898,0.0463562535005916,0.3005972353412107,6.563745,62.60377,182.0189,0.5177529,-0.0580456,0.8534322,15
12.48,-18.87274,1.232101,-20.25905,0.388172659645255,0.0590063935003141,0.26604753222697,8.252839,60.53716,182.8638,0.5010374,-0.07469113,0.8620706,15
12.5,-18.76767,1.400841,-20.19327,0.3673231772098402,0.0457685835685499,0.2218916172065683,11.88294,61.07882,183.1724,0.5027398,-0.1031089,0.8577809,15
12.52,-18.66412,1.565824,-20.12912,0.3437858320418523,0.0354233867130544,0.1766295784384541,15.5089,61.64865,183.5213,0.5039221,-0.1314129,0.8526121,15
12.54,-18.76255,1.19961,-20.06668,0.3170403728014344,0.0250705449183107,0.1302366116146127,14.77357,60.05331,183.6592,0.4924431,-0.1270993,0.8602237,15
12.56,-18.66072,1.376094,-20.00125,0.3088077020186592,0.0884921982772511,0.0882479207409558,18.36922,60.62484,183.9582,0.493188,-0.1549188,0.8544919,15
12.58,-18.55999,1.548982,-19.93716,0.2633508562198425,0.0469639606733642,0.0337374854027152,21.96071,61.22938,184.3026,0.493433,-0.1825743,0.8479018,15
12.6,-18.46055,1.718387,-19.87451,0.2161585150553902,0.0085164493888254,-0.0209967087477291,25.54719,61.87423,184.6987,0.4931785,-0.2100368,0.8404607,15
12.62,-18.58575,1.160719,-19.86683,0.1668152294989364,-0.0298910577525214,-0.075918375386133,21.59127,57.31564,184.1109,0.4648916,-0.1811521,0.8646364,15
12.64,-18.48816,1.347436,-19.80222,0.1302825491035364,-0.0469135688271593,-0.1241881969428044,25.13544,57.85271,184.244,0.4647203,-0.2077968,0.8575822,15
12.66,-18.3911,1.530773,-19.73855,0.0937746687323686,-0.0595603578635747,-0.1715583602869803,28.67722,58.41579,184.4191,0.4640933,-0.2342313,0.8496952,15
12.68,-18.29478,1.710801,-19.67591,0.056896380675117,-0.0709958819128385,-0.2180014249246897,32.21582,59.01199,184.6418,0.4630124,-0.2604275,0.8409847,15
12.7,-18.43072,1.132712,-19.72238,0.047831715213702,-0.0001288879890012,-0.2549664012624388,28.03706,54.18858,183.9621,0.4341726,-0.2307992,0.8670418,15
12.72,-18.33683,1.326955,-19.6585,0.0106288575778263,-0.0406113447155437,-0.301588538918812,31.51717,54.63768,183.8952,0.4332366,-0.2561657,0.8588152,15
12.74,-18.2431,1.518006,-19.59527,-0.0247955229527572,-0.0778835986399648,-0.346154532925421,34.99652,55.0996,183.8589,0.4318912,-0.2812836,0.8497853,15
12.76,-18.26831,1.118678,-19.58083,-0.0362555698712179,-0.0281299664520739,-0.3826807535086405,37.40004,51.46906,183.0365,0.403484,-0.2996092,0.8566507,15
12.78,-18.1764,1.317232,-19.51835,-0.0571380573204374,-0.0625994583184532,-0.4223699877090738,40.81591,51.75191,182.7227,0.4014621,-0.3233709,0.8466451,15
12.8,-18.08442,1.512722,-19.45634,-0.0752748701450602,-0.0943693126025679,-0.459599964561701,44.23195,52.02414,182.4149,0.3990729,-0.3468318,0.8358729,15
12.82,-18.04031,1.114419,-19.42517,-0.0909945677573529,-0.1268229732170591,-0.4943532974049938,44.69916,52.49089,181.1674,0.4055031,-0.3452039,0.8312032,15
12.84,-17.94924,1.314761,-19.36506,-0.0814921960467582,-0.1313304821061555,-0.5158486573921723,48.06047,52.72404,180.8273,0.4029119,-0.3677889,0.8196344,15
12.86,-17.85801,1.512146,-19.30536,-0.0686814546642349,-0.1325023741097477,-0.5344567717730113,51.42173,52.94154,180.4848,0.3999639,-0.3900438,0.8073474,15
12.88,-17.76679,1.706585,-19.24615,-0.0528991045845814,-0.1337366606166388,-0.5501733037345833,54.78285,53.14153,180.1368,0.3966618,-0.4119495,0.7943534,15
12.9,-17.7328,1.107056,-19.22309,-0.0242152896011522,-0.0495899270969124,-0.559314822969347,53.31777,51.35163,177.7368,0.3951291,-0.3966492,0.801454,15
12.92,-17.64224,1.305259,-19.16635,0.0106966042152902,-0.0795207030128813,-0.5615730662123011,56.61156,51.29707,177.0872,0.3918347,-0.4176306,0.7882045,15
12.94,-17.55164,1.500634,-19.11007,0.0481681968913871,-0.1086110320914794,-0.5611896069640494,59.9034,51.16158,176.3672,0.3882032,-0.4382454,0.7742895,15
12.96,-17.34491,1.109002,-18.97824,0.0823186167877325,-0.0498506533408681,-0.5634427620339992,62.65729,43.10156,167.913,0.3629402,-0.4478758,0.7699605,15
12.98,-17.25425,1.297516,-18.92499,0.1318111839770557,-0.0664634429464985,-0.5522470645088027,65.79258,41.6827,165.8096,0.3591422,-0.4667972,0.7548387,15
13.0,-17.16404,1.483313,-18.8725,0.1821652536501585,-0.0831055953970381,-0.5388274455623283,68.89877,39.7472,163.1979,0.3550448,-0.4853241,0.7390988,15
13.02,-16.954,1.16158,-18.73442,0.233032060205149,-0.1030233686706536,-0.5231646585526186,55.78819,41.84266,168.8069,0.3567099,-0.404134,0.8053185,15
13.04,-16.86197,1.341207,-18.681,0.2895832375958564,-0.0828951990575738,-0.5038003254888412,58.87,40.85707,167.0729,0.3538927,-0.4233818,0.7916436,15
13.06,-16.77082,1.518055,-18.62859,0.3457519324207663,-0.0619244035771114,-0.4823301664797994,61.93195,39.5763,165.0554,0.3507885,-0.4422835,0.7773353,15
13.08,-16.68069,1.692204,-18.57728,0.401158886879768,-0.0432349759250374,-0.4587614706610563,64.96623,37.89857,162.6512,0.3474016,-0.4608228,0.7624063,15
13.1,-16.57178,1.228589,-18.52464,0.4430661806931022,0.0436863949670508,-0.4438540404548687,37.82948,51.07097,174.7685,0.420717,-0.2735808,0.8463285,15
13.12,-16.47178,1.400388,-18.46773,0.4764404344519801,0.0370860759688459,-0.4330070674080639,41.17901,51.19183,174.2155,0.4199136,-0.296348,0.8355145,15
13.14,-16.37309,1.568946,-18.41217,0.5093360615360991,0.02980292046883,-0.4197154958179996,44.52833,51.27372,173.6418,0.4187362,-0.3188472,0.8239656,15
13.16,-16.2714,1.263539,-18.36955,0.5309619431419459,0.088328522743506,-0.4086542189307871,13.91055,57.84257,177.1939,0.4825002,-0.09420618,0.8671494,15
13.18,-16.16384,1.431162,-18.31104,0.5431120265112108,0.0769190116039298,-0.3977888097170894,17.4501,58.29018,177.106,0.484579,-0.1202887,0.8611414,15
13.2,-16.05789,1.595107,-18.25406,0.5520591251045557,0.0651212822022054,-0.3854199092062698,20.99046,58.7411,177.0454,0.4861829,-0.1462552,0.8542986,15
13.22,-15.95959,1.279212,-18.19022,0.557269212075538,0.050003999685834,-0.3715998084640521,354.4584,62.65078,178.4299,0.5186754,0.04840481,0.8534943,15
13.24,-15.84976,1.443979,-18.13215,0.5722763564221685,0.1235642081338629,-0.3507048091982625,358.0226,63.10892,178.6098,0.5230141,0.02105059,0.8520634,15
13.26,-15.74176,1.604977,-18.07571,0.577530260453311,0.1045591902991261,-0.3270554462608583,1.584115,63.5777,178.818,0.5268333,-0.00631615,0.8497939,15
13.28,-15.63579,1.762363,-18.02099,0.5781165775087724,0.084633977789297,-0.3017167790417747,5.142796,64.06068,179.0562,0.5301297,-0.03366926,0.8466892,15
13.3,-15.61638,1.295977,-17.99079,0.5810574446965817,0.1318940058766303,-0.2772127135581477,353.4616,63.97491,179.5166,0.5286627,0.0505994,0.8469039,15
13.32,-15.50602,1.456793,-17.9305,0.5640531140521823,0.1032567664816444,-0.257159883603546,357.0369,64.41609,179.8412,0.5327861,0.02261489,0.8458539,15
13.34,-15.39769,1.613756,-17.87201,0.5415759817015888,0.0749814775592628,-0.2361325438621462,0.6084492,64.87647,180.1928,0.5363743,-0.005383893,0.843962,15
13.36,-15.40558,1.254674,-17.86093,0.5225829524728953,0.1165275690901758,-0.2162700427633754,357.4179,64.55497,181.156,0.5340496,0.01366309,0.8450928,15
13.38,-15.29772,1.419022,-17.80279,0.4971535728701428,0.1557094731172442,-0.1969099899677142,0.9708201,65.01701,181.485,0.5372678,-0.01410778,0.8432696,15
13.4,-15.19171,1.579708,-17.74629,0.4392162594357571,0.0975828412650228,-0.1874188800914578,4.519961,65.50041,181.8436,0.5399532,-0.04185723,0.8406174,15
13.42,-15.18442,1.237735,-17.71476,0.3768116080625463,0.0397751628958132,-0.1769779747787769,6.158622,65.20168,182.6045,0.5368379,-0.05747001,0.8416688,15
13.44,-15.07474,1.404841,-17.65624,0.3429559749264161,0.0782080613826931,-0.1589314853782673,9.789161,65.71575,182.9561,0.53855,-0.08559255,0.8378716,15
13.46,-14.96681,1.568173,-17.59928,0.2807507732526082,0.0411838980011918,-0.1485182141825074,13.41529,66.25896,183.3456,0.5397053,-0.113619,0.8332146,15
13.48,-14.86083,1.727877,-17.54397,0.2155790116446758,0.0063806333800409,-0.1372601880372379,17.03721,66.8368,183.7775,0.5403019,-0.1415252,0.8277034,15
13.5,-14.99125,1.208648,-17.5788,0.177393402392717,0.0461280959332643,-0.1305786106847886,13.44458,65.65096,183.5646,0.5350354,-0.1150623,0.8361184,15
13.52,-14.88328,1.382991,-17.52225,0.1138809060830876,0.0074746495206609,-0.131774861663404,17.05005,66.20246,183.8993,0.5355485,-0.1424855,0.8307261,15
13.54,-14.77666,1.553692,-17.46698,0.0487006293460787,-0.0279936675851808,-0.1330500500046356,20.65113,66.78792,184.2783,0.535516,-0.1697567,0.8244948,15
13.56,-14.67159,1.720874,-17.4131,0.0115482799021051,0.015880096204678,-0.1344570236545976,24.24708,67.41415,184.7068,0.5349382,-0.1968453,0.817432,15
13.58,-14.80635,1.168164,-17.43921,-0.0264564511820877,0.0588850185130149,-0.1367473834729944,20.15693,63.8409,184.0895,0.5149513,-0.1670139,0.8384548,15
13.6,-14.7022,1.352731,-17.38425,-0.0998959935943877,-0.0065435241413661,-0.1529042355945427,23.7112,64.37508,184.2838,0.5144666,-0.1932335,0.8317676,15
13.62,-14.5988,1.533879,-17.33021,-0.1728083005303973,-0.0693026900065541,-0.1688837427400096,27.26259,64.93834,184.521,0.5134755,-0.2192565,0.8242685,15
13.64,-14.66115,1.139026,-17.32733,-0.2119734743293451,-0.0239636016145631,-0.1767125578888189,26.30352,60.56737,183.9893,0.4839186,-0.2134545,0.8443733,15
13.66,-14.56077,1.331524,-17.27278,-0.2701221684106492,-0.0618298824745165,-0.1908876707170641,29.79849,61.02134,183.9761,0.4826498,-0.2384048,0.8365968,15
13.68,-14.4607,1.520795,-17.21889,-0.3258058281529949,-0.0963605179195588,-0.2046782233874353,33.29196,61.49125,183.9955,0.4809233,-0.2631197,0.8280334,15
13.7,-14.36113,1.706882,-17.16575,-0.379279285435927,-0.1308260433413197,-0.2181904523944593,36.78415,61.98271,184.0516,0.4787405,-0.2875791,0.8186913,15
13.72,-14.46538,1.121761,-17.18919,-0.3960841278276592,-0.0552028396445911,-0.2153149098430595,34.72249,57.15379,183.2762,0.4488685,-0.2749875,0.8419062,15
13.74,-14.36774,1.319523,-17.13509,-0.4228980953466428,-0.0924737529438044,-0.2170959348901795,38.15327,57.45498,183.0117,0.4465598,-0.298443,0.8325996,15
13.76,-14.27013,1.514195,-17.08147,-0.4455178893077707,-0.1268653698896229,-0.2179793587551461,41.58412,57.75004,182.7579,0.4438406,-0.321619,0.8225349,15
13.78,-14.25804,1.114998,-17.06527,-0.4463714909443677,-0.0736538165241187,-0.2108733092010322,43.28223,56.30336,181.7573,0.433513,-0.331851,0.8221244,15
13.8,-14.16236,1.315134,-17.01195,-0.4422715372597003,-0.0211338621300473,-0.2027893614573088,46.65557,56.49596,181.3834,0.4303567,-0.3540524,0.8111009,15
13.82,-14.06657,1.512292,-16.95904,-0.4473485212573622,-0.0839397750171712,-0.1995747584436127,50.0288,56.66711,181.0016,0.4268172,-0.3759339,0.799362,15
13.84,-13.99078,1.109949,-16.90321,-0.4402337381057239,-0.0571039505438031,-0.190699291799306,50.68322,54.66293,178.7466,0.4190897,-0.3756716,0.8006821,15
13.86,-13.89693,1.30925,-16.8509,-0.4277883959130497,-0.0290813113010086,-0.1804412891286744,53.99232,54.65587,178.1624,0.4154737,-0.396658,0.7881482,15
13.88,-13.80303,1.50569,-16.79902,-0.399012084386994,-0.087322197097185,-0.16038903747292,57.30024,54.58543,177.5261,0.4114994,-0.4172981,0.7749419,15
13.9,-13.70922,1.699281,-16.74763,-0.3662470316967021,-0.1459569325010518,-0.1398559179131251,60.60655,54.43282,176.8176,0.4071709,-0.4375751,0.7610752,15
13.92,-13.59403,1.104398,-16.66905,-0.3211676864406507,-0.0896698097853533,-0.1136033003612515,61.22369,48.71975,171.239,0.3893782,-0.4354165,0.7656843,15
13.94,-13.50121,1.29544,-16.61938,-0.2561477604046656,-0.1091489151202168,-0.0742101448835168,64.41856,47.74372,169.6325,0.385051,-0.4544849,0.7510712,15
13.96,-13.40877,1.483754,-16.57034,-0.1880566849350546,-0.1290494755646115,-0.0344855667717971,67.59681,46.40306,167.6696,0.3804023,-0.4731671,0.7358394,15
13.98,-13.22088,1.144192,-16.44436,-0.1346038882561935,-0.0649935784843243,-0.0059497251807902,58.3995,42.84907,167.8139,0.3652609,-0.4177346,0.7890996,15
14.0,-13.12781,1.326046,-16.39407,-0.079702689883941,-0.0024829333307164,0.0223277350609372,61.4723,41.57294,165.8175,0.3616889,-0.436507,0.7750453,15
14.02,-13.03556,1.505154,-16.34468,-0.0218243158101156,-0.0355495509576412,0.0531377295383934,64.51772,39.90815,163.4426,0.3578227,-0.454921,0.760368,15
14.04,-12.85845,1.211885,-16.23699,0.020017365588157,0.005370940406174,0.0714421762023529,43.08413,50.28419,173.9716,0.412119,-0.3111559,0.8326551,15
14.06,-12.76094,1.385981,-16.18357,0.0620742702791998,0.0459549671412297,0.0889544125773289,46.32972,50.21457,173.2318,0.4104517,-0.3325608,0.8212047,15
14.08,-12.66462,1.557047,-16.13132,0.1065984555075258,0.0170484258017734,0.1050953961788279,49.57347,50.07558,172.4381,0.4084385,-0.3536819,0.8090703,15
14.1,-12.56966,1.725176,-16.08033,0.1525807370309317,-0.0137676624032797,0.1214156918291691,52.81518,49.85226,171.5743,0.4060817,-0.3745062,0.7962602,15
14.12,-12.51741,1.257167,-16.0656,0.1966517133175882,0.0456561103566356,0.1374025635031868,20.06476,57.01401,176.5922,0.4743126,-0.1390422,0.8624674,15
14.14,-12.40965,1.425286,-16.00839,0.2394151717022437,0.1021537246811762,0.1520885840755357,23.59846,57.39073,176.3973,0.4754131,-0.1645062,0.8551396,15
14.16,-12.3035,1.589746,-15.95265,0.2751884657078063,0.0639854336373378,0.1648833618399796,27.13425,57.76451,176.2222,0.4760485,-0.1898172,0.8469835,15
14.18,-12.23756,1.275673,-15.9058,0.3098088271728474,0.0947743535344676,0.1787509302073386,358.4221,62.04593,178.1927,0.5150826,0.01992588,0.856885,15
14.2,-12.12766,1.441292,-15.84854,0.3416867354376611,0.1242742834532163,0.1910532321108398,1.986364,62.49424,178.3041,0.518815,-0.007141915,0.854583,15
14.22,-12.01956,1.603158,-15.79282,0.3700981621599826,0.0837595926923065,0.204908365768123,5.548688,62.9509,178.4439,0.5220338,-0.03419531,0.8514427,15
14.24,-11.91346,1.761424,-15.73876,0.3965080773376841,0.1128519734894957,0.2165669293971779,9.108739,63.41958,178.6135,0.5247363,-0.06120723,0.8474681,15
14.26,-11.83895,1.296049,-15.671,0.4184808379204041,0.140272789728745,0.2264099345429,353.4601,63.87349,179.4879,0.5278999,0.05076627,0.8473774,15
14.28,-11.72843,1.456946,-15.61123,0.4354721893970643,0.1633128438198205,0.2342458383502972,357.0352,64.29514,179.7833,0.5318812,0.02290919,0.8464217,15
14.3,-11.61994,1.613996,-15.55321,0.4215749377644033,0.0857097129184926,0.2283016365628969,0.6070728,64.73421,180.1045,0.5353301,-0.004962633,0.8446258,15
14.32,-11.61053,1.254707,-15.53025,0.4168580677335738,0.0996968994441125,0.2249469592904633,357.4149,64.4599,181.1464,0.5333471,0.01374643,0.8455368,15
14.34,-11.50278,1.419078,-15.47205,0.4076848608925969,0.113302150089109,0.2195059357477973,0.968077,64.90017,181.4658,0.5364105,-0.01399152,0.8438182,15
14.36,-11.39687,1.579789,-15.41545,0.3772087334968645,0.0532799396441912,0.2070745138505987,4.517613,65.36116,181.8134,0.5389431,-0.04170771,0.8412714,15
14.38,-11.29301,1.736999,-15.36055,0.3605085012520368,0.0705515102335739,0.2002295366629778,8.063153,65.84657,182.1921,0.5409427,-0.06937502,0.8378998,15
14.4,-11.37207,1.237751,-15.37299,0.3404616493652418,0.0877483722384488,0.1919198407590647,6.153512,65.11159,182.6004,0.5361801,-0.05742116,0.8420917,15
14.42,-11.26258,1.404868,-15.31425,0.2955206552086866,0.0286942428677748,0.1753226179299687,9.783927,65.60278,182.9477,0.5377331,-0.08553921,0.8384029,15
14.44,-11.15483,1.568214,-15.25705,0.2625971416979819,0.0459237276951828,0.1613334208948831,13.41014,66.12253,183.3313,0.5387309,-0.1135615,0.8338553,15
14.46,-11.21832,1.208687,-15.2556,0.2265048001394338,0.064028382906564,0.1457853915059936,13.44139,65.17449,183.5555,0.531566,-0.1151517,0.8383352,15
14.48,-11.11079,1.383044,-15.1983,0.1867759211121656,0.0801796596276115,0.1285562148475887,17.048,65.70155,183.88,0.5319381,-0.14261,0.8330524,15
14.5,-11.0046,1.553761,-15.14227,0.1429728967206269,0.0765321286552101,0.1095495489040028,20.65044,66.26138,184.2468,0.5317693,-0.1699159,0.826929,15
14.52,-11.05967,1.175736,-15.13817,0.0876124101579474,0.0587665968764458,0.0854581754605436,18.7362,64.20468,184.0677,0.5191216,-0.1564103,0.8383462,15
14.54,-10.95527,1.358329,-15.08248,0.0317389938614347,0.0449128482234549,0.0612941676833742,22.29493,64.72854,184.3058,0.5186952,-0.1829174,0.8320286,15
14.56,-10.85176,1.537474,-15.02776,-0.0250440111095593,0.0319240591675067,0.0369767796339077,25.85035,65.28307,184.5867,0.5177571,-0.2092369,0.8248969,15
14.58,-10.74931,1.713261,-14.97412,-0.1088616140292083,-0.0641452128939115,0.0034404317101155,29.40166,65.87526,184.9158,0.5163088,-0.2353402,0.8169598,15
14.6,-10.88975,1.14547,-15.01255,-0.157195758437373,-0.0503991128984154,-0.0176495870576041,24.59766,61.24838,184.0688,0.4908932,-0.2008543,0.8441,15
14.62,-10.78889,1.336245,-14.95756,-0.2042820963972846,-0.0347507697374308,-0.0379681311907316,28.1042,61.70686,184.1136,0.4896955,-0.2261637,0.8367248,15
14.64,-10.68846,1.52376,-14.90326,-0.2676595264304339,-0.103066479692208,-0.062761485740348,31.6089,62.18452,184.1928,0.4880311,-0.2512486,0.8285584,15
14.66,-10.73571,1.124838,-14.89332,-0.3049625112406263,-0.0827491638658212,-0.0788326973732269,32.08384,57.17364,183.547,0.4521275,-0.2567682,0.8475879,15
14.68,-10.63811,1.321804,-14.83815,-0.3395547249737292,-0.0606097564070857,-0.0936662004265795,35.52921,57.49007,183.3299,0.4500163,-0.2807017,0.8388731,15
14.7,-10.54058,1.515655,-14.78349,-0.3717723632424191,-0.0399161444416625,-0.1073532795856815,38.97454,57.80413,183.1271,0.4474894,-0.3043703,0.8293899,15
14.72,-10.4433,1.706417,-14.72941,-0.4223534282307267,-0.1340784817490668,-0.1303539480134716,42.41973,58.11792,182.9391,0.4445489,-0.3277525,0.8191475,15
14.74,-10.44437,1.114993,-14.71268,-0.4396019409746489,-0.1121774716023647,-0.1401874442129,43.28735,55.83387,181.7625,0.4301176,-0.3325655,0.8238865,15
14.76,-10.34902,1.315112,-14.65841,-0.4523531786626742,-0.0887127284689986,-0.1479677011078055,46.66825,56.00692,181.3913,0.4268451,-0.3549261,0.8129041,15
14.78,-10.25358,1.512244,-14.60454,-0.4661546146600894,-0.1513510775980292,-0.1548635206155437,50.0489,56.15738,181.0106,0.4231915,-0.376965,0.8012028,15
14.8,-10.1582,1.706401,-14.55114,-0.4632109845746551,-0.1242248115733687,-0.1542169499618959,53.42923,56.28151,180.6153,0.4191605,-0.3986629,0.7887935,15
14.82,-10.16096,1.109946,-14.53853,-0.4556003744274189,-0.0958837866085073,-0.1514111631010846,50.68275,54.27349,178.7504,0.4163547,-0.3763775,0.8021103,15
14.84,-10.0675,1.309244,-14.48555,-0.4436223380458447,-0.0696818939178102,-0.1465283941274562,53.99382,54.24545,178.1672,0.4126291,-0.3974749,0.7896351,15
14.86,-9.973985,1.50568,-14.43296,-0.4089259261716467,-0.0698631680703538,-0.1281835882019768,57.30359,54.15228,177.5297,0.4085481,-0.4182257,0.7764867,15
14.88,-9.800851,1.104407,-14.32038,-0.3710129705985504,-0.0679826706545353,-0.108765351689605,61.22155,48.00829,171.2319,0.3846468,-0.4370413,0.7680793,15
14.9,-9.708621,1.295467,-14.2697,-0.3301840815988677,-0.0673540737857114,-0.0883442833120737,64.41565,46.99736,169.61,0.3802441,-0.456235,0.7535209,15
14.92,-9.616767,1.483802,-14.21963,-0.2704659286870758,-0.1426310270093032,-0.0541085459176593,67.59246,45.61525,167.625,0.3755245,-0.4750416,0.7383421,15
14.94,-9.413066,1.144138,-14.08291,-0.2122863341713869,-0.1036123369906736,-0.0234332556587795,58.40808,42.26031,167.8107,0.3612071,-0.4191345,0.7909219,15
14.96,-9.32062,1.326001,-14.03161,-0.1528145758876449,-0.064957022887018,0.0076187067619037,61.48073,40.96006,165.8111,0.3575573,-0.4380343,0.7769153,15
14.98,-9.228985,1.505121,-13.9812,-0.0923378759332411,-0.0297825334220789,0.0389881226869179,64.52547,39.26804,163.4296,0.3536174,-0.456575,0.7622851,15
15.0,-9.138301,1.681568,-13.93176,-0.0433547916453848,-0.0121927860692742,0.0600682692509744,67.53071,37.03479,160.5157,0.3493931,-0.474742,0.7470444,15
15.02,-9.036017,1.21182,-13.86315,0.0065248270132006,0.0064166401503325,0.0814678560971471,43.10441,49.77439,173.97,0.4083955,-0.3121876,0.834415,15
15.04,-8.939142,1.385928,-13.80875,0.056951359843532,0.0229527603528727,0.1030708105102182,46.34935,49.68235,173.2292,0.4066208,-0.3336946,0.8230325,15
15.06,-8.843462,1.557009,-13.75552,0.0949627933683565,0.038268903474895,0.1147821261306309,49.59222,49.51941,172.4326,0.4045042,-0.3549171,0.8109657,15
15.08,-8.731014,1.257148,-13.7069,0.1326566262010844,0.0543188078371201,0.1260842434925648,20.08927,56.23537,176.585,0.4684381,-0.139935,0.8656278,15
15.1,-8.62407,1.42528,-13.64826,0.169584791890288,0.06808835592271,0.1368200349472095,23.62285,56.58833,176.383,0.4694194,-0.1655038,0.8583907,15
15.12,-8.518734,1.589753,-13.59108,0.2041691700596707,0.0092820781504447,0.1483866027975771,27.15854,56.93721,176.1991,0.4699422,-0.1909195,0.8503233,15
15.14,-8.415229,1.750726,-13.53547,0.2444603982687171,0.0424916342859544,0.1649861019822118,30.69418,57.28462,176.0339,0.4700079,-0.2161438,0.8414364,15
15.16,-8.350622,1.279234,-13.48456,0.281864783367394,0.0744122054978462,0.1802409038758721,354.4744,62.27084,178.4164,0.5158421,0.0483904,0.8552155,15
15.18,-8.241267,1.444049,-13.42587,0.3158633315374568,0.1022654144909335,0.1940002309793354,358.038,62.68658,178.5811,0.5198674,0.02106076,0.8539857,15
15.2,-8.133742,1.6051,-13.36877,0.3517307337830989,0.1795187192331741,0.2072397402529275,1.599345,63.11203,178.7714,0.5233784,-0.006281912,0.8519186,15
15.22,-8.029615,1.295988,-13.29015,0.3645495637243174,0.1554263631100681,0.2127858257009829,353.4595,63.26099,179.5048,0.5233704,0.05083352,0.8501828,15
15.24,-7.920115,1.45683,-13.22849,0.3742297970246283,0.1310390828914692,0.2177110966404083,357.0358,63.66038,179.8163,0.5271912,0.02282042,0.8493515,15
15.26,-7.812634,1.613822,-13.16859,0.3802935716487937,0.1035341266562663,0.2218628564765687,0.608728,64.07826,180.1522,0.5304844,-0.005207388,0.8476772,15
15.28,-7.707385,1.767139,-13.11057,0.3703578693977986,0.0915078124314694,0.216032078367349,4.178063,64.51779,180.5149,0.5332472,-0.03322213,0.845162,15
15.3,-7.784244,1.254702,-13.13667,0.3566284559367357,0.0811960961656091,0.2087411796601064,357.4129,63.94476,181.1522,0.5295413,0.01382697,0.8479244,15
15.32,-7.677247,1.41906,-13.07716,0.3386214181684112,0.0698278536303355,0.1998306381204948,0.9659206,64.36368,181.4765,0.5324531,-0.01399556,0.8463197,15
15.34,-7.572085,1.57976,-13.01926,0.3135062379182133,0.060708647392177,0.1889723441243147,4.515451,64.80357,181.8276,0.5348386,-0.04179642,0.8438853,15
15.36,-7.584675,1.237761,-12.99668,0.2854685766991979,0.053843823502593,0.1770383123430638,6.14969,64.30253,182.5954,0.5302255,-0.05743714,0.845857,15
15.38,-7.47606,1.404881,-12.93639,0.2540357736530256,0.0463676889102641,0.1638784480985082,9.781009,64.77219,182.9373,0.5316516,-0.0856459,0.8422778,15
15.4,-7.369181,1.568231,-12.87764,0.2187674674962975,0.035475729954231,0.1493693715483461,13.40831,65.26979,183.3141,0.5325295,-0.1137588,0.8378367,15
15.42,-7.413159,1.208699,-12.86771,0.1716874114038634,0.0195287911427026,0.1282002586347521,13.43893,64.50269,183.5561,0.5266432,-0.1153518,0.8414391,15
15.44,-7.306417,1.383053,-12.80905,0.1229012753087994,0.0069339772067114,0.1065301110374541,17.04566,65.00891,183.8802,0.5268949,-0.1429073,0.8362545,15
15.46,-7.201015,1.553769,-12.75165,0.071973962160558,-0.0052273561739147,0.0842479039475254,20.64833,65.54745,184.2453,0.5266117,-0.1703102,0.8302274,15
15.48,-7.097157,1.720969,-12.69562,0.0438951169830545,0.0580806211972091,0.0693832267316527,24.24633,66.12469,184.6565,0.5257941,-0.197531,0.823365,15
15.5,-6.995039,1.778127,-12.64105,-0.0206316764158851,0.0157422807383776,0.0404900778507941,27.83911,66.7486,185.1214,0.5244437,-0.2245448,0.8156747,15
15.52,-7.193525,1.168193,-12.70475,-0.0853016410994113,-0.0232127001109359,0.0120346155141373,20.15103,62.86963,184.0894,0.5078325,-0.1674957,0.8427961,15
15.54,-7.090484,1.35276,-12.64796,-0.1264918874513065,0.0199309978111136,-0.0084546895557104,23.70529,63.36013,184.2811,0.5070913,-0.1938659,0.8362979,15
15.56,-6.988211,1.533915,-12.59207,-0.1906938664156401,-0.0193649521436779,-0.0370289327596011,27.25678,63.87825,184.5127,0.5058525,-0.2200389,0.8289857,15
15.58,-7.069046,1.139064,-12.60089,-0.2537347506868248,-0.0550297768214642,-0.0644431427699878,26.29676,59.37318,183.9841,0.4751112,-0.2142618,0.8493776,15
15.6,-6.969868,1.331577,-12.54441,-0.3159121209367158,-0.0902761615970058,-0.0907469401971465,29.79165,59.78056,183.9623,0.4736014,-0.2393841,0.8417743,15
15.62,-6.871017,1.520869,-12.48856,-0.3547743072695842,-0.1002362235940683,-0.106325743651459,33.28511,60.20158,183.9696,0.4716441,-0.2642712,0.8333814,15
15.64,-6.894099,1.121792,-12.46995,-0.3907134025497785,-0.1058076598639091,-0.1201993537423613,34.71073,55.76331,183.2704,0.4386505,-0.2762994,0.8473106,15
15.66,-6.797804,1.319574,-12.41372,-0.4240228823841261,-0.1103050932451689,-0.1324381318748857,38.1413,56.0164,182.9955,0.4361331,-0.2999691,0.8381503,15
15.68,-6.701547,1.514274,-12.35794,-0.4329262619282624,-0.029499184727417,-0.1365644295132364,41.57178,56.26011,182.7269,0.4332162,-0.3233584,0.8282288,15
15.7,-6.605487,1.705912,-12.30271,-0.4558596149152039,-0.0616440329929407,-0.1488333305038427,45.00215,56.49484,182.4633,0.4299027,-0.3464465,0.8175557,15
15.72,-6.654175,1.114995,-12.32155,-0.4746316975775158,-0.0910343578906506,-0.1589343904956384,43.27715,55.16383,181.762,0.4253105,-0.3334208,0.8264152,15
15.74,-6.559687,1.315132,-12.2664,-0.4895051573963754,-0.1210689903658919,-0.1669363513999147,46.6503,55.31357,181.3872,0.4219616,-0.3558433,0.8155198,15
15.76,-6.465113,1.512299,-12.21161,-0.4860466120844128,-0.0382151901372093,-0.1673959947942953,50.02312,55.43887,181.0006,0.4182383,-0.377945,0.8039074,15
15.78,-6.407627,1.109969,-12.1649,-0.4776781498812681,-0.0704545400573534,-0.1630210615556853,50.67362,53.33191,178.7443,0.4097845,-0.3779545,0.8055243,15
15.8,-6.315048,1.309292,-12.11062,-0.4654868036478545,-0.1009158787668972,-0.1568635217297487,53.98207,53.27475,178.1499,0.406005,-0.3991776,0.7931117,15
15.82,-6.222424,1.505759,-12.05672,-0.449746451086059,-0.1329847578421258,-0.1489911473992407,57.28897,53.14881,177.4973,0.4018769,-0.4200535,0.7800247,15
15.84,-6.1299,1.699386,-12.00328,-0.3994936402538784,-0.1317534081509043,-0.1208677548772543,60.59385,52.93328,176.7643,0.3974042,-0.4405645,0.766275,15
15.86,-5.926878,1.109006,-11.8657,-0.3461318707245667,-0.1288476914227483,-0.0915836809530112,62.65488,43.70541,167.885,0.367104,-0.446321,0.7679806,15
15.88,-5.835355,1.297553,-11.81376,-0.2899605286617607,-0.1275591659682613,-0.0612178964019789,65.79166,42.16819,165.7215,0.3626955,-0.4652847,0.7530912,15
15.9,-5.74433,1.483378,-11.7625,-0.2432300801743176,-0.0418890499846444,-0.0389082026399183,68.89622,40.0895,163.0243,0.3579864,-0.4838557,0.7375844,15
15.92,-5.538853,1.161503,-11.62092,-0.1910119645306744,-0.0536524117291579,-0.0103253925599564,55.80163,41.88214,168.7735,0.3570953,-0.4040429,0.8050686,15
15.94,-5.446778,1.34118,-11.5678,-0.1370326486950427,-0.0653277139823991,0.0191377491568383,58.87931,40.79819,166.999,0.3537528,-0.4233558,0.791616,15
15.96,-5.355606,1.518085,-11.51563,-0.0984204539233261,-0.0012940220352481,0.0363153104595095,61.93486,39.40528,164.9262,0.3501249,-0.4423239,0.7775322,15
15.98,-5.26548,1.692295,-11.4645,-0.0522262693135655,-0.004263576529246,0.0560687231508478,64.95978,37.59767,162.4484,0.3462176,-0.4609318,0.7628293,15
16.0,-5.161172,1.228483,-11.40681,-0.0049217922353666,-0.0076256426616161,0.0764454398630565,37.86728,50.64258,174.746,0.4175713,-0.2744482,0.8477578,15
16.02,-5.061723,1.400334,-11.34926,0.0431270360626372,-0.0145016811792313,0.097312906449803,41.21441,50.68356,174.1683,0.4162929,-0.2972989,0.8371848,15
16.04,-4.96361,1.568952,-11.293,0.0896692557329078,0.0685911177066,0.1155261982244222,44.56079,50.6792,173.5619,0.4146461,-0.3198822,0.8258784,15
16.06,-4.865268,1.263522,-11.24594,0.1308357981724019,0.0584867691221115,0.1316681405168853,13.94886,57.07839,177.1785,0.4767073,-0.09496429,0.8702977,15
16.08,-4.758648,1.431176,-11.18597,0.1721094111761779,0.0479231449413036,0.1479423944985296,17.48835,57.45779,177.074,0.4783278,-0.1211366,0.8645636,15
16.1,-4.653665,1.595157,-11.12747,0.2103565893777121,0.1040827695559666,0.1646956242760906,21.02864,57.83805,176.9921,0.4794821,-0.1471928,0.8579947,15
16.12,-4.558677,1.279211,-11.05971,0.2447544187351665,0.0911464483110474,0.1853027851920492,354.4823,61.59758,178.4186,0.5108121,0.0483984,0.8582336,15
16.14,-4.450146,1.444008,-10.99952,0.2765781431235832,0.0776206148025107,0.2053542563585815,358.0472,61.99327,178.5845,0.5146933,0.02096664,0.8571162,15
16.16,-4.343436,1.605043,-10.94092,0.3053645986880224,0.0606374153689183,0.2246500259698045,1.609815,62.39878,178.7749,0.5180657,-0.006477724,0.8551588,15
16.18,-4.238755,1.762471,-10.884,0.3362143744965502,0.1317702856519503,0.2434737398374722,5.169991,62.81725,178.9911,0.5209266,-0.03390798,0.8523641,15
16.2,-4.136302,1.809799,-10.82886,0.3394096964016528,0.1062934038975257,0.2529349364140003,8.727454,63.25208,179.2353,0.5232736,-0.06129737,0.8487353,15
16.22,-4.162977,1.282825,-10.81333,0.3390584227134402,0.0809229834460002,0.2619060108486724,353.7833,62.85547,179.7543,0.5205553,0.04738601,0.8521018,15
16.24,-4.055278,1.444778,-10.75105,0.3349418130798851,0.1228341450932894,0.2667117009836368,357.3462,63.23543,180.0709,0.5241208,0.019395,0.851329,15
16.26,-3.949526,1.602956,-10.6905,0.3255420521186217,0.1623739272554032,0.2692599060896929,0.9059118,63.6343,180.4107,0.5271663,-0.008607033,0.849718,15
16.28,-3.961581,1.250432,-10.67966,0.2882168794043028,0.1035401159473721,0.2612381164749715,359.3869,63.19637,181.3741,0.5239685,-0.001726,0.8516365,15
16.3,-3.854803,1.415138,-10.61825,0.2472356222066135,0.0452039672839621,0.2522609383745109,2.969867,63.60627,181.6966,0.5264415,-0.02982074,0.8496876,15
16.32,-3.749845,1.57614,-10.55846,0.2291928919378499,0.0838823187570306,0.2544876698997385,6.549545,64.03815,182.0464,0.5283865,-0.05787889,0.846893,15
16.34,-3.766529,1.232095,-10.53704,0.1864572431519171,0.0483387807367496,0.24702389402472,8.233679,63.39869,182.8868,0.5224014,-0.07426308,0.849303,15
16.36,-3.659197,1.400777,-10.47539,0.1413723515070198,0.0148740238098873,0.2391634477287809,11.86267,63.85818,183.2158,0.5233701,-0.1024279,0.8453611,15
16.38,-3.553503,1.565712,-10.41522,0.1109334955932874,0.0554670935109183,0.2357919173718652,15.48783,64.34596,183.58,0.5238011,-0.13048,0.8405572,15
16.4,-3.449654,1.727043,-10.35664,0.0773112279722469,0.0947966883778865,0.2311479751078378,19.10913,64.86736,183.9838,0.5236942,-0.1583936,0.8348963,15
16.42,-3.593139,1.199648,-10.40621,0.0052225443069256,0.0308672321826952,0.2062401779603149,14.76002,63.68275,183.6781,0.5194277,-0.1258539,0.8442156,15
16.44,-3.488096,1.376083,-10.34649,-0.0459230817454429,0.0472366764657858,0.1884617363240259,18.35447,64.17274,183.9922,0.5193728,-0.1533105,0.8388468,15
16.46,-3.384269,1.548934,-10.28796,-0.0980345206807054,0.0648971555919407,0.1705700926479467,21.94508,64.69491,184.3466,0.518795,-0.1806053,0.8326399,15
16.48,-3.281854,1.718315,-10.23073,-0.151533087137447,0.0809018844486067,0.1523938233933557,25.53115,65.25566,184.7466,0.5176955,-0.2077086,0.8256027,15
16.5,-3.424653,1.160784,-10.26844,-0.2402921618660983,-0.0121660569257722,0.117041586713372,21.57759,60.94449,184.1143,0.4920446,-0.1791119,0.8495024,15
16.52,-3.323528,1.347485,-10.20994,-0.3290266413734279,-0.0870220986407396,0.0825968948712445,25.12186,61.39555,184.2461,0.4910211,-0.2053341,0.8428282,15
16.54,-3.223045,1.530818,-10.15226,-0.3731449460674452,-0.0462750893024545,0.0665386511827952,28.664,61.86987,184.4137,0.4895198,-0.2313498,0.8353403,15
16.56,-3.288932,1.132787,-10.15564,-0.4354547352377886,-0.0882663689843934,0.0423461035442469,28.0226,57.40385,183.9529,0.4583631,-0.2283091,0.8545377,15
16.58,-3.191699,1.327051,-10.09742,-0.495609669053429,-0.126458294973109,0.0198011423091064,31.5029,57.76066,183.8707,0.4565523,-0.253266,0.8466964,15
16.6,-3.094693,1.518137,-10.03976,-0.5265533470742119,-0.0781889726382464,0.0083945717548441,34.98239,58.1255,183.8116,0.4543136,-0.2779781,0.8380677,15
16.62,-3.09369,1.118739,-10.01096,-0.5623967199326189,-0.1137139119682761,-0.0064172224742892,37.37686,54.23432,183.0235,0.4241045,-0.2964916,0.8467069,15
16.64,-2.998856,1.317338,-9.95348,-0.5947759718467186,-0.1459963152514363,-0.0194527401322767,40.79169,54.41875,182.6874,0.4211919,-0.3199039,0.8370939,15
16.66,-2.904018,1.512887,-9.896411,-0.6057351327934627,-0.090597135698985,-0.0252988251691235,44.20633,54.58529,182.3478,0.417897,-0.3430206,0.8267274,15
16.68,-2.809335,1.705405,-9.839846,-0.6124655002064439,-0.0356579956970357,-0.029453854578413,47.62067,54.73206,182.0014,0.4142232,-0.3658207,0.8156174,15
16.7,-2.839538,1.114491,-9.852326,-0.6152986603910248,0.0004655045170653,-0.0320398459873847,44.68477,54.21775,181.1407,0.418085,-0.3425578,0.8250018,15
16.72,-2.746457,1.314912,-9.795841,-0.6298398842284187,-0.0922115878066753,-0.0418888997962562,48.04396,54.33536,180.7578,0.414646,-0.3649247,0.8138304,15
16.74,-2.653279,1.512389,-9.7397,-0.6186161866702395,-0.0678281261595392,-0.0387258356314925,51.40263,54.42512,180.3586,0.4108427,-0.386966,0.8019503,15
16.76,-2.560153,1.706936,-9.683991,-0.6021335947041182,-0.0420363988143311,-0.0331500778843992,54.76068,54.48132,179.9362,0.4066789,-0.4086626,0.7893725,15
16.78,-2.463575,1.103716,-9.60926,-0.5692689079746065,-0.1022740579600307,-0.0168568537304496,56.488,50.84827,176.2334,0.3920434,-0.4147372,0.7885188,15
16.8,-2.372401,1.299659,-9.554767,-0.5269542851744471,-0.0731830438329179,0.0020737361874576,59.76443,50.48122,175.3384,0.3877503,-0.4352419,0.7749808,15
16.82,-2.281358,1.492814,-9.50074,-0.4804329906643427,-0.0435446115145267,0.0224429968713743,63.03576,49.9607,174.2985,0.3831292,-0.4553702,0.7607941,15
16.84,-2.073562,1.117868,-9.35842,-0.4300104265436072,-0.0166334482394335,0.0441738720148459,61.83469,41.44552,167.2234,0.3551533,-0.4437991,0.7771946,15
16.86,-1.983058,1.304191,-9.3051,-0.3584231182352052,-0.0933594441685552,0.081445623290483,64.93265,39.83339,164.9825,0.3508999,-0.462811,0.7625458,15
16.88,-1.893152,1.487803,-9.252525,-0.3007160175501336,-0.0562712991747275,0.1068910992201279,67.99546,37.68789,162.2161,0.3463588,-0.481439,0.7472778,15
16.9,-1.803981,1.668763,-9.200771,-0.2414847174571773,-0.0190184874857898,0.132455608069633,71.00576,34.7655,158.6798,0.341535,-0.4996668,0.7314051,15
16.92,-1.688698,1.177977,-9.109487,-0.1684065169255107,-0.0502532233522961,0.1648171948565194,52.12188,43.93289,171.1863,0.3663446,-0.3804085,0.8180214,15
16.94,-1.597194,1.355966,-9.054564,-0.1109692015983616,-0.007736113674451,0.184228818029112,55.23788,43.2666,169.8752,0.3634076,-0.4004295,0.8053452,15
16.96,-1.50666,1.53116,-9.000657,-0.0536287774132625,0.0341750325515367,0.2029323822176084,58.34243,42.40708,168.3821,0.3601801,-0.4201264,0.7920322,15
16.98,-1.363421,1.239716,-8.92676,0.0032530962770907,0.0724786594876168,0.220807105555157,32.04434,51.32586,175.3602,0.4259825,-0.2317297,0.8607957,15
17.0,-1.262042,1.409965,-8.866144,0.0518133205414501,0.0146937597526397,0.2308462329116295,35.48032,51.46963,174.9185,0.4253204,-0.2558755,0.8512697,15
17.02,-1.162103,1.576797,-8.806899,0.0993091281847691,0.0492921881848618,0.2402641892703646,38.91655,51.58574,174.4673,0.4242645,-0.2797823,0.8409628,15
17.04,-1.063777,1.74032,-8.749117,0.1457634051049959,0.0829938923073031,0.2487287872721274,42.35406,51.67092,174.0017,0.4228143,-0.3034369,0.8298814,15
17.06,-0.9959446,1.272002,-8.700754,0.1906978082936458,0.112914249163091,0.2560791234479413,2.421714,58.00083,177.9404,0.4849615,-0.009767789,0.8740954,15
17.08,-0.8901412,1.438632,-8.637945,0.2283379519169314,0.1181935920888174,0.262485286537105,5.971069,58.39132,177.9769,0.4878582,-0.03686031,0.8711898,15
17.1,-0.7860171,1.60156,-8.576676,0.2635185799289768,0.1241718581621407,0.2677022357305952,9.519086,58.78702,178.0383,0.4902785,-0.06390949,0.8674406,15
17.12,-0.6899287,1.291538,-8.480391,0.2956993574853321,0.1280015781130049,0.2715517681995396,352.2262,59.41705,179.0207,0.4939269,0.06310021,0.8668156,15
17.14,-0.5837147,1.453727,-8.41363,0.3201337709569066,0.1302562643469065,0.2716794557255688,355.8092,59.78001,179.2479,0.4977847,0.03496796,0.8665051,15
17.16,-0.479389,1.612075,-8.348639,0.3405387388659343,0.1333126604776663,0.2703399061509449,359.3896,60.15584,179.4971,0.5011452,0.006809071,0.8653359,15
17.18,-0.377158,1.766752,-8.285534,0.356384856387294,0.1343758640852923,0.2673453566388782,2.967192,60.54734,179.7701,0.5040057,-0.02134865,0.86331,15
17.2,-0.4371169,1.269944,-8.276387,0.367177463232577,0.1307160807168923,0.2625354245320087,354.0967,59.26784,179.9878,0.4937958,0.0448106,0.8680521,15
17.22,-0.3349138,1.433205,-8.208253,0.3478779406055696,0.0425585703627722,0.2425130847194934,357.6371,59.63058,180.298,0.4971447,0.01659698,0.8674188,15
17.24,-0.2344793,1.592783,-8.14187,0.3443134160505612,0.054954766321601,0.2277831466771362,1.174337,60.01187,180.6303,0.5000071,-0.01162471,0.8659434,15
17.26,-0.136007,1.748841,-8.077353,0.336704034997276,0.0671899460645915,0.2113156406461089,4.708231,60.41452,180.9871,0.5023805,-0.03982699,0.8636279,15
17.28,-0.1965544,1.240734,-8.072027,0.3245435454784344,0.0765583396429538,0.1929475092298688,3.962725,59.13324,182.0543,0.492522,-0.03890735,0.8694288,15
17.3,-0.09414694,1.407106,-8.002867,0.2985103057353434,0.0629758137433053,0.1693324277616912,7.574094,59.5489,182.3732,0.4942091,-0.06757803,0.8665852,15
17.32,0.006619573,1.569741,-7.935367,0.2700021784269087,0.0520825949525517,0.1449415455552397,11.18259,59.98898,182.7222,0.4953935,-0.09617743,0.8628667,15
17.34,-0.04243049,1.217472,-7.928595,0.238535974571759,0.0410073791785464,0.119627934782392,11.87909,59.09957,183.3598,0.4876824,-0.1043608,0.8663818,15
17.36,0.05892491,1.389817,-7.85997,0.1972011957242693,0.0265229326756433,0.0878945475087533,15.49286,59.55583,183.6717,0.4881068,-0.1326964,0.8617396,15
17.38,0.1589374,1.558491,-7.792775,0.1539306179433157,0.0157499005751742,0.0555338901980076,19.10298,60.04152,184.0201,0.4880351,-0.1608897,0.8562276,15
17.4,0.257413,1.723624,-7.72713,0.1082840309885796,0.0057417260855379,0.0224350565282275,22.7091,60.56235,184.4099,0.4874674,-0.1889124,0.8498522,15
17.42,0.1077555,1.183187,-7.796071,0.0598482501949194,-0.0063899310550487,-0.0114893808898215,17.3993,59.03864,183.9307,0.4822479,-0.1482464,0.862228,15
17.44,0.2065902,1.363742,-7.729823,0.0152178831099093,-0.0240465085917291,-0.0422444522279206,20.96881,59.50875,184.2021,0.4818774,-0.1757622,0.8564036,15
17.46,0.3045084,1.540815,-7.664661,-0.0295755031177367,-0.0371260414736296,-0.0724464996456993,24.53497,60.00945,184.5127,0.48103,-0.2030966,0.8497379,15
17.48,0.4013265,1.714502,-7.600705,-0.0749010454588201,-0.0487244111335544,-0.1021639255287879,28.0971,60.54708,184.8678,0.4797067,-0.2302199,0.8422389,15
17.5,0.2600478,1.145473,-7.656508,-0.1211092183668486,-0.0618841648587827,-0.1314462813486213,24.598,55.94817,184.0776,0.4513238,-0.2043107,0.8658994,15
17.52,0.3553224,1.336183,-7.592031,-0.1634922433540819,-0.0784261661462924,-0.1607140353370473,28.11456,56.35,184.1282,0.4500176,-0.2304694,0.8586873,15
17.54,0.4502083,1.523624,-7.52825,-0.2037042652467759,-0.0904254810121017,-0.1881013771551878,31.62925,56.76942,184.2093,0.4482815,-0.2563975,0.8506616,15
17.56,0.4051677,1.124832,-7.530482,-0.2420843139216458,-0.1011325595440567,-0.2136816724491508,32.07021,52.56337,183.5636,0.4176505,-0.2607843,0.8651291,15
17.58,0.4977076,1.321753,-7.467335,-0.2690349461106668,-0.1102963615324798,-0.2351729391943372,35.51917,52.82773,183.3589,0.4154641,-0.2854796,0.8565345,15
17.6,0.5901802,1.515563,-7.404646,-0.2923986632827147,-0.1152045424133873,-0.2542844299836361,38.96792,53.0883,183.1652,0.4128947,-0.309906,0.8471566,15
17.62,0.623811,1.115534,-7.378543,-0.3124899792992242,-0.1192132877482313,-0.2710967462238335,41.84279,51.91468,182.3972,0.4020392,-0.3295461,0.8429281,15
17.64,0.7151858,1.315348,-7.317661,-0.3152760189423521,-0.0375176325459294,-0.2814507736597147,45.23153,52.04775,182.0431,0.3987829,-0.3527261,0.8323884,15
17.66,0.8066338,1.51217,-7.257128,-0.3242828713715566,-0.0690720608328481,-0.294085798127341,48.61983,52.15754,181.6778,0.3951707,-0.3755861,0.821112,15
17.68,0.8980048,1.706015,-7.197042,-0.3295725870237446,-0.0979082250032353,-0.3041498155513605,52.00757,52.24007,181.2962,0.3912061,-0.3981059,0.8091093,15
17.7,0.989149,1.790245,-7.1375,-0.3314210979752807,-0.1274411167561469,-0.3117097415325389,55.39464,52.28955,180.8913,0.3868931,-0.4202658,0.7963919,15
17.72,0.971841,1.109927,-7.140289,-0.3002075951149849,-0.1292117210295941,-0.2977790784491183,50.67098,50.76094,178.7782,0.391501,-0.3824633,0.8145805,15
17.74,1.061646,1.309193,-7.081302,-0.2657319522623362,-0.1281664332912276,-0.2817545900208389,53.98893,50.68946,178.2141,0.3877729,-0.4042214,0.8021598,15
17.76,1.151495,1.505597,-7.022671,-0.2282941891394622,-0.1276634562944964,-0.2637045263908359,57.30529,50.55101,177.5926,0.3837113,-0.425627,0.7890555,15
17.78,1.322058,1.104354,-6.905065,-0.1881900000502345,-0.131010818386503,-0.2436879672534992,61.21468,44.85467,171.2705,0.3632243,-0.4442866,0.7784883,15
17.8,1.411015,1.29541,-6.849072,-0.1462569493336122,-0.03730325151331,-0.2246847058194226,64.41209,43.79982,169.6647,0.3588549,-0.4640694,0.7639813,15
17.82,1.499609,1.483748,-6.793682,-0.0933072981414626,-0.0590964798652706,-0.1944175039136334,67.59165,42.36963,167.6909,0.3541869,-0.4834586,0.7488477,15
17.84,1.587708,1.669408,-6.738972,-0.038531647943992,-0.0805347846323565,-0.1625446164821247,70.74529,40.38486,165.1689,0.3492249,-0.5024421,0.7330984,15
17.86,1.799419,1.161406,-6.584243,0.0002161237522705,-0.0200558624682916,-0.142456645834693,55.81701,39.70135,168.755,0.341766,-0.4087315,0.8116171,15
17.88,1.889494,1.341074,-6.527646,0.0485724155386307,-0.0268837800116193,-0.1142917182625666,58.89735,38.56054,166.9584,0.3383693,-0.4284148,0.7982048,15
17.9,1.978683,1.517966,-6.472014,0.0971862206696482,-0.0336216843560212,-0.0850359165544753,61.95415,37.10224,164.8545,0.3346996,-0.4477484,0.7841554,15
17.92,2.156105,1.228423,-6.369753,0.1457455564336214,-0.0434113396779219,-0.0547781791302595,37.884,48.56246,174.7417,0.4021111,-0.2777421,0.8551454,15
17.94,2.253243,1.40027,-6.308474,0.195141583048805,-0.025124595126824,-0.0289148893175592,41.23224,48.56235,174.1585,0.4007352,-0.3009287,0.8446779,15
17.96,2.349075,1.568887,-6.248492,0.2446622807409801,-0.0060756133868461,-0.0021048136212499,44.57936,48.51415,173.5428,0.3990054,-0.3238447,0.8334716,15
17.98,2.443443,1.734373,-6.189897,0.2938801825772686,0.0106558272043865,0.025485613039911,47.92622,48.40905,172.8844,0.3969222,-0.3464797,0.8215327,15
18.0,2.482981,1.263481,-6.181647,0.3343099992805983,0.0916493362069161,0.0505446885362537,13.97715,55.37034,177.181,0.4636717,-0.09636562,0.8772785,15
18.02,2.587452,1.431129,-6.118169,0.3688572351935233,0.0794442329724361,0.0748688447382715,17.51691,55.71268,177.0792,0.4650888,-0.1228111,0.8717151,15
18.04,2.690316,1.595109,-6.056183,0.4008844983358439,0.0670953744143922,0.0989400157617055,21.05744,56.05529,176.9974,0.4660535,-0.1491387,0.8653115,15
18.06,2.791366,1.755573,-5.995803,0.4299289636415,0.0516756803319051,0.1226018941140124,24.59736,56.40099,176.9367,0.4665662,-0.1753152,0.8580759,15
18.08,2.854602,1.285327,-5.943264,0.4598619959111616,0.1246299168463621,0.1469032642281692,353.3192,60.28382,178.7154,0.5006939,0.05600586,0.8635889,15
18.1,2.961357,1.448872,-5.879089,0.4728349952191603,0.1052561545986363,0.1653575123085933,356.8886,60.63524,178.9156,0.5043627,0.02821005,0.8630133,15
18.12,3.066256,1.608628,-5.816568,0.4818903262217198,0.0853835092815621,0.1835036724985589,0.4556697,60.99826,179.1374,0.5075327,0.0003944035,0.8615906,15
18.14,3.130461,1.282937,-5.759905,0.4874593924646797,0.13259203124741,0.1956402779066632,353.7758,61.13186,179.7572,0.5076794,0.04782115,0.8598313,15
18.16,3.235756,1.444949,-5.694134,0.4873076972316661,0.1769033447602587,0.2054385033602666,357.3331,61.4746,180.0754,0.5109773,0.01966543,0.859279,15
18.18,3.339146,1.603201,-5.630099,0.4599339076680849,0.1215016589034918,0.2025878811192754,0.8873461,61.8364,180.4145,0.513771,-0.008501604,0.8578849,15
18.2,3.440432,1.757861,-5.567912,0.4280327142024385,0.0663127692835209,0.1984482727552358,4.438293,62.21992,180.7769,0.5160581,-0.03665224,0.8556513,15
18.22,3.365529,1.250461,-5.601538,0.4151985201271355,0.1057244403478284,0.2006702835628143,359.3749,61.79487,181.3791,0.5135144,-0.001499037,0.8579794,15
18.24,3.47037,1.415182,-5.537166,0.3813821833806222,0.0722175811239267,0.1942601783603954,2.955328,62.16746,181.7053,0.5157328,-0.0297626,0.8562324,15
18.26,3.573419,1.576206,-5.474417,0.3444460074205503,0.0404031698141469,0.1863362525868842,6.532759,62.56209,182.0563,0.5174357,-0.05798942,0.8536358,15
18.28,3.674474,1.733694,-5.4134,0.3039884528325554,0.0074076829439302,0.1767227007405377,10.10659,62.98219,182.4354,0.5186222,-0.08615058,0.8501931,15
18.3,3.587987,1.226307,-5.427763,0.2831723572938869,0.0695483544354103,0.1738559844858125,10.30896,61.87547,183.1797,0.5096921,-0.09123585,0.8552105,15
18.32,3.693053,1.396583,-5.363413,0.2245123356018386,0.0319792735124681,0.1513220276349442,13.93274,62.30758,183.5016,0.5101068,-0.119436,0.8509845,15
18.34,3.796588,1.563144,-5.300493,0.16405343548937,-0.0028107849051387,0.127494867106204,17.55291,62.76841,183.8579,0.5100006,-0.1475065,0.8458951,15
18.36,3.725765,1.19098,-5.31604,0.1236349582152944,0.0389495217937199,0.1110681938563404,16.0731,62.0587,183.7865,0.5061782,-0.1365964,0.8504055,15
18.38,3.828228,1.369509,-5.253887,0.081363619073941,0.0796809202333923,0.0928759063237592,19.65536,62.5144,184.0872,0.5057381,-0.1640488,0.8449249,15
18.4,3.929605,1.544509,-5.19284,0.0031882869547656,0.0159945577364921,0.0575820674595624,23.2341,63.00145,184.4262,0.5047941,-0.1913301,0.8386079,15
18.42,4.029706,1.716086,-5.133009,-0.0754091479686405,-0.0448988090130913,0.0216143668631055,26.80865,63.52603,184.8088,0.5033472,-0.2184108,0.8314624,15
18.44,3.917402,1.153108,-5.158771,-0.1177245806912543,-0.0007340209180619,0.0048176397603513,23.0626,58.81885,184.0657,0.4746556,-0.1910999,0.8564948,15
18.46,4.016005,1.341817,-5.098033,-0.1823010965924316,-0.0373349768160513,-0.0220711508891431,26.59159,59.21566,184.1487,0.4732653,-0.2172223,0.8496816,15
18.48,4.114076,1.527215,-5.03803,-0.2454470922114295,-0.0700555853132242,-0.0484929907601787,30.11884,59.63139,184.2627,0.47142,-0.2431284,0.8420571,15
18.5,4.211439,1.709363,-4.978865,-0.3074075519752983,-0.1020812453321108,-0.0745558219433704,33.64389,60.07137,184.4117,0.4691225,-0.2687919,0.8336304,15
18.52,4.085027,1.128751,-5.022667,-0.3328862535976118,-0.0256219703355064,-0.0825826026625636,30.02788,55.23285,183.7272,0.4400243,-0.2439791,0.8592755,15
18.54,4.180187,1.324359,-4.962519,-0.3735360491025925,-0.0592465279368985,-0.0974566824177802,33.49176,55.51479,183.578,0.4378008,-0.2687707,0.8511759,15
18.56,4.275187,1.516829,-4.902858,-0.4109465824946119,-0.0895761418234724,-0.1110221622953083,36.95523,55.79741,183.4437,0.4351713,-0.2933071,0.8422929,15
18.58,4.264403,1.117145,-4.891032,-0.424432839269931,-0.0324691419744297,-0.1136105996941636,39.60652,52.82915,182.6951,0.411303,-0.3131806,0.8459458,15
18.6,4.357397,1.316388,-4.831791,-0.4337281063180647,0.0241093192126384,-0.114693645805755,43.00712,52.94963,182.3333,0.4080074,-0.3364953,0.8359793,15
18.62,4.450419,1.512617,-4.772907,-0.456273146030506,-0.03218375424091,-0.1247287042516466,46.40726,53.04599,181.9601,0.4043453,-0.3595023,0.8252679,15
18.64,4.543317,1.705846,-4.714478,-0.4655719948645751,0.0015554646838382,-0.1274009139340737,49.8068,53.11436,181.5702,0.4003205,-0.3821812,0.8138219,15
18.66,4.565856,1.112933,-4.688516,-0.4700256011789596,0.0367000707492433,-0.1278182821414926,48.06543,51.49342,179.5614,0.3981385,-0.3653057,0.8219591,15
18.68,4.656716,1.313259,-4.629941,-0.4699046376662894,0.0698935999536775,-0.1261309396208456,51.40022,51.4559,179.0433,0.3944039,-0.3873908,0.8101485,15
18.7,4.747662,1.510685,-4.571679,-0.4615224694380584,-0.0129741094329104,-0.1170417707382286,54.73369,51.36293,178.4798,0.3903275,-0.409135,0.7976413,15
18.72,4.917819,1.102149,-4.451734,-0.4495310330585687,-0.0810328930382862,-0.1064946195068388,59.63646,47.89138,174.1176,0.3749908,-0.435785,0.7815329,15
18.74,5.007165,1.295752,-4.395784,-0.4179247999909601,-0.0224556233181647,-0.0853241300706978,62.87968,47.20336,172.9264,0.3704315,-0.4559881,0.7674478,15
18.76,5.09626,1.486617,-4.340345,-0.3687252678732808,-0.0411555534768026,-0.0497422343882764,66.11315,46.26228,171.4892,0.3655627,-0.475802,0.7527286,15
18.78,5.184972,1.674774,-4.285497,-0.3163326213842021,-0.0601071130245326,-0.0130529356754327,69.33308,44.95308,169.6903,0.3603887,-0.4952137,0.7373863,15
18.8,5.273165,1.753604,-4.231318,-0.2731283315377564,0.0066488775088443,0.0156993402089139,72.53216,43.07749,167.3302,0.3549138,-0.5142075,0.7214342,15
18.82,5.42255,1.144001,-4.110394,-0.2278691770672043,0.0713453143998218,0.0450350635870626,58.43215,39.15328,167.7819,0.3397231,-0.4261556,0.8002583,15
18.84,5.512058,1.325875,-4.054149,-0.1685220156234952,0.0444277661915465,0.0863574922605346,61.50638,37.74577,165.7468,0.3358628,-0.4456252,0.786374,15
18.86,5.600772,1.505007,-3.998784,-0.107370419253127,0.0152008759982429,0.1285304046402826,64.55004,35.92984,163.3121,0.3317307,-0.4647297,0.7718595,15
18.88,5.755215,1.211692,-3.891759,-0.0633079646067675,0.0841536446617455,0.156300368072944,43.14791,46.41162,173.9517,0.3837495,-0.3181509,0.8458732,15
18.9,5.848488,1.385831,-3.831691,-0.0195386391019871,0.1481529078661944,0.1832562441288404,46.39194,46.22896,173.19,0.3817144,-0.3401869,0.8346989,15
18.92,5.940603,1.556953,-3.772799,0.0186579026538362,0.1177462100005193,0.200538699416053,49.63296,45.96775,172.363,0.3793603,-0.3619338,0.8228334,15
18.94,6.068442,1.257099,-3.709938,0.0452641981777206,0.154983012407202,0.2113640265232861,20.13566,52.97546,176.5779,0.4436144,-0.1432817,0.8785269,15
18.96,6.171489,1.425243,-3.644989,0.0710026833911565,0.1912311044922547,0.2211172710367612,23.66939,53.24982,176.3671,0.4442128,-0.1693458,0.8716041,15
18.98,6.272975,1.589738,-3.581515,0.0935811666820845,0.155307861282724,0.2238885983379564,27.20498,53.51724,176.1688,0.4443793,-0.1952536,0.8638414,15
19.0,6.372691,1.75074,-3.519638,0.1157843647860035,0.117929925687909,0.2259269532585336,30.74041,53.77941,175.9828,0.4441158,-0.2209666,0.8552495,15
19.02,6.454033,1.279209,-3.45739,0.1451729427928483,0.1711318404824724,0.2344035376131307,354.5064,59.03146,178.4125,0.4914715,0.04851608,0.8694643,15
19.04,6.559466,1.444042,-3.392223,0.1718145279964733,0.2213601628007125,0.2410947574004345,358.0705,59.37286,178.5699,0.4949616,0.02080594,0.8686622,15
19.06,6.663125,1.60512,-3.328662,0.1946376407760399,0.1767623796643167,0.2428279683143205,1.632546,59.72364,178.7485,0.4979647,-0.006916599,0.8670116,15
19.08,6.764808,1.762598,-3.26682,0.2151726798596069,0.1305383281043901,0.2435954298720035,5.192419,60.08651,178.9495,0.5004782,-0.03462456,0.864515,15
19.1,6.781494,1.295976,-3.235375,0.238323442194537,0.1739395310173741,0.2441582782327847,353.4538,60.0201,179.5002,0.4991156,0.05161827,0.8646415,15
19.12,6.886859,1.456838,-3.16716,0.2459483986935913,0.1405004866274964,0.2340229558684414,357.0304,60.34506,179.8044,0.5023978,0.02325855,0.8642467,15
19.14,6.990271,1.613859,-3.100749,0.2500512774566175,0.1077267679363798,0.2221756766230903,0.6042306,60.68821,180.1283,0.5051797,-0.005116034,0.8629975,15
19.16,7.091524,1.76721,-3.036261,0.2559648695868002,0.1450981778357944,0.2091096421869698,4.174941,61.05214,180.4743,0.507459,-0.0334775,0.8608958,15
19.18,7.042068,1.250541,-3.045072,0.2570982118473437,0.1804451260371826,0.1931227523329246,359.3662,60.53181,181.376,0.5040271,-0.001275079,0.8635867,15
19.2,7.145174,1.41536,-2.978514,0.2529477060200495,0.1907416548048511,0.1740600540642297,2.938914,60.8871,181.698,0.5061395,-0.0296112,0.8619434,15
19.22,7.246521,1.576501,-2.913592,0.213296671841797,0.0994928529971986,0.1362219951555293,6.508476,61.26403,182.0438,0.5077487,-0.05790995,0.8594493,15
19.24,7.229867,1.23216,-2.894105,0.1972351675759962,0.1072646393991397,0.1111447412679377,8.217166,60.65435,182.8831,0.5019242,-0.07449277,0.8615755,15
19.26,7.333762,1.400871,-2.827199,0.1785840651156574,0.1156650320083604,0.084603587261037,11.84373,61.05852,183.2068,0.5025829,-0.1029722,0.857904,15
19.28,7.436068,1.565847,-2.7618,0.1568313627466007,0.1219209105659477,0.0564662152685427,15.46683,61.4898,183.5619,0.502728,-0.1313387,0.8533616,15
19.3,7.536587,1.727228,-2.698026,0.0992104443155088,0.0238383743854279,0.0117585104517915,19.08661,61.95297,183.9527,0.5023591,-0.159567,0.8479528,15
19.32,7.396455,1.204213,-2.755649,0.0681294600320245,0.0268086146990083,-0.022394894880186,14.75065,60.82579,183.6735,0.4982336,-0.1267393,0.8569083,15
19.34,7.498177,1.380657,-2.690709,0.0358253494667606,0.031547638458608,-0.0574194530813081,18.34487,61.2595,183.98,0.4979073,-0.1545486,0.8517829,15
19.36,7.598718,1.553525,-2.626965,-0.0223440053042585,-0.0443157939154712,-0.1032314590963086,21.93565,61.72361,184.3228,0.4970817,-0.1821954,0.845809,15
19.38,7.697887,1.722932,-2.564533,-0.0551361599052209,-0.0364460943241528,-0.1377836354190359,25.52238,62.22395,184.707,0.4957582,-0.20965,0.8389941,15
19.4,7.557767,1.177582,-2.610502,-0.0876209808030894,-0.0262927966414428,-0.1722812529743482,21.56995,57.96052,184.1091,0.4697756,-0.1806516,0.8620329,15
19.42,7.655593,1.364292,-2.546888,-0.1202259613182852,-0.0168896588690697,-0.2067883899633321,25.11433,58.35429,184.2323,0.4685162,-0.2072687,0.8555641,15
19.44,7.752792,1.547643,-2.484082,-0.1803460957475162,-0.1199400258703649,-0.2509439296875009,28.65677,58.76892,184.387,0.4668027,-0.2336778,0.8482714,15
19.46,7.68708,1.159294,-2.491634,-0.2080868853319137,-0.1103465035541111,-0.2816102625249631,28.00932,54.29482,183.9476,0.4350395,-0.2304614,0.866677,15
19.48,7.780951,1.353568,-2.4284,-0.2336973812758604,-0.0981077272207381,-0.3111768831127918,31.48945,54.59346,183.8563,0.4330292,-0.2558496,0.8590045,15
19.5,7.874599,1.544673,-2.365697,-0.2575533990878242,-0.0864334781567684,-0.3397051878421832,34.96877,54.89712,183.7835,0.4306145,-0.2809912,0.8505355,15
19.52,7.967863,1.732645,-2.303628,-0.3036350556544118,-0.1891882366137698,-0.3781381521043614,38.44736,55.20887,183.7308,0.427798,-0.3058644,0.8412783,15
19.54,7.934484,1.15666,-2.296047,-0.3138376560972236,-0.1759169486625875,-0.3995617775719964,39.60872,50.88143,182.698,0.3968548,-0.3153854,0.8528116,15
19.56,8.02553,1.355886,-2.233518,-0.3198335338974585,-0.1601572988255307,-0.4187962201870295,43.01695,50.98576,182.3373,0.3935945,-0.3390404,0.8428259,15
19.58,8.11661,1.552088,-2.171334,-0.3219728146445226,-0.1452201262390541,-0.4359044863100502,46.42466,51.06504,181.9638,0.3899797,-0.3623843,0.8320864,15
19.6,8.207569,1.74528,-2.109598,-0.3169949004339234,-0.156848240164096,-0.4495178951923521,49.83169,51.11507,181.572,0.3860138,-0.3853963,0.8206034,15
19.62,8.176967,1.163818,-2.121174,-0.3071309812607512,-0.1640174820168957,-0.4603492380588058,46.36131,50.09824,180.3844,0.3880152,-0.3579123,0.8333613,15
19.64,8.265946,1.364214,-2.059439,-0.2926870548292812,-0.1701428907884984,-0.4684528614976871,49.70537,50.10307,179.9323,0.3844448,-0.3805219,0.8219255,15
19.66,8.355017,1.561699,-1.998001,-0.2642520457658632,-0.2638364665995347,-0.4677386214003566,53.04839,50.06415,179.4464,0.3805404,-0.4027955,0.8097811,15
19.68,8.444036,1.756286,-1.936956,-0.2221000645483333,-0.2402888690927826,-0.4601829838571711,56.39009,49.97048,178.9147,0.3763056,-0.424714,0.7969394,15
19.7,8.560842,1.164157,-1.83792,-0.1761832016456137,-0.2153978111691715,-0.4504905135736017,59.6361,45.46623,174.1108,0.3583949,-0.4407898,0.7892812,15
19.72,8.647954,1.357761,-1.778264,-0.1082036713682079,-0.2696784782707181,-0.4267919142767886,62.88478,44.7471,172.9036,0.3539827,-0.4613498,0.7751398,15
19.74,8.734827,1.548618,-1.719118,-0.0499621498716922,-0.2342635502273715,-0.4108937687038134,66.12324,43.76865,171.444,0.3492746,-0.4815154,0.7603557,15
19.76,8.915918,1.199917,-1.570739,0.0096298828324172,-0.197887177838564,-0.3938562786886885,60.97408,35.9779,166.7191,0.3201506,-0.4485298,0.7960013,15
19.78,9.00225,1.384046,-1.510837,0.0702623810336779,-0.1637228785131398,-0.3757141850241661,64.03853,34.26284,164.4046,0.3161871,-0.4681098,0.7815695,15
19.8,9.087918,1.565464,-1.451756,0.1316385787333982,-0.1499723985251069,-0.3564894133922415,67.06369,32.01965,161.5697,0.3119671,-0.4873053,0.7665093,15
19.82,9.172791,1.740554,-1.39358,0.1994911962338557,-0.2273023068728814,-0.3317337850658556,70.03147,29.02411,157.9893,0.3074966,-0.5061007,0.7508343,15
19.84,9.343634,1.301121,-1.255001,0.2592650485762402,-0.1889624932513134,-0.3152684204180318,43.13801,43.41026,173.9349,0.3615208,-0.3228833,0.8556372,15
19.86,9.43343,1.475442,-1.190762,0.3189796371967164,-0.1503003058732384,-0.298142064471768,46.36441,43.19794,173.1543,0.3596351,-0.3451589,0.8445339,15
19.88,9.52213,1.646774,-1.127729,0.3816673521418159,-0.1805846394750729,-0.2818185714080229,49.58743,42.90406,172.3052,0.3574519,-0.3671442,0.8327384,15
19.9,9.609592,1.797105,-1.065991,0.4355300475489823,-0.1417123741217521,-0.2716944688292979,52.8065,42.51048,171.3684,0.3549744,-0.3888255,0.8202587,15
19.92,9.660275,1.331347,-1.067325,0.4885824772351026,-0.1032032247487904,-0.2614425635651087,20.14231,51.86456,176.6055,0.435039,-0.144442,0.8828009,15
19.94,9.761275,1.499491,-0.999651,0.5403546897790168,-0.0679929492095277,-0.2512010685229817,23.67227,52.13268,176.4234,0.4356092,-0.1707397,0.8759459,15
19.96,9.860752,1.664001,-0.9334807,0.5804803482900212,-0.0577270483475973,-0.2434179975505577,27.20396,52.39544,176.2535,0.4357567,-0.1968783,0.86825,15
19.98,9.945442,1.341804,-0.9092069,0.6178329676753167,-0.0459408658172942,-0.2363114178857478,358.4664,58.3404,178.2188,0.4871214,0.01925917,0.8730935,15
20.0,10.05012,1.507411,-0.8435141,0.6518709831558938,-0.0354948838975712,-0.2300347609482162,2.028179,58.67607,178.3506,0.4900559,-0.008375831,0.8713926,15
20.02,10.15306,1.669284,-0.7793912,0.6826132296249572,-0.0951615580178659,-0.2224154259541897,5.5881,59.02103,178.5038,0.4925097,-0.03599483,0.8688431,15
20.04,10.25407,1.827575,-0.7169518,0.7124398887900125,-0.0623989249298859,-0.2152483310876598,9.146008,59.37807,178.6799,0.4944808,-0.06357098,0.8654484,15
20.06,10.34908,1.351676,-0.6773784,0.7371290433993454,-0.0304953295732054,-0.2093740687459581,353.4482,61.60509,179.5162,0.5110326,0.05124108,0.8576497,15
20.08,10.45582,1.512547,-0.611571,0.7561153749850844,-0.0021615340291718,-0.2049819616306281,357.0212,61.91239,179.8347,0.5141762,0.02303144,0.8572896,15
20.1,10.56055,1.669582,-0.5475024,0.7688731865172287,0.0048796772592892,-0.2022307651946047,0.5913025,62.23881,180.172,0.5168092,-0.005193069,0.8560839,15
20.12,10.58407,1.301982,-0.5447199,0.757073958507605,-0.0027321701047751,-0.2105284876002069,357.3898,63.04005,181.1606,0.5228308,0.01412133,0.8520721,15
20.14,10.68927,1.466326,-0.4824911,0.7409305415102629,-0.0078098599697052,-0.2201792460095799,0.9411816,63.36795,181.4944,0.5250803,-0.01383759,0.8509133,15
20.16,10.79263,1.627022,-0.4218193,0.7199463781595856,-0.0131214405281044,-0.2313458814069965,4.489542,63.71722,181.8494,0.5268144,-0.04177516,0.8489246,15
20.18,10.89394,1.784227,-0.3628108,0.6744434262652932,-0.0923301753079234,-0.2505700417607872,8.034591,64.09071,182.2285,0.5280319,-0.06966401,0.8461088,15
20.2,10.99303,1.793684,-0.3055649,0.6476590033912266,-0.0708380732422039,-0.2598218735716227,11.57599,64.49176,182.6351,0.5287321,-0.09747691,0.8424692,15
20.22,10.87925,1.268236,-0.3603695,0.6172775382886819,-0.0483692721644956,-0.270159126874916,8.20924,64.48938,182.9131,0.5304568,-0.07404663,0.8443061,15
20.24,10.98672,1.43691,-0.2996242,0.5827986135543852,-0.0277074473583704,-0.2817444429490814,11.83087,64.88206,183.2668,0.5308789,-0.102151,0.8406848,15
20.26,11.0925,1.601858,-0.2402749,0.5301158544160927,-0.0344091630467868,-0.2992404658997587,15.44889,65.30362,183.6515,0.5307597,-0.1301436,0.8362117,15
20.28,11.19641,1.763219,-0.1824312,0.475084240232396,-0.0367932352918194,-0.3174885023019239,19.06366,65.75863,184.0711,0.5300987,-0.1579985,0.8308917,15
20.3,11.06984,1.217411,-0.2313858,0.4172741343788515,-0.0378086082740046,-0.3366176152617727,16.07283,65.18242,183.8114,0.5291399,-0.1354596,0.8363038,15
20.32,11.1752,1.395831,-0.1739967,0.3340019214065308,-0.118790049593468,-0.3639163286916649,19.66017,65.6119,184.1362,0.528315,-0.1626689,0.830969,15
20.34,11.2794,1.570714,-0.117635,0.2844397796412405,-0.0946435712106203,-0.3736623960950966,23.24396,66.0738,184.4981,0.526963,-0.1897085,0.8248101,15
20.36,11.21127,1.179874,-0.1319086,0.2338618285565585,-0.0678360698436911,-0.3834617828944396,21.55618,62.95568,184.1228,0.5068884,-0.1778345,0.8407675,15
20.38,11.31378,1.366585,-0.07677621,0.1818878092528406,-0.041381271908158,-0.3934246808912713,25.09222,63.33863,184.2595,0.5052549,-0.2037961,0.8344342,15
20.4,11.41558,1.549956,-0.02238169,0.1281575310850813,-0.033316877004933,-0.4036401995962083,28.62628,63.74296,184.4273,0.5031343,-0.2295543,0.8273017,15
20.42,11.51651,1.730055,0.03117874,0.0688578034252669,-0.0406753117633146,-0.412266053952641,32.15777,64.17384,184.6303,0.5005295,-0.2550806,0.8193789,15
20.44,11.42548,1.137839,0.01594611,0.0115156456800677,-0.0430097099375695,-0.419524566021448,30.0238,58.98697,183.7378,0.467917,-0.2408419,0.844418,15
20.46,11.52433,1.333405,0.07004633,-0.0441797794878189,-0.0435749645783957,-0.4255304441609534,33.49436,59.24009,183.5966,0.465189,-0.2652231,0.8365096,15
20.48,11.62297,1.525827,0.1236943,-0.0895045258973752,-0.0435661548167806,-0.4256840880056451,36.96442,59.49326,183.4684,0.4620293,-0.2893521,0.8278297,15
20.5,11.72124,1.715136,0.1768004,-0.1313491082139877,-0.0389119363109791,-0.4240848162252499,40.43392,59.74853,183.354,0.4584412,-0.3132065,0.8183869,15
20.52,11.65192,1.118223,0.1522088,-0.1699919357748949,-0.0329740743922907,-0.4208618176095737,39.60017,57.09505,182.7102,0.4424725,-0.3081059,0.8300863,15
20.54,11.74886,1.317436,0.2046349,-0.2057071309666081,-0.0290628354671404,-0.4161353353936887,43.00306,57.19042,182.3606,0.4385868,-0.330923,0.8203599,15
20.56,11.84579,1.513638,0.2567274,-0.2298832361556742,-0.0270126751969731,-0.4059279233178222,46.40535,57.26119,181.9982,0.4343079,-0.3534379,0.8099032,15
20.58,11.94254,1.706843,0.3084015,-0.2499512486394031,-0.0208709733054811,-0.3938540138703481,49.80691,57.30323,181.6176,0.4296404,-0.3756306,0.7987263,15
20.6,11.95254,1.112919,0.319493,-0.2661644615940619,-0.0140576145852582,-0.3800571011550983,48.06388,55.93546,179.5708,0.4296672,-0.3580773,0.8059328,15
20.62,12.04752,1.313234,0.3709466,-0.2667384717649481,-0.0951998369457019,-0.3571101230483856,51.39954,55.86942,179.0587,0.425257,-0.3796462,0.7943913,15
20.64,12.14255,1.510654,0.4221064,-0.2466835022759839,-0.0612080623256343,-0.3224413023839167,54.7337,55.74623,178.4988,0.4204793,-0.4008815,0.782168,15
20.66,12.30621,1.102144,0.5163043,-0.2231296481755866,-0.026380215206256,-0.2865894112285054,59.62518,52.44167,174.1322,0.4056844,-0.4257986,0.766109,15
20.68,12.39956,1.295754,0.5650685,-0.1963344771679271,0.005973821396718,-0.2496930977987688,62.86876,51.7238,172.9444,0.4003571,-0.4454993,0.7523315,15
20.7,12.49261,1.48663,0.6133679,-0.1665500052884239,0.017517024003674,-0.2118818865548662,66.10228,50.7496,171.5069,0.3946962,-0.46482,0.7379339,15
20.72,12.71695,1.128597,0.7454855,-0.1283539654103287,0.0265420842195767,-0.1706783015081894,60.9772,43.41533,166.7397,0.3710234,-0.4314333,0.7735974,15
20.74,12.81003,1.312716,0.7940097,-0.087840021383148,0.0374972109715444,-0.129122176824912,64.04329,41.70381,164.4472,0.3660653,-0.450119,0.7594927,15
20.76,12.90234,1.494131,0.841816,-0.0452534208327612,0.0471530434879779,-0.0873500820157822,67.07052,39.46704,161.637,0.3608111,-0.4684362,0.7447788,15
20.78,12.99374,1.672906,0.8888368,-0.0046765058882911,0.0664464945064076,-0.0527731913221507,70.04103,36.4812,158.0842,0.3552673,-0.486369,0.7294689,15
20.8,13.08411,1.742448,0.9350087,0.037019460824307,0.0870913842381007,-0.0188446849849462,72.92577,32.3838,153.4253,0.3494366,-0.5039048,0.7135753,15
20.82,13.21587,1.211765,1.011793,0.0795665472005517,0.105969215739127,0.014263518090638,43.14708,51.43578,173.9504,0.4204598,-0.3095161,0.8282407,15
20.84,13.31344,1.386065,1.063298,0.1227153703067251,0.1205646873936603,0.0463968364841466,46.37483,51.21912,173.1867,0.4177174,-0.3308221,0.8173404,15
20.86,13.40975,1.557379,1.11377,0.1567724332374398,0.1310604605860562,0.0636811817016428,49.59919,50.92201,172.3551,0.4146301,-0.35185,0.8057712,15
20.88,13.52847,1.257111,1.153221,0.1912997561010674,0.1421451308177865,0.0790490443365558,20.15505,58.06562,176.5757,0.4821809,-0.1386478,0.857931,15
20.9,13.63657,1.425309,1.208878,0.2259080855233755,0.1507841525726193,0.0922591348116145,23.68416,58.3063,176.3624,0.482226,-0.1639956,0.8511303,15
20.92,13.74297,1.589872,1.263238,0.2597113270125644,0.0892965853121793,0.1038853513218924,27.21504,58.53891,176.159,0.4818047,-0.1891924,0.8435128,15
20.94,13.84747,1.750951,1.316201,0.2993467913299676,0.119471329571299,0.1227641094050035,30.74577,58.76473,175.9653,0.4809197,-0.2142019,0.835089,15
20.96,13.919,1.279203,1.356737,0.3370196038996136,0.1483073193952969,0.1386792848214513,354.5223,64.24957,178.413,0.5305462,0.04781954,0.8461956,15
20.98,14.02968,1.444054,1.412282,0.3722659881611028,0.1730110794343519,0.1513915164877854,358.0852,64.55855,178.5694,0.5337541,0.0207914,0.8453827,15
21.0,14.13843,1.605158,1.466422,0.4066164883167569,0.2482644545148654,0.166732034494461,1.646178,64.87688,178.745,0.5364385,-0.006249338,0.8437463,15
21.02,14.24877,1.295968,1.535317,0.4192166458196324,0.2221256435178319,0.1726652917973392,353.4515,65.31833,179.5004,0.5385448,0.05043341,0.8406478,15
21.04,14.35976,1.456835,1.593786,0.4294680139033229,0.1956554058601426,0.1764832496570794,357.0282,65.61131,179.8035,0.5415708,0.02272426,0.8402535,15
21.06,14.46864,1.613862,1.650673,0.4369325864599336,0.1660184009546244,0.1779603339171828,0.6022104,65.92247,180.1243,0.5440589,-0.004999524,0.83903,15
21.08,14.57517,1.767224,1.705875,0.4256808050853236,0.1533561735668378,0.1731109238453856,4.173357,66.25417,180.4653,0.5460072,-0.03271037,0.8369791,15
21.1,14.67916,1.810445,1.759297,0.4111939052245463,0.1424372059990339,0.1656455884483316,7.74139,66.60912,180.8292,0.5474144,-0.06038109,0.8341038,15
21.12,14.56629,1.250559,1.714872,0.3930241148017512,0.1304807355375963,0.1553470146240634,359.3525,66.24073,181.3815,0.5464084,-0.001855383,0.8374133,15
21.14,14.67519,1.41537,1.771262,0.3826096475983038,0.1929222627571394,0.150943230083977,2.924327,66.56376,181.7083,0.5482008,-0.02950697,0.8358247,15
21.16,14.78218,1.576509,1.826227,0.3437624379201565,0.1578682254859062,0.1358692236724763,6.493143,66.90862,182.0569,0.5494503,-0.0571216,0.8334129,15
21.18,14.75111,1.232177,1.834333,0.3026372440186851,0.1245851986680915,0.1189592543779942,8.209397,66.40347,182.884,0.5445039,-0.07361955,0.8353238,15
21.2,14.86098,1.400883,1.890737,0.2588434511613755,0.0901693759321896,0.1000507294221193,11.83587,66.77541,183.2077,0.544745,-0.1013748,0.831779,15
21.22,14.96911,1.565858,1.945831,0.1898015741010041,-0.0022056614002149,0.0709130667260856,15.45909,67.17403,183.5607,0.5444309,-0.1290191,0.8273908,15
21.24,15.07528,1.727243,1.999516,0.1507268325320327,0.0085805524867364,0.0567989660373119,19.07922,67.60374,183.9471,0.5435616,-0.1565276,0.8221644,15
21.26,14.95965,1.190976,1.973306,0.109712984716606,0.020921081742404,0.0410298675837684,16.07208,66.616,183.7932,0.5395827,-0.1347636,0.8296116,15
21.28,15.06664,1.369426,2.027599,0.0663638059951869,0.0319366211889812,0.023464094499311,19.66183,67.02402,184.0984,0.5385662,-0.1617203,0.8243725,15
21.3,15.17244,1.54434,2.080914,0.0203109705574262,0.0237276946709735,0.0039842058650926,23.24828,67.46263,184.4389,0.5370126,-0.1885083,0.818316,15
21.32,15.11924,1.160905,2.082342,-0.0364343241890825,0.0034492113114981,-0.0175647716117611,21.55324,64.12773,184.1119,0.5154814,-0.1770649,0.8355361,15
21.34,15.22295,1.347637,2.135099,-0.0922867743684312,-0.0124576564455213,-0.0391313688637291,25.09002,64.49037,184.2362,0.51366,-0.2028306,0.8292997,15
21.36,15.32595,1.53103,2.18715,-0.147585060907545,-0.0271147928330632,-0.0608246457088375,28.62495,64.87291,184.3899,0.511344,-0.228394,0.8222696,15
21.38,15.42805,1.711153,2.238401,-0.2003517778990886,-0.0413184156225267,-0.0801386188017598,32.15743,65.2803,184.5769,0.5085366,-0.2537276,0.8144542,15
21.4,15.52906,1.78142,2.288771,-0.2506153742187793,-0.0509063262125576,-0.0985564860930701,35.68759,65.71877,184.8026,0.5052407,-0.2788105,0.8058606,15
21.42,15.35192,1.128771,2.238159,-0.298670403593793,-0.059135213464504,-0.1161781252404293,30.02135,59.86605,183.7283,0.4744044,-0.2400101,0.8407996,15
21.44,15.45167,1.324362,2.290476,-0.3448038881587121,-0.0692100541581667,-0.1330917126414403,33.4914,60.09755,183.5757,0.4714878,-0.264239,0.8329897,15
21.46,15.5512,1.516813,2.342357,-0.3778452825323151,-0.0787538830413421,-0.1461411374979845,36.96094,60.32732,183.4341,0.4681343,-0.2882166,0.8244124,15
21.48,15.54215,1.117156,2.353281,-0.4068799544175654,-0.0839574076485148,-0.1577923854668781,39.59287,57.51276,182.6972,0.4455419,-0.3074822,0.8284697,15
21.5,15.63961,1.316402,2.404659,-0.4321836247046637,-0.0881964320078329,-0.1681509105941013,42.99506,57.58207,182.3313,0.4414861,-0.3302093,0.8188368,15
21.52,15.73705,1.512637,2.455717,-0.4582148583248941,-0.1786497841106051,-0.1782836712488128,46.39654,57.62387,181.9493,0.4370352,-0.3526351,0.8084754,15
21.54,15.83431,1.705879,2.506371,-0.4559601259984478,-0.1508893168588544,-0.1756444620566308,49.79716,57.63317,181.5451,0.4321935,-0.3747396,0.7973955,15
21.56,15.86022,1.112939,2.528408,-0.4491673867587962,-0.1212873876196695,-0.171258413117651,48.05381,56.25274,179.5678,0.4319228,-0.3574569,0.8047667,15
21.58,15.95554,1.313272,2.579153,-0.4381035944858182,-0.0931967456599852,-0.1652218977442497,51.38898,56.16407,179.0459,0.4273586,-0.3789849,0.7933074,15
21.6,16.0509,1.510713,2.629617,-0.4230292518145564,-0.084996640640917,-0.1576241095702322,54.72247,56.0155,178.4733,0.4224254,-0.4001801,0.7811679,15
21.62,16.23129,1.102153,2.733221,-0.3878233817130003,-0.0900127549593744,-0.1390026208422712,59.6145,52.71174,174.1352,0.4074946,-0.4251241,0.765201,15
21.64,16.32486,1.295781,2.781469,-0.3484574576848565,-0.0923202200862416,-0.1190189033557409,62.85756,51.97269,172.9404,0.4020233,-0.4448125,0.7514988,15
21.66,16.41813,1.486678,2.829266,-0.305202246955341,-0.0952581646802422,-0.0977600470303654,66.09022,50.97396,171.4925,0.3962176,-0.4641219,0.7371777,15
21.68,16.51095,1.674875,2.876546,-0.2544294032517866,-0.0859507443608265,-0.0717909604443878,69.30848,49.59753,169.6725,0.3900825,-0.4830402,0.722248,15
21.7,16.60318,1.753751,2.923239,-0.2013127375018664,-0.0744752310756309,-0.0450871386173284,72.50466,47.6403,167.2766,0.3836232,-0.501552,0.7067226,15
21.72,16.76446,1.1439,3.028478,-0.146116581107234,-0.0640511405512161,-0.0177255753479268,58.44811,44.04088,167.7763,0.3735437,-0.4151988,0.7849643,15
21.74,16.8582,1.325794,3.077028,-0.1088525548759777,0.0240920177109288,-0.0024262073129092,61.52161,42.57976,165.7349,0.3687606,-0.4341235,0.7714131,15
21.76,16.95107,1.504952,3.124809,-0.0574962282096112,0.0213016330471061,0.0194076760554388,64.56342,40.70348,163.2866,0.3636803,-0.4526935,0.7572452,15
21.78,17.11609,1.211595,3.215532,-0.0053553684926037,0.0186761206957563,0.0414611320378096,43.17834,51.38527,173.9481,0.4200696,-0.3098279,0.8283257,15
21.8,17.21393,1.385751,3.267509,0.047269141816792,0.0130892464172368,0.0636223964766358,46.4215,51.15166,173.1823,0.4171999,-0.331276,0.8174234,15
21.82,17.31049,1.556899,3.318455,0.1036270663014198,-0.0493151075818419,0.0852936556927835,49.66111,50.83588,172.3465,0.4139833,-0.3524435,0.8058465,15
