t,pX,pY,pZ,aX,aY,aZ,reX,reY,reZ,rtX,rtY,rtZ,ID
6.54,-41.16938,1.126238,-37.88897,2.939902504821057,-0.0980330197499547,0.9621508184582854,12.3141,355.5214,159.7425,-0.019395,-0.1123337,0.9787261,18
6.56,-41.04111,1.343212,-37.92746,2.9139315487877173,-0.0970160712247206,0.939562536214873,10.54204,355.4709,156.1745,-0.01955068,-0.0979402,0.9743137,18
6.58,-40.9211,1.548304,-37.86203,2.9021940632173315,-0.1420403276480804,0.9299542484300538,12.02896,355.4178,152.6492,-0.01387661,-0.1111272,0.96652,18
6.6,-40.7644,1.750203,-37.79184,2.8789896022800754,-0.1578001522598972,0.9171850066286796,13.55066,353.3075,147.8974,-0.02313832,-0.1292103,0.9545801,18
6.62,-40.69342,1.167743,-37.62998,2.844760287858076,-0.1459581213120851,0.9013815156570572,15.29134,3.854621,160.5833,0.05527858,-0.1254459,0.9756089,18
6.64,-40.62219,1.373489,-37.61012,2.824320154467228,-0.1824817446909866,0.8908809864493783,15.96692,3.477386,158.4269,0.05549716,-0.1307471,0.9715744,18
6.66,-40.55072,1.577816,-37.59013,2.7955758117290905,-0.1906309300264251,0.876878782402577,16.65034,3.072212,156.2595,0.05572949,-0.1361877,0.9671573,18
6.68,-40.53013,1.167939,-37.48014,2.7587498952710847,-0.1721266295392669,0.8597879553872456,18.18589,11.20189,166.7524,0.113872,-0.1451155,0.9743803,18
6.7,-40.51813,1.364125,-37.45098,2.714080988060547,-0.1285939381776117,0.8397447877352544,19.12942,10.72246,166.5266,0.1109063,-0.1534841,0.9731852,18
6.72,-40.37348,1.1918,-37.35556,2.6703714332101267,-0.1660136751827245,0.8211471332810589,12.23471,18.1362,169.7047,0.1655206,-0.09074838,0.9764116,18
6.74,-40.35706,1.386042,-37.32214,2.619567546425136,-0.1754430175173018,0.8009274182769959,13.35835,17.55747,169.4608,0.1614995,-0.1005397,0.9757988,18
6.76,-40.34071,1.579897,-37.28862,2.561922626022123,-0.1585452301657512,0.7791672616788148,14.49674,16.97321,169.1936,0.1574989,-0.1104493,0.9750336,18
6.78,-40.32453,1.773396,-37.2551,2.511160128298917,-0.193325584043516,0.7638934607407393,15.63895,16.38202,168.9102,0.1535005,-0.1203956,0.9741338,18
6.8,-40.13973,1.227977,-37.15254,2.453828850625168,-0.2007699189681582,0.748510943048645,1.15349,27.19817,174.2007,0.2353086,0.002122439,0.9705517,18
6.82,-40.11385,1.411842,-37.08822,2.3901199109133904,-0.1825261085220074,0.7330387342058398,3.232278,26.53198,174.229,0.2304719,-0.01586877,0.971369,18
6.84,-40.08835,1.594488,-37.02427,2.32573404885487,-0.2208661403550038,0.7178707722354458,5.325675,25.84633,174.2172,0.2254025,-0.03395504,0.971855,18
6.86,-39.83835,1.282662,-36.90712,2.2564388606266945,-0.2318963356932142,0.7037113822815995,353.7939,33.53243,179.687,0.2879017,0.0526172,0.9561252,18
6.88,-39.77905,1.460246,-36.84635,2.18249887896435,-0.2173281586299344,0.6905369320553172,356.0898,33.64224,179.2321,0.2889909,0.03459378,0.9567005,18
6.9,-39.72326,1.638907,-36.79521,2.104098199947244,-0.17880292817999,0.6782899343686664,358.1591,33.71527,178.7104,0.2897659,0.0186362,0.9568968,18
6.92,-39.66174,1.267445,-36.86288,2.017174365930516,-0.2222129800075629,0.6572533692615439,357.614,39.3708,180.9641,0.3369353,0.01676928,0.94126,18
6.94,-39.61885,1.452173,-36.81756,1.9286004302959243,-0.2382221758157779,0.6388285447688178,359.3778,39.46988,180.8501,0.337693,0.002605505,0.9412115,18
6.96,-39.57627,1.635913,-36.77255,1.8384166914765616,-0.2285732656649131,0.6228725319773387,1.146668,39.56538,180.7436,0.3383685,-0.01161177,0.9409381,18
6.98,-39.53399,1.818678,-36.72789,1.7374184654403493,-0.27216379787633,0.5995578284339071,2.920186,39.65772,180.644,0.3389616,-0.02587536,0.9404384,18
7.0,-39.50631,1.24419,-36.79204,1.6365554122589288,-0.2877077472170107,0.5797221372691181,6.742479,44.86244,182.7157,0.3795187,-0.06336717,0.9230114,18
7.02,-39.45766,1.427692,-36.73817,1.5358488938629478,-0.2769967054960487,0.5632185037532604,8.837214,44.9753,182.8423,0.3794647,-0.08062074,0.9216633,18
7.04,-39.40901,1.610316,-36.6867,1.42234609926592,-0.3219073449609118,0.5367124859327417,10.89559,45.14713,182.9411,0.3797598,-0.09744339,0.9198492,18
7.06,-39.40065,1.208141,-36.7659,1.3104669047788224,-0.3374826161659306,0.5140484002780461,13.32428,49.58442,183.4986,0.413088,-0.1179869,0.9027693,18
7.08,-39.34592,1.395792,-36.71711,1.2002921857078297,-0.3255676997742339,0.4951331064071302,15.48362,49.35175,183.5072,0.4097396,-0.1350101,0.901701,18
7.1,-39.11678,1.57725,-36.75734,1.0919316269220598,-0.2879551845821102,0.4798787320262052,19.67966,48.85551,178.4279,0.4095584,-0.1499919,0.8960358,18
7.12,-38.93628,1.17543,-36.93049,0.964399390831491,-0.3333780952055556,0.4483628488559104,20.31347,51.41011,180.1509,0.4267319,-0.1594528,0.8870186,18
7.14,-38.80153,1.364005,-36.92098,0.8410832822360348,-0.3481101132388854,0.4215848780834283,23.64404,51.1996,177.7628,0.426444,-0.1764694,0.8808088,18
7.16,-38.66767,1.54813,-36.91235,0.722186496498046,-0.3340709479288649,0.3995426170326546,26.9634,50.82497,175.2894,0.4256083,-0.1932495,0.873499,18
7.18,-38.84293,1.145833,-36.86908,0.5935141215506823,-0.3770998227752322,0.3690909245189893,23.67996,54.13264,184.617,0.4376199,-0.200498,0.8745884,18
7.2,-38.78298,1.338592,-36.80636,0.4713141639764009,-0.3883094815480772,0.3447248814041082,26.23069,55.07424,185.2331,0.4406088,-0.2215512,0.8674707,18
7.22,-38.6855,1.530712,-36.74919,0.3557282255995346,-0.3696953661388203,0.3262961390438557,29.18659,55.82765,184.9556,0.4429912,-0.2420197,0.8594449,18
7.24,-38.61467,1.128956,-36.79113,0.2389422794435409,-0.4072135490536292,0.3053205651871886,30.96586,52.69015,181.9883,0.4234568,-0.2466092,0.8655423,18
7.26,-38.55844,1.331532,-36.79948,0.1300867019954248,-0.4121639638266894,0.2908663790490164,32.01573,52.27044,180.5033,0.4223192,-0.2494309,0.8634706,18
7.28,-38.50288,1.533358,-36.80907,0.0293868079054737,-0.386606992481353,0.2829338188026575,33.12024,51.70755,178.9741,0.4202675,-0.2527411,0.8614355,18
7.3,-38.44725,1.734418,-36.81874,-0.0630685427123909,-0.3325233135823375,0.2812963960655406,34.21441,51.10216,177.4131,0.4181181,-0.256019,0.8592005,18
7.32,-38.49115,1.115337,-36.78124,-0.1583554363360777,-0.3630489410451426,0.2717505731223468,39.05049,53.35323,181.7985,0.4183978,-0.3052498,0.8444215,18
7.34,-38.46038,1.317688,-36.78571,-0.2435924711760897,-0.3605633651031972,0.2697032838702577,39.62188,53.0014,180.9137,0.4173687,-0.3066447,0.8431426,18
7.36,-38.42907,1.519854,-36.78965,-0.3185974668212878,-0.3271399810457722,0.2748591906659481,40.25037,52.65831,180.0226,0.416386,-0.308461,0.8415682,18
7.38,-38.36119,1.110692,-36.72113,-0.3820737402053469,-0.3499443658531858,0.2853562509373475,45.40792,53.31479,179.8524,0.4143331,-0.3444097,0.8242297,18
7.4,-38.33719,1.311823,-36.71105,-0.4349272662775494,-0.3398882088382847,0.3030969967423953,46.12554,52.88461,179.5985,0.410933,-0.3493193,0.8232047,18
7.42,-38.31208,1.512918,-36.70036,-0.4768932638481944,-0.2990330394549831,0.3280937231425938,46.92678,52.42685,179.3104,0.4073352,-0.354769,0.8219001,18
7.44,-38.11688,1.105042,-36.58101,-0.4901016289451529,-0.3122494783747182,0.3726280469347491,57.26251,49.60558,174.9379,0.3870506,-0.4182862,0.7871041,18
7.46,-38.09391,1.304152,-36.56583,-0.4930780002544646,-0.2939204733725609,0.4236863098141432,58.05449,49.1338,174.7517,0.3833552,-0.4241946,0.7851663,18
7.48,-38.05526,1.502472,-36.54187,-0.4855436874285654,-0.2460099386012076,0.4812719807170564,59.35991,48.54539,174.3287,0.3790415,-0.4331615,0.7809622,18
7.5,-38.02198,1.700506,-36.52057,-0.4672288896438221,-0.1704121852793306,0.5453372253340225,60.56921,47.95969,173.919,0.3748981,-0.4415055,0.7770168,18
7.52,-37.81267,1.138013,-36.38974,-0.4295999816930882,-0.1661973062243197,0.6192938954156411,58.90636,39.85385,168.0382,0.3433247,-0.4288334,0.7967061,18
7.54,-37.78509,1.334001,-36.37122,-0.3807207453971388,-0.1319336288571526,0.7001235272080546,59.86153,38.8798,167.375,0.338414,-0.4359425,0.7940101,18
7.56,-37.75799,1.529817,-36.35242,-0.3203255214086855,-0.0694911851838865,0.7877746958086576,60.78744,37.98407,166.7287,0.3341126,-0.4427554,0.7911243,18
7.58,-37.56414,1.211402,-36.22485,-0.2545705569916636,-0.0790613759265473,0.8898451786992885,45.90468,44.80045,173.9713,0.3693783,-0.3415886,0.8423554,18
7.6,-37.5446,1.406108,-36.20567,-0.1954700627046532,-0.0927882226831813,0.9904950837811805,46.70132,44.37917,173.8632,0.3658875,-0.3479165,0.84087,18
7.62,-37.52513,1.600632,-36.18646,-0.1494076454977593,-0.1138959367955419,1.088356381332976,47.49902,43.95082,173.7464,0.3623804,-0.3542388,0.8393282,18
7.64,-37.33335,1.269091,-36.10916,-0.098855273298823,-0.0954693913711542,1.1645023400179566,23.78063,50.53062,176.2675,0.4234993,-0.1726293,0.8816043,18
7.66,-37.29077,1.459945,-36.09157,-0.0492020632605427,-0.0807435561662734,1.2450872468809653,25.00889,49.84686,175.7972,0.4183339,-0.1811339,0.8814191,18
7.68,-37.24871,1.649903,-36.07216,-0.0010424303355165,-0.0731973959248936,1.3296830768237689,26.28127,49.28768,175.3196,0.4141567,-0.1898822,0.8805084,18
7.7,-37.20714,1.839358,-36.0528,0.0528305509088902,0.0156478694697233,1.4044252969052948,27.55181,48.66938,174.8062,0.4096324,-0.1986127,0.8795897,18
7.72,-37.10556,1.289833,-36.00337,0.1071047867276844,0.0064828124443182,1.466561159263609,0.262817,55.60812,177.734,0.466397,0.007195049,0.8843516,18
7.74,-37.05966,1.477138,-35.9749,0.1503530450200916,0.0480512964771889,1.5217461729106203,1.807128,55.09301,177.5444,0.4626044,-0.004070317,0.8861659,18
7.76,-37.01414,1.663717,-35.94643,0.2006142613187318,0.0849548326332038,1.5781551890263783,3.355339,54.5699,177.333,0.4587011,-0.01534876,0.887804,18
7.78,-36.87379,1.309253,-35.86179,0.2591412690737389,0.0479345798369349,1.6288468764132933,350.4092,57.46961,178.8599,0.4783204,0.07806592,0.8741416,18
7.8,-36.82521,1.491819,-35.82108,0.3252540882368704,0.0042234447314201,1.681197080308574,352.2158,56.84672,178.9104,0.474296,0.06420787,0.8776938,18
7.82,-36.77757,1.67346,-35.78025,0.3736081169578424,0.0610261557278189,1.7241844984108043,354.0123,56.22638,178.9717,0.4701395,0.05028768,0.8810002,18
7.84,-36.69201,1.283561,-35.73669,0.4202636999918736,0.0396095062387709,1.745529684899755,352.6563,57.202,179.8666,0.4776588,0.0567831,0.8762075,18
7.86,-36.63658,1.463072,-35.68809,0.4727626346369016,0.0154617979213942,1.7623738327639726,354.7786,56.46831,179.9972,0.4725841,0.0401419,0.8801078,18
7.88,-36.58138,1.641056,-35.63935,0.4973146997805653,0.05924410602085,1.7658200020525117,356.9206,55.8231,180.1164,0.4679629,0.02326846,0.8833392,18
7.9,-36.52706,1.8177,-35.59076,0.5204813125583652,0.0984163952943242,1.7629990132145616,359.0672,55.20235,180.2147,0.4633116,0.006345659,0.8861561,18
7.92,-36.50378,1.255232,-35.61072,0.5264525418914419,0.037257443733833,1.7296436351296496,0.4148349,56.76714,181.4382,0.4752915,-0.009150714,0.8797316,18
7.94,-36.43611,1.431626,-35.55401,0.5321727518335875,0.0551482560303691,1.7102558711105482,3.017651,55.94354,181.52,0.4685243,-0.02947201,0.8829589,18
7.96,-36.36975,1.606119,-35.49767,0.5295834552111831,0.0202438752153601,1.6740153507135362,5.629838,55.10245,181.5425,0.4613555,-0.04975517,0.8857535,18
7.98,-36.37026,1.232587,-35.5103,0.529906676282569,-0.0162991100369067,1.635192797127507,9.540279,56.00024,183.0343,0.4657393,-0.08578566,0.8806136,18
8.0,-36.29916,1.411082,-35.44992,0.5330673681370026,-0.057953146571343,1.593278848165495,12.34218,55.11188,183.1078,0.4571802,-0.1077402,0.8824466,18
8.02,-36.22946,1.587484,-35.38984,0.5410919789932676,0.0053187653428641,1.5639830602200702,15.14609,54.1995,183.126,0.4481995,-0.129595,0.8837592,18
8.04,-36.25311,1.194926,-35.42344,0.5327942645844992,-0.038075713282613,1.5032157998846252,15.36903,55.2414,183.6547,0.4554411,-0.13307,0.8796095,18
8.06,-36.18216,1.379245,-35.36415,0.5278486992112734,-0.0809734416048464,1.4390467364905437,18.20928,54.30613,183.7223,0.445809,-0.1553595,0.8804622,18
8.08,-36.11234,1.561487,-35.30495,0.5322194972276497,-0.0393131692098158,1.390617908456436,21.0512,53.34695,183.7379,0.4357934,-0.1775419,0.8807507,18
8.1,-36.0436,1.741676,-35.24588,0.5224368047950554,-0.0796841868941093,1.315503361593349,23.89975,52.36709,183.6913,0.4254777,-0.1996157,0.8804254,18
8.12,-36.12532,1.162967,-35.32733,0.4902496588960048,-0.1181010162126795,1.2519577386130347,20.97614,51.16384,183.9532,0.4186714,-0.1787328,0.8890829,18
8.14,-36.05271,1.353294,-35.26832,0.4413052847326986,-0.0707614400791644,1.220288692782094,23.91892,49.98035,183.8093,0.4068224,-0.2014522,0.8891265,18
8.16,-35.98042,1.541416,-35.20889,0.3684147363974235,-0.1072261360062121,1.1746293412958195,26.88051,48.79416,183.5783,0.3949409,-0.2241163,0.888329,18
8.18,-36.01041,1.13332,-35.24206,0.2844389087746846,-0.1407551899110315,1.1364861509059925,27.6955,47.23923,183.8586,0.3814144,-0.2322643,0.8923199,18
8.2,-35.93355,1.329027,-35.17793,0.235025883805684,-0.0871308022009849,1.100514044272118,30.85019,46.39793,183.593,0.3718851,-0.2562564,0.8888834,18
8.22,-35.85733,1.522352,-35.11421,0.1818053924247449,-0.1176208767938256,1.0506401314096454,33.9985,45.43193,183.2281,0.3615485,-0.2799758,0.8849584,18
8.24,-35.83816,1.118974,-35.10997,0.1241496025739019,-0.1455297037416253,1.0001305618918703,37.24152,43.9468,182.9059,0.3469667,-0.3050038,0.8815601,18
8.26,-35.75969,1.318381,-35.04469,0.0657400777264722,-0.0855801135798665,0.9633745784694216,40.48063,42.93734,182.363,0.3366807,-0.3289672,0.8755773,18
8.28,-35.68138,1.515186,-34.97886,0.0086475218118069,-0.0269724040082249,0.9356468396761208,43.71588,41.86163,181.7102,0.3263317,-0.3526485,0.8687546,18
8.3,-35.6043,1.709555,-34.91413,-0.0541591749058483,-0.0844506753933306,0.8993031036463162,46.90636,40.50598,180.8897,0.3146592,-0.3758469,0.8617105,18
8.32,-35.6076,1.114786,-34.94952,-0.11539967902476,-0.1421475876031137,0.873397809804513,44.68924,43.66629,180.9769,0.340959,-0.3558266,0.859745,18
8.34,-35.52672,1.315676,-34.88165,-0.1601927774094447,-0.0809538977601128,0.8510922094557642,48.03044,42.62321,180.356,0.3308001,-0.3801787,0.85143,18
8.36,-35.44644,1.513966,-34.81536,-0.1938178021049807,-0.1062969818971964,0.8414477895597354,51.33115,41.21609,179.5161,0.3189559,-0.4040591,0.8430098,18
8.38,-35.35901,1.107311,-34.76191,-0.2217971214532825,-0.1307520414808244,0.8411857747802998,53.3475,41.7127,177.5533,0.3270206,-0.4126075,0.8314241,18
8.4,-35.27968,1.306001,-34.69552,-0.2494083291760001,-0.0664489478647802,0.8396288777999219,56.62453,40.23876,176.5686,0.3160272,-0.4360689,0.8213986,18
8.42,-35.20076,1.502052,-34.62885,-0.2570255306448592,-0.0835739391474593,0.8622852707950104,59.88816,38.49424,175.3014,0.3047177,-0.4591496,0.8106474,18
8.44,-34.99783,1.10927,-34.47517,-0.2588992505696748,-0.1010887666439174,0.8911426628163266,62.66616,32.80932,167.699,0.2932888,-0.4701262,0.7989355,18
8.46,-34.92101,1.298124,-34.40828,-0.2802497951044356,-0.0313708005012134,0.9099192463570196,65.76518,29.90365,165.2117,0.2823736,-0.4922915,0.7865783,18
8.48,-34.84509,1.484437,-34.34149,-0.2964390696572629,0.0361914656625831,0.9332945427672898,68.79554,26.2241,161.9442,0.2712041,-0.5140174,0.7735576,18
8.5,-34.77028,1.66832,-34.27525,-0.3012457979029537,0.0030492923932857,0.964088344020599,71.71298,21.36091,157.5327,0.2594655,-0.535319,0.7600383,18
8.52,-34.63828,1.161976,-34.1852,-0.3025060592803164,-0.0333331530757056,0.999152788786021,55.74823,30.72596,168.6296,0.2777028,-0.4254067,0.8359267,18
8.54,-34.56316,1.342126,-34.11548,-0.326399974085847,0.037465520880783,1.0219028704760618,58.76265,28.15312,166.538,0.2662509,-0.4477669,0.8253961,18
8.56,-34.48957,1.519813,-34.04643,-0.3308194305946332,0.0387781949808606,1.0526297784038814,61.70566,25.03428,163.9396,0.2541746,-0.4697444,0.8143379,18
8.58,-34.327,1.229397,-33.96491,-0.3314239696322363,0.0369910800614881,1.0884665725344638,37.70469,39.03637,174.6055,0.3301646,-0.2893454,0.8859043,18
8.6,-34.24852,1.40203,-33.88733,-0.3530417559111138,0.105610775240602,1.112815955502465,40.9892,37.36718,173.7176,0.3177892,-0.3147277,0.8798637,18
8.62,-34.1722,1.571765,-33.81044,-0.3581606541515949,0.1015419381455837,1.136134738837037,44.24678,35.482,172.626,0.3047619,-0.339798,0.8731143,18
8.64,-34.05658,1.263973,-33.76598,-0.3586446722849854,0.0932609805238385,1.1642717786975236,13.80876,43.58869,177.073,0.3713144,-0.1021702,0.9203486,18
8.66,-33.97544,1.432178,-33.67925,-0.3801496920046157,0.1560393762389096,1.1881801569711037,17.32899,42.36367,176.748,0.3610474,-0.1302779,0.9198813,18
8.68,-33.89698,1.597086,-33.59365,-0.4016029475528713,0.2125529412447528,1.2159688047679025,20.83492,40.98259,176.2968,0.3495878,-0.1581646,0.9187586,18
8.7,-33.82042,1.758674,-33.509,-0.415051502859614,0.170110050782093,1.2309982817304437,24.33798,39.51125,175.7188,0.3375937,-0.1859089,0.9166923,18
8.72,-33.79274,1.279067,-33.5225,-0.4274781878467886,0.1214594172150233,1.2513728137581452,354.4542,46.00911,178.3118,0.3896485,0.05027571,0.9195749,18
8.74,-33.71085,1.443366,-33.42948,-0.4479194298579361,0.173832369844382,1.272225633192006,358.1062,45.00517,178.2838,0.3824013,0.02099691,0.9237275,18
8.76,-33.63164,1.603983,-33.33765,-0.4582201512493169,0.1512751527006235,1.2844886716032122,1.754813,43.97448,178.1795,0.3745346,-0.008250464,0.9269508,18
8.78,-33.54594,1.295707,-33.29198,-0.4684181427789076,0.1242045394999539,1.300906463296727,353.5233,46.22538,179.4258,0.3916489,0.0539186,0.9183656,18
8.8,-33.46722,1.456002,-33.19413,-0.4928040202587858,0.1702273453784854,1.3126270959538542,357.1781,45.31553,179.5821,0.3850238,0.02412757,0.9225711,18
8.82,-33.39135,1.61256,-33.09786,-0.5103750220762255,0.1381536205017154,1.3071698200720978,0.8302799,44.37334,179.6619,0.3776337,-0.005594743,0.9259222,18
8.84,-33.36274,1.254408,-33.12178,-0.5281039234643767,0.1028131028120244,1.3037246977186188,357.482,46.04771,181.0861,0.391194,0.01651435,0.9199972,18
8.86,-33.28603,1.418492,-33.02717,-0.5517932772655763,0.1464094085876627,1.301411457828079,1.107094,45.11032,181.217,0.3834384,-0.01299499,0.9234549,18
8.88,-33.2121,1.579133,-32.93418,-0.577361565961966,0.185081615614192,1.298971700717,4.729736,44.0481,181.2384,0.3742411,-0.04229864,0.9263502,18
8.9,-33.14085,1.736377,-32.84253,-0.604798792266001,0.1227206521049327,1.263643285236979,8.350419,42.9887,181.1953,0.3647105,-0.07155132,0.9282122,18
8.92,-33.18522,1.237789,-32.92829,-0.6322476410915003,0.0572618048781177,1.2299103542625185,6.214221,44.56063,182.4955,0.3773991,-0.05838794,0.9242082,18
8.94,-33.11087,1.405255,-32.83213,-0.6552616112492164,0.0960252586363999,1.2075779354124077,9.87912,43.43361,182.5845,0.3667473,-0.08828697,0.926057,18
8.96,-33.11292,1.217626,-32.83723,-0.6815860637972966,0.0563822596420411,1.157153599432264,11.91126,43.4516,183.2372,0.3652978,-0.1067486,0.9246683,18
8.98,-33.0413,1.390939,-32.74407,-0.7084036133420688,0.0170963854521081,1.1077128863717776,15.50546,42.09906,183.259,0.3521679,-0.1359657,0.9257436,18
9.0,-32.97146,1.560806,-32.65131,-0.7259993526419324,0.0568311395671553,1.0691930735109754,19.10937,40.76181,183.1967,0.3389549,-0.1651163,0.925647,18
9.02,-32.90387,1.727371,-32.55942,-0.7482736091938005,0.0161089697488006,1.006055691811622,22.71918,39.38976,183.0364,0.3253799,-0.1941326,0.9244918,18
9.04,-32.96607,1.175956,-32.65761,-0.7704050790512493,-0.0229588620486572,0.9436973334743812,18.77681,39.62709,183.9037,0.328999,-0.1647706,0.9295437,18
9.06,-32.89779,1.35947,-32.56744,-0.778707798529354,0.0213724645448842,0.8958626496633038,22.33411,38.0143,183.7757,0.3133141,-0.1935377,0.9291515,18
9.08,-32.83081,1.539757,-32.47685,-0.7868696152821353,0.064015971242785,0.8491154623803077,25.9045,36.41088,183.5392,0.2977558,-0.22222,0.9274943,18
9.1,-32.884,1.153531,-32.55506,-0.8059001645392607,-0.0043481571460717,0.7703903894161219,23.09301,34.79463,183.8218,0.2864131,-0.2006688,0.9364185,18
9.12,-32.81821,1.342988,-32.46397,-0.8225204970465105,-0.0716240584655017,0.6942692950108498,26.66106,33.18049,183.5403,0.2708738,-0.2294467,0.9341376,18
9.14,-32.75367,1.529272,-32.37237,-0.8142656452906718,-0.0277361642220497,0.6417012797855426,30.23922,31.53057,183.1348,0.2553275,-0.2581037,0.9306594,18
9.16,-32.78103,1.128989,-32.42191,-0.8084856829426337,-0.0676820296252686,0.5734194561720027,30.11745,29.55809,183.5735,0.2383798,-0.2587722,0.9353256,18
9.18,-32.71908,1.324911,-32.32815,-0.7991572069768145,-0.1050731493197619,0.5085006998760213,33.69294,28.24222,183.188,0.2255937,-0.2874375,0.9297717,18
9.2,-32.65748,1.517809,-32.23473,-0.7712488992985591,-0.0542864763920455,0.4606365288215537,37.27013,26.72278,182.6324,0.211778,-0.3158378,0.9233771,18
9.22,-32.63216,1.117363,-32.23162,-0.7389512683361761,-0.0879051924041392,0.4033920636554153,39.69263,26.36861,182.5763,0.2070524,-0.3352891,0.9173231,18
9.24,-32.57369,1.317083,-32.14207,-0.7029595757916853,-0.1191582584588874,0.3491824602278761,43.11653,24.78616,181.9635,0.1934253,-0.3622523,0.9095907,18
9.26,-32.51532,1.514073,-32.05251,-0.6549241785912265,-0.0624015706256263,0.3068761436453586,46.53529,22.94268,181.1198,0.1789111,-0.3889028,0.9010435,18
9.28,-32.45728,1.70838,-31.96356,-0.6035118691706973,-0.0066403740319524,0.2677008945955954,49.91934,20.72359,179.9828,0.1631273,-0.415074,0.8918086,18
9.3,-32.45009,1.114024,-32.00167,-0.553155643942254,-0.06649505036195,0.2155470064483462,46.40778,24.11728,180.2148,0.1912909,-0.3856696,0.8989807,18
9.32,-32.39482,1.314986,-31.91382,-0.4992374928467216,-0.125782857098079,0.1665943202031323,49.73687,22.19696,179.443,0.1766507,-0.4118173,0.889904,18
9.34,-32.34045,1.513305,-31.82545,-0.4299283260648172,-0.0700109331895231,0.1358023823571503,53.04562,20.05784,178.4266,0.1618403,-0.4375499,0.8799342,18
9.36,-32.251,1.103898,-31.71582,-0.3430170167157662,-0.0994910500761427,0.1170908098863057,56.53902,20.62367,176.0564,0.1735952,-0.4602692,0.8630738,18
9.38,-32.20021,1.300326,-31.62853,-0.2537556636815394,-0.1283950568388994,0.1002939351674307,59.77801,18.21079,174.7961,0.1593982,-0.4853061,0.8516048,18
9.4,-32.15047,1.494267,-31.54103,-0.1635487646364417,-0.0697599701720353,0.0872882411085735,62.98209,15.38263,173.1021,0.1450606,-0.5098624,0.8393139,18
9.42,-32.00879,1.118315,-31.33183,-0.0533497775761064,-0.0872638308093855,0.0894943937626537,61.79114,10.10504,167.0604,0.1327244,-0.4997067,0.8442312,18
9.44,-31.96427,1.305126,-31.2425,0.057718045653945,-0.1055602301237889,0.0933687509299581,64.82276,6.409346,164.4222,0.1192852,-0.5238232,0.8310641,18
9.46,-31.92109,1.489532,-31.15353,0.1507044622282172,-0.0400243820215567,0.0857073237363614,67.76141,1.886182,160.9431,0.1057446,-0.547438,0.8171166,18
9.48,-31.87931,1.671596,-31.06509,0.2430868315330969,0.023602312029916,0.0786027948939755,70.56413,356.2051,156.2948,0.09211878,-0.5705288,0.8024042,18
9.5,-31.78045,1.178571,-30.94771,0.3419411470045901,-0.0081338989698243,0.0696984184483278,52.02256,11.34635,171.1091,0.1223991,-0.4282012,0.8882553,18
9.52,-31.74191,1.357061,-30.85355,0.4405636571711064,-0.0420558732631999,0.0620934923360669,55.08769,8.723068,169.505,0.1093176,-0.4529887,0.8771682,18
9.54,-31.70498,1.53306,-30.76028,0.5299702077633608,0.0217826748691703,0.051958990307908,58.10163,5.720667,167.5038,0.0961467,-0.4773518,0.8652769,18
9.56,-31.55536,1.240081,-30.63576,0.6262090181092566,0.0173867363604146,0.0365392952830045,31.92015,19.00675,175.3017,0.1697239,-0.2644592,0.9456007,18
9.58,-31.51373,1.410715,-30.52942,0.7219114027394697,0.0118380798385649,0.0221590465784817,35.33542,17.32281,174.6602,0.157312,-0.2930252,0.9388148,18
9.6,-31.47414,1.578205,-30.42446,0.8031839454705954,0.0718351003572954,0.0065965999854613,38.73231,15.51432,173.8615,0.1447476,-0.32128,0.9310482,18
9.62,-31.34726,1.26828,-30.35335,0.8843889548921631,0.0616253111030983,-0.0148474413347505,8.072485,25.286,177.518,0.219769,-0.06393607,0.9727709,18
9.64,-31.30293,1.435681,-30.2424,0.9631553740811918,0.0504852817375116,-0.0370022341983768,11.62012,23.92907,177.3288,0.2084935,-0.09419774,0.9724972,18
9.66,-31.26087,1.599643,-30.13304,1.032961685951653,0.1066011681119868,-0.0554150540640687,15.16122,22.54122,177.05,0.1970011,-0.124347,0.9711582,18
9.68,-31.22112,1.760324,-30.0255,1.093340424567924,0.0929951068205358,-0.083973630081557,18.69361,21.11024,176.6756,0.1853046,-0.1543517,0.9687562,18
9.7,-31.12798,1.285504,-30.03343,1.149947668673243,0.0782952446013017,-0.1142831253372227,353.3017,29.00776,178.6779,0.2493486,0.05943943,0.9665818,18
9.72,-31.0839,1.449263,-29.91996,1.2023793792914903,0.0596052338526546,-0.1467234247641209,356.8825,27.68405,178.7296,0.2388496,0.02906187,0.9706123,18
9.74,-31.04224,1.60946,-29.80831,1.2509593360878388,0.0596358976557569,-0.1755541148005712,0.4625181,26.3668,178.6985,0.2280969,-0.001339373,0.973564,18
9.76,-30.92982,1.282667,-29.7807,1.2946263718376594,0.060302761800766,-0.2069820639918482,353.7872,31.00926,179.734,0.2668015,0.0528379,0.9622239,18
9.78,-30.88655,1.444932,-29.66701,1.3330981533390496,0.0588055307812631,-0.241382667101865,357.3553,29.67968,179.9185,0.2560338,0.02248993,0.966392,18
9.8,-30.84573,1.603648,-29.55524,1.3647352248131623,0.122218052758762,-0.2723846028180099,0.9256065,28.36415,180.02,0.2449947,-0.007874002,0.9694907,18
9.82,-30.74994,1.250404,-29.574,1.3710483144316363,0.0885692213422088,-0.3265991290679024,359.4235,32.79327,181.3586,0.2823189,0.001479166,0.9592343,18
9.84,-30.703,1.415372,-29.46311,1.3732454370565614,0.0556984255533214,-0.3838423099821964,3.01443,31.48605,181.5543,0.2708611,-0.02899273,0.9621637,18
9.86,-30.65844,1.576856,-29.35392,1.3777536919939632,0.0974763749073659,-0.4266669082615864,6.608103,30.18549,181.6678,0.2591121,-0.05942392,0.9640171,18
9.88,-30.61633,1.735032,-29.24667,1.3583744902245312,0.0655480300740251,-0.4850994896693645,10.20238,28.88136,181.6995,0.2470855,-0.0897801,0.9647936,18
9.9,-30.57572,1.232049,-29.3693,1.3355006388759545,0.0350110393389711,-0.5453795173866292,8.271652,34.16948,182.8686,0.2912033,-0.0762513,0.9536138,18
9.92,-30.52432,1.401044,-29.26027,1.3089181459607282,0.0029588721576612,-0.607828408192316,11.90869,32.89737,183.0629,0.2788693,-0.1069816,0.9543437,18
9.94,-30.47521,1.566534,-29.15265,1.2729805470608868,-0.0112595790706727,-0.6594315836441145,15.54803,31.61949,183.1765,0.2662289,-0.1375812,0.9539838,18
9.96,-30.43666,1.199513,-29.2455,1.234276041830236,-0.0221332784337558,-0.7121479663617793,14.78338,36.41786,183.6714,0.3058124,-0.1320733,0.9428338,18
9.98,-30.38034,1.376264,-29.14292,1.203742739785029,0.0201122912402891,-0.7512759157072662,18.38412,35.17046,183.8634,0.2929419,-0.1622462,0.9421194,18
10.0,-30.32601,1.549692,-29.04121,1.1704658038675344,0.0610151030234658,-0.7911634532902627,21.987,33.9082,183.9755,0.279755,-0.1922287,0.9403489,18
10.02,-30.29805,1.168154,-29.11581,1.1003838807694413,-0.004691713946067,-0.8528057782880398,20.16543,35.92532,184.0714,0.297527,-0.177217,0.9378935,18
10.04,-30.23868,1.353119,-29.01962,1.029355209655602,-0.0682488506420341,-0.914116555567968,23.71468,34.64767,184.1267,0.284167,-0.2065197,0.9358646,18
10.06,-30.18092,1.534967,-28.92377,0.9764667903167776,-0.0255389068321199,-0.9470031971733426,27.26316,33.33686,184.0946,0.2705094,-0.2355892,0.9328166,18
10.08,-30.12487,1.713785,-28.82846,0.898586091909976,-0.0658774622467704,-0.9925459987407574,30.80857,31.9787,183.9661,0.2565679,-0.2643884,0.9287555,18
10.1,-30.14747,1.138889,-28.96561,0.8209715900257466,-0.1031212534162931,-1.0359265126916783,26.38518,34.05454,183.9697,0.2773694,-0.2279644,0.9326869,18
10.12,-30.08162,1.331262,-28.87072,0.761367828393134,-0.0560050107240629,-1.05218710477028,30.02097,33.16545,183.838,0.2671944,-0.2573155,0.9276624,18
10.14,-30.01551,1.520265,-28.77506,0.6876386173795215,-0.0927060340816806,-1.0739591383414586,33.69942,32.31165,183.6064,0.2574122,-0.2866571,0.9213551,18
10.16,-29.98746,1.12167,-28.81519,0.615369189408709,-0.1263510314197945,-1.0926433260063662,34.86091,34.20036,183.2784,0.2722366,-0.2942133,0.9140498,18
10.18,-29.91833,1.319383,-28.72659,0.5581549174389493,-0.0727371559831342,-1.0874078170186343,38.42237,33.42369,182.9222,0.263421,-0.3219743,0.906546,18
10.2,-29.8501,1.51397,-28.6382,0.5032016397011216,-0.0198892251877693,-1.0788609680447432,41.96444,32.55087,182.49,0.2541417,-0.3493327,0.8982434,18
10.22,-29.77399,1.114929,-28.63818,0.4327092435168698,-0.0815310298022698,-1.0824125667797175,43.36154,36.69411,181.7859,0.2870038,-0.3551714,0.8837252,18
10.24,-29.70158,1.314995,-28.55477,0.3703977393795798,-0.0532916773119104,-1.0686472390762116,46.83904,36.04021,181.3907,0.2792583,-0.3813815,0.8740364,18
10.26,-29.62901,1.512014,-28.47069,0.3114908175623143,-0.023850368732164,-1.0500897331257293,50.32962,35.35749,180.9084,0.2716366,-0.4073082,0.8633416,18
10.28,-29.55673,1.705981,-28.38653,0.2532040291461697,-0.0814979036455654,-1.026517087740117,53.8203,34.58244,180.3157,0.2638522,-0.4328671,0.8517851,18
10.3,-29.51427,1.109967,-28.41467,0.1979983141143719,-0.1386961498836672,-0.9987156642511428,50.74684,36.21967,178.7064,0.2854339,-0.404092,0.857217,18
10.32,-29.44053,1.309304,-28.33517,0.1534342237818164,-0.0809923293588383,-0.947941393220388,54.14081,35.4734,178.0225,0.2787081,-0.4287078,0.8456034,18
10.34,-29.36665,1.50571,-28.25524,0.1256551491867488,-0.107275852228544,-0.8757458452817986,57.54164,34.62527,177.1953,0.2720163,-0.4529804,0.833084,18
10.36,-29.19104,1.104607,-28.11413,0.1007804404137497,-0.1334209325846684,-0.8000103322673842,61.26768,31.84153,170.9909,0.2737808,-0.4699537,0.8139032,18
10.38,-29.11594,1.295897,-28.04202,0.0735060921907795,-0.0720208557694469,-0.7242512238036962,64.46328,29.62361,168.9771,0.2647729,-0.4924675,0.8009142,18
10.4,-29.04135,1.484503,-27.97,0.0492767529233448,-0.0123307725406771,-0.6456464001574416,67.62536,26.79554,166.3391,0.2555344,-0.5145961,0.7871776,18
10.42,-28.83836,1.143839,-27.80401,0.0314555567546022,-0.0545958573586971,-0.5567735457103882,58.47544,27.50021,167.7054,0.2570187,-0.4494986,0.8302879,18
10.44,-28.76161,1.324884,-27.72766,0.0029799901801981,-0.0138047932151599,-0.4836792811154589,61.6591,25.46555,165.4948,0.2508533,-0.4719907,0.8166183,18
10.46,-28.68559,1.502989,-27.65199,-0.0224050266195976,0.0269710315118035,-0.4098578498575653,64.80324,22.91477,162.7545,0.2445561,-0.4940917,0.8021764,18
10.48,-28.61034,1.678177,-27.57711,-0.0365422835777544,-0.0010175826837132,-0.3287279156191323,67.89115,19.63745,159.269,0.2381593,-0.5157923,0.7869432,18
10.5,-28.48433,1.211396,-27.51861,-0.0466026057150732,-0.0312839951901836,-0.246504290629594,43.11234,36.63323,173.9564,0.3102682,-0.3329047,0.8756213,18
10.52,-28.40227,1.384338,-27.43937,-0.0611781600723322,0.0338847420433375,-0.1680838166576128,46.48225,36.17526,173.1757,0.3070968,-0.3574573,0.8646052,18
10.54,-28.32119,1.554013,-27.36133,-0.069102566733453,0.0295236161820356,-0.0914430740567588,49.85272,35.63,172.3009,0.3037584,-0.3817119,0.8527615,18
10.56,-28.18156,1.256865,-27.32234,-0.0716560328167954,0.0240527930289025,-0.0150231567937906,20.03622,44.98008,176.6204,0.3812663,-0.1495513,0.9075006,18
10.58,-28.09027,1.424584,-27.2409,-0.08580219557702,0.0843205593543671,0.0557984936180027,23.60695,44.99976,176.4266,0.3803,-0.1772135,0.9014645,18
10.6,-28.0005,1.588632,-27.16098,-0.0963927080834432,0.1414620509164302,0.1227760743000718,27.17751,45.00548,176.2262,0.3789594,-0.2046955,0.8945519,18
10.62,-27.89059,1.275584,-27.11685,-0.1134496973346292,0.1030348420333476,0.1747673568092502,358.379,51.47002,178.2217,0.4339163,0.01947818,0.9007089,18
10.64,-27.79592,1.441084,-27.03763,-0.1382933570290108,0.1339914966936741,0.2284449424433217,1.952302,51.56185,178.3369,0.4350452,-0.009027682,0.9001308,18
10.66,-27.70294,1.602857,-26.95998,-0.1594218253869659,0.1634845728716533,0.2772798844754578,5.524396,51.66116,178.4582,0.4357497,-0.03751658,0.8986769,18
10.68,-27.64479,1.291428,-26.93649,-0.1792056144455158,0.1227192034449317,0.3193248536782587,352.2162,53.7849,179.0781,0.4507726,0.06416274,0.8900188,18
10.7,-27.54862,1.453382,-26.85624,-0.1942607515983043,0.0798555763340776,0.3566240704645564,355.8099,53.84908,179.3372,0.4523179,0.03521159,0.8910887,18
10.72,-27.45433,1.611506,-26.7777,-0.2127131022588422,0.1268541601444849,0.4055567638481063,359.4022,53.92924,179.5996,0.4534152,0.00623426,0.8912776,18
10.74,-27.40688,1.269592,-26.76088,-0.2380310441044524,0.097717002739424,0.4364230897725489,354.1042,55.23407,180.0299,0.462958,0.0454476,0.884887,18
10.76,-27.31255,1.432793,-26.68292,-0.2586808892146184,0.0686831628334462,0.4613228461673526,357.647,55.3014,180.3582,0.4640368,0.01673713,0.8855726,18
10.78,-27.22003,1.592337,-26.60659,-0.2853734551017042,0.109454403321287,0.4919267495045827,1.188324,55.38887,180.6904,0.4646673,-0.01198157,0.8854042,18
10.8,-27.12948,1.748381,-26.53204,-0.3084575493478052,0.1476614271932934,0.51511634687661,4.728143,55.49711,181.0289,0.4648494,-0.04068084,0.884383,18
10.82,-27.17412,1.246021,-26.5912,-0.347248473842916,0.0882764095367564,0.5102428486758623,1.406461,56.42714,181.6141,0.4725246,-0.01747245,0.8811195,18
10.84,-27.0773,1.411131,-26.51489,-0.3882152267146597,0.1052262894476494,0.5184554289287324,5.017266,56.53594,181.9392,0.4724221,-0.04655105,0.8801231,18
10.86,-26.98225,1.572523,-26.44012,-0.424615962447882,0.1218801460668912,0.5204993871794841,8.627014,56.66611,182.273,0.4718456,-0.07557707,0.8782459,18
10.88,-27.02165,1.226219,-26.45696,-0.4750336347119925,0.0619782671868274,0.4978815979876447,10.35235,55.94583,183.1682,0.4647602,-0.09256135,0.8804016,18
10.9,-26.92505,1.396584,-26.38138,-0.5188410951267746,0.0031898793246249,0.4693056498731147,13.98023,56.09647,183.4543,0.4632705,-0.121423,0.877319,18
10.92,-26.82999,1.563266,-26.30712,-0.5558870761383794,0.0412522635470561,0.4684049104559351,17.60623,56.26871,183.7555,0.4613137,-0.1501536,0.8733529,18
10.94,-26.89504,1.190884,-26.32683,-0.6056988822761897,0.0006644151562774,0.4449187151773519,16.10291,54.83032,183.7524,0.451581,-0.1391919,0.8805835,18
10.96,-26.80182,1.369574,-26.25254,-0.6489488711814246,-0.0369790914559499,0.4161008479537078,19.68916,54.99565,183.9973,0.4493502,-0.167434,0.8761885,18
10.98,-26.70969,1.544772,-26.17925,-0.6841268921245778,0.0046780342223538,0.4112623758140716,23.27366,55.18162,184.2594,0.4466775,-0.1955032,0.8709332,18
11.0,-26.61884,1.716582,-26.10708,-0.713886561409637,0.0452764760197026,0.4020731387864402,26.85597,55.39147,184.5424,0.4435666,-0.2233708,0.8648236,18
11.02,-26.76867,1.160804,-26.18178,-0.7647688004045321,-0.0228898340721866,0.3620677875945355,21.59057,51.01811,184.0694,0.4167639,-0.183955,0.8888502,18
11.04,-26.67964,1.347752,-26.1079,-0.8045262927157508,-0.0059046435771238,0.3447668204903769,25.12562,51.13233,184.1312,0.4138749,-0.2112679,0.8833012,18
11.06,-26.59128,1.531401,-26.03468,-0.8376986516421092,0.0124737966369718,0.3254587246322376,28.65955,51.25446,184.2031,0.4105924,-0.2383722,0.8769131,18
11.08,-26.6757,1.132797,-26.06173,-0.8808353188211249,-0.0534436038694992,0.2888724089475412,28.04568,46.4458,183.9109,0.3747376,-0.2356005,0.8943327,18
11.1,-26.59135,1.327258,-25.98753,-0.9162681202394674,-0.1171044902037076,0.2502126186395728,31.52045,46.46082,183.7612,0.3712066,-0.2619145,0.8874203,18
11.12,-26.5073,1.518599,-25.91369,-0.9322206135470856,-0.0691916310137328,0.2438206644812668,34.99417,46.46566,183.6072,0.3673355,-0.2879809,0.8796924,18
11.14,-26.53016,1.118797,-25.89934,-0.948474039003834,-0.1054676821768172,0.228228441923715,37.41427,42.29531,182.9768,0.333828,-0.307906,0.8860897,18
11.16,-26.44909,1.317569,-25.82512,-0.9576382318366204,-0.1388059718310249,0.211359380945642,40.82294,42.12709,182.5691,0.3294563,-0.3329257,0.8771802,18
11.18,-26.3681,1.51335,-25.7511,-0.9540763488065284,-0.0848739552712882,0.2131107499717797,44.22961,41.9156,182.1247,0.3247913,-0.3576415,0.8674905,18
11.2,-26.28733,1.706156,-25.67738,-0.9437037401579268,-0.0317290514034013,0.2148765199239553,47.63388,41.65154,181.6336,0.3198374,-0.3820311,0.8570299,18
11.22,-26.33191,1.114599,-25.71084,-0.9382716875294528,-0.093584023222685,0.2033560360651622,44.7036,40.92355,181.075,0.3199603,-0.3593157,0.8677217,18
11.24,-26.25382,1.315192,-25.63629,-0.9267369072667596,-0.0657497598134781,0.2050664324046156,48.05662,40.67103,180.6038,0.3153866,-0.3834766,0.8571529,18
11.26,-26.17574,1.512895,-25.56185,-0.9086967431703954,-0.0367492025904225,0.2078790637534213,51.40702,40.35631,180.0753,0.3105412,-0.4072991,0.8458465,18
11.28,-26.11686,1.107218,-25.48376,-0.8774751207226137,-0.0952388776001848,0.2196119923289554,53.32984,37.65161,177.625,0.2971136,-0.4186969,0.8426572,18
11.3,-26.0415,1.305661,-25.40958,-0.84051226395722,-0.1538477594478229,0.230868753927425,56.61198,37.07592,176.8142,0.292306,-0.4416218,0.8302321,18
11.32,-25.96623,1.501338,-25.3356,-0.7934711175239291,-0.0978710821113284,0.2581383652403359,59.8874,36.35287,175.8603,0.287257,-0.4641693,0.8171169,18
11.34,-25.79929,1.109191,-25.14481,-0.727931754906928,-0.120635231198995,0.3024978628691488,62.65453,27.99445,167.7828,0.2591235,-0.4796368,0.8107595,18
11.36,-25.72589,1.297895,-25.07111,-0.6578392176691943,-0.1437398157294072,0.3462366625058082,65.76595,26.0265,165.5,0.2543439,-0.5008884,0.7962441,18
11.38,-25.65298,1.483943,-24.99799,-0.5986282134734333,-0.0812519412423577,0.3798350306235738,68.83484,23.44775,162.6103,0.2493604,-0.521726,0.7810872,18
11.4,-25.58064,1.667383,-24.92557,-0.536302167904839,-0.020440088583647,0.4127519613800521,71.84023,19.96478,158.8196,0.2441756,-0.5421342,0.765301,18
11.42,-25.48611,1.161853,-24.79877,-0.4677841567662226,-0.0568759813733836,0.4490532108653449,55.75456,25.59359,168.7437,0.2395632,-0.4345661,0.8476831,18
11.44,-25.41396,1.341653,-24.72213,-0.4155340816730439,-0.0162246910301853,0.4706584913248584,58.81483,24.12155,166.8904,0.2356502,-0.4562604,0.8346403,18
11.46,-25.34259,1.518736,-24.64645,-0.3619820245827077,0.0243176211679114,0.4898370096906537,61.84429,22.2973,164.6907,0.231552,-0.4775882,0.8209422,18
11.48,-25.21587,1.228948,-24.52249,-0.299324013207622,-0.0041335568739353,0.5078087134858293,37.76124,33.74608,174.7272,0.2885882,-0.2967063,0.9001828,18
11.5,-25.13909,1.400869,-24.43806,-0.2343704664537607,-0.0345687772948926,0.5246516936147776,41.1027,33.43083,174.0932,0.286279,-0.3218906,0.890399,18
11.52,-25.06343,1.569599,-24.35501,-0.1751349423873667,0.0257913022310503,0.54228025715644,44.4402,33.04642,173.3985,0.2837213,-0.3467885,0.8798445,18
11.54,-24.97025,1.263655,-24.27801,-0.1159291668698041,0.016188447285361,0.5541891916249879,13.85524,39.91336,177.168,0.3415159,-0.1049653,0.9317865,18
11.56,-24.88798,1.431386,-24.18842,-0.0561089167123047,0.0059564509275318,0.5640138034408184,17.3933,39.96189,177.0238,0.3413553,-0.1332818,0.9273461,18
11.58,-24.80709,1.595483,-24.10048,-0.0049556260548602,0.0616752390256443,0.5770256831553393,20.93167,40.00186,176.8797,0.3408677,-0.1614728,0.9220198,18
11.6,-24.72771,1.756099,-24.01434,0.0437567080568972,0.1143279587522161,0.5866096121364714,24.46909,40.03303,176.7346,0.3400543,-0.1895013,0.9158148,18
11.62,-24.72221,1.279295,-24.0046,0.0907269499126033,0.0732229461949908,0.5933343494302572,354.4304,44.12206,178.4033,0.3744867,0.05025006,0.9258543,18
11.64,-24.63884,1.444162,-23.9136,0.132096726524737,0.1012943155535159,0.602446207503549,357.9966,44.20056,178.5323,0.3759331,0.02101459,0.9263935,18
11.66,-24.55697,1.605303,-23.82439,0.1693566138498581,0.1275556069881985,0.6083484128011691,1.561507,44.287,178.6661,0.377014,-0.008233223,0.9260343,18
11.68,-24.49473,1.296042,-23.74617,0.2020875774087835,0.149283902147812,0.6106360524731733,353.4684,44.80759,179.4903,0.3802747,0.05435995,0.9231069,18
11.7,-24.41282,1.456941,-23.65168,0.2188879536199937,0.1415517378691338,0.5979820557771043,357.0478,44.87174,179.7638,0.3814726,0.02459619,0.924019,18
11.72,-24.33254,1.614023,-23.55922,0.2312824791947711,0.1349937701363242,0.5827090276176139,0.6258472,44.95279,180.041,0.3822953,-0.005183461,0.9240241,18
11.74,-24.32648,1.254649,-23.5507,0.238890732881368,0.1268465967667875,0.5644560084264527,357.4334,45.15495,181.14,0.3840228,0.01685971,0.9229985,18
11.76,-24.24652,1.419075,-23.45877,0.2378215457227575,0.1178672219875048,0.5402992589422349,0.9903141,45.23753,181.4251,0.3844544,-0.01275927,0.9230199,18
11.78,-24.16803,1.579876,-23.3687,0.2325561708128996,0.1105800881341996,0.5142143180666463,4.545629,45.33801,181.716,0.3845126,-0.04235677,0.9221464,18
11.8,-24.09116,1.737207,-23.28065,0.222698977212298,0.1021517969327211,0.4858631182978805,8.099376,45.45731,182.0153,0.3841977,-0.07190491,0.9203797,18
11.82,-24.15441,1.23775,-23.3361,0.194149270157089,0.0175568029101868,0.4416815379468164,6.17765,45.51862,182.589,0.3850777,-0.05840302,0.9210345,18
11.84,-24.07309,1.404947,-23.24307,0.1817137950275937,0.0313195199585908,0.4158053629506706,9.811996,45.64754,182.8963,0.3843614,-0.0885671,0.9188707,18
11.86,-23.99317,1.568411,-23.15179,0.1647428497891576,0.0456750078774571,0.3885888043444634,13.44455,45.79808,183.2159,0.3832555,-0.118633,0.9157769,18
11.88,-24.0476,1.208632,-23.18841,0.142833672006676,0.0578214160933789,0.3597602321668369,13.45763,45.55692,183.5437,0.380978,-0.119869,0.9166229,18
11.9,-23.96733,1.383086,-23.09781,0.1103247803408442,0.0413389266394083,0.3163956424240259,17.06718,45.71842,183.8307,0.3793827,-0.1494987,0.9126785,18
11.92,-23.88815,1.553947,-23.00858,0.0745623031793467,0.0283452865558099,0.2732000470221067,20.67479,45.90263,184.1348,0.3774087,-0.1789703,0.9078245,18
11.94,-23.93643,1.175698,-23.03881,0.0351698005367091,0.0158637362591475,0.2299634652256985,18.75007,44.47152,184.0547,0.3677964,-0.1638961,0.9148803,18
11.96,-23.85821,1.358397,-22.9512,-0.0031558067241919,0.0018929957813289,0.1828449938125649,22.31084,44.62698,184.2536,0.3656015,-0.1926848,0.9097421,18
11.98,-23.78074,1.537702,-22.86455,-0.0434735446659027,-0.0081275803482433,0.1369111517133325,25.87003,44.80043,184.4688,0.3630528,-0.2212784,0.9037247,18
12.0,-23.70415,1.713699,-22.77903,-0.0861362586814551,-0.0173184337853855,0.0919974236186074,29.42714,44.99474,184.7033,0.3601531,-0.2496461,0.8968357,18
12.02,-23.81738,1.145436,-22.87785,-0.1461690015331131,-0.1109070026080044,0.0350716996355817,24.61276,41.33409,184.0529,0.3375596,-0.2114916,0.9162362,18
12.04,-23.74197,1.336329,-22.79246,-0.1725415668308194,-0.0938419321660647,0.0015978559633955,28.11936,41.42057,184.0555,0.3347936,-0.2392302,0.9098313,18
12.06,-23.66696,1.524019,-22.70764,-0.1994189878681909,-0.0748356627213008,-0.0296623959898787,31.62453,41.5103,184.0645,0.3317151,-0.2667339,0.9025774,18
12.08,-23.71047,1.124837,-22.72778,-0.2271167150938002,-0.0570807812365802,-0.0588598260127217,32.09901,37.32233,183.5333,0.2992783,-0.2712885,0.9127943,18
12.1,-23.63778,1.321908,-22.64381,-0.2464866263853506,-0.0665613509954408,-0.0887801792702216,35.5424,37.26416,183.2761,0.295853,-0.2977989,0.9047923,18
12.12,-23.56523,1.515927,-22.56012,-0.2644192217579593,-0.0721895846925973,-0.1153275081893161,38.98451,37.18335,183.0024,0.2921602,-0.3240316,0.895973,18
12.14,-23.54367,1.115577,-22.53457,-0.2811991801650224,-0.0773256787988661,-0.1386423693727483,41.87634,36.11153,182.3614,0.2824135,-0.3456548,0.8900676,18
12.16,-23.47213,1.315519,-22.45246,-0.2861905339548958,-0.0808144996398312,-0.1562822632878973,45.26068,35.91175,181.9487,0.278283,-0.3708287,0.8799411,18
12.18,-23.40061,1.512523,-22.37048,-0.2891699749600849,-0.0807897627572343,-0.1703311750323415,48.64291,35.66208,181.4913,0.2739085,-0.3956698,0.8690439,18
12.2,-23.32923,1.706601,-22.28876,-0.2903997818356951,-0.0806623498160542,-0.1809257810377635,52.02262,35.35019,180.9764,0.2692942,-0.4201561,0.8573863,18
12.22,-23.34132,1.112929,-22.29873,-0.2844311107253356,-0.1690106796804532,-0.1812854246549324,48.08449,34.8722,179.54,0.2752049,-0.3875887,0.8707864,18
12.24,-23.27138,1.313328,-22.21778,-0.2589145579278633,-0.1410133162090961,-0.1630761522713628,51.40659,34.53524,178.988,0.2711111,-0.4117849,0.8592703,18
12.26,-23.20146,1.510892,-22.13696,-0.2314316597237335,-0.1124351236953846,-0.1417146260559447,54.7253,34.11596,178.3582,0.2667876,-0.435624,0.8470271,18
12.28,-23.08331,1.102165,-21.99785,-0.2022343539280311,-0.0866015791758829,-0.1173461069653103,59.69102,31.19445,174.0561,0.2577513,-0.4666009,0.827369,18
12.3,-23.01436,1.295803,-21.91931,-0.162309698983972,-0.0832176780216336,-0.0820953591607005,62.92612,30.18251,172.807,0.2532536,-0.4890248,0.8134134,18
12.32,-22.94566,1.486753,-21.84118,-0.1209484632030659,-0.0782086099532038,-0.0445298379027039,66.14724,28.86942,171.2601,0.2485478,-0.5110366,0.7987932,18
12.34,-22.78536,1.128889,-21.64611,-0.078392249557694,-0.0748648627001245,-0.004803921564672,60.95423,22.00501,166.7097,0.2209907,-0.4754928,0.8291056,18
12.36,-22.7173,1.313037,-21.56717,-0.0381111072230502,-0.058072167325502,0.0328141032303723,64.01005,20.00721,164.3633,0.2169374,-0.497046,0.8148226,18
12.38,-22.64984,1.494522,-21.48903,0.0019106882174777,-0.0398994875503858,0.0710989571298306,67.0198,17.44524,161.4572,0.2127112,-0.5181952,0.7998917,18
12.4,-22.58308,1.673405,-21.41181,0.0414649620343343,-0.0235001004100723,0.1098827595534523,69.96284,14.08277,157.7544,0.2083177,-0.5389228,0.7843263,18
12.42,-22.49433,1.195563,-21.30482,0.0913820605403139,-0.0776182740206947,0.1560752383101684,48.29166,28.32106,173.169,0.2464686,-0.3826267,0.8772465,18
12.44,-22.42614,1.371951,-21.22313,0.137803138684649,-0.0327261134739707,0.1955267916893963,51.42775,27.64466,172.1752,0.2434979,-0.405644,0.8657696,18
12.46,-22.3588,1.545562,-21.14259,0.1835113962608048,0.0108324604873657,0.2349127993934892,54.55434,26.82393,171.0433,0.2403376,-0.4283382,0.8536204,18
12.48,-22.23597,1.250203,-21.05252,0.2282354954554399,0.0500432663480804,0.2739573888895545,26.18872,35.08521,176.0116,0.300917,-0.2056722,0.9257622,18
12.5,-22.15778,1.418905,-20.96059,0.2578115518617436,0.0620977643735528,0.2939977669993183,29.7109,35.00541,175.6637,0.299741,-0.2333386,0.918249,18
12.52,-22.08084,1.584031,-20.87031,0.2860201551321037,0.0747607830454944,0.3131569204931934,33.23285,34.89674,175.2961,0.2982781,-0.2607844,0.909861,18
12.54,-22.00564,1.271912,-20.80299,0.3125317725988097,0.085066345526358,0.3310937892799939,2.358623,40.9835,177.9509,0.3502871,-0.01301776,0.9362457,18
12.56,-21.92505,1.438413,-20.7103,0.3342184115653723,0.1608564222781799,0.3481734281404978,5.921841,41.06832,177.9746,0.3510977,-0.04217407,0.9347469,18
12.58,-21.84584,1.601223,-20.61937,0.3505589588125644,0.1437999917065103,0.3593253754311649,9.483994,41.15527,178.0038,0.3515682,-0.07128119,0.9323447,18
12.6,-21.76817,1.760487,-20.53036,0.3638260370908961,0.1259576714379315,0.3684674224170998,13.04507,41.24508,178.0389,0.3516982,-0.1003111,0.9290423,18
12.62,-21.68449,1.293907,-20.43664,0.3736698612791462,0.1044665251502595,0.3752369388889969,352.8282,43.6199,179.2478,0.3704125,0.06050066,0.9267363,18
12.64,-21.60377,1.455468,-20.34131,0.383904773976556,0.1013347938160747,0.3832358432911507,356.4093,43.68027,179.4866,0.3717016,0.03074651,0.9278128,18
12.66,-21.52463,1.613218,-20.24801,0.3903210946491753,0.098903523476021,0.388798140811577,359.9892,43.75536,179.7286,0.3726251,0.0009702486,0.9279791,18
12.68,-21.44721,1.767329,-20.15691,0.392586568769397,0.0943744261345322,0.3915504131833138,3.567565,43.84565,179.9758,0.3731825,-0.02879801,0.9272356,18
12.7,-21.48456,1.262071,-20.20133,0.3930936940107421,0.155043643912964,0.3925109658347652,355.7519,44.24205,180.5734,0.3764726,0.03245176,0.9256726,18
12.72,-21.40623,1.425928,-20.10779,0.3722927372731659,0.1186280728013131,0.3684102059586487,359.3003,44.31184,180.8667,0.3771533,0.002802779,0.9260998,18
12.74,-21.32935,1.586149,-20.01616,0.3482288343094741,0.083048337814678,0.3416025920162115,2.847279,44.39979,181.1646,0.3774692,-0.02684068,0.9256331,18
12.76,-21.32665,1.240596,-20.00849,0.3314758074933159,0.1224321950182162,0.3240144811205803,4.000096,44.74803,182.0674,0.379775,-0.03913077,0.9242448,18
12.78,-21.2468,1.406889,-19.9145,0.2954691365806572,0.0881741172115783,0.2876374342211325,7.623271,44.86129,182.374,0.3793662,-0.06932073,0.922625,18
12.8,-21.16836,1.569458,-19.82231,0.2570606680924565,0.0554149900709932,0.2493173606375385,11.24546,44.99538,182.6909,0.3785747,-0.09943748,0.9200766,18
12.82,-21.18863,1.217324,-19.82587,0.2159672729162505,0.0212578126456541,0.2087510158819618,11.90526,44.87309,183.3606,0.3766282,-0.1069455,0.9200843,18
12.84,-21.10904,1.389717,-19.73363,0.175439226964865,0.0051945093136062,0.1692549814698205,15.52363,45.02388,183.6508,0.3752014,-0.1367849,0.9165186,18
12.86,-21.03062,1.558472,-19.64289,0.1331666025007996,-0.0073556352782354,0.1281692918043151,19.14012,45.19695,183.9567,0.3733983,-0.1664784,0.9120351,18
12.88,-20.95353,1.723719,-19.55381,0.0888721724866985,-0.0193243917198428,0.0852177128086046,22.75468,45.39496,184.2816,0.3712205,-0.195996,0.9066386,18
12.9,-21.05594,1.183109,-19.65169,0.0622215448311278,0.0443702467045942,0.0590521116682523,17.41896,44.53972,183.92,0.3695876,-0.1528596,0.9161658,18
12.92,-20.97797,1.363759,-19.56274,0.0074096821485252,0.0024814952080847,0.0045862807333567,20.99127,44.69963,184.1579,0.3675405,-0.1819293,0.9113195,18
12.94,-20.90082,1.540969,-19.47487,-0.0477005527470404,-0.0362376671993047,-0.0499157722703804,24.56183,44.87994,184.4129,0.3651348,-0.2108129,0.9055856,18
12.96,-20.957,1.153038,-19.51225,-0.0843999708327811,0.0069906033718996,-0.0869699599850055,23.07953,41.66565,184.0514,0.3416269,-0.1991694,0.9176723,18
12.98,-20.88148,1.341895,-19.42579,-0.1395811351513982,-0.03251064498252,-0.1410348996028996,26.60073,41.76732,184.0997,0.3389999,-0.2272137,0.9115972,18
13.0,-20.80646,1.527504,-19.33999,-0.1939304221646289,-0.0686033429444925,-0.1938467667405161,30.12046,41.87579,184.1568,0.3360536,-0.2550324,0.9046637,18
13.02,-20.83601,1.128722,-19.34612,-0.2476476645341772,-0.1045015320209678,-0.2455835523551226,30.05703,38.03727,183.7122,0.3066244,-0.2552107,0.9153346,18
13.04,-20.76324,1.324435,-19.26139,-0.2835153929404015,-0.1152959910785263,-0.2787378049591478,33.5175,38.02192,183.5291,0.3033711,-0.2820906,0.9077633,18
13.06,-20.69067,1.517063,-19.177,-0.3170222407696976,-0.121919111928589,-0.3093210583159187,36.97688,37.99198,183.3369,0.299841,-0.3087048,0.8993651,18
13.08,-20.61841,1.706635,-19.09309,-0.3483630458953168,-0.127687436590867,-0.3375221719738426,40.4352,37.94531,183.1329,0.2960377,-0.3350297,0.8901477,18
13.1,-20.6622,1.117134,-19.13409,-0.3600278165985955,-0.0483008948812971,-0.3478819072620569,39.63982,35.90305,182.6845,0.2823195,-0.3292619,0.897167,18
13.12,-20.59077,1.316452,-19.05123,-0.3816637246211445,-0.0821601810669134,-0.3717272415385155,43.03756,35.72551,182.2935,0.2783133,-0.3547649,0.8875261,18
13.14,-20.51941,1.512806,-18.96854,-0.3997893664257703,-0.1134920999241325,-0.3919819800335138,46.43324,35.5036,181.8637,0.2740614,-0.3799461,0.877102,18
13.16,-20.48401,1.113742,-18.93054,-0.4069635610011417,-0.056988946610514,-0.400159780109363,46.38964,35.22472,180.3626,0.2769295,-0.3762749,0.8764579,18
13.18,-20.41404,1.3142,-18.84899,-0.4113076518922618,-0.0861379271853273,-0.4052109651250708,49.72927,34.94417,179.8773,0.2728393,-0.4007845,0.8653081,18
13.2,-20.34408,1.511797,-18.76754,-0.4122538473113506,-0.1133920198704394,-0.4067659558611858,53.06616,34.59536,179.3282,0.2685157,-0.4249438,0.8534195,18
13.22,-20.23387,1.103711,-18.63739,-0.4099763317242804,-0.1421595870040801,-0.4049956871723772,56.52043,32.5917,176.1995,0.2620854,-0.4460098,0.8405503,18
13.24,-20.16497,1.299717,-18.55808,-0.3921582052514654,-0.0580615824006496,-0.3863685103485155,59.78527,31.86796,175.2533,0.2576473,-0.4689609,0.8272703,18
13.26,-20.09625,1.493,-18.47907,-0.3557647209572709,-0.0853440397440416,-0.3455697537167326,63.04128,30.94578,174.1122,0.2529962,-0.4915127,0.8133091,18
13.28,-20.0278,1.683586,-18.40048,-0.3166858927432399,-0.1125926672053039,-0.3022576966400891,66.28578,29.74545,172.696,0.248136,-0.5136504,0.7986768,18
13.3,-19.91445,1.118025,-18.26162,-0.2823614323131957,-0.0525888823036835,-0.2653997004464343,61.81915,23.26952,167.2038,0.2280196,-0.4807146,0.8235719,18
13.32,-19.84631,1.304405,-18.18299,-0.2338143443091449,-0.0634614390339415,-0.2112086308540464,64.90619,21.29661,164.908,0.2238279,-0.5023251,0.8090972,18
13.34,-19.7787,1.48813,-18.10507,-0.1839818008035303,-0.0748434457668836,-0.1555456365135012,67.94952,18.73942,162.0319,0.2194567,-0.5235245,0.7939746,18
13.36,-19.63711,1.178208,-17.93285,-0.1468300562173135,-0.0080084446197077,-0.1162191276204636,52.07453,25.74127,171.198,0.2323908,-0.411307,0.8658484,18
13.38,-19.56911,1.356257,-17.85178,-0.1095609263917158,0.0570054150186856,-0.0771112927935993,55.1836,24.73182,169.8458,0.2290916,-0.433852,0.8535338,18
13.4,-19.50191,1.53156,-17.77179,-0.0687867684505185,0.0275412105171367,-0.0403340862322949,58.27551,23.49676,168.2739,0.2256133,-0.4560498,0.840553,18
13.42,-19.35758,1.239857,-17.64305,-0.0268116783087597,-0.0039007389890658,-0.0020673806354263,31.97573,33.30395,175.3598,0.2859304,-0.2525147,0.9170551,18
13.44,-19.28202,1.410149,-17.55321,0.0127321732780139,0.0576543840275218,0.0328073872525447,35.40976,33.12185,174.8884,0.2842628,-0.2791004,0.908344,18
13.46,-19.20763,1.577063,-17.4649,0.0534534327254889,0.0495548316393866,0.0639690191210498,38.84179,32.89502,174.3811,0.2823364,-0.3054274,0.8988079,18
13.48,-19.13454,1.740709,-17.37826,0.0951407587967274,0.0406356562267016,0.0958567732876527,42.27269,32.61508,173.8288,0.2801519,-0.3314821,0.8884521,18
13.5,-19.10159,1.268145,-17.37128,0.1290695857171258,0.0977654579276029,0.1265402034239022,8.120133,39.53123,177.5618,0.3386659,-0.05943901,0.9380003,18
13.52,-19.02179,1.435249,-17.2787,0.162452640755907,0.0851310257236735,0.1559128074461471,11.67207,39.60126,177.5084,0.3389929,-0.08832084,0.9350304,18
13.54,-18.94334,1.598696,-17.18784,0.1942339005495004,0.0719028924877338,0.1838382233458018,15.22305,39.66885,177.4587,0.3389938,-0.1171096,0.9311629,18
13.56,-18.86641,1.758628,-17.09886,0.2241558302067798,0.126275556139023,0.2131354112027725,18.77309,39.73438,177.4125,0.3386686,-0.145778,0.9264025,18
13.58,-18.80173,1.291652,-17.03093,0.2508973621554626,0.1773149881518999,0.2395671943011221,352.2087,43.37766,179.026,0.3681618,0.06626119,0.9272377,18
13.6,-18.72082,1.453912,-16.93607,0.2632452288667601,0.1326442879579497,0.2500178801464097,355.7886,43.43468,179.2351,0.369542,0.03660284,0.9284635,18
13.62,-18.64146,1.612374,-16.84318,0.2730801001322858,0.0865355517559451,0.2589758918813163,359.3672,43.50454,179.447,0.3705596,0.006917237,0.9287798,18
13.64,-18.61118,1.269791,-16.80362,0.2789759484264,0.1295124665804961,0.2650871749113674,354.0992,44.01879,179.9986,0.3742612,0.04772534,0.9258938,18
13.66,-18.53326,1.433092,-16.70947,0.2713086328656051,0.0978218388084101,0.255037627123921,357.6397,44.0759,180.2974,0.3751894,0.01811743,0.9267159,18
13.68,-18.45681,1.592745,-16.61726,0.260519956625024,0.0668092569105844,0.2422455892108042,1.17891,44.15137,180.5995,0.3757562,-0.01149967,0.9266469,18
13.7,-18.38197,1.748909,-16.52714,0.2463262876864642,0.0336772658988041,0.2263767033501833,4.716658,44.24571,180.9072,0.3759613,-0.04109736,0.9256877,18
13.72,-18.42357,1.246095,-16.58281,0.2454107969369263,0.0940843755132499,0.2271035504495115,1.393681,44.62099,181.5934,0.3794044,-0.01652864,0.9250466,18
13.74,-18.34404,1.411251,-16.48869,0.2246694426758444,0.056708455996683,0.2080209423028987,5.004855,44.71637,181.8985,0.3793117,-0.04666977,0.9240904,18
13.76,-18.26595,1.572691,-16.39643,0.2020192259123052,0.020872613874493,0.1870970400896934,8.615091,44.83179,182.2116,0.378839,-0.07676012,0.9222101,18
13.78,-18.29955,1.226251,-16.41629,0.1880862943552808,0.0590375944787783,0.1763181709406414,10.3391,44.60127,183.1691,0.3754732,-0.0937826,0.9220353,18
13.8,-18.21987,1.396606,-16.32308,0.1714409450687726,0.0955207751497865,0.1628583512293666,13.9665,44.74009,183.4574,0.3742002,-0.1237744,0.9188634,18
13.82,-18.14144,1.563278,-16.23148,0.1259332038320284,0.029329973716701,0.1184865037076419,17.59212,44.90044,183.7599,0.3725499,-0.1536328,0.9147661,18
13.84,-18.18642,1.190889,-16.26625,0.0938783247290473,0.0417857469639285,0.0870411558604522,16.09111,44.85788,183.7783,0.3733117,-0.1417566,0.9165183,18
13.86,-18.10818,1.369506,-16.17636,0.0606907492610413,0.0552358203264903,0.0544517247299976,19.67558,45.01924,184.0501,0.371396,-0.1710732,0.9119741,18
13.88,-18.03085,1.544633,-16.08765,0.0065255549003482,-0.0117709781546153,0.0014652781698529,23.25821,45.20301,184.3395,0.3691153,-0.2002129,0.9065346,18
13.9,-17.95458,1.716376,-16.00027,-0.0480472630325112,-0.0762412663599073,-0.051952050713262,26.83859,45.41222,184.6499,0.3664717,-0.2291442,0.9002064,18
13.92,-18.06544,1.160781,-16.10243,-0.0765052835918718,-0.0358632918691393,-0.0781971555207199,21.57981,42.34386,184.1019,0.3483075,-0.1871572,0.9178476,18
13.94,-17.98938,1.347635,-16.01529,-0.1214040735851091,-0.0779575636606829,-0.1193492715889781,25.11458,42.45947,184.1979,0.3457868,-0.2154701,0.9121116,18
13.96,-17.91388,1.531191,-15.92892,-0.1654774794979601,-0.1163650868230506,-0.159409350412421,28.64809,42.5854,184.3049,0.3429373,-0.2435694,0.9055092,18
13.98,-17.97075,1.132752,-15.96644,-0.1890504650089779,-0.0699987521598873,-0.1799402313132003,28.03695,38.88551,183.9431,0.3149018,-0.2393966,0.9171229,18
14.0,-17.89762,1.327123,-15.88118,-0.2110453715241951,-0.024056711068284,-0.1987835676742726,31.51337,38.9052,183.8271,0.3117843,-0.2666113,0.9099994,18
14.02,-17.82475,1.518376,-15.79632,-0.2509231157235179,-0.0909432526065065,-0.2356779581413299,34.98872,38.91705,183.7078,0.3083802,-0.2935719,0.9020402,18
14.04,-17.8295,1.118737,-15.78127,-0.2729464265640304,-0.0684010736313275,-0.2564412843311745,37.40309,35.70832,183.0094,0.2822933,-0.3127171,0.9038551,18
14.06,-17.75811,1.317432,-15.69773,-0.291811423000873,-0.0442719956178709,-0.2741871654298575,40.81449,35.54894,182.6346,0.2784024,-0.3385358,0.8947107,18
14.08,-17.68679,1.513137,-15.61439,-0.3143891733515933,-0.1054622036735145,-0.2981429856263986,44.22399,35.34951,182.2258,0.2742637,-0.3640451,0.8847704,18
14.1,-17.61567,1.70587,-15.53138,-0.3339499729495438,-0.1651054626881671,-0.3190665528546343,47.63136,35.10137,181.7735,0.269881,-0.3892225,0.8740436,18
14.12,-17.63666,1.114518,-15.56437,-0.3333011841986111,-0.1101799187916874,-0.3184670385914021,44.69896,35.61292,181.119,0.2792826,-0.3647833,0.8816689,18
14.14,-17.56654,1.315028,-15.48232,-0.3289344993862191,-0.0559681115744126,-0.314088424544968,48.05521,35.37998,180.6913,0.2751912,-0.3895905,0.8708919,18
14.16,-17.49643,1.51265,-15.40037,-0.318635302133557,-0.1182381672778706,-0.3029251365999619,51.40917,35.09024,180.2112,0.2708626,-0.4140538,0.8593654,18
14.18,-17.43245,1.107163,-15.32378,-0.2999056541830445,-0.0911674926490143,-0.2821278792614543,53.31437,33.37586,177.6759,0.2652984,-0.4244626,0.853278,18
14.2,-17.3635,1.30554,-15.24364,-0.277812567946968,-0.0632908479885445,-0.2580563573177259,56.6007,32.82841,176.9141,0.2609591,-0.4479071,0.8406763,18
14.22,-17.29465,1.501154,-15.1637,-0.2383647456661652,-0.1178860597084618,-0.2133989398341214,59.88079,32.14094,176.016,0.2564024,-0.470967,0.8273765,18
14.24,-17.22598,1.694023,-15.08408,-0.2028462266526693,-0.083266652650679,-0.1741957748003422,63.15324,31.26348,174.9312,0.2516322,-0.4936266,0.8133887,18
14.26,-17.05274,1.118006,-14.87486,-0.1656208727637691,-0.0484782465399362,-0.1334831992595291,61.82501,23.03952,167.1845,0.2264468,-0.4811133,0.8239685,18
14.28,-16.98458,1.304374,-14.79598,-0.1268765291689446,-0.0167335524531651,-0.0914475608013454,64.91575,21.03956,164.8628,0.2222118,-0.5027709,0.8094707,18
14.3,-16.91695,1.488078,-14.7178,-0.0820353617283926,-0.085854789248462,-0.0416052718894286,67.96169,18.44719,161.9527,0.2177978,-0.5240146,0.7943219,18
14.32,-16.76339,1.178168,-14.53115,-0.0427418055880786,-0.0453120535642699,0.0005240646878634,52.08329,25.5663,171.1905,0.2310932,-0.4116102,0.8661577,18
14.34,-16.69557,1.356209,-14.44986,-0.0028448147468103,-0.004901837071461,0.0431650620828387,55.1937,24.5489,169.8332,0.2277746,-0.4341833,0.8538381,18
14.36,-16.62856,1.531501,-14.36965,0.0468686266144513,-0.0333327778240182,0.0911101075868139,58.28681,23.30448,168.2548,0.2242776,-0.4564087,0.8408509,18
14.38,-16.56245,1.704126,-14.29063,0.0865579302107051,0.0096498271183745,0.1263762449943646,61.35704,21.7637,166.3854,0.2206075,-0.4782688,0.8272079,18
14.4,-16.47226,1.239831,-14.22655,0.1262706587651032,0.0516136801855775,0.1613892365847715,31.98903,33.16538,175.3584,0.2848197,-0.2527587,0.917367,18
14.42,-16.39695,1.410123,-14.13652,0.1686707471462905,0.0227599511519092,0.194584005233529,35.42316,32.97906,174.8863,0.2831304,-0.2793609,0.9086599,18
14.44,-16.3228,1.577039,-14.04801,0.1998971193551706,0.0615468692783293,0.2206199380672318,38.85527,32.74774,174.3781,0.2811832,-0.3057045,0.8991275,18
14.46,-16.24245,1.268132,-13.98545,0.2291813190486946,0.0992629245503354,0.2444047985635529,8.135386,39.38616,177.5606,0.3374781,-0.05961604,0.938418,18
14.48,-16.1629,1.435234,-13.89265,0.2562013614298404,0.133062552228694,0.2655664681285736,11.68761,39.45235,177.5066,0.3377771,-0.08851366,0.9354553,18
14.5,-16.0847,1.59868,-13.80157,0.2806584570537436,0.1450863736856552,0.2837609669045227,15.23888,39.516,177.456,0.3377509,-0.1173179,0.9315943,18
14.52,-15.998,1.285348,-13.70697,0.300130520764942,0.1488133126274078,0.2999861679511613,353.3125,42.90504,178.7155,0.3644761,0.05837485,0.9293172,18
14.54,-15.91747,1.448845,-13.61246,0.3172048744024767,0.1528575553155256,0.3142674418809554,356.8895,42.96503,178.8945,0.3658217,0.02878624,0.9302391,18
14.56,-15.83844,1.608574,-13.51986,0.3315192390199664,0.1543842234592106,0.3261928968479139,0.4652078,43.03602,179.0769,0.3668092,-0.000821986,0.9302524,18
14.58,-15.76107,1.764694,-13.42935,0.3342152938910046,0.0803156199969201,0.325827602694261,4.039713,43.11851,179.2642,0.3674379,-0.03042117,0.9293579,18
14.6,-15.76229,1.282772,-13.4311,0.3359134080199271,0.0976978466547662,0.3266154719723118,353.7818,43.76477,179.7531,0.3720446,0.05113118,0.9266264,18
14.62,-15.6837,1.444824,-13.33565,0.3337726176987448,0.1142723559617809,0.3240665059106502,357.3425,43.81706,180.046,0.3730342,0.02136411,0.9275277,18
14.64,-15.60663,1.603142,-13.24221,0.3197893792835122,0.056271395385995,0.3075712347673147,0.9019428,43.88742,180.3419,0.3736605,-0.008415574,0.9275274,18
14.66,-15.59831,1.25041,-13.23851,0.3098344840224107,0.0727786902616857,0.2961652041299625,359.4056,44.30894,181.3716,0.3771304,0.0002902686,0.9260684,18
14.68,-15.51963,1.415178,-13.14459,0.2966404915791849,0.088938587919069,0.2814605962619809,2.98969,44.38991,181.6691,0.3772389,-0.0296517,0.9256342,18
14.7,-15.4424,1.576277,-13.05252,0.2798862850334553,0.1020101518430251,0.2630681959996594,6.572579,44.48991,181.9729,0.3769752,-0.05955737,0.9242885,18
14.72,-15.36676,1.733864,-12.9625,0.2371609888030694,0.0161818456828793,0.2170404533338867,10.15386,44.61005,182.2857,0.3763402,-0.0893959,0.9220334,18
14.74,-15.40761,1.22625,-12.98959,0.2098250890223321,0.0286061182643356,0.1906551471276469,10.33412,44.5625,183.1766,0.3751578,-0.09377009,0.9221661,18
14.76,-15.32823,1.396593,-12.89616,0.1802272740152368,0.0414595706569768,0.1621076997215413,13.96017,44.69932,183.4728,0.3738606,-0.1237808,0.9190046,18
14.78,-15.25011,1.563257,-12.80434,0.1289214512570569,-0.0237453312438375,0.1110597504377433,17.58442,44.85814,183.7833,0.3721867,-0.1536581,0.9149181,18
14.8,-15.17339,1.726375,-12.71429,0.0927940204100032,-0.0111713014536505,0.075155344520255,21.20714,45.0414,184.1113,0.3701374,-0.1833749,0.9099112,18
14.82,-15.28093,1.190895,-12.82332,0.0553579918271338,0.0026385142223781,0.0378720598239876,16.08897,44.84475,183.781,0.3732049,-0.1417508,0.9165637,18
14.84,-15.2028,1.369507,-12.73336,0.0163151029579828,0.0147940270038094,-0.0011011394091409,19.67278,45.00318,184.0553,0.3712626,-0.1710727,0.9120311,18
14.86,-15.12559,1.544632,-12.64458,-0.0299288675270241,-0.0006540355922846,-0.0460274503440618,23.25474,45.1841,184.3472,0.3689556,-0.2002175,0.9066035,18
14.88,-15.18766,1.160792,-12.6911,-0.0759738500949647,-0.0119476100668087,-0.0906607247509072,21.57806,42.26387,184.1013,0.3476692,-0.1871656,0.9180928,18
14.9,-15.11171,1.347644,-12.60386,-0.1220680163362797,-0.0222083156633527,-0.1352445262492856,25.11303,42.37553,184.1965,0.3451227,-0.2154869,0.9123666,18
14.92,-15.03634,1.531198,-12.51739,-0.1831002223552833,-0.1166335813766775,-0.1930873262917289,28.64674,42.49734,184.3025,0.342248,-0.2435944,0.9057738,18
14.94,-15.07954,1.132771,-12.53967,-0.2159909985831205,-0.1002320605278468,-0.2222486415094926,28.03135,38.84678,183.9437,0.3145961,-0.2393702,0.9172403,18
14.96,-15.00649,1.327135,-12.45435,-0.2474531196667453,-0.0816763710354256,-0.249805545600847,31.50787,38.8631,183.8281,0.3114533,-0.2665929,0.9101263,18
14.98,-14.9337,1.518382,-12.36943,-0.277707852164563,-0.0641586956528086,-0.2759771095590753,34.98331,38.87146,183.7091,0.3080241,-0.2935614,0.9021767,18
15.0,-14.86129,1.706546,-12.28505,-0.303502069793087,-0.0736917462451337,-0.3002437952796333,38.45776,38.87096,183.5853,0.3043121,-0.3202522,0.8933989,18
15.02,-14.92532,1.118747,-12.3392,-0.3262081742127778,-0.0791580659496345,-0.3214721790260799,37.39246,35.70207,183.011,0.2822506,-0.312642,0.9038991,18
15.04,-14.85397,1.317438,-12.25565,-0.3460176380261097,-0.0839170308238487,-0.3398637299173288,40.80369,35.53957,182.6371,0.2783338,-0.338465,0.894766,18
15.06,-14.78269,1.513141,-12.1723,-0.356561011895202,-0.0868500603917972,-0.3515821059240001,44.213,35.33694,182.2289,0.2741692,-0.3639788,0.884837,18
15.08,-14.75866,1.114523,-12.15289,-0.3636363953330499,-0.0860558418208814,-0.3598990608919206,44.69326,35.52979,181.1198,0.2786464,-0.3648198,0.8818899,18
15.1,-14.68863,1.315036,-12.07077,-0.3674257160126977,-0.0849447416189152,-0.3650088717873625,48.04959,35.29173,180.69,0.274531,-0.3896359,0.8711213,18
15.12,-14.61861,1.512661,-11.98875,-0.3624222830594705,-0.1720946759156006,-0.3602458576218803,51.40357,34.99633,180.2072,0.2701792,-0.4141082,0.8596027,18
15.14,-14.5487,1.70741,-11.90696,-0.3411528151646597,-0.1427237176033199,-0.3359476177750555,54.75475,34.62812,179.6555,0.2655947,-0.438216,0.8473449,18
15.16,-14.46187,1.103713,-11.80267,-0.3166683021788337,-0.1125551368960201,-0.3085680843619856,56.51458,32.35804,176.2064,0.2603495,-0.446309,0.841116,18
15.18,-14.39319,1.29971,-11.72289,-0.2891531091975046,-0.0849138290188013,-0.2782981037088707,59.78691,31.62607,175.2592,0.2558749,-0.4693464,0.827814,18
15.2,-14.32468,1.492973,-11.64341,-0.2578854653000837,0.0118908667848739,-0.2445522530244577,63.05028,30.69423,174.1156,0.2511881,-0.4919825,0.8138274,18
15.22,-14.15611,1.117973,-11.44045,-0.2159924216267881,-0.0112280545875599,-0.197368283999352,61.82528,23.0392,167.2049,0.2263586,-0.4811562,0.824003,18
15.24,-14.08829,1.30435,-11.36149,-0.1717318259498625,-0.0341398623874148,-0.1479176793729353,64.91457,21.05648,164.9065,0.2221393,-0.5028164,0.8095221,18
15.26,-14.02099,1.48807,-11.28324,-0.125284722644446,-0.0601292808895156,-0.0963840658174175,67.95993,18.48714,162.0254,0.2177416,-0.5240645,0.794392,18
15.28,-13.95432,1.669189,-11.2058,-0.0836126062609177,-0.0450467429955208,-0.0514055566872478,70.94039,15.06724,158.297,0.21317,-0.5448818,0.7786273,18
15.3,-13.85471,1.178152,-11.08218,-0.0413047689666437,-0.0284738014352317,-0.0057407737326591,52.08648,25.55692,171.1925,0.2310141,-0.4116523,0.8661672,18
15.32,-13.78702,1.356201,-11.00088,0.0014764020687993,-0.013531084290872,0.0404114910654739,55.19595,24.53938,169.8396,0.2276789,-0.4342277,0.8538576,18
15.34,-13.72014,1.531505,-10.92064,0.0413060592206691,0.0044625507379646,0.0739682504535559,58.28818,23.29532,168.266,0.2241655,-0.4564559,0.8408813,18
15.36,-13.58781,1.239808,-10.80633,0.0815431617430153,0.0231500176571303,0.107751690133912,32.00114,33.12169,175.3571,0.2844682,-0.2528974,0.9174451,18
15.38,-13.51259,1.410106,-10.71624,0.1219224049785863,0.0394487335081556,0.1414296401390543,35.43497,32.93151,174.8847,0.2827526,-0.279504,0.908744,18
15.4,-13.43854,1.577028,-10.62767,0.1621947109070562,0.0503353059746543,0.1746887979508954,38.86671,32.69612,174.3758,0.2807795,-0.3058516,0.899218,18
15.42,-13.34523,1.268125,-10.54969,0.189917466906234,0.0586396781880033,0.1960910045336057,8.144274,39.35285,177.5601,0.3372053,-0.05970023,0.9385102,18
15.44,-13.26576,1.43523,-10.45684,0.2168521061154387,0.0677994798906185,0.216535171451722,11.69642,39.41546,177.5058,0.3374754,-0.08860115,0.9355557,18
15.46,-13.18765,1.598678,-10.3657,0.2426740246864953,0.0748898690266189,0.2356487423176463,15.24759,39.47546,177.4548,0.3374207,-0.1174086,0.931703,18
15.48,-13.11104,1.758612,-10.27645,0.2659576423115235,0.1479415117123069,0.2567288863114615,18.79782,39.53318,177.4067,0.3370414,-0.1460953,0.9269569,18
15.5,-13.03607,1.808527,-10.18925,0.2836473795890726,0.1284502860905997,0.2712144504304017,22.34707,39.58897,177.3613,0.3363383,-0.1746335,0.9213225,18
15.52,-13.01916,1.291629,-10.1776,0.2990916767315092,0.1083310311039944,0.2840974730844647,352.2129,43.24006,179.0252,0.3670489,0.06625105,0.9276815,18
15.54,-12.93855,1.453896,-10.08251,0.3104622843804883,0.1557322263063246,0.2941788941334596,355.7925,43.28983,179.2341,0.3683685,0.03658387,0.9289312,18
15.56,-12.85949,1.612367,-9.989394,0.3090924975731277,0.1285932577549862,0.2898294298609244,359.3709,43.35243,179.4454,0.3693266,0.00688933,0.9292711,18
15.58,-12.84244,1.269842,-9.966017,0.3045051884138843,0.1018630922484284,0.2828934504548519,354.0978,43.87089,179.9974,0.3730652,0.04776529,0.9263757,18
15.6,-12.76481,1.433141,-9.871644,0.2964132155101229,0.0727380299420825,0.2730194358118095,357.6384,43.92078,180.2955,0.3739342,0.01814818,0.9272228,18
15.62,-12.68866,1.592792,-9.779198,0.2878689582574325,0.0626652059263871,0.2638672206188319,1.177653,43.98899,180.5965,0.3744431,-0.01147808,0.9271785,18
15.64,-12.66847,1.246113,-9.761104,0.2766574652063529,0.0545508841287015,0.2520418740635926,1.385123,44.45646,181.592,0.3780773,-0.01644275,0.9255909,18
15.66,-12.58924,1.411266,-9.666737,0.2624718895385416,0.0455815857139925,0.2371687725329809,4.996507,44.54457,181.896,0.3779291,-0.0465962,0.9246604,18
15.68,-12.51146,1.572705,-9.574227,0.2550943095760807,0.1091364138410102,0.232042106839551,8.606963,44.6526,182.2077,0.3774022,-0.07669871,0.9228054,18
15.7,-12.43528,1.730592,-9.483752,0.2218441132543225,0.0746183434160353,0.199583595111738,12.21575,44.78187,182.5298,0.3764977,-0.106716,0.9200284,18
15.72,-12.5173,1.226272,-9.562365,0.18681366869073,0.042153847965917,0.165391560831194,10.33124,44.50175,183.1689,0.3746766,-0.09372634,0.9223662,18
15.74,-12.43785,1.396623,-9.468985,0.1497370604587791,0.008838376013239,0.1291716624849732,13.9584,44.6334,183.4576,0.3733495,-0.1237276,0.9192186,18
15.76,-12.35966,1.563292,-9.377207,0.1275886533850667,0.0711126431029995,0.1078969647981697,17.5838,44.7865,183.7601,0.3716461,-0.1535956,0.9151456,18
15.78,-12.41816,1.190921,-9.428518,0.0786512996839425,0.0294898609218671,0.0592396078003256,16.08635,44.73368,183.7776,0.3723225,-0.1417412,0.916927,18
15.8,-12.34014,1.369532,-9.338456,0.0287392783847211,-0.0089626638280375,0.0094453612997027,19.67086,44.88757,184.0485,0.3703542,-0.1710686,0.9124057,18
15.82,-12.26304,1.544656,-9.249565,-0.0223817523648555,-0.0472521753034604,-0.0417253753913514,23.25356,45.06362,184.3365,0.3680219,-0.2002191,0.9069886,18
15.84,-12.187,1.716395,-9.16201,-0.0651033105572487,-0.0643166706164978,-0.0816030371723757,26.83406,45.26478,184.645,0.365328,-0.2291613,0.9006827,18
15.86,-12.27926,1.153039,-9.236321,-0.1074638141690154,-0.076870116737809,-0.121000629101786,23.08103,41.49441,184.0557,0.3402464,-0.1992518,0.9181811,18
15.88,-12.20397,1.341842,-9.149354,-0.1496888033441228,-0.0880453022175217,-0.1601379278687912,26.61041,41.58672,184.1078,0.337537,-0.2273919,0.9121169,18
15.9,-12.12916,1.527383,-9.063054,-0.1712543223746216,-0.0175779952926524,-0.1791206093179985,30.13856,41.68577,184.1682,0.3345078,-0.2553069,0.9051894,18
15.92,-12.15864,1.128741,-9.070112,-0.2149204212803628,-0.0578433804833725,-0.2198765563290401,30.04732,37.87056,183.7143,0.3052973,-0.2552188,0.9158007,18
15.94,-12.08612,1.324439,-8.985107,-0.2567093608825028,-0.0945944469949359,-0.2584869240191643,33.51025,37.84454,183.5318,0.3019668,-0.2821423,0.90825,18
15.96,-12.0138,1.51705,-8.900436,-0.2791210420563452,-0.044285717749651,-0.2789535501792173,36.97206,37.80357,183.3393,0.2983607,-0.3087998,0.8998708,18
15.98,-11.9418,1.706602,-8.816239,-0.3077090506573183,-0.0780260863324828,-0.307335682681465,40.43279,37.74524,183.1341,0.2944823,-0.3351676,0.8906711,18
16.0,-11.98547,1.117145,-8.858021,-0.3333609533975694,-0.1087467604558651,-0.3328194588717769,39.62507,35.72838,182.6866,0.2809614,-0.3292792,0.8976385,18
16.02,-11.9143,1.316459,-8.77496,-0.3562510251289394,-0.1398198399511352,-0.3555853174108079,43.02347,35.53941,182.2948,0.2768835,-0.3548129,0.8880202,18
16.04,-11.84318,1.512811,-8.692059,-0.3561551552621143,-0.0586186867975551,-0.3551263064611863,46.41982,35.30535,181.8631,0.2725612,-0.3800252,0.8776179,18
16.06,-11.80781,1.113747,-8.654445,-0.3566066285362381,-0.0913975580884562,-0.355646631994614,46.37928,35.05803,180.3672,0.27565,-0.3763759,0.8768984,18
16.08,-11.73808,1.314208,-8.572708,-0.3535594736208656,-0.1217745326791192,-0.3526714048602574,49.7192,34.76599,179.881,0.2714913,-0.4009146,0.8657708,18
16.1,-11.66837,1.511808,-8.491077,-0.3401130156969516,-0.064443210540621,-0.3368294428799527,53.05626,34.40478,179.3299,0.2671006,-0.4251026,0.8539041,18
16.12,-11.55858,1.103727,-8.361179,-0.3110044144313688,-0.0920110139800173,-0.3028625970520405,56.50152,32.42953,176.2096,0.2608733,-0.4461198,0.8410108,18
16.14,-11.48994,1.299749,-8.281688,-0.2791549050086963,-0.1185657442674392,-0.2663960837245287,59.76638,31.69477,175.2631,0.2563737,-0.4691027,0.8277538,18
16.16,-11.42147,1.49305,-8.202492,-0.2447389128098294,-0.1474541277088657,-0.2276075908261358,63.02233,30.76048,174.1203,0.251662,-0.4916865,0.8138149,18
16.18,-11.35328,1.683656,-8.123706,-0.2104956230896593,-0.0626230552241184,-0.1900944349988572,66.26665,29.54649,172.7007,0.2467425,-0.5138559,0.7992046,18
16.2,-11.28547,1.764935,-8.045448,-0.1682501792705879,-0.0809102534185237,-0.1423404039989638,69.49412,27.92276,170.874,0.2416193,-0.5355927,0.7839357,18
16.22,-11.16315,1.12879,-7.892293,-0.1241580142002842,-0.099045516059581,-0.0927568167710382,60.96549,21.68952,166.6877,0.218799,-0.4760669,0.8296233,18
16.24,-11.09516,1.31294,-7.813008,-0.0934441840508593,-0.035435707648698,-0.0601188245594948,64.02475,19.64722,164.3082,0.2146194,-0.4976912,0.8153333,18
16.26,-11.02778,1.494415,-7.734525,-0.062100601377365,0.0270946770288354,-0.0271734902488044,67.03625,17.02993,161.3578,0.2102682,-0.5189089,0.8003917,18
16.28,-10.89786,1.195411,-7.578846,-0.0189301082572348,-0.0031610637651186,0.0154502298045156,48.32437,27.97679,173.1485,0.2438875,-0.383294,0.8778389,18
16.3,-10.83008,1.371802,-7.496767,0.0249907186055513,-0.0351156108474712,0.0590621566739483,51.46188,27.27699,172.1438,0.2408176,-0.4063615,0.8663723,18
16.32,-10.76315,1.545414,-7.415832,0.0644254606234411,0.0285186683428738,0.0963631302036091,54.58948,26.42991,170.9978,0.2375602,-0.4291049,0.8542319,18
16.34,-10.62848,1.250114,-7.311448,0.1076805893630261,0.0229652185375818,0.131798652453709,26.2383,34.78351,176.0049,0.2984753,-0.2063217,0.9264475,18
16.36,-10.55083,1.418826,-7.219105,0.1515881581039004,0.0168029093312191,0.1677186812641217,29.76032,34.68734,175.6538,0.2971932,-0.2340218,0.9189578,18
16.38,-10.47446,1.583964,-7.128394,0.1859454552842085,0.0765917465530354,0.1985236161836455,33.28203,34.56146,175.2819,0.2956268,-0.2615008,0.9105925,18
16.4,-10.39949,1.745659,-7.039477,0.2183497620769569,0.133700126094589,0.227049076839344,36.80338,34.40139,174.8839,0.2937781,-0.2887343,0.901359,18
16.42,-10.38582,1.27188,-7.045838,0.2398696650666862,0.0956533577398547,0.2412840617598646,2.411022,40.70589,177.9472,0.3480228,-0.01349295,0.9370791,18
16.44,-10.30576,1.43839,-6.952732,0.2573893525865419,0.1272276651991571,0.2558206159007162,5.974159,40.77595,177.969,0.348713,-0.04267289,0.935613,18
16.46,-10.2271,1.601209,-6.861372,0.2723135741063325,0.1577654060948914,0.267909848010652,9.53624,40.8479,177.9955,0.3490656,-0.07180323,0.9332429,18
16.48,-10.14998,1.760485,-6.771927,0.2842864845327048,0.1845001646649801,0.2771533573130352,13.09728,40.92238,178.0269,0.3490803,-0.1008559,0.929972,18
16.5,-10.09307,1.293887,-6.710392,0.2871972097571347,0.1150581813175868,0.2762602767142676,352.8222,43.34491,179.2451,0.3681846,0.06059861,0.9276201,18
16.52,-10.01291,1.455457,-6.614627,0.2875950441436565,0.0594061616324652,0.2736989830349162,356.4035,43.39081,179.4822,0.3693547,0.03082687,0.9287477,18
16.54,-9.934329,1.613218,-6.520883,0.2936725982154435,0.1001496968940443,0.2801563268560849,359.9835,43.45137,179.7216,0.3701618,0.001033251,0.9289642,18
16.56,-9.920837,1.262133,-6.506682,0.2863701238503483,0.0663302475304899,0.2706182534599276,355.7383,43.93539,180.5675,0.3739914,0.03263007,0.9266736,18
16.58,-9.843085,1.425985,-6.412679,0.2761096484595708,0.0332766944024739,0.2586391379298657,359.2871,43.99072,180.8591,0.374557,0.002960542,0.927153,18
16.6,-9.766796,1.586202,-6.320573,0.2716521249801961,0.0727962995040481,0.2540134781337148,2.834538,44.06408,181.1542,0.3747604,-0.02670344,0.9267373,18
16.62,-9.750175,1.240619,-6.297923,0.253074348498942,0.0392038579640617,0.2350434296439857,3.981826,44.48489,182.0632,0.3776579,-0.03896163,0.9251187,18
16.64,-9.670872,1.406905,-6.203506,0.2323511972860192,0.007085899566279,0.2138408333135192,7.605022,44.58354,182.369,0.3771389,-0.06917235,0.9235502,18
16.66,-9.592976,1.56947,-6.110895,0.2173689138777783,0.0490011371494323,0.2009215807086353,11.22729,44.70281,182.6841,0.3762397,-0.09930978,0.9210522,18
16.68,-9.516643,1.728472,-6.020266,0.1992465095185405,0.0892894143209545,0.18485209352004,14.8478,44.84436,183.0116,0.3749617,-0.1293386,0.9176282,18
16.7,-9.599017,1.217403,-6.099163,0.1776584222689154,0.1101764814685603,0.1652508709191865,11.89124,44.64258,183.3592,0.374786,-0.1068539,0.9208505,18
16.72,-9.519902,1.389781,-6.00656,0.1224019943702596,0.0200218798290681,0.1096848450418779,15.5095,44.7787,183.6488,0.3732519,-0.1367137,0.9173331,18
16.74,-9.441964,1.558524,-5.915451,0.0893177244926684,0.0301313542830813,0.0778147119406107,19.12596,44.93676,183.9531,0.3713436,-0.1664275,0.912897,18
16.76,-9.36535,1.723761,-5.826007,0.0551106714058289,0.0416429124634578,0.0447853117418665,22.74056,45.11928,184.2753,0.3690627,-0.1959657,0.9075474,18
16.78,-9.46139,1.175716,-5.912961,2.993677611096146e-05,-0.0268221687391257,-0.0089008662134684,18.74358,43.8421,184.0642,0.3627573,-0.1640331,0.9168968,18
16.8,-9.384287,1.358313,-5.824028,-0.0351284392271228,-0.0119555277917632,-0.0418547586615511,22.31304,43.98292,184.2739,0.3604463,-0.1929862,0.911786,18
16.82,-9.307936,1.537501,-5.736065,-0.0700531370938398,0.0047530658831396,-0.0744900440918731,25.88094,44.14213,184.4993,0.3577849,-0.2217432,0.9057899,18
16.84,-9.356893,1.145504,-5.767305,-0.105010704866614,0.0202639870780578,-0.1070757388978131,24.59866,40.74456,184.056,0.3328488,-0.2116061,0.9179849,18
16.86,-9.282439,1.336357,-5.681005,-0.1619435602595279,-0.0758202358502345,-0.1600623986146246,28.10846,40.81406,184.0616,0.3299718,-0.2394427,0.9116139,18
16.88,-9.208393,1.524004,-5.595271,-0.1930424046385619,-0.0597348720882728,-0.187960222291916,31.61673,40.8864,184.0724,0.3267865,-0.2670431,0.9043909,18
16.9,-9.134879,1.708494,-5.510248,-0.2222783389116007,-0.0415419438005845,-0.2138887646892921,35.12403,40.96246,184.089,0.3232954,-0.2943855,0.8963223,18
16.92,-9.224019,1.124873,-5.586224,-0.2579111621596845,-0.1077711172033613,-0.2462648568387891,32.07775,36.86932,183.5383,0.295677,-0.2713693,0.9140196,18
16.94,-9.152099,1.321923,-5.501631,-0.276163436073549,-0.0843013986438425,-0.2628489246973263,35.52198,36.79461,183.2841,0.292144,-0.2979501,0.9060519,18
16.96,-9.080327,1.515923,-5.417306,-0.2916765649992439,-0.0589550109211169,-0.2769123010235471,38.96491,36.69674,183.0123,0.2883468,-0.3242531,0.8972651,18
16.98,-9.071479,1.115591,-5.407974,-0.3046588729959102,-0.03504598863682,-0.2886799098803979,41.85388,35.65384,182.3654,0.2788693,-0.3458572,0.8912571,18
17.0,-9.000626,1.315528,-5.325316,-0.3266327933462587,-0.1265134439488861,-0.3121682795626094,45.23852,35.43561,181.9522,0.2746386,-0.371095,0.8811628,18
17.02,-8.929808,1.51253,-5.242788,-0.3285780665714767,-0.1010209698014158,-0.3141509049810769,48.6209,35.16627,181.4927,0.2701673,-0.3959994,0.8702969,18
17.04,-8.859138,1.706608,-5.160522,-0.3269157338047964,-0.0739005531623763,-0.3124923820471267,52.00061,34.83307,180.9736,0.2654595,-0.4205487,0.8586696,18
17.06,-8.818223,1.109974,-5.110329,-0.3218408736631759,-0.0485114895558459,-0.307402552961428,50.68722,33.8986,178.7356,0.2679699,-0.4065209,0.8630712,18
17.08,-8.749205,1.309352,-5.029167,-0.3028384243320254,-0.0518542939676397,-0.285702101305766,54.00036,33.46106,178.0995,0.2636697,-0.4304619,0.8510034,18
17.1,-8.680239,1.505921,-4.948155,-0.2807372290611517,-0.0523728180359222,-0.261095663306185,57.30913,32.91695,177.3606,0.2591469,-0.4540312,0.838218,18
17.12,-8.526903,1.104421,-4.765984,-0.2557228498105657,-0.0534326825889115,-0.233777529379729,61.22149,27.86997,171.2199,0.2444836,-0.4769016,0.8234801,18
17.14,-8.458779,1.295555,-4.687129,-0.2210638367362206,-0.0451364861503087,-0.1947428068612289,64.41048,26.43689,169.5353,0.2399919,-0.4990265,0.8091799,18
17.16,-8.391016,1.484022,-4.608778,-0.1848554345424969,-0.0348353397306974,-0.1543036228229051,67.57489,24.56907,167.4191,0.2353044,-0.5207334,0.794223,18
17.18,-8.323711,1.669861,-4.531041,-0.1472825592938221,-0.0257854292856266,-0.112654656375726,70.70354,22.06,164.6646,0.2304252,-0.5420076,0.77862,18
17.2,-8.215843,1.144162,-4.39552,-0.1085211741318952,-0.0211930613395204,-0.0699800301923941,58.40541,22.21035,167.797,0.2180651,-0.4581825,0.8417136,18
17.22,-8.14838,1.326106,-4.315522,-0.0654209962386224,-0.1007088153992241,-0.0222545105759073,61.46882,20.49558,165.7405,0.2141548,-0.4800383,0.8280087,18
17.24,-8.081598,1.505365,-4.236422,-0.0294640169598929,-0.0608733695188268,0.0155139864879493,64.49503,18.33903,163.2469,0.2100752,-0.501506,0.8136494,18
17.26,-8.015596,1.682009,-4.158331,0.0067822381053493,-0.0211157709719923,0.0534516594528299,67.46915,15.57406,160.1491,0.2058315,-0.5225682,0.7986486,18
17.28,-7.870106,1.22886,-4.01382,0.0431547808707551,0.0155289390158545,0.0913563203700877,37.81163,31.18387,174.7264,0.2683724,-0.3000613,0.9062669,18
17.3,-7.798071,1.401128,-3.926819,0.0774101267936827,0.0290789716319095,0.1167453076154519,41.12055,30.8502,174.0986,0.2661335,-0.3252737,0.8965717,18
17.32,-7.727094,1.570269,-3.841203,0.1122283148660598,0.0434755343607125,0.1424259712643326,44.42535,30.4476,173.4096,0.2636683,-0.3502022,0.8861157,18
17.34,-7.628216,1.263637,-3.765019,0.1473434107274261,0.0556564559651521,0.1680618963959536,13.93131,37.78356,177.1676,0.3241296,-0.1067633,0.9378912,18
17.36,-7.549877,1.431463,-3.672467,0.1713443623931201,0.0652498355486847,0.1861944626051653,17.46006,37.81145,177.0291,0.3238728,-0.1352405,0.9335036,18
17.38,-7.472846,1.595675,-3.58158,0.1936179649104129,0.0758572656520603,0.2024792346431766,20.98928,37.83067,176.8892,0.3233075,-0.1635921,0.9282287,18
17.4,-7.397274,1.756424,-3.492533,0.2138270196822355,0.0846022369795759,0.2165280993748706,24.51752,37.84089,176.747,0.3224349,-0.1917803,0.9220739,18
17.42,-7.384307,1.279265,-3.487856,0.231655473629846,0.0886717467860684,0.2279830532257518,354.4733,42.34932,178.4086,0.3601331,0.04996206,0.9315514,18
17.44,-7.304214,1.444159,-3.394139,0.2556930642535577,0.0923555340968376,0.2497971708428107,358.0365,42.40564,178.5431,0.3613851,0.02057006,0.9321726,18
17.46,-7.225579,1.605335,-3.302251,0.2769609544634632,0.0963596389048065,0.2695880704813055,1.598592,42.47025,178.681,0.3622865,-0.008833371,0.9318913,18
17.48,-7.148548,1.762949,-3.21236,0.2951096140181505,0.0978690323627139,0.2869307400055287,5.159494,42.54363,178.8234,0.3628367,-0.03821995,0.9307087,18
17.5,-7.114161,1.282832,-3.17364,0.3098153888503461,0.0941345690248885,0.3014338442511264,353.784,43.58014,179.7436,0.3705474,0.05117374,0.9272271,18
17.52,-7.035659,1.444848,-3.077966,0.3055822047095266,0.0821209419911397,0.2939963009082538,357.3491,43.62299,180.0282,0.3714599,0.02138417,0.9281608,18
17.54,-6.958695,1.603124,-2.984293,0.2983882761790323,0.0718246139574238,0.2839756307404278,0.9129146,43.68341,180.3151,0.3720101,-0.008417796,0.9281906,18
17.56,-6.950561,1.250441,-2.981295,0.2879257442890552,0.0604780988376069,0.270992428468442,359.3897,44.13139,181.3674,0.3756963,0.0004528929,0.9266509,18
17.58,-6.872172,1.4152,-2.887111,0.2713905072987467,0.0505424410513833,0.2533193039660843,2.974863,44.20212,181.6618,0.3757264,-0.02950216,0.9262539,18
17.6,-6.795233,1.576288,-2.794792,0.2528165965096024,0.0427757938840943,0.233777529017873,6.558844,44.29166,181.962,0.3753857,-0.05942094,0.9249445,18
17.62,-6.79652,1.232102,-2.782233,0.2318918165672971,0.0343282474732562,0.2119864835229624,8.237709,44.4211,182.8791,0.3752455,-0.07594725,0.9238006,18
17.64,-6.717228,1.400844,-2.688087,0.217039737527278,0.0977668072915491,0.1977078509341066,11.86922,44.53777,183.178,0.3741246,-0.106097,0.9211887,18
17.66,-6.639257,1.56588,-2.595628,0.1769633904294017,0.0606593734185179,0.157588291425601,15.49903,44.67582,183.4891,0.3726255,-0.1361309,0.9176465,18
17.68,-6.562756,1.727349,-2.505027,0.135259664402867,0.0263422800015809,0.1157819416247006,19.12745,44.8373,183.8154,0.3707496,-0.1660218,0.9131781,18
17.7,-6.487869,1.778751,-2.416454,0.0916758960602856,-0.0081182861007166,0.072013162862459,22.75387,45.02504,184.1607,0.3684994,-0.1957365,0.907789,18
17.72,-6.626291,1.190894,-2.557065,0.0531322369827735,-0.0233589003106267,0.0352650398636795,16.0878,44.69622,183.7873,0.3720096,-0.1417919,0.9170492,18
17.74,-6.54843,1.369415,-2.466537,0.013913613207184,-0.0342774132070335,-0.0022782971425105,19.67975,44.84675,184.0685,0.3699917,-0.1712154,0.912532,18
17.76,-6.471494,1.544435,-2.377186,-0.0262284695048017,-0.0438976890838493,-0.040869822676859,23.26989,45.0201,184.3668,0.3676086,-0.2004611,0.9071151,18
17.78,-6.533273,1.160833,-2.424872,-0.0675242788687252,-0.0551892020729569,-0.0807393813114899,21.57068,42.12604,184.103,0.3465684,-0.1871533,0.9185212,18
17.8,-6.457574,1.347654,-2.337346,-0.0845024429901327,0.0203502229146618,-0.0959020637330897,25.10817,42.22837,184.1998,0.3439492,-0.2155163,0.9128185,18
17.82,-6.382449,1.531174,-2.250579,-0.1322348687455682,-0.0238523562810094,-0.1418949217621968,28.64446,42.3407,184.3069,0.3410025,-0.2436655,0.9062471,18
17.84,-6.308033,1.711462,-2.164725,-0.1788352121608404,-0.0642531985925403,-0.186531209939571,32.17909,42.46483,184.426,0.3377317,-0.2715708,0.8988156,18
17.86,-6.387907,1.128755,-2.222848,-0.2058323471399155,-0.0188770165711396,-0.2122884038254491,30.04413,37.75525,183.7147,0.304378,-0.255249,0.916114,18
17.88,-6.315442,1.324433,-2.137558,-0.2438264257025475,-0.056861855803207,-0.2483289382241333,33.51321,37.72234,183.5314,0.3009959,-0.2822342,0.9085643,18
17.9,-6.243184,1.517014,-2.052599,-0.2795534848447997,-0.0913944236230968,-0.2820309161372482,36.98118,37.67408,183.3376,0.2973382,-0.3089527,0.9001828,18
17.92,-6.228059,1.117152,-2.025967,-0.3131944513115362,-0.1258025653510344,-0.313576952428209,39.62084,35.57872,182.6864,0.2797941,-0.3293538,0.8980161,18
17.94,-6.157053,1.316465,-1.942701,-0.3254374475129333,-0.1321949800065485,-0.3260545194650516,43.02127,35.38223,182.2928,0.2756737,-0.35492,0.8884041,18
17.96,-6.08611,1.512812,-1.859593,-0.3342935419173658,-0.1344914881268075,-0.3351683709327354,46.41958,35.14002,181.8587,0.2713097,-0.3801642,0.8780068,18
17.98,-6.015344,1.706209,-1.776777,-0.3399402567601821,-0.1360836735018255,-0.3411142268030334,49.81542,34.84139,181.3726,0.266706,-0.4050641,0.8668342,18
18.0,-6.02494,1.113749,-1.792,-0.3331522330977478,-0.0516088416668431,-0.3328932246540035,46.37207,34.98235,180.372,0.2750628,-0.3764085,0.8771086,18
18.02,-5.955348,1.314208,-1.71016,-0.3187151946766191,-0.0821036288383065,-0.3158709184882157,49.71238,34.68469,179.8868,0.2708641,-0.4009665,0.8659936,18
18.04,-5.885772,1.511807,-1.628422,-0.3013781605734453,-0.1106235502479252,-0.2960086850544343,53.04982,34.31751,179.3363,0.2664338,-0.4251737,0.854139,18
18.06,-5.816321,1.706558,-1.546913,-0.2813065924514784,-0.140553299447859,-0.2734742714528942,56.38376,33.86106,178.7,0.2617761,-0.4490095,0.8415558,18
18.08,-5.709125,1.102149,-1.418829,-0.2542364059068578,-0.0570455032941709,-0.2436754992481564,59.66063,30.77443,174.0916,0.2545955,-0.467102,0.8284926,18
18.1,-5.640735,1.295782,-1.339496,-0.21797501474776,-0.0828145813727375,-0.2027887025499413,62.90561,29.74641,172.8481,0.2499952,-0.4896748,0.8145303,18
18.12,-5.572615,1.486716,-1.260558,-0.1793925868590554,-0.107979785842929,-0.1597972002212464,66.13638,28.41526,171.3045,0.2451887,-0.5118323,0.7998989,18
18.14,-5.413295,1.128722,-1.065633,-0.1513477076995416,-0.046545665217845,-0.1301070717335414,60.96815,21.60306,166.7157,0.218057,-0.4762852,0.829823,18
18.16,-5.345886,1.312884,-0.9861089,-0.1220133387401008,0.0141665109969231,-0.0993532487695859,64.02683,19.58182,164.367,0.2138989,-0.4979324,0.8155503,18
18.18,-5.279085,1.49438,-0.9073845,-0.0801543573822288,-0.02119357709641,-0.053323168296959,67.03883,16.99233,161.4542,0.2095702,-0.5191742,0.8006279,18
18.2,-5.212991,1.673275,-0.8295736,-0.0376075953673728,-0.0578906105347631,-0.0064936317936362,69.98322,13.59599,157.7382,0.2050764,-0.5399924,0.7850698,18
18.22,-5.124238,1.19533,-0.7231041,-0.0006965141678871,0.0072373055692416,0.0321754005239189,48.34123,27.88935,173.1464,0.243218,-0.3835359,0.8779619,18
18.24,-5.056747,1.371735,-0.6408876,0.0456666506465825,0.0048660342901997,0.0736880118738491,51.47763,27.18682,172.1467,0.2401198,-0.406616,0.8665056,18
18.26,-4.990117,1.545365,-0.5598117,0.0928737361181046,0.00195711815587,0.1161548933652388,54.60415,26.33724,171.0057,0.2368349,-0.4293721,0.8543766,18
18.28,-4.924447,1.716305,-0.4799929,0.1406749123522323,-0.0046282627408715,0.159262365771804,57.71795,25.30045,169.6828,0.2333678,-0.4517863,0.8415852,18
18.3,-4.807533,1.257306,-0.405659,0.1767784850738535,0.0761272815171522,0.1925835164708156,20.0794,36.30374,176.577,0.3115771,-0.1564187,0.9336441,18
18.32,-4.729877,1.425689,-0.3134458,0.2027609183257347,0.0631856988665968,0.2103898565082888,23.59363,36.27887,176.3427,0.3107993,-0.1844575,0.9277256,18
18.34,-4.653496,1.5905,-0.2228647,0.228374883634306,0.050109564068651,0.2275977059571276,27.10847,36.2369,176.0995,0.3097266,-0.2123271,0.9209298,18
18.36,-4.584584,1.275726,-0.1583817,0.2489746955286778,0.1048233195104452,0.245055329997935,358.4293,41.50814,178.1826,0.3540765,0.01843465,0.9349819,18
18.38,-4.504644,1.44147,-0.06500274,0.2669278874212492,0.1569525466821618,0.2598159285252194,1.989648,41.57055,178.2604,0.3550188,-0.01084405,0.934575,18
18.4,-4.42613,1.603518,0.02659559,0.2793712595425648,0.1157912674474419,0.2677235819778744,5.548893,41.638,178.3423,0.3556177,-0.04010399,0.9332659,18
18.42,-4.349188,1.762017,0.1162444,0.2895783011490604,0.0732223972822984,0.2739165182563554,9.107012,41.71107,178.4292,0.3558729,-0.06931686,0.9310567,18
18.44,-4.274569,1.296069,0.1986704,0.3064074415159672,0.1215628878990361,0.2903917263513937,353.4556,43.40442,179.4763,0.3689335,0.05472021,0.9276905,18
18.46,-4.195016,1.457046,0.2949334,0.3109291664468772,0.0953919931396573,0.292815396154398,357.0321,43.44462,179.7374,0.3699284,0.02490572,0.9286967,18
18.48,-4.117058,1.614216,0.3891436,0.3125870565077159,0.0696306369355038,0.2931608355329897,0.6073175,43.501,180.0007,0.3705604,-0.004924702,0.9287935,18
18.5,-4.040843,1.76775,0.4811239,0.3110983720595929,0.0414562876330702,0.2910779949762203,4.181217,43.57393,180.2681,0.3708293,-0.03474178,0.9279816,18
18.52,-4.093714,1.254766,0.4106778,0.3123438729374827,0.1032661838425662,0.2936037305397671,357.4078,43.97436,181.1323,0.3744923,0.0172749,0.9269016,18
18.54,-4.015906,1.419202,0.5043158,0.2972534183466087,0.0680496806674046,0.2776043922224285,0.9632086,44.03195,181.4163,0.3747269,-0.01242479,0.9270148,18
18.56,-3.939551,1.580018,0.5960899,0.2797271913378327,0.0343524171089522,0.2591939389929115,4.517294,44.1073,181.7047,0.3745981,-0.04210398,0.9262303,18
18.58,-3.949888,1.237791,0.5939617,0.2695734131530338,0.0754503101649634,0.2513188214928565,6.145444,44.45346,182.5829,0.3765146,-0.05812115,0.9245856,18
18.6,-3.870539,1.404975,0.6886103,0.2563334079903157,0.1149069709938104,0.240433882722268,9.779524,44.55749,182.8902,0.3756239,-0.08837698,0.9225045,18
18.62,-3.792574,1.56843,0.7814934,0.2151849884853031,0.0543826617096555,0.1997001568885009,13.41195,44.68283,183.2083,0.3743527,-0.1185347,0.91949,18
18.64,-3.71614,1.7283,0.8724385,0.1841488844579799,0.0708904629181016,0.1692490807788812,17.04331,44.83131,183.54,0.3727021,-0.1485693,0.9155452,18
18.66,-3.796201,1.199621,0.8018628,0.1513347215511034,0.0884717888690865,0.1369572186917445,14.76641,44.67619,183.674,0.3729162,-0.130883,0.9183826,18
18.68,-3.717997,1.376067,0.8932059,0.1164300084241539,0.1042805448446275,0.1024752388064196,18.36884,44.81936,183.9613,0.3710144,-0.1604781,0.9141875,18
18.7,-3.640805,1.548964,0.9832662,0.0539564070634378,0.014132256343589,0.0399019801901383,21.96946,44.98526,184.265,0.3687442,-0.189905,0.909085,18
18.72,-3.680806,1.168285,0.9595414,-0.0092139535705883,-0.05785965861033,-0.0235195572717308,20.14028,42.91939,184.072,0.3542019,-0.1754265,0.918032,18
18.74,-3.604526,1.352974,1.047687,-0.0414954366817861,-0.0183865339991816,-0.0538785870979129,23.69035,43.03621,184.2214,0.3517079,-0.2040529,0.9126472,18
18.76,-3.528911,1.534316,1.134971,-0.091995274449698,-0.0603190236502044,-0.101575019210875,27.23907,43.16683,184.3834,0.3488764,-0.2324749,0.9063872,18
18.78,-3.454098,1.71239,1.221236,-0.1418503815052486,-0.098221051260161,-0.1485109034957756,30.786,43.31348,184.5601,0.3457103,-0.2606616,0.8992596,18
18.8,-3.380218,1.780617,1.306337,-0.1705987177866338,-0.0519550281415714,-0.17451394348254,34.33148,43.4792,184.7549,0.3422131,-0.2885901,0.8912711,18
18.82,-3.520905,1.132801,1.176356,-0.1980021253204359,-0.005791934076597,-0.19906060557852,28.02818,38.78682,183.9458,0.3141147,-0.2393766,0.9174117,18
18.84,-3.447824,1.327117,1.262038,-0.239977324790704,-0.071956738192646,-0.236924783677952,31.51542,38.79092,183.8319,0.3108633,-0.2667004,0.9103082,18
18.86,-3.375012,1.518299,1.347322,-0.2802054657544435,-0.135231223236812,-0.2728527013181039,35.00121,38.7868,183.7139,0.3073253,-0.2937663,0.9023642,18
18.88,-3.393492,1.118775,1.345729,-0.2958080187424761,-0.0849257316939381,-0.2855389258140676,37.37397,35.55302,183.0112,0.281094,-0.3125939,0.9043136,18
18.9,-3.322287,1.31746,1.429491,-0.3085601123299129,-0.0348168675807991,-0.2955385615055194,40.78836,35.37619,182.6348,0.2770815,-0.3384625,0.8952039,18
18.92,-3.25117,1.513152,1.513067,-0.3316453177922162,-0.098544430314229,-0.3197256503654762,44.20076,35.1582,182.2228,0.2728221,-0.3640211,0.8852963,18
18.94,-3.214329,1.114528,1.547236,-0.3430575510915184,-0.0719350611534419,-0.3320637378061585,44.68377,35.40411,181.1241,0.2776757,-0.3648748,0.8822286,18
18.96,-3.144466,1.315039,1.629501,-0.3508933068801311,-0.043523430270192,-0.3407888597098539,48.04107,35.15224,180.6929,0.2734702,-0.3897216,0.8714865,18
18.98,-3.074619,1.512665,1.711667,-0.3562314073235383,-0.1015154934399591,-0.3469934194059819,51.39591,34.84192,180.2073,0.2690291,-0.4142242,0.8599938,18
19.0,-3.004898,1.707414,1.793606,-0.3584596414747725,-0.1583691511929429,-0.350159009599796,54.74784,34.45731,179.6511,0.2643563,-0.4383618,0.8477609,18
19.02,-2.905775,1.103733,1.912261,-0.3457199972262411,-0.1000433270057254,-0.3358021967965967,56.48924,32.2556,176.2205,0.2595654,-0.4462956,0.8414704,18
19.04,-2.837267,1.29975,1.992157,-0.3293941850856394,-0.0423754756403475,-0.3178582887190534,59.76186,31.51132,175.2737,0.2550088,-0.4693654,0.8281981,18
19.06,-2.768943,1.493036,2.071761,-0.2949490431916786,-0.0970000994676659,-0.2782714503147763,63.02541,30.56602,174.129,0.2502406,-0.4920336,0.8142406,18
19.08,-2.700905,1.683614,2.150956,-0.2581729069989731,-0.1524722272629719,-0.236579780253724,66.27715,29.33857,172.705,0.2452648,-0.5142852,0.7996083,18
19.1,-2.588279,1.117888,2.289183,-0.2249383375300443,-0.0926495570747631,-0.200007125335186,61.8326,22.94177,167.2094,0.2256389,-0.4813851,0.8241693,18
19.12,-2.520657,1.304289,2.368261,-0.1777652957844174,-0.1033503980326448,-0.1464932534651472,64.92167,20.94477,164.9094,0.2213379,-0.5030746,0.8097098,18
19.14,-2.453568,1.488034,2.446638,-0.1295718943129222,-0.1141782313585257,-0.0918671476275606,67.96648,18.35895,162.0244,0.2168594,-0.5243518,0.7946011,18
19.16,-2.387111,1.669181,2.5242,-0.0942661229950837,-0.0463889139344895,-0.0538055050181368,70.94597,14.91948,158.289,0.2122077,-0.5451978,0.7788573,18
19.18,-2.240681,1.195321,2.702601,-0.0590988058510445,0.0199589330717976,-0.0163038101167914,48.34644,27.75249,173.1194,0.2422574,-0.3837,0.8781976,18
19.2,-2.172815,1.371714,2.784795,-0.0242273152742392,0.0668025746889591,0.0204434649793526,51.48589,27.02387,172.0896,0.2390872,-0.40679,0.8667344,18
19.22,-2.105817,1.54532,2.865849,0.0142155670562469,0.0104365571049044,0.0527955768213038,54.61484,26.14325,170.9136,0.2357303,-0.4295545,0.8545954,18
19.24,-1.971668,1.250041,2.97028,0.0502218863015224,0.0492572666458749,0.0820521030281711,26.27817,34.58571,175.9962,0.2968791,-0.2067959,0.9268744,18
19.26,-1.894282,1.418756,3.062851,0.0864321416285885,0.0873250432693394,0.1111581116961308,29.80083,34.47727,175.6392,0.2955233,-0.2345151,0.9193959,18
19.28,-1.818166,1.583897,3.153793,0.1226038948472998,0.121661314275083,0.1397945749172522,33.32309,34.33825,175.2603,0.293885,-0.2620128,0.9110411,18
19.3,-1.743461,1.745595,3.242944,0.1560922533130669,0.0599541654048556,0.1609509977756855,36.84488,34.1639,174.854,0.2919659,-0.2892641,0.9018171,18
19.32,-1.729503,1.271856,3.236048,0.1827268519025557,0.0895395033789731,0.1834124354959774,2.449039,40.52179,177.9435,0.3465204,-0.01383188,0.9376276,18
19.34,-1.649769,1.438367,3.329422,0.2075387745636866,0.1183499894532799,0.2040325383603296,6.012621,40.58245,177.9633,0.3471344,-0.04302854,0.9361801,18
19.36,-1.571431,1.601188,3.421052,0.2301733521630701,0.0773082070625914,0.2218587679538667,9.575159,40.64482,177.987,0.3474122,-0.07217528,0.9338281,18
19.38,-1.494635,1.760466,3.510768,0.2519021161371126,0.106253675452948,0.242055614774744,13.13666,40.70943,178.0151,0.3473538,-0.101244,0.9305744,18
19.4,-1.437325,1.293875,3.571768,0.2706073927824135,0.133920519978635,0.2598499880735686,352.8189,43.18618,179.2436,0.3668978,0.06065393,0.9281278,18
19.42,-1.357499,1.455449,3.66779,0.2859368417535737,0.1575795520725936,0.2748128826982553,356.4002,43.22297,179.4798,0.3679928,0.0308716,0.9292871,18
19.44,-1.279254,1.613216,3.761794,0.2874435538822253,0.0807994063824086,0.2729779632668359,359.9804,43.27435,179.7177,0.3687263,0.001067429,0.929535,18
19.46,-1.265499,1.262189,3.775403,0.2863960253498063,0.0959382345998972,0.2701123269658991,355.7258,43.78656,180.5632,0.3727852,0.03276943,0.9271553,18
19.48,-1.188062,1.426037,3.86965,0.2815624391996379,0.1110661438499884,0.2635734966579538,359.2747,43.83266,180.8541,0.3732782,0.003090329,0.927668,18
19.5,-1.112092,1.586251,3.962002,0.272639603890395,0.1235007663527864,0.2529745367048368,2.822183,43.89678,181.1481,0.3734104,-0.02658328,0.9272856,18
19.52,-1.037727,1.742988,4.052289,0.240938071550965,0.0382457352814314,0.2169230175009313,6.368324,43.97945,181.4474,0.3731819,-0.0562228,0.9260086,18
19.54,-1.052158,1.237891,4.038506,0.2260042516481201,0.0524277865819353,0.2027297563615571,6.127759,44.43872,182.5851,0.3764009,-0.05798579,0.9246405,18
19.56,-0.9732215,1.405191,4.132977,0.2088381612309576,0.0669148138397723,0.1865443033702133,9.749559,44.54021,182.8958,0.375495,-0.08815573,0.9225797,18
19.58,-0.8956566,1.568781,4.225696,0.1891223368569597,0.0789313309969139,0.1679820598414488,13.3702,44.66307,183.2168,0.3742109,-0.1182316,0.9195914,18
19.6,-0.8196148,1.728812,4.316487,0.1556000680749584,0.0638639315099628,0.1355694335045623,16.98925,44.80915,183.5514,0.3725503,-0.1481816,0.915679,18
19.62,-0.9185883,1.208789,4.21803,0.1209542207729134,0.0524945108728668,0.1020239587914528,13.42776,44.66732,183.545,0.3738682,-0.119763,0.919578,18
19.64,-0.840088,1.383235,4.309946,0.0849000404331072,0.0419025533047519,0.0670287024354253,17.03345,44.8018,183.8348,0.3720903,-0.149456,0.9157212,18
19.66,-0.7626828,1.554099,4.40048,0.0288699675297484,-0.0485386803960038,0.0120901537290221,20.63736,44.9586,184.1398,0.3699422,-0.1789915,0.910954,18
19.68,-0.6865159,1.721499,4.489465,-0.0045263365427039,-0.0338047214204368,-0.0196769030023611,24.23932,45.14029,184.4632,0.3674257,-0.2083389,0.9052819,18
19.7,-0.7899241,1.168269,4.395771,-0.0380743609556684,-0.0171448531492007,-0.0516231783894856,20.14269,42.95088,184.0762,0.3544455,-0.1754502,0.9179325,18
19.72,-0.713595,1.352915,4.484089,-0.0881837935083005,-0.0825972821156856,-0.0990783898215503,23.69785,43.06643,184.23,0.351926,-0.2041279,0.9125459,18
19.74,-0.6379368,1.534206,4.571544,-0.1206437128514741,-0.0621713017106765,-0.1293924911631596,27.25165,43.19608,184.3965,0.3490678,-0.2326003,0.9062814,18
19.76,-0.6912435,1.139109,4.535861,-0.1522190302278847,-0.0394713315423302,-0.1587408882815881,26.29005,39.67044,183.976,0.3228053,-0.2252583,0.9181502,18
19.78,-0.6176902,1.331697,4.621824,-0.1831521697942817,-0.0176441071865422,-0.1873720661623821,29.78452,39.70221,183.9204,0.3197104,-0.2528146,0.9114384,18
19.8,-0.5444774,1.521125,4.707309,-0.2136728482116477,-0.0148621840199248,-0.2155185701617348,33.27757,39.73117,183.8652,0.3163195,-0.2801246,0.903882,18
19.82,-0.4717266,1.707434,4.792174,-0.2678269350298219,-0.1217138060753349,-0.2675004206597644,36.76964,39.75714,183.8098,0.3126352,-0.3071666,0.895488,18
19.84,-0.5103491,1.11876,4.773633,-0.2884387045094666,-0.103598457989984,-0.285628423894142,37.37746,35.55125,183.0184,0.2810566,-0.3126402,0.9043135,18
19.86,-0.4391671,1.317414,4.857691,-0.3059659626824694,-0.0833546719608964,-0.3006654681753955,40.79926,35.37629,182.6496,0.2770266,-0.3385827,0.8951836,18
19.88,-0.3680773,1.513065,4.941563,-0.3272616519247344,-0.1478508392532407,-0.3220723916204682,44.21908,35.1608,182.2456,0.2727488,-0.3642139,0.8852527,18
19.9,-0.2971961,1.705729,5.025111,-0.3319621350158871,-0.1220647985989167,-0.3274457009102902,47.63665,34.89587,181.7969,0.2682272,-0.3895111,0.8745306,18
19.92,-0.318316,1.114523,4.990593,-0.3329397828594948,-0.0943895247894104,-0.3290811788498724,44.68321,35.42543,181.1281,0.2778277,-0.3648601,0.8821823,18
19.94,-0.2484456,1.315027,5.072911,-0.3303914909589265,-0.06817850243075,-0.3271984165588144,48.04239,35.17276,180.6998,0.2736014,-0.3897269,0.8714401,18
19.96,-0.1785938,1.512642,5.155132,-0.317024335190247,-0.0704818171711346,-0.3116111785089153,51.39912,34.86182,180.2171,0.2691391,-0.4142492,0.8599465,18
19.98,-0.1150649,1.107196,5.230984,-0.3003357008716587,-0.0694645321188142,-0.2927704827031969,53.28402,33.18842,177.6894,0.2638817,-0.4245047,0.8538432,18
20.0,-0.04639935,1.305588,5.311329,-0.2805099848837384,-0.0685139479684517,-0.2708739991370938,56.5712,32.62103,176.9265,0.2594171,-0.4479997,0.8412831,18
20.02,0.02216894,1.501218,5.391486,-0.2435830638581188,-0.1509503188185581,-0.2286526342250465,59.85198,31.91172,176.0251,0.2547368,-0.4711099,0.8280239,18
20.04,0.09053781,1.694104,5.471336,-0.2091761415199797,-0.116144487578666,-0.1903025801734028,63.12486,31.00977,174.934,0.2498442,-0.4938193,0.8140757,18
20.06,0.2628144,1.117865,5.679998,-0.1731668183935038,-0.0807934166634638,-0.1505739926087792,61.83749,22.84899,167.1909,0.2250487,-0.4815431,0.8242984,18
20.08,0.3306225,1.30427,5.759121,-0.1357422253848098,-0.0481087301194237,-0.1096628802239905,64.92835,20.82677,164.8661,0.2206953,-0.5032514,0.809828,18
20.1,0.3978944,1.488011,5.837545,-0.0970807506354055,-0.0363307841923328,-0.0677537379962458,67.97393,18.20845,161.9489,0.2161642,-0.5245458,0.7947064,18
20.12,0.5509165,1.17794,6.024134,-0.0583730421364097,-0.0216077856503316,-0.0262668569837709,52.1341,25.30845,171.1594,0.2292427,-0.4123073,0.8664349,18
20.14,0.6183169,1.356008,6.105681,-0.0190153895739044,-0.005029155000289,0.015832904362997,55.24365,24.26413,169.7934,0.2257944,-0.4349177,0.854137,18
20.16,0.6849055,1.531332,6.186164,0.0208230631245823,0.0102821565420596,0.0583375323814727,58.33529,22.98931,168.2024,0.2221694,-0.4571797,0.8411717,18
20.18,0.7505818,1.703991,6.265467,0.0689856541192518,-0.0446433099052156,0.1024919223207403,61.40343,21.41345,166.3154,0.2183732,-0.4790758,0.8275502,18
20.2,0.8152564,1.767412,6.343478,0.1064985037548629,-0.0050446576927613,0.1333353254217424,64.43996,19.43186,164.027,0.2144063,-0.5005896,0.8132831,18
20.22,0.9071984,1.250598,6.39557,0.1440748612261233,0.0337040972512655,0.1639571270650572,26.21706,34.56399,176.006,0.2967044,-0.2063435,0.9270603,18
20.24,0.9829412,1.420029,6.486462,0.1814448349807694,0.0686152732060973,0.1940095377315833,29.67059,34.45862,175.6605,0.2953767,-0.2335365,0.9197556,18
20.26,1.057466,1.586026,6.575792,0.2069888868799534,0.0778713231114897,0.2143006905475912,33.12321,34.32435,175.2944,0.293778,-0.2605134,0.9116095,18
20.28,1.130644,1.748707,6.663408,0.2306428160718326,0.0883467329026096,0.2325630174370401,36.57543,34.15678,174.9025,0.2919097,-0.2872552,0.9026281,18
20.3,1.185232,1.275855,6.701668,0.2520684256870377,0.0971638941732767,0.2484036869408681,358.4297,41.43512,178.182,0.3534804,0.01842732,0.9352072,18
20.32,1.264655,1.441779,6.794776,0.2727069514824971,0.0353518198761838,0.262932785481782,1.974242,41.49176,178.2595,0.3543751,-0.01072951,0.9348214,18
20.34,1.342665,1.604037,6.886122,0.2999090719869426,0.0660298377350804,0.2895985152186464,5.517751,41.55339,178.3407,0.35493,-0.03986784,0.9335414,18
20.36,1.418981,1.293871,6.971507,0.3238235504204976,0.095344793930872,0.3135424856864959,352.8129,43.1607,179.2551,0.3666959,0.06066928,0.9282047,18
20.38,1.498352,1.455456,7.067781,0.3440995255119997,0.120559737069961,0.3343360074715611,356.3909,43.19354,179.5033,0.3677593,0.03087375,0.9293777,18
20.4,1.576149,1.61324,7.162036,0.3604143388105663,0.1239253963657594,0.3515846773413902,359.9677,43.24175,179.753,0.3684618,0.001056471,0.9296405,18
20.42,1.652225,1.767391,7.254092,0.3566850750286676,0.1127364399201429,0.3452201295787751,3.543219,43.3056,180.006,0.3688034,-0.02875339,0.9289933,18
20.44,1.654826,1.254773,7.247762,0.3497654225048664,0.1034744291673825,0.3360387358254555,357.4,43.90127,181.1384,0.373902,0.01732948,0.9271377,18
20.46,1.732267,1.419172,7.34176,0.3393525323934548,0.0933711462805571,0.323658397848753,0.9563302,43.95305,181.4311,0.3740878,-0.01241181,0.9272718,18
20.48,1.808257,1.579948,7.43389,0.3226834301102873,0.0849054372596258,0.3062748004084652,4.511377,44.02314,181.7279,0.3739106,-0.04213261,0.9265071,18
20.5,1.882654,1.737255,7.523983,0.3037671492828777,0.0788237085556284,0.2867677146627574,8.064993,44.11221,182.0309,0.3733708,-0.07180408,0.9248451,18
20.52,1.825045,1.237796,7.463012,0.282295113336838,0.0722759471547043,0.2647546672986152,6.136716,44.43046,182.5842,0.3763315,-0.05805493,0.9246643,18
20.54,1.90423,1.40497,7.557786,0.2579839698078539,0.0624733582436126,0.2398835787619897,9.770587,44.52919,182.8946,0.375397,-0.08832162,0.922603,18
20.56,1.982027,1.568416,7.650795,0.2218607835097695,0.0486431777098542,0.2044424618347515,13.40283,44.64935,183.2153,0.3740823,-0.1184902,0.9196082,18
20.58,2.058291,1.728276,7.741868,0.1840196279418877,0.0385128916087137,0.1671565134512085,17.03404,44.79273,183.5494,0.3723885,-0.1485356,0.915683,18
20.6,1.964998,1.199634,7.654657,0.1441756800559412,0.0291582202478017,0.1277054346197221,14.76433,44.63066,183.6743,0.3725523,-0.130875,0.9185328,18
20.62,2.043087,1.376076,7.746084,0.0857069787180614,-0.0600506004629385,0.0698218690501342,18.3668,44.76819,183.9617,0.3706072,-0.1604762,0.9143555,18
20.64,2.120162,1.54897,7.836231,0.0519484091672055,-0.0453660873228778,0.0384144937608983,21.96749,44.92832,184.2651,0.3682941,-0.1899092,0.9092711,18
20.66,2.066588,1.168315,7.79615,0.017400450003486,-0.0285153642437157,0.0061114416966914,20.13482,42.85471,184.0715,0.353689,-0.175399,0.9182387,18
20.68,2.142752,1.352998,7.884378,-0.0181977376953623,-0.0124757091359994,-0.0273548823771985,23.68488,42.96562,184.2202,0.351153,-0.2040318,0.9128718,18
20.7,2.218246,1.534336,7.971748,-0.0550881821270238,-0.0152475260378489,-0.0622296596036504,27.23362,43.09014,184.3811,0.34828,-0.23246,0.9066291,18
20.72,2.178796,1.139127,7.951673,-0.0968788119313104,-0.031969047647464,-0.101903492549489,26.28467,39.62004,183.9756,0.3224075,-0.2252343,0.9183015,18
20.74,2.252245,1.331718,8.037653,-0.1372465712932071,-0.0439071977731561,-0.1399448080174299,29.77762,39.64883,183.9194,0.3192951,-0.2527833,0.9116006,18
20.76,2.325353,1.521152,8.123157,-0.1764081903551815,-0.0542849417154548,-0.1765757364158278,33.26919,39.67464,183.8633,0.3158874,-0.2800868,0.9040557,18
20.78,2.397997,1.707471,8.208042,-0.2081821450282197,-0.0633640473416089,-0.2059575949329264,36.75975,39.69728,183.8068,0.3121871,-0.3071224,0.8956739,18
20.8,2.470056,1.784064,8.292166,-0.2372893927849875,-0.0678694962874175,-0.2326632816066958,40.24935,39.71648,183.7493,0.3081978,-0.3338653,0.8864634,18
20.82,2.372833,1.118763,8.204873,-0.2639254306223607,-0.0711381759823431,-0.2569008917469322,37.37326,35.54308,183.0195,0.2809936,-0.3126152,0.904345,18
20.84,2.44397,1.317416,8.288932,-0.288280537191284,-0.0764562818077745,-0.2788701383289445,40.79446,35.36583,182.6514,0.2769449,-0.3385576,0.8952238,18
20.86,2.515013,1.513067,8.372805,-0.3010762523756045,-0.081790403169654,-0.2929885550821123,44.21366,35.14799,182.248,0.2726485,-0.3641887,0.8853019,18
20.88,2.538887,1.114527,8.391089,-0.3105644752487325,-0.0829950174631792,-0.3038642999096004,44.68002,35.36024,181.1283,0.2773288,-0.364897,0.8823504,18
20.9,2.608684,1.315033,8.473463,-0.3169250140484825,-0.083479717560831,-0.31170101059382,48.03919,35.10378,180.6984,0.273085,-0.3897702,0.871614,18
20.92,2.678462,1.51265,8.555741,-0.3147635283927896,-0.1718139217693724,-0.3100481734940175,51.3959,34.78861,180.2138,0.2686056,-0.4142989,0.860126,18
20.94,2.74811,1.70739,8.637794,-0.2965221745960842,-0.1432469975155548,-0.288743302401554,54.74963,34.39882,179.658,0.2638949,-0.438462,0.8478973,18
20.96,2.834319,1.103745,8.740976,-0.2752368141599957,-0.1134810755778425,-0.2644968659646687,56.47548,32.19311,176.2282,0.2590889,-0.4462977,0.8416781,18
20.98,2.902735,1.299773,8.820955,-0.2510908997187613,-0.0858415166476476,-0.2375036449121317,59.74865,31.44339,175.2813,0.2544979,-0.4693862,0.8284169,18
21.0,2.970964,1.493069,8.900645,-0.2233342434580542,0.0113549883540811,-0.2070307269464413,63.01272,30.49213,174.1361,0.2496957,-0.4920731,0.8144701,18
21.02,3.138966,1.117854,9.10345,-0.1851064671284638,-0.0110224488756507,-0.1633831234082612,61.83586,22.86578,167.2101,0.2250889,-0.4815402,0.8243053,18
21.04,3.206473,1.304262,9.182623,-0.1446824290202086,-0.0327931174045252,-0.1176076644232004,64.92525,20.8616,164.9084,0.2207553,-0.5032479,0.8098515,18
21.06,3.273444,1.488015,9.261099,-0.1022394407607993,-0.0572420399095688,-0.0698938017176955,67.97019,18.26727,162.0201,0.2162445,-0.524543,0.7947479,18
21.08,3.339782,1.669169,9.338762,-0.0646092109816954,-0.0402071508409924,-0.0288443168149015,70.94952,14.81736,158.2795,0.2115613,-0.5454067,0.7790092,18
21.1,3.405393,1.741123,9.415504,-0.0264997037745552,-0.0212841972949251,0.0127471469288196,73.82786,10.07648,153.2505,0.2067085,-0.5658248,0.7626472,18
21.12,3.510678,1.195207,9.545584,0.0119279411115695,-0.0035940609483356,0.05467932901054,48.37087,27.68773,173.1085,0.2417881,-0.3839521,0.8782325,18
21.14,3.578421,1.371611,9.627845,0.0375663495269271,0.0834795929904463,0.0804176608676985,51.51,26.95188,172.0768,0.2385795,-0.4070503,0.8667747,18
21.16,3.645295,1.545231,9.708967,0.0713495306005957,0.078963327286204,0.1058425305105579,54.63852,26.06322,170.898,0.2351846,-0.4298226,0.854641,18
21.18,3.76779,1.250007,9.798991,0.1054829148927554,0.0743619568122083,0.1314368418834277,26.2986,34.52701,175.9937,0.2964025,-0.2070069,0.9269837,18
21.2,3.845037,1.418732,9.891634,0.1397239403716484,0.0665781866876218,0.1568876632648157,29.82066,34.41256,175.6359,0.2950039,-0.2347294,0.9195152,18
21.22,3.921012,1.583885,9.982653,0.1749046656971662,0.0012654746340053,0.1805723039732949,33.34227,34.26724,175.2557,0.2933233,-0.2622303,0.9111703,18
21.24,3.995575,1.745595,10.07188,0.2063614297459209,0.0354847712067263,0.2082317543272367,36.86336,34.08621,174.8474,0.2913626,-0.2894847,0.9019566,18
21.26,4.060472,1.275663,10.12258,0.2358872831307965,0.0688370126844432,0.233779227007099,358.4586,41.41035,178.1812,0.3532832,0.01819179,0.9352852,18
21.28,4.14029,1.441367,10.21622,0.2631602359828899,0.098499132123114,0.2568414447651286,2.023165,41.46442,178.258,0.3541555,-0.01112897,0.9348963,18
21.3,4.218676,1.603365,10.30808,0.2878825425367827,0.1066345715094309,0.2770713726122689,5.58666,41.52343,178.3385,0.3546845,-0.04043059,0.9336031,18
21.32,4.3079,1.293807,10.40841,0.3039124776833425,0.1071949686113913,0.2905897711682808,352.8172,43.14928,179.2549,0.3666043,0.06063749,0.9282434,18
21.34,4.387357,1.455325,10.50486,0.3172946076153388,0.1083783220695218,0.3022355525939233,356.4008,43.17952,179.503,0.3676468,0.03079499,0.9294252,18
21.36,4.465232,1.613029,10.59928,0.3276858139261358,0.1073705381672036,0.3115848462896966,359.9833,43.22517,179.7525,0.3683276,0.0009307239,0.9296938,18
21.38,4.541379,1.76709,10.6915,0.3236212318254281,0.0992567200463838,0.3042349236617798,3.564587,43.28646,180.0052,0.3686462,-0.02892602,0.9290495,18
21.4,4.615654,1.811028,10.78134,0.3164344566373319,0.093102064689359,0.2939921298221308,7.14449,43.36396,180.2633,0.3686027,-0.05874573,0.9274939,18
21.42,4.55732,1.254767,10.70092,0.3058282501286051,0.0861376694777069,0.2804751330624788,357.3998,43.90903,181.1382,0.3739648,0.01733038,0.9271123,18
21.44,4.634775,1.41915,10.79495,0.2915331645377975,0.0756563646367712,0.2633416534666386,0.9574816,43.95813,181.4311,0.3741288,-0.01242142,0.9272552,18
21.46,4.710774,1.579907,10.88713,0.2688901394128866,0.0653188064663332,0.240441457393342,4.513869,44.02555,181.7278,0.3739295,-0.04215268,0.9264985,18
21.48,4.700971,1.237799,10.88399,0.2440076740675367,0.0576445029137631,0.2153989131046298,6.131268,44.39957,182.5821,0.3760852,-0.05800377,0.9247677,18
21.5,4.780118,1.404964,10.97882,0.2165867418258118,0.0497684645674958,0.1878489007076023,9.765935,44.49553,182.8916,0.3751306,-0.08827715,0.9227158,18
21.52,4.857876,1.568399,11.07189,0.1708645578712583,-0.0357215454272249,0.1414604570374051,13.39899,44.61286,183.2114,0.3737959,-0.1184524,0.9197299,18
21.54,4.9341,1.728249,11.16301,0.1430576554505612,-0.0218591330866175,0.1155720917588289,17.031,44.75329,183.5442,0.3720823,-0.1485044,0.9158133,18
21.56,4.854597,1.199683,11.09162,0.1133533015200095,-0.0063304613730736,0.0876082650791727,14.75705,44.63289,183.674,0.3725755,-0.1308155,0.9185321,18
21.58,4.932673,1.376111,11.18307,0.0814725268634402,0.0080214990085737,0.0572578272940986,18.35973,44.76788,183.9617,0.3706104,-0.16042,0.9143649,18
21.6,5.009731,1.548991,11.27323,0.0471606190307178,0.0033344049422276,0.0242425187386745,21.96065,44.92539,184.2652,0.3682771,-0.1898564,0.9092901,18
21.62,4.969895,1.168336,11.24892,0.0045607359413186,-0.0147000441908645,-0.0172257435358913,20.13043,42.88533,184.0719,0.3539372,-0.1753572,0.91815,18
21.64,5.046082,1.353011,11.33713,-0.0377757530188418,-0.0282634121210331,-0.0584087871115341,23.68064,42.99385,184.2213,0.3513799,-0.2039912,0.9127921,18
21.66,5.121597,1.534341,11.42448,-0.0800927147550052,-0.0404392080272943,-0.099555400859153,27.22952,43.11594,184.3826,0.3484854,-0.2324208,0.9065586,18
21.68,5.196306,1.712403,11.51082,-0.1217504703078411,-0.0534943751659392,-0.1393266594242015,30.77665,43.25373,184.5581,0.3452567,-0.2606152,0.8994575,18
21.7,5.270077,1.78062,11.59599,-0.1619060616522569,-0.061743347721676,-0.1773927215415571,34.32233,43.41013,184.7509,0.3416974,-0.2885514,0.8914952,18
21.72,5.129716,1.132839,11.46536,-0.2007696930468154,-0.0684091370875928,-0.2139704138053899,28.01758,38.7529,183.9457,0.3138537,-0.2393063,0.9175248,18
21.74,5.202727,1.327146,11.55108,-0.2214178989582287,0.0093364258182146,-0.233294796015175,31.50489,38.74862,183.8314,0.3105395,-0.266638,0.9104452,18
21.76,5.275463,1.518321,11.6364,-0.2541277320774695,-0.0247061136727422,-0.2648569031682215,34.99075,38.73576,183.7123,0.3069391,-0.2937118,0.9025251,18
21.78,5.256984,1.118793,11.63436,-0.2843076518969907,-0.055179137360034,-0.2938747924785887,37.35825,35.52093,183.0124,0.2808542,-0.3124941,0.9044338,18
21.8,5.32813,1.317475,11.71815,-0.3121264725854773,-0.0854343218733468,-0.3205264145511464,40.77266,35.33572,182.6356,0.2767804,-0.3383724,0.8953466,18
21.82,5.399182,1.513166,11.80175,-0.3409443671390679,-0.1865098907095007,-0.3494501902239908,44.18504,35.10888,182.2224,0.2724601,-0.3639408,0.8854616,18
21.84,5.470024,1.705884,11.88503,-0.3423602770910177,-0.1596954171147954,-0.3505840863663194,47.59505,34.83123,181.7632,0.2678973,-0.3891766,0.8747883,18
21.86,5.489899,1.113768,11.89976,-0.3403518776217222,-0.1309454501420849,-0.3483624706011019,46.36585,34.83847,180.3739,0.2739615,-0.3765103,0.8774756,18
21.88,5.559505,1.314227,11.9819,-0.3350983706034116,-0.1036080018912631,-0.3429871424058213,49.71416,34.52526,179.8828,0.2696712,-0.4011456,0.8663588,18
21.9,5.629088,1.511814,12.06394,-0.3197305843673459,-0.0073685024701592,-0.3248637269232226,53.05945,34.14065,179.3241,0.2651495,-0.4254281,0.8544987,18
21.92,5.737951,1.10376,12.19279,-0.3017188744584995,-0.0388102535556061,-0.3040053667011388,56.461,32.23077,176.2316,0.259365,-0.4461459,0.8416561,18
21.94,5.806333,1.299813,12.27255,-0.2804472466389618,-0.0684356462205153,-0.2800077498064133,59.72837,31.47793,175.284,0.2547545,-0.4691923,0.8284306,18
21.96,5.874528,1.493144,12.35203,-0.2560821035284335,-0.0996173473717848,-0.2530450774112447,62.98656,30.5236,174.1379,0.2499333,-0.4918386,0.8145218,18
21.98,5.942435,1.683777,12.43111,-0.2206815507090278,-0.0935852871697614,-0.2127780800090719,66.23283,29.2868,172.712,0.2449055,-0.5140697,0.79994,18
22.0,6.009952,1.765083,12.50967,-0.1831810357232108,-0.0853082275391849,-0.1704483267310732,69.46193,27.6363,170.8748,0.2396754,-0.5358675,0.7846979,18
22.02,6.132048,1.128631,12.66221,-0.1437557976825723,-0.0780402937212448,-0.1262459510966116,60.97749,21.49825,166.6924,0.217395,-0.4764862,0.8299413,18
22.04,6.199692,1.312811,12.74175,-0.1175837495811484,0.0098929990369302,-0.0988828241499955,64.0373,19.43551,164.3097,0.213109,-0.4981614,0.8156722,18
22.06,6.26672,1.494318,12.82049,-0.0746149697505653,0.0054766940426386,-0.0616753965825842,67.04884,16.79448,161.3527,0.2086525,-0.5194295,0.800751,18
22.08,6.39649,1.195184,12.97587,-0.0306083647211485,0.001359807425364,-0.024174567687599,48.37311,27.75225,173.1255,0.2422248,-0.3839203,0.8781105,18
22.1,6.463887,1.371598,13.0582,0.0142209022717898,-0.0055983386462382,0.0134443402340136,51.51031,27.02994,172.1148,0.2390348,-0.4070217,0.8666643,18
22.12,6.530417,1.545235,13.1394,0.0760717515485964,-0.0687065830800487,0.041898008559166,54.63725,26.1579,170.9599,0.2356588,-0.4297983,0.8545445,18
22.14,6.595981,1.716182,13.21934,0.1341266728888168,-0.0272090027680483,0.0629747584956974,57.75103,25.09524,169.6196,0.2321018,-0.4522322,0.8417612,18
