t,pX,pY,pZ,aX,aY,aZ,reX,reY,reZ,rtX,rtY,rtZ,ID
0.24,-41.30475,1.102053,-38.82517,3.377373370125857,-0.285701567301455,1.8344719694770568,15.15379,355.9619,163.8205,-0.01603242,-0.1353782,0.9814491,1
0.26,-41.30583,1.301814,-38.82448,3.419330264844458,-0.3002401984347005,1.8225262517756384,15.17704,355.9704,163.8529,-0.01596892,-0.1355625,0.9814629,1
0.28,-41.30691,1.501573,-38.82379,3.4588816266053986,-0.3352848798588692,1.8077799424787944,15.20046,355.979,163.8856,-0.01590489,-0.1357482,0.9814768,1
0.3,-41.30799,1.701332,-38.8231,3.493647735997615,-0.3434612540639665,1.790926628363822,15.22386,355.9876,163.9183,-0.01584089,-0.1359338,0.9814904,1
0.32,-41.30907,1.837095,-38.8224,3.537191721749682,-0.3694918360484939,1.7727882331422231,15.24726,355.9962,163.951,-0.01577693,-0.1361194,0.9815041,1
0.34,-41.1417,1.15437,-38.63994,3.576387182986269,-0.3699881459022096,1.7529759429468994,19.90664,3.928426,160.341,0.06275421,-0.164445,0.9689085,1
0.36,-41.00423,1.343397,-38.4984,3.610837518082586,-0.3468471733526413,1.731359425498466,24.42272,2.306995,156.0961,0.06304365,-0.2028167,0.9551107,1
0.38,-40.891,1.527115,-38.38118,3.63552190314015,-0.3690491185614416,1.6999667756680976,28.07811,0.6453384,152.3586,0.06325363,-0.2342512,0.9417022,1
0.4,-40.8428,1.7177,-38.32975,3.656618548784164,-0.3662703353433136,1.6674251257292294,29.68493,359.7685,150.6415,0.06302418,-0.2482954,0.9352119,1
0.42,-40.7949,1.800404,-38.27859,3.6758300396077,-0.3852693889037244,1.6312088776052738,31.26731,358.8215,148.8679,0.06277188,-0.2622453,0.9283779,1
0.44,-40.81133,1.181875,-38.33939,3.691265910721937,-0.3795365352071627,1.5938123061377345,15.88325,16.6638,169.5233,0.1553991,-0.1230318,0.9740353,1
0.46,-40.6758,1.195595,-38.24186,3.7024979751048575,-0.3509763486059778,1.5551295303787065,10.60497,22.96052,171.2629,0.2045013,-0.07520618,0.9715638,1
0.48,-40.63813,1.379745,-38.16981,3.7019762578845614,-0.3685420271612695,1.5099109154275556,13.04275,22.8693,171.048,0.2050542,-0.09560848,0.9690824,1
0.5,-40.60083,1.562245,-38.09836,3.6979601489635545,-0.3617525055763306,1.464094467991825,15.4824,22.768,170.8282,0.2055164,-0.1159883,0.9661568,1
0.52,-40.56392,1.743132,-38.02758,3.6900322125377008,-0.3324952673739262,1.4175701836387873,17.92367,22.65561,170.6011,0.205886,-0.1363322,0.9627868,1
0.54,-40.52744,1.815783,-37.95756,3.66549680411392,-0.3487522167696095,1.362683538777827,20.36522,22.53125,170.3653,0.2061619,-0.1566197,0.9589749,1
0.56,-40.1299,1.26902,-37.85759,3.6380008654851927,-0.3409170354502224,1.3080236281836326,356.7606,39.25939,178.3334,0.3353829,0.03150343,0.9415457,1
0.58,-40.05061,1.426111,-37.74376,3.595743241664536,-0.3606062978373408,1.246292897143686,0.7922087,39.20616,178.6273,0.3355481,-0.00249333,0.9419216,1
0.6,-39.9732,1.578498,-37.63252,3.5508176939984244,-0.3553892100234774,1.1849270204074998,4.825783,39.17352,178.9184,0.3352961,-0.03650107,0.9411246,1
0.62,-39.89569,1.256457,-37.73937,3.5029047453648685,-0.3271396966940743,1.12385360695537,356.3189,44.70101,180.6879,0.3802468,0.02742293,0.9243078,1
0.64,-39.80726,1.413512,-37.63025,3.4314583145995856,-0.347928686158413,1.0523637575135307,0.4230263,44.64302,181.0802,0.3797518,-0.006994967,0.925033,1
0.66,-39.71945,1.2443,-37.66427,3.358955052565761,-0.3433490366743327,0.982024017657186,1.57849,49.16375,181.7065,0.415721,-0.01871887,0.9092661,1
0.68,-39.63202,1.407354,-37.5699,3.27107499928344,-0.3634071989725745,0.9066668680073288,5.354574,49.14173,182.1148,0.4145098,-0.05013875,0.9086587,1
0.7,-39.54641,1.566385,-37.47742,3.1830296416351613,-0.3573753615226949,0.8328220066508356,9.128454,49.14661,182.5236,0.4128442,-0.08148028,0.9070548,1
0.72,-39.55105,1.231458,-37.58076,3.073963722764571,-0.3764509510062591,0.7519627402558688,8.317371,52.63098,182.9731,0.4403111,-0.07645217,0.8945397,1
0.74,-39.4823,1.216822,-37.56071,2.965864473662016,-0.3686992647296931,0.6731108956196259,11.93381,54.66805,183.4839,0.4536712,-0.1061869,0.8845745,1
0.76,-39.39087,1.388775,-37.47941,2.8416065715725347,-0.3881033705314805,0.5896875669932333,15.5673,54.71821,183.8905,0.4509864,-0.1356706,0.8815664,1
0.78,-39.30092,1.557061,-37.39936,2.719176911987517,-0.3795219923194149,0.5086942946219875,19.19926,54.79665,184.3085,0.447844,-0.1650073,0.8776627,1
0.8,-39.34036,1.190486,-37.48957,2.598465286570211,-0.3449440068795236,0.4301961315561247,16.09089,57.35555,183.9267,0.4706741,-0.1389971,0.8704883,1
0.82,-39.24812,1.368852,-37.4148,2.451639783917125,-0.3638141852166047,0.3437811953737339,19.65933,57.43679,184.3424,0.4674391,-0.1675491,0.8666049,1
0.84,-39.22931,1.167683,-37.4332,2.3083367979931904,-0.3535010705813257,0.2605991330212935,20.15359,57.83042,184.2722,0.4700169,-0.1707937,0.864388,1
0.86,-39.13717,1.35201,-37.36267,2.151793643106531,-0.3710503802809988,0.1751071729172233,23.68481,57.91478,184.6221,0.4662281,-0.1985255,0.859667,1
0.88,-39.04594,1.533024,-37.29278,1.999748180422043,-0.3583119833973356,0.0934538808033078,27.21441,58.02579,184.9879,0.4619941,-0.2260583,0.8541244,1
0.9,-39.09872,1.144928,-37.3597,1.8522677230673752,-0.3173474808362873,0.0157844996447362,24.62409,57.45669,184.2231,0.4623942,-0.204164,0.8599351,1
0.92,-39.00612,1.335504,-37.29464,1.6847373666621772,-0.3321297545805096,-0.0663667377519949,28.11636,57.48729,184.3959,0.4579775,-0.23071,0.8543745,1
0.94,-38.98114,1.128319,-37.29201,1.5233876086138158,-0.3156737298803809,-0.1437142283548675,30.06576,56.17465,183.8598,0.4467401,-0.2440102,0.8556678,1
0.96,-38.88861,1.323738,-37.23104,1.3590360795145855,-0.326398299253365,-0.2192554886488045,33.51474,56.10969,183.8239,0.4416045,-0.2693248,0.8490757,1
0.98,-38.79644,1.516124,-37.17026,1.2016463276895903,-0.3053355592272217,-0.2895538000333504,36.96272,56.03926,183.7816,0.4360705,-0.2943882,0.8417163,1
1.0,-38.80998,1.118512,-37.19867,1.0514319835824084,-0.2545856761292586,-0.3544008584113802,37.44779,55.3482,183.074,0.4320785,-0.2959816,0.8424317,1
1.02,-38.71621,1.317104,-37.14293,0.8929147366549488,-0.2597494770039218,-0.4213869636467473,40.85042,55.10599,182.7632,0.4259004,-0.3197657,0.8344933,1
1.04,-38.63828,1.114926,-37.12512,0.7434281829167473,-0.2612650941567264,-0.4821390459936951,43.29087,56.50119,181.7762,0.4348626,-0.3317052,0.8213775,1
1.06,-38.54419,1.315116,-37.07296,0.6025366071800571,-0.2305905182468233,-0.5364766762159157,46.64883,56.1823,181.39,0.4281258,-0.3545145,0.8123063,1
1.08,-38.4502,1.51244,-37.02081,0.4705391398718781,-0.1698208874859168,-0.5841555928797515,50.00413,55.80659,180.9485,0.4210211,-0.377011,0.8025357,1
1.1,-38.42508,1.112862,-37.02353,0.3417900216705369,-0.1657747377824249,-0.627706710984099,48.08796,56.38743,179.5629,0.4328273,-0.3574491,0.8041428,1
1.12,-38.33122,1.313243,-36.97381,0.2228114045055598,-0.1296711205960327,-0.6640490051221679,51.40013,55.9356,179.031,0.4258064,-0.3794264,0.7940928,1
1.14,-38.1659,1.103658,-36.90302,0.130369917638375,-0.1196537427588776,-0.6864999666660587,56.53624,55.18371,176.2139,0.4215758,-0.4060309,0.7729018,1
1.16,-38.07276,1.299655,-36.85617,0.047295077887119,-0.0785450481943899,-0.7017336679345565,59.78909,54.35027,175.2869,0.4138401,-0.4267334,0.7612346,1
1.18,-37.97994,1.492975,-36.80943,-0.0260643405789746,-0.0083370401006036,-0.7094792663093346,63.03228,53.30891,174.1533,0.4057646,-0.4470742,0.748946,1
1.2,-37.83415,1.109134,-36.74952,-0.0833020006671407,0.0125352794842984,-0.706657352193341,62.66389,48.02346,167.8528,0.395888,-0.4355536,0.7534831,1
1.22,-37.74135,1.297775,-36.70419,-0.1302353102174152,0.0634027662044153,-0.6956749038628356,65.77683,46.00327,165.6607,0.387948,-0.4549707,0.74044,1
1.24,-37.53939,1.1444,-36.61628,-0.1526162838944555,0.0975975038392309,-0.6710814882106284,58.36124,46.5161,167.8788,0.3901256,-0.4090394,0.7773262,1
1.26,-37.44625,1.326288,-36.5699,-0.1643538371472104,0.1605449177125439,-0.6377424267202292,61.42618,44.74948,165.8899,0.3827993,-0.4285158,0.7651112,1
1.28,-37.33723,1.178283,-36.52728,-0.1649310933308774,0.2203959570140757,-0.5955162589292424,52.04347,50.24067,171.2858,0.4105615,-0.3670873,0.7971331,1
1.3,-37.24318,1.356254,-36.47993,-0.1518247838421649,0.2062903537353018,-0.5472614534372884,55.15797,49.16133,170.0016,0.4039939,-0.3872834,0.7861988,1
1.32,-37.05235,1.228442,-36.42671,-0.1250042759775915,0.1861610458587692,-0.4886175222252111,37.80393,56.49979,174.7537,0.4603849,-0.2645718,0.8254983,1
1.34,-36.94785,1.399585,-36.37589,-0.0805488021606422,0.1220264183183444,-0.4219854421126108,41.22084,56.05992,174.1337,0.455179,-0.2878068,0.816658,1
1.36,-36.84504,1.567424,-36.32585,-0.0462532686667307,0.1805715673506688,-0.3714526138440428,44.63266,55.5432,173.4416,0.4495621,-0.310774,0.8070801,1
1.38,-36.77686,1.257004,-36.33217,-0.0263708243971683,0.1893239130592544,-0.336939128514925,20.01425,61.87037,176.5929,0.5104544,-0.1339361,0.8416709,1
1.4,-36.66629,1.424867,-36.28087,-0.0093815552246834,0.1947759850225896,-0.310689106025567,23.57683,61.73828,176.3587,0.5075753,-0.1593116,0.8364834,1
1.42,-36.54253,1.271842,-36.24738,0.016193383479921,0.1471550846687042,-0.2839689068782718,2.340899,66.48402,177.9562,0.5482798,-0.007307051,0.8358554,1
1.44,-36.43034,1.438256,-36.19732,0.048219421320673,0.1076325200478788,-0.2564881428110297,5.912843,66.44044,177.9756,0.5478061,-0.0334753,0.8348282,1
1.46,-36.32022,1.600976,-36.14813,0.0960815584766932,0.178675138872869,-0.2117806146624383,9.483762,66.39777,177.9924,0.546801,-0.05960363,0.8329901,1
1.48,-36.26281,1.285274,-36.13631,0.129863074263917,0.2026837432741455,-0.1767332901127245,353.3115,68.86015,178.735,0.5638718,0.05434344,0.8237264,1
1.5,-36.14957,1.448611,-36.08502,0.1721669422863296,0.2235116094988027,-0.1433903535917844,356.8991,68.79927,178.923,0.5645202,0.02763184,0.8249225,1
1.52,-36.0386,1.608174,-36.03469,0.2172451385696572,0.189390092121479,-0.1153363565873188,0.4858485,68.75027,179.1069,0.5646141,0.00090111,0.8253077,1
1.54,-36.01703,1.295984,-36.03881,0.2712134294592747,0.1498524044292364,-0.089580295544323,353.4756,69.71803,179.517,0.570431,0.04909922,0.8193611,1
1.56,-35.90401,1.456847,-35.9858,0.3340215423665071,0.1175908181906577,-0.0665505485376458,357.0543,69.64951,179.8052,0.570843,0.02207038,0.8206552,1
1.58,-35.8741,1.261989,-35.98461,0.3350250870385114,0.1124745889492306,-0.0600969674285041,355.7726,70.41286,180.5861,0.5762783,0.02718927,0.8164047,1
1.6,-35.76339,1.425907,-35.93419,0.3372864702299072,0.1083012362056168,-0.0634956947941169,359.3174,70.35586,180.8752,0.5761276,0.0004685442,0.8173023,1
1.62,-35.65488,1.58621,-35.8847,0.3405471906480413,0.1024688380029192,-0.0772946734927035,2.861584,70.31673,181.161,0.5754224,-0.02624526,0.8174123,1
1.64,-35.69192,1.245906,-35.9115,0.3207616863979874,0.0928935762220276,-0.0794018890686043,1.442414,71.06603,181.5975,0.5809268,-0.01834333,0.8137393,1
1.66,-35.57903,1.410956,-35.86165,0.3018190805440008,0.0848343406868241,-0.0905749995264439,5.066487,71.03844,181.8948,0.5797341,-0.04556619,0.8134388,1
1.68,-35.56747,1.231987,-35.85597,0.266012094933977,0.0743173935323711,-0.0963714815162184,8.278338,71.30159,182.8783,0.579667,-0.07323328,0.8112659,1
1.7,-35.45455,1.400756,-35.80735,0.2313132960991861,0.0654626216759726,-0.1092295465916821,11.91364,71.30727,183.1639,0.5771877,-0.1002984,0.8095301,1
1.72,-35.48934,1.217321,-35.81973,0.1830094371581578,0.0034201030037741,-0.1345954666788547,11.91296,71.48547,183.3539,0.5782793,-0.1011934,0.8086942,1
1.74,-35.37777,1.389906,-35.77269,0.1495808935613345,0.0159909094847639,-0.1385231712711219,15.51822,71.50578,183.6263,0.5751846,-0.1278282,0.8062077,1
1.76,-35.3877,1.190828,-35.77301,0.1203295600899023,0.0560151721623187,-0.138494241764798,16.0956,71.68527,183.7876,0.5757272,-0.1325859,0.8049158,1
1.78,-35.27817,1.369528,-35.72752,0.0663251011059777,0.0161277319905449,-0.1524891532491157,19.67132,71.72463,184.0596,0.5719631,-0.1587977,0.801559,1
1.8,-35.17002,1.544773,-35.68254,0.0143111655605085,-0.0219974971228878,-0.1716012709143335,23.24581,71.78345,184.341,0.5676407,-0.184847,0.7974187,1
1.82,-35.25957,1.168213,-35.71227,-0.0309579164590596,-0.0367070365519877,-0.1750882184097939,20.15361,70.0061,184.0652,0.5593328,-0.1632615,0.8095384,1
1.84,-35.15228,1.353061,-35.66872,-0.0735110843972464,-0.0484399094395048,-0.1821776249518114,23.6886,70.01199,184.199,0.5549123,-0.188577,0.8054283,1
1.86,-35.16446,1.145376,-35.66554,-0.1027257348743004,-0.003910315189389,-0.17935492863307,24.62187,67.82131,184.0601,0.5384602,-0.1961479,0.8145297,1
1.88,-35.05935,1.336282,-35.6225,-0.1515872426698727,-0.043199489195311,-0.1867874120299131,28.12891,67.77775,184.0611,0.5333818,-0.2207679,0.8095315,1
1.9,-34.9549,1.524006,-35.57968,-0.1968227576548402,-0.0804583642832756,-0.1971606666597916,31.63442,67.73266,184.0588,0.5278064,-0.2451699,0.803778,1
1.92,-35.02588,1.128682,-35.59806,-0.2240311438275548,-0.0903710935059425,-0.1923242489803351,30.073,64.98372,183.7093,0.5114335,-0.2354999,0.8186719,1
1.94,-34.92326,1.324463,-35.55579,-0.2469057353986881,-0.0974284993893065,-0.1892938071583021,33.52233,64.8379,183.5159,0.5056202,-0.2590715,0.8126497,1
1.96,-34.88705,1.118701,-35.5361,-0.255588121341451,-0.0457496674569981,-0.1790377604228812,37.43837,62.87126,182.9995,0.4866164,-0.2866605,0.8121976,1
1.98,-34.78592,1.317465,-35.49488,-0.2731120127940096,-0.079546717636031,-0.1766625714476557,40.83883,62.58013,182.6078,0.4798252,-0.309142,0.8047684,1
2.0,-34.68499,1.513278,-35.4537,-0.2857862216769509,-0.112031273630181,-0.1755860908698201,44.23661,62.24041,182.1702,0.4726106,-0.3313429,0.7966275,1
2.02,-34.6954,1.115035,-35.46778,-0.2780104403866628,-0.0585327919430613,-0.1627205987238165,43.28598,62.92498,181.7277,0.4803453,-0.3218772,0.7956592,1
2.04,-34.59184,1.113742,-35.42756,-0.2793373860452561,-0.0911187423999018,-0.1559874199805069,46.38085,62.42449,180.3505,0.4753068,-0.3382442,0.7867706,1
2.06,-34.49316,1.314263,-35.38772,-0.2682666344812681,-0.0922589579348758,-0.1423088233944218,49.698,62.00647,179.8472,0.467879,-0.3595699,0.7774937,1
2.08,-34.39458,1.51198,-35.34788,-0.2523151452718193,-0.0916480291663858,-0.1285188250342352,53.01142,61.50884,179.266,0.4600574,-0.3805855,0.7675614,1
2.1,-34.33828,1.107145,-35.32772,-0.231717744583765,-0.0926899469218395,-0.1148245132843541,53.32832,60.78979,177.6615,0.4599541,-0.3777749,0.766034,1
2.12,-34.24084,1.305563,-35.28877,-0.191309104062384,-0.0930038142023419,-0.0912599640824396,56.59995,60.10929,176.8839,0.4519603,-0.3982041,0.7553581,1
2.14,-34.02739,1.104569,-35.20445,-0.1464998098833949,-0.0925800435842743,-0.0675981176008191,61.24116,55.42463,171.1324,0.43385,-0.4186379,0.7412565,1
2.16,-33.93116,1.295745,-35.16657,-0.093688190343391,-0.0839049624553728,-0.0410278494946707,64.41042,53.84842,169.4101,0.4253606,-0.4377992,0.7289384,1
2.18,-33.83551,1.484297,-35.12889,-0.0383007224132643,-0.0749581229398963,-0.014627389631447,67.55231,51.81641,167.2337,0.4165286,-0.4565968,0.7160339,1
2.2,-33.69774,1.129075,-35.0716,0.0194012773697496,-0.0689969644025697,0.0114160053991199,60.93499,49.31977,166.7169,0.4105009,-0.4161218,0.7535858,1
2.22,-33.60191,1.313266,-35.03238,0.0741265357322769,-0.0530904577610417,0.0357735145366859,63.98019,47.19608,164.3714,0.4023784,-0.4348004,0.7411635,1
2.24,-33.40876,1.178345,-34.9568,0.1304473334316878,-0.0371297928767355,0.0598724204295155,52.04404,53.27679,171.2213,0.431737,-0.3601625,0.78583,1
2.26,-33.31175,1.356414,-34.9157,0.1823943430955235,-0.0162394670366114,0.0774681854315169,55.14971,52.14417,169.8682,0.4247714,-0.3797782,0.7751331,1
2.28,-33.21598,1.531762,-34.87509,0.2353621058911787,0.0040426901911039,0.0944315262544259,58.23634,50.776,168.2834,0.4174753,-0.3990911,0.7638317,1
2.3,-33.10637,1.228522,-34.85696,0.2864466269646293,0.0696968913051061,0.1110154936174723,37.80422,59.10909,174.7345,0.4791042,-0.2600692,0.8147683,1
2.32,-32.99984,1.399839,-34.81164,0.3290369962242936,0.0640388400916472,0.1188986328737282,41.20562,58.65933,174.0955,0.4736972,-0.2827591,0.8060959,1
2.34,-32.86919,1.257639,-34.78534,0.3583710547015108,0.10173554411385,0.1251555666767538,19.94759,64.15374,176.5841,0.5271726,-0.1311027,0.8314187,1
2.36,-32.7587,1.426295,-34.73979,0.3859217629419289,0.1371110510249064,0.1297422440766373,23.43685,64.02115,176.3417,0.5242605,-0.1555658,0.8264176,1
2.38,-32.70318,1.26819,-34.72787,0.40764519970593,0.1002438369191432,0.1284313494234723,8.081524,67.05414,177.5558,0.5520855,-0.04697838,0.8305336,1
2.4,-32.59014,1.435325,-34.68207,0.4329198333942843,0.1318265178028791,0.1337926465468948,11.6331,66.99943,177.4867,0.5508125,-0.07244696,0.8281691,1
2.42,-32.46112,1.279241,-34.63881,0.4593148109845648,0.1168062775150022,0.1381833243354036,354.4223,70.19813,178.4114,0.573704,0.04776527,0.8174996,1
2.44,-32.34683,1.444044,-34.59246,0.480166795954565,0.1472230593702283,0.14353406557741,357.994,70.14687,178.5397,0.5743086,0.02164673,0.8183527,1
2.46,-32.23473,1.605127,-34.54694,0.4962481428099936,0.1745697505499129,0.1470858228091183,1.564719,70.10364,178.6647,0.5743548,-0.004485426,0.8184099,1
2.48,-32.17754,1.293783,-34.52913,0.4932511069556344,0.127752551925425,0.14207297343735,352.8424,71.00607,179.2804,0.5792831,0.05445454,0.8127089,1
2.5,-32.06281,1.455184,-34.47952,0.493562561573396,0.1493521071407986,0.1410802073988986,356.4312,70.93899,179.5417,0.579882,0.02767939,0.8140954,1
2.52,-31.9902,1.269681,-34.45293,0.4818674340366264,0.1190401054951727,0.1336562237098295,354.0985,71.53021,180.008,0.5836917,0.04172893,0.810342,1
2.54,-31.87845,1.433037,-34.40431,0.4651839675745819,0.0877197893687567,0.1242358376392429,357.6355,71.46616,180.306,0.5839283,0.01518945,0.8115386,1
2.56,-31.76894,1.592765,-34.35661,0.4561077815436429,0.1228134793488349,0.1205784719026654,1.17177,71.42058,180.5997,0.5836051,-0.01135744,0.8119565,1
2.58,-31.77769,1.250214,-34.37226,0.4224897015745839,0.0840264726355979,0.1065968081737356,359.4512,71.92005,181.3668,0.5872185,-0.003128004,0.8093266,1
2.6,-31.66439,1.41483,-34.3247,0.3967553117449593,0.0976775649864104,0.0980919197066176,3.053464,71.88377,181.649,0.586385,-0.03001187,0.8094667,1
2.62,-31.55329,1.575754,-34.27803,0.3556178544812498,0.0612541838418975,0.0840215912002912,6.655362,71.86517,181.93,0.5849689,-0.0568605,0.808802,1
2.64,-31.61085,1.23765,-34.30092,0.3107418066251455,0.0249917493460213,0.0680588778529935,6.210752,72.22883,182.5903,0.5873947,-0.05705397,0.8071712,1
2.66,-31.49665,1.404784,-34.25357,0.2831991594420606,0.0605794759941856,0.0612830257960643,9.855521,72.22769,182.8848,0.5852803,-0.08415325,0.805881,1
2.68,-31.50604,1.217424,-34.25047,0.2253171922047534,0.018695901171825,0.0427629936100792,11.89608,72.31973,183.3509,0.5841666,-0.1007882,0.8044718,1
2.7,-31.39385,1.390019,-34.20514,0.1793420569984865,0.0290849130313208,0.0291242473825068,15.49856,72.34173,183.622,0.5810734,-0.1272769,0.8020039,1
2.72,-31.38544,1.190901,-34.19587,0.1159139537655389,-0.0137130518879583,0.0095403835135199,16.08606,72.40193,183.7804,0.5807672,-0.1321338,0.8013036,1
2.74,-31.27547,1.36966,-34.15202,0.0717730530963383,-0.0024304997035562,-0.002429112979251,19.65545,72.44111,184.0453,0.5770012,-0.1581642,0.7979741,1
2.76,-31.16688,1.544978,-34.10869,0.0255963109218111,0.0090782689345868,-0.0154503080170842,23.22358,72.49922,184.3193,0.5726742,-0.1840329,0.7938678,1
2.78,-31.2381,1.168239,-34.12786,-0.0304557791530122,-0.006201549395619,-0.0311780444115106,20.14973,70.6279,184.0615,0.563727,-0.1628246,0.8064932,1
2.8,-31.13035,1.353105,-34.08561,-0.0867718622176227,-0.0187933809374267,-0.0473093896991025,23.68286,70.63444,184.1915,0.5592989,-0.1880181,0.8024039,1
2.82,-31.12408,1.145412,-34.07384,-0.1566542208132544,-0.0876591101431298,-0.0675822953449261,24.61626,68.3598,184.0546,0.5422986,-0.1956564,0.8119937,1
2.84,-31.01856,1.336333,-34.03195,-0.1973769384306001,-0.0727267749621521,-0.0771757598312898,28.12143,68.3158,184.0499,0.5372093,-0.2201592,0.8070195,1
2.86,-30.91369,1.524077,-33.99029,-0.2372117351598306,-0.0570482212986766,-0.0866321263702785,31.62503,68.26996,184.042,0.53162,-0.2444454,0.8012929,1
2.88,-30.96685,1.12872,-33.99967,-0.2775453955961189,-0.06809783162807,-0.0964024543454131,30.05651,65.46249,183.708,0.514876,-0.234904,0.8165555,1
2.9,-30.86386,1.3245,-33.95832,-0.3154256836249809,-0.0763785314570485,-0.1056445855830841,33.50524,65.31752,183.5122,0.5090521,-0.2583903,0.8105556,1
2.92,-30.80985,1.118736,-33.93099,-0.3511414667966828,-0.0852013095086972,-0.1144897587925948,37.41176,63.28933,182.9998,0.4896197,-0.2859403,0.8104775,1
2.94,-30.7084,1.317497,-33.89055,-0.3669212363784573,-0.0944792994721719,-0.1182294151682858,40.81201,62.99945,182.6066,0.4828171,-0.3083525,0.8030725,1
2.96,-30.60715,1.513307,-33.85014,-0.3790994670513341,-0.1011960666086225,-0.1211100296146474,44.2096,62.66093,182.1675,0.4755882,-0.3304849,0.794957,1
2.98,-30.59958,1.11504,-33.85622,-0.3780294822687438,-0.0489505654736992,-0.119882039025815,43.28271,63.28955,181.7274,0.4828811,-0.3212772,0.7941351,1
3.0,-30.49946,1.315335,-33.81667,-0.3849294946572046,-0.0826972190939454,-0.122582747703154,46.6385,62.93526,181.285,0.4755587,-0.3429924,0.78553,1
3.02,-30.39945,1.51276,-33.77711,-0.3877686754913623,-0.1154459150086542,-0.1242544956889295,49.99115,62.51678,180.7806,0.4678273,-0.3644046,0.776248,1
3.04,-30.39952,1.11294,-33.77849,-0.3607584676173569,-0.1195165824409032,-0.1133411399330244,48.09108,62.19985,179.5195,0.4731674,-0.346916,0.781073,1
3.06,-30.26865,1.107161,-33.72836,-0.3304520609058841,-0.0918441938713781,-0.1014019642907593,53.31044,61.1154,177.6653,0.4621496,-0.3769781,0.7647937,1
3.08,-30.17117,1.305599,-33.69008,-0.2964183502818391,-0.0647367205026805,-0.0884856452459326,56.57533,60.43688,176.8873,0.4541525,-0.3973138,0.7541614,1
3.1,-30.07388,1.501328,-33.65184,-0.2521895687515063,-0.1227821279274906,-0.071961728433961,59.83287,59.60509,175.9578,0.4457826,-0.4173129,0.7429099,1
3.12,-29.94084,1.104533,-33.59988,-0.198793291659499,-0.0930756643628009,-0.0518705054338513,61.22049,55.74199,171.1694,0.4357987,-0.4178197,0.740234,1
3.14,-29.84447,1.295752,-33.56254,-0.1271939167020148,-0.1125885588846919,-0.0247243553534017,64.38802,54.17247,169.4519,0.4272946,-0.4369256,0.7279454,1
3.16,-29.64543,1.129054,-33.48176,-0.0708990644869516,-0.0743957165279261,-0.0037331708551811,60.93622,49.60192,166.7172,0.4123528,-0.4153898,0.7525682,1
3.18,-29.5494,1.313253,-33.44303,-0.0136586062892436,-0.0375012085163017,0.0175292537881963,63.98109,47.4801,164.3716,0.4042128,-0.434023,0.7401602,1
3.2,-29.45431,1.494824,-33.40464,0.0442832778477852,-0.0050467191781619,0.0389507860042428,66.9771,44.78248,161.4529,0.395754,-0.4523057,0.7271672,1
3.22,-29.33927,1.178325,-33.36059,0.1008069127926356,0.0099490324244128,0.0569796308647365,52.04747,53.52472,171.2372,0.4333822,-0.3596888,0.7849172,1
3.24,-29.24245,1.356427,-33.31966,0.1580786136920005,0.0248326169279232,0.07522268361088,55.1489,52.41301,169.9076,0.4264594,-0.3792775,0.7742313,1
3.26,-29.07071,1.228445,-33.27654,0.2076466578750206,0.0405371625109806,0.0856877241183333,37.82338,59.35165,174.7178,0.4808452,-0.2597191,0.8136728,1
3.28,-28.96368,1.399749,-33.23199,0.2575709666965586,0.0555487674693051,0.0960432176916725,41.22778,58.89306,174.062,0.4753976,-0.282342,0.8050015,1
3.3,-28.85837,1.567763,-33.18812,0.3074495170872726,0.0667823963433301,0.1060857247978654,44.62672,58.35395,173.3309,0.4695232,-0.304704,0.7956066,1
3.32,-28.81287,1.25703,-33.19685,0.3427846605387712,0.0750439699878448,0.1116403365126501,20.03232,64.35844,176.5758,0.5286165,-0.1314735,0.8303469,1
3.34,-28.70003,1.424949,-33.15092,0.3770738952874795,0.0828154147222668,0.1165957432469193,23.59187,64.22456,176.3256,0.5256379,-0.1563798,0.825211,1
3.36,-28.58918,1.589226,-33.10575,0.4056662079739048,0.0885589165710242,0.1221097995069033,27.15079,64.06917,176.0585,0.5221499,-0.1811334,0.8192752,1
3.38,-28.50568,1.275671,-33.0894,0.4317306650763757,0.0935552485286048,0.1268783480350706,358.3831,69.57452,178.1826,0.5702187,0.02063317,0.8212188,1
3.4,-28.39129,1.441281,-33.0438,0.4627274329427484,0.1434146012828433,0.1356124210426292,1.956409,69.53395,178.2514,0.5703047,-0.005323021,0.8211143,1
3.42,-28.2481,1.291475,-32.9927,0.4793770376519184,0.1226115620697276,0.1383166646251457,352.219,71.11998,179.0494,0.5797371,0.06000775,0.8119319,1
3.44,-28.13272,1.4535,-32.94456,0.4905005077944673,0.1476728693712165,0.1410326883691501,355.8148,71.05598,179.2729,0.5805128,0.0334013,0.8134074,1
3.46,-28.01971,1.611707,-32.89736,0.4889409523528805,0.121428156179166,0.1387216888511817,359.4098,71.0062,179.4916,0.5807151,0.006769417,0.8140787,1
3.48,-28.00652,1.282734,-32.89699,0.4833325879756094,0.093874916874653,0.1357285057521204,353.7764,71.57452,179.762,0.5838224,0.04524789,0.810062,1
3.5,-27.89343,1.444884,-32.84816,0.4811133272145409,0.1325348524855754,0.1358418266216228,357.3295,71.51124,180.0548,0.5841796,0.01863056,0.8112898,1
3.52,-27.82914,1.254596,-32.83165,0.4637951216646825,0.096258702197787,0.1284150405392532,357.4398,71.92248,181.1406,0.5872422,0.01223799,0.8090419,1
3.54,-27.71683,1.41898,-32.78458,0.4482352778447542,0.1110218047787483,0.1228558666892363,1.002396,71.87824,181.4177,0.5867704,-0.01434247,0.8096118,1
3.56,-27.60671,1.579741,-32.73838,0.4281021071890034,0.1241670224701358,0.1156708455029233,4.56414,71.85114,181.6928,0.5857283,-0.04090152,0.8093946,1
3.58,-27.6291,1.240448,-32.74678,0.3815819925847417,0.0624551098739632,0.098356078046736,4.025295,72.3442,182.0649,0.589242,-0.03897414,0.8069925,1
3.6,-27.51479,1.406584,-32.69959,0.3492771812926367,0.0747745822837972,0.0890653457182262,7.666687,72.33383,182.3592,0.5875835,-0.06608206,0.8061367,1
3.62,-27.48077,1.226346,-32.67929,0.2994176556484302,0.035544049407551,0.0738495194525494,10.33709,72.30997,183.1605,0.5853434,-0.08891339,0.8053011,1
3.64,-27.36775,1.396882,-32.63361,0.2463880877002138,-0.0026349070946116,0.0574147711804364,13.95147,72.32652,183.4305,0.5825228,-0.1155387,0.803149,1
3.66,-27.25661,1.563781,-32.58863,0.2147684354436978,0.031660996082229,0.0498849039732771,17.56469,72.36122,183.7064,0.5791208,-0.1420406,0.8001943,1
3.68,-27.32929,1.199662,-32.61329,0.1539637004870577,-0.0125048979771955,0.0318148499661612,14.7665,72.58386,183.6534,0.5833921,-0.1222357,0.8013474,1
3.7,-27.21819,1.37635,-32.56961,0.1093435357292511,-0.0022040584414999,0.0192982605002471,18.35152,72.61713,183.911,0.5798314,-0.1483742,0.798287,1
3.72,-27.20983,1.175722,-32.55791,0.0630774776556788,0.0081663927669564,0.0061129639580048,18.74448,71.58111,184.055,0.5719826,-0.1524273,0.8032006,1
3.74,-27.10089,1.358468,-32.51527,0.000574467503124,-0.0075196688432029,-0.0126994047146098,22.30091,71.60799,184.2459,0.5677668,-0.1779952,0.7993579,1
3.76,-26.9931,1.537846,-32.47303,-0.0616056360012438,-0.0206975100425153,-0.0314803396327976,25.85621,71.64881,184.444,0.5630044,-0.2033838,0.7947447,1
3.78,-27.06644,1.153072,-32.49129,-0.1414285360525342,-0.0899513068099709,-0.0555589031144903,23.07004,69.21288,184.0447,0.5503108,-0.1841219,0.8099543,1
3.8,-26.9602,1.342026,-32.44976,-0.1938988076370922,-0.0755091953800959,-0.0702355029846408,26.57898,69.18671,184.0775,0.5454629,-0.2087679,0.8052936,1
3.82,-26.9464,1.132753,-32.43386,-0.2553694498469836,-0.1164770744352785,-0.0871279829236764,28.03126,66.57173,183.9405,0.5252028,-0.2206415,0.8151469,1
3.84,-26.84266,1.327189,-32.39261,-0.3000307209426958,-0.0967080776612437,-0.0989295003113284,31.49653,66.46867,183.8133,0.5196469,-0.2444428,0.8095427,1
3.86,-26.73936,1.518545,-32.35149,-0.3423083556164776,-0.0763050051723835,-0.1100575103139034,34.96064,66.35207,183.6733,0.513617,-0.2680137,0.8031992,1
3.88,-26.76996,1.121813,-32.35524,-0.3978630675697343,-0.1419222455371983,-0.1268438642776552,34.72452,64.01875,183.248,0.4985325,-0.2672782,0.8134838,1
3.9,-26.668,1.319765,-32.31478,-0.4271637552056333,-0.11974836675583,-0.1353544192166977,38.13778,63.78208,182.9166,0.4920944,-0.2900077,0.8065965,1
3.92,-26.56628,1.514741,-32.27438,-0.4526203662579391,-0.0971482075394503,-0.1428969190406039,41.54885,63.50709,182.5496,0.4852194,-0.3124719,0.7989916,1
3.94,-26.52256,1.115031,-32.26453,-0.4727942911318816,-0.1014651573669292,-0.1504973061495578,43.28717,63.40932,181.7356,0.4836797,-0.3211527,0.793631,1
3.96,-26.42214,1.315298,-32.22492,-0.4889641014310393,-0.1033625648404018,-0.156989820906515,46.65282,63.06161,181.2999,0.4763531,-0.3429332,0.7849892,1
3.98,-26.32183,1.51268,-32.18531,-0.5013991850307988,-0.1062537164912602,-0.1624939766904494,50.01538,62.65049,180.8028,0.4686144,-0.3644089,0.7756674,1
4.0,-26.30475,1.112946,-32.18014,-0.5026324291433282,-0.1095811219616747,-0.1629429559115975,48.07562,62.31639,179.5304,0.4739566,-0.346638,0.7806591,1
4.02,-26.20582,1.313398,-32.14112,-0.4995390752619868,-0.1109262963706073,-0.162088222522815,51.38811,61.83842,178.956,0.4663919,-0.3677191,0.7710044,1
4.04,-26.04066,1.103739,-32.0781,-0.4760642857499388,-0.1697797356551422,-0.1537457177983272,56.51043,60.27482,176.1885,0.4556226,-0.3944737,0.7534525,1
4.06,-25.94341,1.299813,-32.04034,-0.4349035834432979,-0.1411363722896789,-0.1386984129536301,59.76101,59.41085,175.2181,0.4473452,-0.414421,0.7421657,1
4.08,-25.84648,1.493204,-32.00266,-0.3951182214119302,-0.082643316416415,-0.1244250792810564,63.00132,58.33137,174.0337,0.4387018,-0.4340189,0.7302716,1
4.1,-25.70241,1.109136,-31.94573,-0.3522741751569458,-0.0268191890864906,-0.1093558599090926,62.64704,52.42336,167.8473,0.4245622,-0.4238504,0.73779,1
4.12,-25.60616,1.297849,-31.90817,-0.2982996583449289,-0.0771580095761932,-0.0898448865387209,65.75498,50.37381,165.6154,0.4161001,-0.4426202,0.725082,1
4.14,-25.40358,1.144341,-31.82661,-0.2472530599672078,-0.0419035233908518,-0.0716236120983442,58.3744,50.26939,167.8302,0.4155274,-0.3996938,0.7639557,1
4.16,-25.30727,1.326309,-31.78717,-0.1827905960166957,-0.0515651396667007,-0.0488510401524084,61.43166,48.46633,165.7923,0.4077617,-0.4185578,0.7520109,1
4.18,-25.21201,1.505622,-31.74812,-0.1323165648900066,-0.0095872515009558,-0.0319402654084655,64.45022,46.21596,163.3103,0.3996759,-0.4370854,0.7394747,1
4.2,-25.11794,1.68235,-31.70951,-0.0816466429577893,0.0309573998516735,-0.0151284620122598,67.41476,43.35057,160.2162,0.391279,-0.4552623,0.7263577,1
4.22,-24.99312,1.212043,-31.67469,-0.031767421740406,-0.0004674644794203,-0.0038183392809907,43.04394,57.71973,173.9655,0.4653054,-0.297215,0.8042893,1
4.24,-24.89196,1.386245,-31.63201,0.0172073512365686,0.0391737432450081,0.0074562699046691,46.28138,57.12418,173.1741,0.4594117,-0.3183784,0.795016,1
4.26,-24.74581,1.250252,-31.60639,0.0672767042598101,0.0764958580093117,0.018861021173647,26.18599,62.78052,175.9987,0.5137658,-0.175548,0.8268222,1
4.28,-24.6344,1.419028,-31.56098,0.1042812448052492,0.0876939588588037,0.0246830014299144,29.70355,62.56792,175.6285,0.5099213,-0.199749,0.8203766,1
4.3,-24.52491,1.584248,-31.5163,0.1404681641824736,0.0985561118645106,0.0301223209186574,33.22029,62.32003,175.2285,0.5055918,-0.2237635,0.8131502,1
4.32,-24.50126,1.268069,-31.52386,0.1777540886629816,0.0610745076789619,0.0346854902567459,8.123966,67.30635,177.5538,0.553905,-0.0471513,0.8292894,1
4.34,-24.38767,1.435089,-31.47845,0.2225754431570785,0.0921911175695342,0.0465043514689433,11.68638,67.25552,177.4845,0.5526457,-0.07265593,0.8268898,1
4.36,-24.27835,1.27919,-31.44352,0.2646249762086183,0.120868503669082,0.0575217179114595,354.4497,70.46102,178.4105,0.5755869,0.04753679,0.8161889,1
4.38,-24.16373,1.443962,-31.39769,0.2956362640877801,0.0780979344362577,0.0637566994907121,358.0244,70.41375,178.539,0.5762183,0.02143392,0.8170146,1
4.4,-24.05131,1.605008,-31.35268,0.3282231678381313,0.1035783436422277,0.0740222568859487,1.598173,70.37456,178.6646,0.5762886,-0.004682394,0.8170443,1
4.42,-24.01444,1.293743,-31.34303,0.357182685720204,0.126235449015816,0.0838107323069135,352.8351,71.28062,179.278,0.5812247,0.05444365,0.8113164,1
4.44,-23.89943,1.455138,-31.29399,0.3663354376601702,0.1187787603429505,0.0858529273887338,356.425,71.21741,179.5396,0.5818565,0.02769815,0.812683,1
4.46,-23.84612,1.269787,-31.27572,0.3711299745096097,0.1114792247640365,0.0868413086369037,354.096,71.80496,180.0062,0.5856316,0.04168322,0.8089399,1
4.48,-23.7341,1.433126,-31.22766,0.3711071492687336,0.101572035387187,0.0865349096360841,357.6335,71.74479,180.3047,0.5858995,0.01517566,0.8101164,1
4.5,-23.62432,1.592838,-31.1805,0.3622303958024,0.0886611848218338,0.0831265773694016,1.170117,71.70312,180.5992,0.5856055,-0.01133845,0.8105152,1
4.52,-23.58441,1.246093,-31.17499,0.3501812439997049,0.0762584977798569,0.0786876925899737,1.397286,72.40949,181.5933,0.5904347,-0.01804985,0.8068736,1
4.54,-23.47076,1.411272,-31.12799,0.3414657716529476,0.1138706782440494,0.0776871053810568,5.00851,72.38757,181.8904,0.5892923,-0.04498864,0.8065696,1
4.56,-23.35929,1.57275,-31.08185,0.3092843007930987,0.0768807773122077,0.0685882620301021,8.619463,72.38441,182.1879,0.5875611,-0.07187817,0.8054592,1
4.58,-23.40117,1.231995,-31.09507,0.2744490876886449,0.0403658545463717,0.0586368828259336,8.28516,72.46971,182.8765,0.587904,-0.07304709,0.805312,1
4.6,-23.28733,1.400815,-31.04894,0.2560818086420604,0.0759258889050346,0.0556938172457899,11.91682,72.4809,183.1592,0.5854502,-0.0999006,0.8035728,1
4.62,-23.27257,1.208662,-31.03657,0.2053771665045163,0.0343339672342815,0.0407095880975765,13.45494,72.71596,183.5437,0.5855482,-0.1125005,0.8015488,1
4.64,-23.16072,1.383261,-30.99217,0.1645838415980556,0.0455875810022842,0.0288964139189893,17.05191,72.75069,183.8212,0.5822125,-0.1388576,0.7987402,1
4.66,-23.0505,1.554308,-30.94838,0.1046833287026776,0.0038001082230243,0.0109320455232229,20.64767,72.80477,184.107,0.5783014,-0.1650697,0.7951413,1
4.68,-23.12307,1.183178,-30.97039,0.0435583524128917,-0.0360812074642294,-0.0075699497362684,17.41078,72.18137,183.9069,0.5777713,-0.1420841,0.8013513,1
4.7,-23.01345,1.363978,-30.92794,0.0081453519466347,0.0020666387024562,-0.0164174935426717,20.97044,72.21401,184.1223,0.5737922,-0.1677721,0.7977703,1
4.72,-22.9051,1.54138,-30.88593,-0.0495453885723331,-0.0420307273733875,-0.031956116793868,24.52895,72.26222,184.3456,0.569259,-0.1932903,0.7934182,1
4.74,-23.00689,1.160739,-30.91594,-0.0919821668018556,-0.0275048553972686,-0.0427693403206688,21.58727,70.08201,184.0924,0.5581704,-0.1733678,0.8075829,1
4.76,-22.89963,1.347722,-30.87447,-0.1338856515535371,-0.0122060238864762,-0.0534216485555143,25.11086,70.07439,184.1693,0.5535337,-0.198256,0.8032104,1
4.78,-22.91778,1.139041,-30.87,-0.1979851820091567,-0.0812293260739215,-0.0710325307174222,26.30927,67.64106,183.9684,0.5351168,-0.2077223,0.8128857,1
4.8,-22.81291,1.331712,-30.82887,-0.2339311641002575,-0.0645836679330072,-0.0792749220610655,29.79664,67.56993,183.898,0.529806,-0.2318401,0.8075887,1
4.82,-22.78343,1.124859,-30.8074,-0.2675215636884873,-0.0471027542791037,-0.0867598438827901,32.08571,64.73468,183.5308,0.5070613,-0.2491592,0.8159118,1
4.84,-22.68078,1.321976,-30.76666,-0.296925649442604,-0.0561211236203234,-0.0940373311974966,35.52029,64.54689,183.2616,0.5009673,-0.2722754,0.8095233,1
4.86,-22.57842,1.516076,-30.726,-0.3230057403186364,-0.0621919752514606,-0.1004526914656547,38.95305,64.32971,182.9654,0.4944234,-0.2951395,0.8024063,1
4.88,-22.58504,1.117158,-30.72933,-0.3460422735550619,-0.06867775595403,-0.1061256693859729,39.64659,63.55312,182.6651,0.4885645,-0.299732,0.8036702,1
4.9,-22.4838,1.316562,-30.68986,-0.3603624074531217,-0.0747975902675581,-0.1108018922909557,43.03046,63.23851,182.2463,0.4815256,-0.3218052,0.7958315,1
4.92,-22.38272,1.513043,-30.65042,-0.3702468402139525,-0.0782162945594621,-0.1141805505451309,46.41142,62.86927,181.7755,0.4740657,-0.3435894,0.7872953,1
4.94,-22.32123,1.113755,-30.63218,-0.3743239849358355,-0.1392739326190995,-0.116009154593442,46.38638,62.94984,180.3551,0.478885,-0.3373733,0.7845753,1
4.96,-22.22166,1.314252,-30.59299,-0.3661066266494734,-0.111556547259775,-0.1123821465471257,49.72136,62.53723,179.8513,0.4714179,-0.358734,0.7752528,1
4.98,-22.12219,1.511915,-30.5538,-0.3538831001849285,-0.083693426224657,-0.1076138764591365,53.05257,62.04482,179.2696,0.4635499,-0.379781,0.76527,1
5.0,-22.06731,1.107167,-30.5343,-0.3379303592797842,-0.0590422032211439,-0.101817432165947,53.31088,61.28872,177.6704,0.4632883,-0.3766327,0.7641032,1
5.02,-21.96937,1.305584,-30.49612,-0.3007335802072348,-0.0629942203531836,-0.0879599981644188,56.58778,60.61432,176.8928,0.4552769,-0.3970173,0.7534241,1
5.04,-21.75619,1.104535,-30.41345,-0.2598544186189295,-0.0657533315584216,-0.073129135580725,61.22982,55.91684,171.158,0.4369543,-0.4173876,0.7394997,1
5.06,-21.65959,1.295727,-30.37636,-0.211128081964719,-0.0597906352602357,-0.0550606793918664,64.40102,54.34931,169.4387,0.4284479,-0.4364838,0.7271916,1
5.08,-21.56356,1.48429,-30.33945,-0.1603993988736811,-0.053094141653138,-0.0363942305082867,67.54503,52.32765,167.2672,0.4195964,-0.4552177,0.7142976,1
5.1,-21.46826,1.670264,-30.30279,-0.1079355922417644,-0.0489217314081154,-0.0172464673596222,70.64955,49.6383,164.4296,0.4104068,-0.4735768,0.7008274,1
5.12,-21.31481,1.144331,-30.2399,-0.0436264845748666,-0.0318470148559341,0.0056930230485989,58.37909,50.29211,167.7985,0.4157845,-0.3995543,0.7637734,1
5.14,-21.21814,1.326316,-30.20094,0.0210666332234592,-0.014639057052729,0.0288404088894251,61.43512,48.46009,165.7251,0.407963,-0.4183592,0.7518387,1
5.16,-21.04128,1.195662,-30.13473,0.0698305164650028,0.0505041928804901,0.0454271854996632,48.2713,56.17416,173.1696,0.4503814,-0.3345078,0.79221,1
5.18,-20.94327,1.372049,-30.0939,0.1191108359875245,0.0452792744720283,0.0569502858393962,51.40793,55.36187,172.1559,0.4438696,-0.3545512,0.7822706,1
5.2,-20.8466,1.545672,-30.05359,0.1692342612369493,0.0384199660111997,0.0686949560231338,54.53312,54.39342,170.9899,0.4370131,-0.3743115,0.7717227,1
5.22,-20.75666,1.239151,-30.05113,0.2198204454978447,0.0267805813417224,0.0804637708257893,32.06285,61.25489,175.3412,0.4988953,-0.2175415,0.8206319,1
5.24,-20.64557,1.408573,-30.00556,0.2660843591536146,0.037647741644275,0.088552781040363,35.58365,60.93855,174.8399,0.4941901,-0.2413608,0.8128726,1
5.26,-20.53637,1.57446,-29.96071,0.3116562907042595,0.0479952366165027,0.0961115023608085,39.10194,60.56729,174.2894,0.4890116,-0.2649488,0.8043349,1
5.28,-20.44577,1.267922,-29.95277,0.349123864417669,0.1008920394892516,0.1054004526721379,8.146935,67.498,177.5574,0.5552853,-0.04724009,0.8283494,1
5.3,-20.3316,1.43477,-29.90743,0.3721437640660832,0.0823131733216536,0.1078968590803293,11.72448,67.44965,177.4922,0.5540281,-0.0728425,0.8259252,1
5.32,-20.20262,1.279174,-29.86483,0.3924113013851897,0.0624165222630566,0.1095007002183181,354.4235,70.63223,178.4131,0.5767978,0.04768486,0.8153204,1
5.34,-20.08773,1.443888,-29.81926,0.4220274043432797,0.1100122254084734,0.1177215719913844,358.0025,70.58664,178.5431,0.5774472,0.02157029,0.8161432,1
5.36,-19.97505,1.604867,-29.77452,0.4469024789438234,0.0875908814179905,0.1233757025100681,1.580536,70.54921,178.6701,0.5775328,-0.00455796,0.8161687,1
5.38,-19.91973,1.293725,-29.75729,0.4685202258127003,0.1112031379606072,0.1299614887300197,352.8349,71.42171,179.2775,0.582223,0.05440946,0.8106002,1
5.4,-19.80454,1.455106,-29.70854,0.4852924221642412,0.1321921838669121,0.1355611803382785,356.4259,71.36031,179.5393,0.5828697,0.02767424,0.8119572,1
5.42,-19.69176,1.612668,-29.66075,0.4845905515773965,0.0753828469366439,0.1331781247854206,0.01625281,71.31545,179.7966,0.5829412,0.0009193846,0.8125125,1
5.44,-19.65951,1.262027,-29.65693,0.4904798346804666,0.0873041707937584,0.1350382534024836,355.7547,72.05275,180.5797,0.5878981,0.02698131,0.808071,1
5.46,-19.54716,1.425845,-29.60959,0.491125471488552,0.097831189258027,0.1352008650377056,359.3067,72.00338,180.872,0.5878187,0.0004214682,0.8089346,1
5.48,-19.43704,1.586032,-29.56315,0.4765480477267356,0.0855004681219483,0.1304114086506134,2.858008,71.9721,181.1614,0.587171,-0.02613133,0.8090156,1
5.5,-19.45815,1.245937,-29.5775,0.4585327778959378,0.0740072812532904,0.1244433655299031,1.425286,72.51826,181.5927,0.5911959,-0.01824768,0.8063124,1
5.52,-19.3439,1.41096,-29.53065,0.4366253058808764,0.0605122095587998,0.1170645679699604,5.051561,72.49828,181.8879,0.5900574,-0.04526654,0.80599,1
5.54,-19.23186,1.572252,-29.48465,0.4012212403458131,0.0455278361357341,0.1074037629403039,8.677547,72.49701,182.1838,0.5883244,-0.07223585,0.8048554,1
5.56,-19.25807,1.226221,-29.48806,0.3623626557437494,0.0323767870502428,0.0965364740412031,10.34497,72.55676,183.167,0.5870661,-0.08893483,0.8040364,1
5.58,-19.14436,1.396558,-29.44246,0.3196249804913527,0.0181764969755471,0.0842738520051518,13.97718,72.57885,183.4454,0.5842534,-0.115688,0.8018524,1
5.6,-19.03256,1.563222,-29.39757,0.2952674842048464,0.0749147439298831,0.0792015003953392,17.60811,72.61986,183.7301,0.5808518,-0.1423158,0.7988589,1
5.62,-19.12589,1.199658,-29.43027,0.2311842249365925,0.0279832244501203,0.059843205628101,14.76684,72.83545,183.6555,0.5851476,-0.1221378,0.8000653,1
5.64,-19.01444,1.376291,-29.38697,0.1796957728360919,0.0366603695489823,0.0445845466953822,18.35702,72.87328,183.9161,0.5816019,-0.1482872,0.7969866,1
5.66,-19.02579,1.175721,-29.38278,0.1264391313523856,0.0455696212679872,0.0286513197347519,18.74471,71.83644,184.057,0.5737681,-0.1522896,0.8019252,1
5.68,-18.91652,1.35842,-29.34051,0.0453923350679457,-0.0276697612939145,0.003947484131312,22.30628,71.86809,184.2509,0.5695653,-0.1778668,0.7980646,1
5.7,-18.80839,1.537742,-29.29864,-0.0093729133015714,-0.0183731022162426,-0.0114761570334844,25.86668,71.91402,184.4524,0.5648127,-0.2032642,0.7934325,1
5.72,-18.85287,1.145466,-29.30284,-0.0772593621406412,-0.064002306941399,-0.0304351188919942,24.60711,68.78429,184.0523,0.5453186,-0.195243,0.8099899,1
5.74,-18.74694,1.33637,-29.26176,-0.1448424799613021,-0.1067910260189038,-0.0493114371349139,28.11426,68.74535,184.0463,0.5402479,-0.219686,0.805008,1
5.76,-18.64167,1.52409,-29.2209,-0.1810553816626687,-0.0667153766492835,-0.0574750915928836,31.61994,68.70464,184.0373,0.5346738,-0.2439135,0.7992744,1
5.78,-18.69555,1.128746,-29.22971,-0.2158840278625486,-0.02765979167902,-0.0651937266773994,30.04391,65.87701,183.7086,0.5178434,-0.2344048,0.8147103,1
5.8,-18.59223,1.324517,-29.18911,-0.2552037428152109,-0.0431896804760099,-0.0750950029272772,33.49331,65.73775,183.5129,0.5120385,-0.257829,0.8087078,1
5.82,-18.48927,1.517241,-29.14861,-0.2910560953263346,-0.055408979961642,-0.0840313982800866,36.94128,65.5778,183.2983,0.5057705,-0.2810124,0.8019727,1
5.84,-18.46892,1.117147,-29.13818,-0.3124790865689086,-0.0081915818369057,-0.0891890159836314,39.63367,63.7257,182.6802,0.4897572,-0.2994656,0.8029856,1
5.86,-18.36741,1.3165,-29.0986,-0.3384921042042303,-0.0460106523504681,-0.0980543088521286,43.02771,63.42171,182.2747,0.4827226,-0.3216231,0.7951118,1
5.88,-18.26606,1.512916,-29.05905,-0.3606666851689257,-0.0819950778632667,-0.1059194583025666,46.41894,63.06463,181.8186,0.4752635,-0.3434896,0.7865374,1
5.9,-18.26442,1.114513,-29.06437,-0.3629491672720868,-0.0310378087497181,-0.1063075713571457,44.68935,63.62595,181.1203,0.4843848,-0.3278161,0.7878888,1
5.92,-18.16447,1.315052,-29.02519,-0.3576398879146782,-0.0663615371819565,-0.1044491587883311,48.03692,63.27394,180.6838,0.4770417,-0.3493945,0.7789309,1
5.94,-18.05302,1.109983,-28.9834,-0.3486224724667106,-0.1004016285411787,-0.1015828407459307,50.68794,62.12012,178.7109,0.4703752,-0.3614121,0.7716472,1
5.96,-17.9545,1.309437,-28.94536,-0.3302189396519912,-0.0476240487843458,-0.0946293909749029,53.97918,61.55667,178.0447,0.4625728,-0.3820715,0.7615085,1
5.98,-17.85612,1.506133,-28.90735,-0.3080735871955902,0.0034373683510882,-0.0866525595967551,57.26453,60.87322,177.2604,0.4543858,-0.4024023,0.7507366,1
6.0,-17.75803,1.700083,-28.86941,-0.2723663637033986,-0.0601129290829976,-0.0738919511544251,60.5428,60.03064,176.3186,0.4458214,-0.4223907,0.7393395,1
6.02,-17.6226,1.104474,-28.81754,-0.2273728337964549,-0.0352383099249075,-0.057660618426611,61.2232,56.07018,171.1913,0.437833,-0.4170727,0.7390286,1
6.04,-17.52573,1.295652,-28.78047,-0.1794462261728193,-0.0108927473275285,-0.0406983271089496,64.40292,54.51132,169.4797,0.4293169,-0.4362092,0.7266884,1
6.06,-17.32765,1.128869,-28.70133,-0.1288305932217812,-0.0022930828779302,-0.0226844143527675,60.9518,49.92997,166.7243,0.4144633,-0.4146588,0.7513356,1
6.08,-17.23131,1.313074,-28.66306,-0.0772851585526774,0.0072161470284995,-0.0043657046977223,64.0007,47.81475,164.3802,0.4063217,-0.433263,0.7389104,1
6.1,-17.13591,1.494647,-28.62514,-0.025047662101735,0.014445756425761,0.014146666528028,67.00091,45.12346,161.4629,0.3978591,-0.4515163,0.7259002,1
6.12,-16.91775,1.195491,-28.54284,0.0428526984654329,-0.0493864161118838,0.0349475315945131,48.30844,56.21951,173.1594,0.450678,-0.3346368,0.7918854,1
6.14,-16.81989,1.371922,-28.50205,0.1029267429915272,-0.0113770147719763,0.0524337967830037,51.44125,55.41382,172.1526,0.4441919,-0.3546578,0.7819421,1
6.16,-16.72336,1.545599,-28.46178,0.1627497801210466,0.0249345770097038,0.0697695791904773,54.56277,54.45316,170.9946,0.437362,-0.3743965,0.7713926,1
6.18,-16.61548,1.239152,-28.45224,0.2048803992366255,0.0354559846044902,0.0765760031224149,32.06963,61.3091,175.3421,0.4992756,-0.217512,0.8203819,1
6.2,-16.50444,1.408599,-28.40677,0.2470294793644634,0.045876735217529,0.0831772286361762,35.58797,60.99556,174.8428,0.494584,-0.2413088,0.8126205,1
6.22,-16.39528,1.574516,-28.36204,0.2888127602054025,0.0531291264189583,0.0893771790138213,39.10382,60.62742,174.2945,0.4894196,-0.2648745,0.8040825,1
6.24,-16.28547,1.267923,-28.34649,0.329933451943319,0.0586746380232304,0.0977261144213663,8.153616,67.54683,177.5573,0.555637,-0.0472632,0.8281084,1
6.26,-16.17128,1.434779,-28.30127,0.3686510575702149,0.0643050531492663,0.1051527737063557,11.73042,67.5003,177.4924,0.5543909,-0.07285307,0.8256753,1
6.28,-16.05917,1.597942,-28.25682,0.4045147284604333,0.067133795817937,0.1114508960942477,15.30617,67.44888,177.4235,0.552605,-0.09836489,0.8224384,1
6.3,-16.02352,1.279154,-28.25143,0.4395831819077163,0.1346978128135841,0.1218420565695201,354.4521,70.67144,178.4115,0.5770859,0.04748425,0.8151311,1
6.32,-15.90861,1.443879,-28.20598,0.4586824390635617,0.1088070168807626,0.1251481258971805,358.0305,70.62769,178.5412,0.5777442,0.02138003,0.8159379,1
6.34,-15.7959,1.60487,-28.16134,0.4720479909242636,0.1293923336934268,0.1282710364178032,1.608122,70.59211,178.6682,0.5778387,-0.004738002,0.8159478,1
6.36,-15.68962,1.295983,-28.12726,0.4808466380647991,0.1478436783710133,0.1304316371151976,353.4686,71.67586,179.4947,0.5843343,0.04875869,0.8094991,1
6.38,-15.57446,1.456842,-28.07875,0.4707447486639808,0.0900546429854628,0.1244611582854977,357.0519,71.61829,179.7659,0.5848497,0.02205606,0.8107312,1
6.4,-15.46172,1.613889,-28.03121,0.4648834509408184,0.1012088445278316,0.1217854646738874,0.6345026,71.5778,180.0331,0.5847903,-0.004660578,0.8111656,1
6.42,-15.43728,1.254683,-28.0324,0.4540115253701675,0.1112050769323419,0.117576387284084,357.4229,72.25262,181.1392,0.5895698,0.01230351,0.8073434,1
6.44,-15.32484,1.419102,-27.98597,0.4251469470219617,0.0463568335985837,0.1057502412200421,0.9810232,72.21369,181.4197,0.5891405,-0.01421653,0.8078905,1
6.46,-15.21459,1.579906,-27.9404,0.4041450798449388,0.0568236176556292,0.0990526771175281,4.538356,72.19213,181.6985,0.5881401,-0.04071532,0.8076539,1
6.48,-15.23715,1.240477,-27.94878,0.3789153092950534,0.0665242076746548,0.0909812780301635,4.008052,72.68138,182.0622,0.5916202,-0.038821,0.8052576,1
6.5,-15.12259,1.406616,-27.90228,0.349012011997871,0.072701385158251,0.0813176389078518,7.648023,72.67651,182.358,0.5900013,-0.06587653,0.8043826,1
6.52,-15.01019,1.56902,-27.85662,0.3017895778755035,0.0529287403038156,0.0671523365980317,11.28713,72.69072,182.6564,0.587784,-0.092858,0.8026909,1
6.54,-15.03672,1.217338,-27.85967,0.2520284889739146,0.0354194757851318,0.0521621359788766,11.90329,72.83056,183.3566,0.5877367,-0.1006988,0.8018573,1
6.56,-14.9235,1.389703,-27.81495,0.1993206796435551,0.0172980477656879,0.0361616884183995,15.52713,72.86201,183.6359,0.584667,-0.1272981,0.7993417,1
6.58,-14.81207,1.558437,-27.77088,0.1379315904205125,-0.0051152896560041,0.0173869331587401,19.14976,72.91278,183.9228,0.5810106,-0.1537618,0.7960229,1
6.6,-14.70263,1.72367,-27.72756,0.0750592469325734,-0.024441643650629,-0.0020240185018054,22.771,72.98434,184.2198,0.5767714,-0.1800617,0.7919057,1
6.62,-14.84539,1.183144,-27.77542,0.0103407953615244,-0.0436566904551396,-0.0222186413335987,17.4147,72.48962,183.9156,0.5799099,-0.1419884,0.7997953,1
6.64,-14.73518,1.363802,-27.73312,-0.0489938654032435,-0.066095911418925,-0.0386225932650798,20.98912,72.5294,184.1419,0.5759348,-0.167782,0.796181,1
6.66,-14.62624,1.541034,-27.69126,-0.1080888876981975,-0.0847593881892192,-0.0549680633346119,24.56231,72.58576,184.3768,0.5713989,-0.193404,0.7917903,1
6.68,-14.69994,1.153077,-27.70604,-0.149047922208162,-0.0466863464761386,-0.0655815749999222,23.07327,69.6745,184.0488,0.5535585,-0.1838201,0.8077297,1
6.7,-14.593,1.34195,-27.66511,-0.189425803228723,-0.009632208281049,-0.0760337481441402,26.595,69.65572,184.0863,0.5487159,-0.2085021,0.8030387,1
6.72,-14.57969,1.132778,-27.64928,-0.2615492428713881,-0.0841583204011154,-0.0965230275118145,28.02739,67.01924,183.9414,0.5283861,-0.2202066,0.8130965,1
6.74,-14.47546,1.327185,-27.60873,-0.3090180057385459,-0.0712637549879766,-0.1095290702634725,31.49829,66.92229,183.8156,0.52284,-0.243981,0.8074785,1
6.76,-14.37167,1.518501,-27.56833,-0.3534811310916517,-0.0571360192275373,-0.1216007868583082,34.96805,66.81214,183.6776,0.5168154,-0.267525,0.8011208,1
6.78,-14.2685,1.706762,-27.52813,-0.4096863538412407,-0.1283668316577252,-0.1380701148305272,38.43652,66.68634,183.5247,0.5103187,-0.2908166,0.7940296,1
6.8,-14.33756,1.11875,-27.54484,-0.4389352079099762,-0.1109955386175133,-0.1462070938625195,37.39496,63.87064,183.0071,0.4937344,-0.2851049,0.8080307,1
6.82,-14.23551,1.317474,-27.50516,-0.4637577249989628,-0.0923865553319765,-0.1531180348138665,40.80385,63.59251,182.6208,0.4869431,-0.3075038,0.8006037,1
6.84,-14.13365,1.513232,-27.46552,-0.4901365904126336,-0.159631524089277,-0.1619643980338239,44.21011,63.26688,182.1898,0.4797199,-0.3296219,0.7924652,1
6.86,-14.09113,1.114529,-27.4587,-0.5001036050181891,-0.1373168054672151,-0.1651829034937675,44.69309,63.75627,181.1167,0.4852841,-0.3276069,0.787321,1
6.88,-13.99082,1.315066,-27.41976,-0.5053924601458546,-0.1140091917818019,-0.1669988843494203,48.04824,63.40154,180.6742,0.4779167,-0.3491982,0.7783478,1
6.9,-13.8906,1.512736,-27.38082,-0.5062613199616015,-0.093070320710228,-0.1675196428787231,51.40028,62.98009,180.1669,0.4701385,-0.3704816,0.7687046,1
6.92,-13.76774,1.10717,-27.33534,-0.4921471785931672,-0.1013942668398497,-0.1620647093213998,53.31428,61.56953,177.672,0.4651478,-0.3760624,0.7629573,1
6.94,-13.66937,1.305572,-27.29752,-0.4730064576678587,-0.1072193018847597,-0.155134240717738,56.59935,60.8982,176.894,0.4571156,-0.3964548,0.7522541,1
6.96,-13.5712,1.501231,-27.25975,-0.4508161640240118,-0.0535145680761414,-0.147217501870823,59.87699,60.07317,175.9642,0.4487041,-0.4165066,0.7409263,1
6.98,-13.47338,1.694163,-27.22208,-0.4065328444584797,-0.0811635997125995,-0.1310232111110805,63.14536,59.03925,174.8271,0.43992,-0.4362046,0.7289821,1
7.0,-13.30472,1.109082,-27.15719,-0.3588919598103601,-0.1088779896553088,-0.1138444526869917,62.64611,52.77047,167.8558,0.4267648,-0.4229367,0.7365279,1
7.02,-13.2079,1.297778,-27.12023,-0.3081315132916979,-0.1399681311080592,-0.0957784647632276,65.76231,50.71206,165.6083,0.4182573,-0.441685,0.7237964,1
7.04,-13.11178,1.48384,-27.08351,-0.2427653054259302,-0.1291081902881636,-0.0722980002119317,68.83456,48.0341,162.7434,0.4094136,-0.460067,0.7104825,1
7.06,-12.89395,1.161658,-26.99686,-0.1755210350822933,-0.1174689804791191,-0.0480682702715054,55.78072,50.97675,168.7591,0.4198691,-0.3829734,0.7742719,1
7.08,-12.79664,1.341451,-26.95764,-0.1219037494816777,-0.05492137097802,-0.0295406122515524,58.84407,49.39246,166.9177,0.4123935,-0.4019461,0.7628254,1
7.1,-12.70049,1.518547,-26.91887,-0.0678752641945523,0.0055017742205676,-0.0111008376630401,61.87457,47.4457,164.7177,0.4045947,-0.4205959,0.7507799,1
7.12,-12.49819,1.228669,-26.86506,-0.0120676526510048,-0.0288951464537948,0.0025719536594852,37.8231,59.6626,174.7336,0.483016,-0.2592448,0.812393,1
7.14,-12.393,1.400607,-26.82168,0.0274283806473485,0.0061406034661433,0.0104214316398465,41.16462,59.2275,174.1029,0.477717,-0.2814308,0.803869,1
7.16,-12.28946,1.569375,-26.77895,0.0670829265131078,0.0399403897268955,0.0180558407118178,44.50108,58.71688,173.4018,0.472005,-0.303366,0.7946497,1
7.18,-12.22277,1.257112,-26.77987,0.1050695923984095,0.0026996927559982,0.020486512105609,20.07884,64.66428,176.5739,0.5308053,-0.1314893,0.8288651,1
7.2,-12.11025,1.425227,-26.73476,0.1422742879107872,0.0348714042446806,0.027536542922498,23.61978,64.53888,176.3276,0.5278766,-0.1562196,0.8237221,1
7.22,-11.99969,1.589731,-26.6904,0.177522047495408,0.0657884400373505,0.0338153424186962,27.16058,64.39249,176.0649,0.524441,-0.1808015,0.8177887,1
7.24,-11.89641,1.275683,-26.66706,0.2110993472013922,0.0257179555188802,0.0378309304423623,358.4139,69.90273,178.1816,0.5725739,0.02043264,0.8195829,1
7.26,-11.78191,1.441356,-26.62222,0.2425808777930358,0.0541895348298674,0.0455199797584531,1.981926,69.86935,178.2514,0.5727063,-0.005439935,0.8194364,1
7.28,-11.66954,1.60333,-26.57817,0.2705473601065806,0.080917056439827,0.0523566534315529,5.548963,69.84023,178.3193,0.5722833,-0.03129993,0.8184955,1
7.3,-11.55953,1.761754,-26.53501,0.2945002573665847,0.1031498177799229,0.0581222748252066,9.114993,69.81519,178.386,0.5713064,-0.05712202,0.8167616,1
7.32,-11.53034,1.293833,-26.53225,0.3087378965502549,0.1002457596985019,0.0608957352094954,352.8259,71.63341,179.255,0.5837055,0.05452925,0.8095257,1
7.34,-11.41492,1.455349,-26.48472,0.319877957529488,0.0976402630837348,0.0633822557061871,356.4108,71.57735,179.4955,0.5843932,0.02797672,0.8108545,1
7.36,-11.30189,1.613061,-26.43813,0.3274380946968172,0.0925400656567956,0.0653415158812116,-0.005213676,71.5365,179.732,0.5845066,0.001404162,0.8113859,1
7.38,-11.2893,1.262109,-26.44159,0.3165001776041246,0.0804146700789735,0.0602080119539745,355.7415,72.27934,180.5699,0.5894904,0.02707364,0.8069053,1
7.4,-11.17674,1.425958,-26.39493,0.3019581180583602,0.0696787406893464,0.0540256375772036,359.2917,72.23352,180.8566,0.5894423,0.0005865011,0.8077524,1
7.42,-11.06641,1.586179,-26.34914,0.2833674946899007,0.05756225082791,0.0465681948026555,2.841226,72.20546,181.1408,0.5888252,-0.025894,0.8078189,1
7.44,-11.04726,1.240613,-26.34569,0.257540308716004,0.047310511176505,0.0390883765752323,3.986938,72.84467,182.0628,0.5927734,-0.0386669,0.8044171,1
7.46,-10.93307,1.406913,-26.29962,0.2289639563919971,0.038975891363865,0.0308360290675242,7.611138,72.8415,182.3605,0.5911755,-0.06559819,0.8035459,1
7.48,-10.82102,1.569502,-26.25438,0.1971991366490078,0.0296923174325147,0.021607717030148,11.23496,72.85745,182.6609,0.5889826,-0.0924596,0.8018661,1
7.5,-10.71133,1.728539,-26.21004,0.1814085862918384,0.0911776324974312,0.0191623962558997,14.85761,72.89332,182.9668,0.586198,-0.1192203,0.7993795,1
7.52,-10.82748,1.217393,-26.2493,0.126780016153264,0.0517678024795926,0.0028418315895057,11.89442,72.98846,183.3565,0.5888476,-0.1005843,0.8010517,1
7.54,-10.71429,1.389794,-26.20492,0.0705428763627483,0.0146842144805859,-0.0140915893368571,15.51343,73.02164,183.6364,0.5857919,-0.1271292,0.7985373,1
7.56,-10.60287,1.558574,-26.1612,0.0328381502647424,0.053583426332096,-0.0246179886358404,19.13122,73.07417,183.924,0.58215,-0.1535391,0.7952228,1
7.58,-10.67551,1.183167,-26.18093,-0.0324456725493101,0.0131495378832842,-0.0438837453086198,17.41039,72.65434,183.9155,0.5810636,-0.1418688,0.7989648,1
7.6,-10.5652,1.363826,-26.13895,-0.0982600969672,-0.0243451350848704,-0.0634730700320473,20.9837,72.6959,184.1423,0.5770969,-0.1676319,0.7953497,1
7.62,-10.45617,1.541062,-26.09741,-0.1649095543172908,-0.0619397476871917,-0.0835039297713922,24.55579,72.75409,184.3779,0.5725687,-0.1932241,0.7909597,1
7.64,-10.51056,1.153096,-26.10456,-0.2174434805825766,-0.0783188598416978,-0.0968665541548885,23.06929,69.83775,184.0489,0.5547135,-0.1836707,0.8069455,1
7.66,-10.40351,1.341965,-26.06393,-0.2685544950249903,-0.0904664441032658,-0.1097387434297991,26.59076,69.82075,184.0869,0.5498769,-0.208327,0.8022545,1
7.68,-10.29724,1.527603,-26.02356,-0.3185339485386134,-0.101548282298507,-0.122232106701011,30.11083,69.80586,184.1248,0.5445232,-0.2327766,0.7968079,1
7.7,-10.19192,1.710066,-25.98353,-0.3404744805701262,-0.0303924085729276,-0.126032286547653,33.62989,69.79324,184.1632,0.5386576,-0.2569996,0.7906113,1
7.72,-10.31393,1.128756,-26.0151,-0.3884762192362857,-0.0708465142633376,-0.1381130100397913,30.04331,66.22839,183.7103,0.5203367,-0.234056,0.8131214,1
7.74,-10.21006,1.324489,-25.97497,-0.4190956012773259,-0.0490202449145282,-0.145355949353747,33.50314,66.09317,183.516,0.514522,-0.2575017,0.8071002,1
7.76,-10.10656,1.517158,-25.93495,-0.4455380464927365,-0.0257510042268952,-0.1513951395091695,36.96157,65.93745,183.3029,0.5082391,-0.2807055,0.8003432,1
7.78,-10.10574,1.117155,-25.93195,-0.4791710259243253,-0.0879485056160984,-0.1616200514921022,39.62508,64.05676,182.6818,0.4920858,-0.2989489,0.8015906,1
7.8,-10.00391,1.316501,-25.89291,-0.5086496902956411,-0.1486276096487199,-0.1706648971531374,43.02209,63.75623,182.2764,0.4850472,-0.3210738,0.7937169,1
7.82,-9.902236,1.512901,-25.8539,-0.5084599283440159,-0.0951737374196918,-0.1701199957184234,46.41636,63.40281,181.8208,0.4775812,-0.3429082,0.7851426,1
7.84,-9.841251,1.113755,-25.83653,-0.5043471089238887,-0.1269806767658256,-0.1688435642488852,46.37835,63.43759,180.3642,0.4822083,-0.3364886,0.7825693,1
7.86,-9.741272,1.31424,-25.79804,-0.495447182123687,-0.1567633360426044,-0.1662182974389225,49.71725,63.03358,179.865,0.4747365,-0.35781,0.7732429,1
7.88,-9.641383,1.511883,-25.75956,-0.4731321846330882,-0.0991909343992411,-0.1574321227049537,53.05249,62.55081,179.2891,0.4668601,-0.3788186,0.7632563,1
7.9,-9.541739,1.706693,-25.72114,-0.4458417817207342,-0.0427340847451138,-0.1471309840816768,56.38335,61.96641,178.6134,0.4585864,-0.3994969,0.7526184,1
7.92,-9.471457,1.103737,-25.6965,-0.4086790636785242,-0.1018967847101425,-0.1336429134014038,56.49776,60.82219,176.2069,0.459177,-0.3932021,0.7513567,1
7.94,-9.373535,1.299787,-25.65937,-0.3708836895380377,-0.0716069373073559,-0.1200727688369847,59.76099,59.97145,175.2437,0.450878,-0.4131565,0.7400311,1
7.96,-9.275938,1.493134,-25.62234,-0.3148930088880385,-0.0911882336151705,-0.0996087324276366,63.01403,58.9066,174.0682,0.4422075,-0.4327593,0.7280961,1
7.98,-9.055191,1.117968,-25.53696,-0.2561090229509061,-0.1109104657184484,-0.0783116406967883,61.82418,51.50476,167.2013,0.4220161,-0.4182687,0.7430521,1
8.0,-8.958372,1.304389,-25.49978,-0.1947844675941945,-0.1340563072015125,-0.0562894933078532,64.90833,49.40041,164.8843,0.4136678,-0.4369143,0.7304636,1
8.02,-8.862381,1.488174,-25.46289,-0.141860214803429,-0.0475506851944212,-0.0377549599573159,67.94566,46.69265,161.9664,0.4049885,-0.4552023,0.7172899,1
8.04,-8.644413,1.178085,-25.37874,-0.0685471296399838,-0.0544118586047377,-0.0134856640957066,52.10285,53.99037,171.1774,0.4366891,-0.3588014,0.78281,1
8.06,-8.546652,1.356171,-25.33914,0.0061299328692266,-0.0620015702315275,0.0114302863799733,55.20938,52.85389,169.807,0.4296955,-0.3782719,0.7721065,1
8.08,-8.450139,1.53153,-25.30001,0.0635192697754971,0.0023744898759145,0.0293276911975532,58.29655,51.47918,168.2025,0.4223669,-0.3974401,0.7608002,1
8.1,-8.355015,1.704242,-25.26142,0.117942641410193,-0.0029687339096289,0.0409017255284545,61.35827,49.79329,166.2904,0.4147117,-0.4162916,0.7489002,1
8.12,-8.250251,1.239802,-25.25572,0.1737944619720159,-0.0091833585988256,0.0529273572749242,32.01105,61.56711,175.3523,0.5011571,-0.216739,0.8194026,1
8.14,-8.141705,1.410131,-25.21181,0.2145758746935048,0.0502680905152469,0.0628854267540721,35.44301,61.26591,174.868,0.4965969,-0.2399205,0.811853,1
8.16,-8.034952,1.5771,-25.16859,0.2509310448478603,0.0398521737950766,0.0678272781636466,38.87204,60.91359,174.3381,0.4915862,-0.2628796,0.8035664,1
8.18,-7.940654,1.268118,-25.16011,0.2861865269066136,0.028836403028965,0.0721643523621962,8.162228,67.82732,177.5561,0.5576613,-0.04717992,0.8267403,1
8.2,-7.827009,1.435246,-25.11577,0.32517410436223,0.0859381633192162,0.0821432029029085,11.71406,67.78419,177.4922,0.5564405,-0.07254831,0.824313,1
8.22,-7.715415,1.598731,-25.07218,0.3638598538623472,0.0736600748307553,0.0908513595552311,15.26482,67.73636,177.4245,0.5546859,-0.09783994,0.8210947,1
8.24,-7.600815,1.285326,-25.03852,0.3995128932382324,0.0604393146907767,0.0988248153816631,353.3177,71.35513,178.7109,0.5816625,0.05388882,0.8112624,1
8.26,-7.485497,1.448848,-24.99306,0.4324309350138408,0.1146782589449996,0.1088689665700277,356.8951,71.30872,178.8799,0.5824372,0.02770788,0.8123654,1
8.28,-7.372457,1.608616,-24.94846,0.4601912435118369,0.1653023662443647,0.1175941971741743,0.4715817,71.27297,179.0457,0.5826434,0.001507274,0.812675,1
8.3,-7.261907,1.764789,-24.90479,0.4623108311701897,0.1180503108846299,0.1160479725917187,4.04713,71.24752,179.2097,0.582281,-0.02468725,0.8121912,1
8.32,-7.269865,1.282832,-24.91483,0.460554445680108,0.0696051941856382,0.1138822023310637,353.7809,72.19011,179.7483,0.5881615,0.04512456,0.8069193,1
8.34,-7.155813,1.444896,-24.86755,0.4662748438478409,0.1105735082072188,0.1168133806573412,357.3425,72.13638,180.0309,0.5885945,0.01858523,0.8080959,1
8.36,-7.044102,1.60324,-24.8212,0.453986514757919,0.0776821185542596,0.1114170283436215,0.9033448,72.10029,180.3098,0.5884555,-0.00796453,0.8084869,1
8.38,-7.041617,1.250444,-24.83098,0.437703189880579,0.0454158968435672,0.1048403124195869,359.3922,72.77248,181.3673,0.5932261,-0.002808757,0.8049304,1
8.4,-6.928173,1.415226,-24.7852,0.4316888355610727,0.086730097823917,0.1042321159631924,2.97693,72.74668,181.6553,0.5924804,-0.02947629,0.8050368,1
8.42,-6.816928,1.576351,-24.74027,0.4046232486768348,0.0542939394450859,0.0966384962356881,6.560968,72.73888,181.9429,0.5911516,-0.05610764,0.8043507,1
8.44,-6.818708,1.232101,-24.73652,0.3744056540161569,0.0232519708850094,0.0878990206319478,8.240574,73.06126,182.8772,0.5920774,-0.07262211,0.8022832,1
8.46,-6.704417,1.400866,-24.69138,0.3539744284835354,0.0660683361594595,0.0840436111046831,11.8724,73.08031,183.1674,0.5896707,-0.09942759,0.8005281,1
8.48,-6.592128,1.565937,-24.64698,0.3291240492137215,0.1070593085291104,0.0787235068498088,15.50305,73.11874,183.4634,0.5866691,-0.1261251,0.7979647,1
8.5,-6.48205,1.727454,-24.60343,0.2652728841428876,0.0452172372288903,0.0594117604267441,19.1329,73.17775,183.7675,0.5830756,-0.1526901,0.7945958,1
8.52,-6.619458,1.199647,-24.64968,0.1990335131469411,-0.014808284169623,0.0390894217965276,14.76549,73.31026,183.6649,0.5884489,-0.1219647,0.797639,1
8.54,-6.507501,1.376181,-24.60693,0.1636198983131415,0.0240461576709049,0.0300291496927807,18.363,73.35611,183.9362,0.5849224,-0.1481451,0.7945353,1
8.56,-6.397073,1.549191,-24.56474,0.1015639313229325,-0.0168243775836494,0.0127591519905552,21.95919,73.4214,184.2169,0.5808181,-0.1741711,0.7906457,1
8.58,-6.469872,1.168276,-24.5806,0.0385141181177274,-0.0544044520959548,-0.0050457147325828,20.14389,71.5629,184.0673,0.570287,-0.1622154,0.8018765,1
8.6,-6.361001,1.353008,-24.53977,0.0015081242002155,-0.01063530008081,-0.0140842316624891,23.69254,71.58302,184.2054,0.5658867,-0.187407,0.7977452,1
8.62,-6.253154,1.534411,-24.49929,-0.0560202604201044,-0.0494953120100437,-0.0286805456628553,27.24011,71.61334,184.3489,0.5609443,-0.2124115,0.7928491,1
8.64,-6.304125,1.139088,-24.50406,-0.1131079463731845,-0.0848192452885819,-0.0431731676835021,26.29712,68.33218,183.972,0.5400197,-0.207056,0.8096645,1
8.66,-6.198641,1.331717,-24.46404,-0.1456952512487465,-0.0355087887717698,-0.0504243599643241,29.78936,68.26972,183.9058,0.5347229,-0.231116,0.8043585,1
8.68,-6.09371,1.521204,-24.4242,-0.177035371582898,0.013233439877138,-0.0573492083601006,33.28011,68.20019,183.8327,0.5289323,-0.2549521,0.7983076,1
8.7,-5.989506,1.707591,-24.38461,-0.2319059986798963,-0.0510232395600801,-0.071878184387331,36.76979,68.12209,183.7512,0.5226525,-0.278545,0.7915176,1
8.72,-6.085002,1.12182,-24.40848,-0.2846437147987521,-0.1131921127580816,-0.0858523567902991,34.71282,64.82894,183.2571,0.5042692,-0.2662739,0.8099737,1
8.74,-5.98215,1.319718,-24.36909,-0.3015173330286694,-0.0624813840038805,-0.0886673964324833,38.13974,64.60582,182.9341,0.4978327,-0.2889959,0.8030574,1
8.76,-5.879539,1.514616,-24.32977,-0.3232521070200734,-0.0960881444800434,-0.0951472562974222,41.56449,64.34554,182.5767,0.4909505,-0.311451,0.7954209,1
8.78,-5.855567,1.115034,-24.32782,-0.3412958372926029,-0.1271241582755983,-0.100648260138509,43.27717,64.18919,181.7437,0.4890653,-0.3198737,0.7903605,1
8.8,-5.754501,1.315287,-24.28946,-0.3405429026616354,-0.0705223405838324,-0.0997340485003546,46.64685,63.85198,181.3107,0.4817352,-0.3415631,0.7817213,1
8.82,-5.653538,1.512646,-24.25112,-0.3324072951831436,-0.0996457766281818,-0.0967298228921773,50.01352,63.4523,180.8175,0.4739875,-0.3629485,0.7724032,1
8.84,-5.561688,1.109989,-24.21827,-0.3206889023844282,-0.1269287678913286,-0.0928168439300924,50.67901,62.59206,178.728,0.4735118,-0.3604741,0.7697668,1
8.86,-5.462572,1.309411,-24.18064,-0.2995450596734993,-0.0668701972712718,-0.084846700256667,53.98322,62.04295,178.0738,0.4656955,-0.3811726,0.7595873,1
8.88,-5.363602,1.506054,-24.14305,-0.2747467022820951,-0.00798234560775,-0.0759045844574362,57.28206,61.37599,177.3037,0.4574888,-0.4015436,0.7487702,1
8.9,-5.264925,1.69993,-24.10554,-0.2364921625505804,-0.0631693743049095,-0.0623319896194565,60.57409,60.5523,176.3786,0.448899,-0.4215706,0.7373251,1
8.92,-5.130099,1.104434,-24.05554,-0.1956887414203653,-0.1193285678941731,-0.0482687900385037,61.21692,56.56142,171.2162,0.4409166,-0.4158491,0.7372359,1
8.94,-5.03284,1.295608,-24.01915,-0.1482167346565901,-0.0605439322918344,-0.031754567228452,64.40116,55.01413,169.5121,0.432381,-0.4349467,0.7248943,1
8.96,-4.834445,1.128787,-23.94171,-0.0809304426693225,-0.0748715007996841,-0.0077353886115596,60.95856,50.40555,166.728,0.4175569,-0.4134589,0.7495897,1
8.98,-4.73776,1.312996,-23.90421,-0.0120124089984713,-0.0898571648144015,0.0168036558125859,64.009,48.29655,164.3857,0.4093961,-0.4319991,0.7371728,1
9.0,-4.642014,1.49457,-23.86704,0.0397523617218738,-0.0238520680739986,0.0344801410510546,67.011,45.61189,161.4706,0.4009114,-0.4501896,0.7241716,1
9.02,-4.547344,1.673571,-23.83027,0.1067119939957727,-0.0253396741447157,0.0540153781270138,69.94305,42.11141,157.7422,0.392112,-0.4680164,0.7105973,1
9.04,-4.319752,1.212013,-23.75571,0.1742442283145628,-0.0277510145077633,0.0739097456334487,43.0795,58.2765,173.9445,0.4692198,-0.2963129,0.8018719,1
9.06,-4.218401,1.386388,-23.71465,0.2236139360157561,0.0394610349953044,0.0868745166965081,46.30094,57.67801,173.1375,0.463326,-0.3172268,0.7926472,1
9.08,-4.118525,1.557832,-23.67415,0.2713336506685301,0.1039180946361639,0.0989746735996561,49.51473,56.97159,172.2273,0.4570565,-0.3378761,0.7827792,1
9.1,-4.036423,1.249985,-23.67531,0.3100743507013957,0.0730517789069312,0.1021338121862776,26.26518,63.33325,175.9963,0.5176892,-0.1754015,0.8241852,1
9.12,-3.924102,1.418581,-23.63067,0.3491678961735751,0.0401294897619676,0.1051935938925918,29.79989,63.13057,175.6304,0.5138533,-0.1996432,0.8176654,1
9.14,-3.813724,1.583589,-23.58677,0.3866019490922811,0.0972295557651428,0.112831295412612,33.33384,62.89292,175.2351,0.5095235,-0.223696,0.8103602,1
9.16,-3.72249,1.271839,-23.57279,0.4193747881745744,0.0838901363291954,0.1167389840112624,2.432401,69.3019,177.9432,0.5686693,-0.007255163,0.8220968,1
9.18,-3.607961,1.438324,-23.52872,0.4501397415859397,0.0698584835922488,0.1198366301550857,5.999664,69.27229,177.9559,0.5682618,-0.03292732,0.8209892,1
9.2,-3.495532,1.601123,-23.48541,0.4800538535288176,0.1231154948444872,0.1270343824831261,9.565912,69.24326,177.9667,0.5673043,-0.05856016,0.8190868,1
9.22,-3.362618,1.291477,-23.44355,0.507811439299946,0.1070708937824397,0.1327187935856009,352.2284,71.81165,179.0329,0.5846224,0.05982656,0.8084267,1
9.24,-3.246682,1.453625,-23.39736,0.531690149568442,0.0899440535712904,0.1377630347315643,355.8178,71.75914,179.2447,0.5854856,0.03342398,0.8098346,1
9.26,-3.133111,1.611969,-23.35208,0.5504547686082855,0.1399064428142142,0.1433090850533234,359.4064,71.72005,179.4527,0.5857725,0.006996049,0.810445,1
9.28,-3.02212,1.766676,-23.30778,0.5631773940061631,0.1863068082648113,0.1473226314679032,2.99411,71.69396,179.6583,0.5854832,-0.01943143,0.810258,1
9.3,-3.055102,1.269866,-23.32621,0.5446546806417183,0.1328468987672922,0.1379073404242388,354.0991,72.49041,179.9977,0.5904577,0.04152403,0.8054258,1
9.32,-2.942206,1.433137,-23.27968,0.5218079677077062,0.0787814233448174,0.1275224290033452,357.6428,72.43896,180.2909,0.5907953,0.01509488,0.8065554,1
9.34,-2.831568,1.592767,-23.23404,0.511662526863204,0.1164954744472465,0.1238962579910061,1.185663,72.40572,180.5806,0.5905645,-0.01134124,0.8069084,1
9.36,-2.811692,1.246129,-23.23689,0.4812760914372325,0.0810970190106107,0.1127681905869342,1.376755,73.11502,181.5897,0.5953953,-0.01791172,0.8032236,1
9.38,-2.697365,1.411285,-23.19138,0.4473311857359086,0.0466778117272315,0.1004375314787378,4.989442,73.10126,181.8861,0.5943124,-0.04475448,0.8028875,1
9.4,-2.585235,1.572737,-23.14671,0.4254510574923429,0.086540098983942,0.0949838693221196,8.601761,73.10625,182.1835,0.5926352,-0.07154797,0.8017486,1
9.42,-2.591492,1.226302,-23.14196,0.3791519951143597,0.050776662531786,0.0816670941837194,10.32183,73.16832,183.165,0.5913655,-0.08859592,0.8009025,1
9.44,-2.477395,1.396658,-23.09762,0.3299310738662995,0.0170925261855411,0.0672757010181177,13.95021,73.19698,183.4445,0.5885936,-0.1152366,0.7987074,1
9.46,-2.365206,1.563346,-23.05398,0.2940582017498331,0.057859009458656,0.0577057197481267,17.57735,73.24471,183.731,0.5852293,-0.1417534,0.7957078,1
9.48,-2.255134,1.726502,-23.01113,0.2544175394254429,0.0971830246414425,0.0468246030813603,21.20337,73.31287,184.0267,0.5812765,-0.1681199,0.7919077,1
9.5,-2.388756,1.190967,-23.05632,0.1765623139462861,0.0319668136142845,0.0230038683522386,16.08013,73.45814,183.7751,0.5881399,-0.1315419,0.7959187,1
9.52,-2.277425,1.369588,-23.01451,0.096858820394173,-0.0310711648551793,-0.0016893488278477,19.66514,73.50862,184.0373,0.5844098,-0.1575056,0.7925494,1
9.54,-2.167495,1.544737,-22.9732,0.0518329609881088,0.0079590106066846,-0.0140136337977536,23.24884,73.57821,184.3094,0.5801063,-0.1833069,0.7884018,1
9.56,-2.231596,1.160852,-22.98472,-0.0187099207735316,-0.0343274136096962,-0.0337934921377005,21.56838,70.95208,184.0984,0.5642995,-0.1726634,0.8033473,1
9.58,-2.123414,1.347711,-22.94454,-0.0892419613391077,-0.0731423285963414,-0.0536721350562139,25.10371,70.95612,184.1841,0.5596817,-0.1975374,0.7989497,1
9.6,-2.016129,1.531288,-22.90466,-0.1327698217688031,-0.0290242898364394,-0.0651195116613978,28.638,70.96634,184.2728,0.5545324,-0.2222162,0.7937926,1
9.62,-2.052482,1.132815,-22.90336,-0.192620147948212,-0.068065059390265,-0.0805131164130914,28.02085,67.56774,183.941,0.5322819,-0.2196505,0.8105683,1
9.64,-1.947691,1.327193,-22.86375,-0.2509808505873094,-0.1036538435113962,-0.0954609658524954,31.49722,67.47562,183.8156,0.5267345,-0.2433778,0.8049464,1
9.66,-1.843349,1.518471,-22.82427,-0.2844117312687707,-0.053013202091457,-0.103311509616212,34.97229,67.37057,183.6784,0.5207042,-0.2668737,0.798585,1
9.68,-1.739627,1.706684,-22.785,-0.3311557522671182,-0.0863458528608183,-0.1164878301037801,38.44613,67.25005,183.5267,0.5141964,-0.290117,0.7914906,1
9.7,-1.809611,1.118769,-22.80119,-0.3748295385515357,-0.1168701797937982,-0.1289234029014916,37.37938,64.42326,183.0087,0.4976477,-0.2842843,0.8056774,1
9.72,-1.707126,1.317484,-22.76245,-0.4156444376988052,-0.1479351571082055,-0.1406949155753287,40.78989,64.15039,182.6232,0.4908533,-0.306609,0.7982617,1
9.74,-1.604835,1.513228,-22.72376,-0.4297111724316874,-0.1512628639794071,-0.1452839995551245,44.19785,63.83034,182.1936,0.483623,-0.3286538,0.7901359,1
9.76,-1.562693,1.114532,-22.7174,-0.4394121580619621,-0.1511105718512793,-0.1486955154639933,44.6848,64.30936,181.1208,0.4890821,-0.3266318,0.7849995,1
9.78,-1.461989,1.315066,-22.67941,-0.4449632558959204,-0.1508778177934621,-0.1510164540113288,48.04047,63.95985,180.679,0.4817034,-0.3481419,0.7760423,1
9.8,-1.361371,1.512731,-22.64142,-0.4348390581386416,-0.0651807129887492,-0.1467493214157098,51.3931,63.54404,180.173,0.4739106,-0.369345,0.7664168,1
9.82,-1.238693,1.10719,-22.59726,-0.4243739097608822,-0.0949113251990295,-0.143003460536089,53.29441,62.1339,177.6814,0.4689063,-0.3747554,0.7607457,1
9.84,-1.139943,1.305598,-22.56039,-0.4095199632594535,-0.1232307520303484,-0.1380364604094452,56.57983,61.46899,176.9055,0.4608552,-0.3950672,0.7500656,1
9.86,-1.041394,1.501262,-22.52356,-0.3891548617384669,-0.0639505011326127,-0.1311119838384553,59.85792,60.6513,175.9787,0.4524214,-0.4150398,0.7387624,1
9.88,-0.943189,1.694197,-22.48684,-0.347036375092559,-0.0859003761600922,-0.1163783063016694,63.12684,59.62607,174.846,0.4436121,-0.4346598,0.7268445,1
9.9,-0.7742752,1.109049,-22.42366,-0.3019240837629277,-0.1077681366939994,-0.1008658478599384,62.63823,53.35765,167.8775,0.4304638,-0.4213666,0.7344251,1
9.92,-0.6770741,1.297756,-22.38765,-0.2540416734819349,-0.1328608425379714,-0.0846642653944265,65.75512,51.30823,165.6347,0.4219244,-0.4400327,0.7217193,1
9.94,-0.5805851,1.48383,-22.35188,-0.1916189405016262,-0.1158875334709122,-0.0632462029714107,68.82834,48.64117,162.7765,0.4130455,-0.4583337,0.708433,1
9.96,-0.3623394,1.161524,-22.26746,-0.1275987692018156,-0.097996056259227,-0.0412071992423617,55.79978,51.54363,168.7531,0.4236937,-0.3817038,0.7720945,1
9.98,-0.264632,1.341332,-22.22923,-0.0774602931040794,-0.0290522014511291,-0.0248358984915197,58.86326,49.96318,166.9112,0.416191,-0.4005882,0.760664,1
10.0,-0.16809,1.51844,-22.19142,-0.0271544381119679,0.0379050049491242,-0.0086363113711804,61.89404,48.02031,164.7108,0.4083621,-0.419151,0.7486358,1
10.02,0.03441972,1.228524,-22.13958,0.0245942074675953,0.0101773681934431,0.0026813909301668,37.86417,60.22784,174.7283,0.4869844,-0.2585344,0.8098831,1
10.04,0.1400345,1.400479,-22.09728,0.0784119714301531,-0.0197094254830694,0.0147948324285054,41.20506,59.79674,174.0973,0.481671,-0.280623,0.8013594,1
10.06,0.2439884,1.569264,-22.05562,0.1138892292895593,0.0407951117210799,0.021824208981215,44.54095,59.29025,173.3961,0.4759413,-0.302462,0.7921427,1
10.08,0.3461192,1.734975,-22.01466,0.1467492905840826,0.0316249606968406,0.0234299537932844,47.87211,58.69146,172.6074,0.4697987,-0.3240416,0.7822374,1
10.1,0.3965365,1.263545,-22.03043,0.1798715182357323,0.0216636312400798,0.0249035577498997,13.95313,66.80866,177.1662,0.5488079,-0.08785457,0.8267185,1
10.12,0.5097644,1.431285,-21.98676,0.2153073828113222,0.0793462785739167,0.0322277176358882,17.49087,66.74018,177.0211,0.5467668,-0.1128039,0.822973,1
10.14,0.6209955,1.595408,-21.94384,0.2487292199339122,0.0670910184105513,0.0372862748908104,21.02868,66.66058,176.8681,0.5442036,-0.137646,0.8184413,1
10.16,0.7174743,1.279228,-21.92018,0.2801783090883866,0.0540900524373107,0.0418005518467894,354.4914,71.38981,178.4061,0.5821958,0.04712809,0.8115088,1
10.18,0.8326317,1.444108,-21.87645,0.3117802935358187,0.108467314206893,0.0499461830860905,358.0578,71.35252,178.5328,0.5828968,0.02123212,0.8122686,1
10.2,0.9455917,1.605277,-21.83352,0.3394530845704721,0.1593450747699295,0.0571575567077449,1.623261,71.32314,178.6572,0.5830328,-0.004677054,0.8122407,1
10.22,1.071762,1.295998,-21.79313,0.3462405765303906,0.1143480075589236,0.0559851624837217,353.4587,72.40221,179.4914,0.5894491,0.04865525,0.8057762,1
10.24,1.187465,1.456907,-21.7462,0.3470478583253722,0.1380786542101112,0.0548052777904986,357.0386,72.35081,179.762,0.5900177,0.02208402,0.8069744,1
10.26,1.300742,1.614011,-21.70022,0.3434615759986663,0.1605379632192532,0.0526423064962564,0.6177499,72.31642,180.0289,0.5900074,-0.004501319,0.80738,1
10.28,1.411376,1.76748,-21.65528,0.3197856614854351,0.1072888417622763,0.0416405104285608,4.195983,72.29868,180.2943,0.5894188,-0.03107462,0.8069939,1
10.3,1.34435,1.254765,-21.69392,0.2927351394863312,0.053669422196104,0.0298678788535782,357.4056,72.99408,181.134,0.5947799,0.01231361,0.8035091,1
10.32,1.457375,1.419191,-21.64899,0.2831436777199212,0.0940751858735591,0.0264040350391367,0.9623896,72.96121,181.4151,0.5944011,-0.01409396,0.8040302,1
10.34,1.568192,1.580005,-21.60491,0.2538962202488575,0.0610036670997475,0.0162092314354271,4.518291,72.94579,181.6949,0.5934467,-0.04048036,0.803772,1
10.36,1.571036,1.237791,-21.60281,0.2223750491620038,0.0290490586748848,0.0051941944662616,6.143997,73.54321,182.5824,0.5966474,-0.05638704,0.800397,1
10.38,1.685986,1.404981,-21.55807,0.2014606964017504,0.0707624344956196,0.0003152062818876,9.778881,73.55623,182.8839,0.5946322,-0.08325836,0.799077,1
10.4,1.798836,1.568453,-21.51412,0.1770380209565802,0.1104906483507016,-0.0055824283130996,13.41262,73.58907,183.1901,0.5920156,-0.1100378,0.7969483,1
10.42,1.767694,1.208761,-21.51741,0.1138095351965057,0.0485839198137686,-0.0247767655081112,13.43358,73.78961,183.5426,0.5930511,-0.1119238,0.7960411,1
10.44,1.880787,1.383196,-21.47494,0.0666986122126973,0.0638939474470312,-0.0386537922741836,17.04362,73.83492,183.8239,0.5897489,-0.1382282,0.7932044,1
10.46,1.99222,1.554053,-21.43307,0.018007141131822,0.0798921691138568,-0.0530722626763338,20.65237,73.90012,184.1143,0.5858592,-0.164387,0.7895772,1
10.48,2.101783,1.721453,-21.39187,-0.0584766168956281,0.015884147723481,-0.0759533286241809,24.2596,73.98698,184.4164,0.5813867,-0.1903721,0.7851641,1
10.5,1.968572,1.175804,-21.43243,-0.1354874344902551,-0.0458570552374788,-0.0992395455953909,18.7303,72.85805,184.0533,0.5809149,-0.1515666,0.7967897,1
10.52,2.078614,1.358491,-21.39219,-0.1770511324808599,-0.004062213046234,-0.1099394431122839,22.29124,72.89697,184.2458,0.5767345,-0.1769769,0.7929323,1
10.54,2.187504,1.537801,-21.35234,-0.2407698466664004,-0.0442635829547864,-0.1265645665041379,25.85101,72.95025,184.4463,0.5719974,-0.2022086,0.7883087,1
10.56,2.122783,1.145553,-21.36267,-0.3032334799834906,-0.0809962208387923,-0.1428169870060243,24.58935,69.80834,184.0515,0.5525598,-0.1942878,0.8051077,1
10.58,2.229455,1.336435,-21.3235,-0.3388081653332514,-0.0340597321013972,-0.1509383656773262,28.09641,69.77741,184.046,0.5475027,-0.2185731,0.8001375,1
10.6,2.335469,1.524131,-21.28454,-0.37229698433739,0.0122312225508937,-0.1583942243414045,31.60205,69.74505,184.0382,0.5419354,-0.2426443,0.79442,1
10.62,2.319139,1.1249,-21.27556,-0.4323332769432494,-0.0539463174189804,-0.1737880261430828,32.06799,65.94849,183.5355,0.5156923,-0.2477409,0.8105336,1
10.64,2.422869,1.321971,-21.23679,-0.4677571473782811,-0.0310907226647594,-0.1824468277742439,35.51132,65.77289,183.2709,0.5095922,-0.2707424,0.8041477,1
10.66,2.526311,1.516009,-21.19809,-0.4988649061130543,-0.0067950706837988,-0.1899122622103264,38.95291,65.56874,182.9805,0.5030321,-0.2934921,0.7970348,1
10.68,2.517761,1.11719,-21.20167,-0.5371428427531092,-0.0679659750386551,-0.2014137701566785,39.60045,64.7523,182.6733,0.4970071,-0.2977593,0.7986357,1
10.7,2.619889,1.316572,-21.16425,-0.571099737673913,-0.1276171689987148,-0.2117415165235545,42.98703,64.44903,182.2568,0.4899561,-0.3196689,0.7908309,1
10.72,2.721863,1.513025,-21.12686,-0.5749912251767649,-0.073155496075282,-0.2126914379006121,46.37078,64.09198,181.7894,0.4824758,-0.341291,0.782332,1
10.74,2.782968,1.113764,-21.10994,-0.5748200075878614,-0.1039544046925873,-0.2129420323490105,46.36544,64.1519,180.3658,0.4870962,-0.3351263,0.7795887,1
10.76,2.883374,1.314259,-21.07279,-0.5696302683089802,-0.1327317758334705,-0.2118312607921066,49.70145,63.75055,179.8642,0.4795983,-0.3563126,0.7703051,1
10.78,2.983693,1.511915,-21.03564,-0.5506623082405699,-0.0741603286830438,-0.2046075749741041,53.03386,63.27049,179.2859,0.4716922,-0.377188,0.760365,1
10.8,3.083769,1.706743,-20.99857,-0.5264546262353835,-0.0167091167143275,-0.1958393240770406,56.36181,62.68886,178.6081,0.4633851,-0.3977346,0.7497773,1
10.82,3.15394,1.103754,-20.9748,-0.4920899412163518,-0.0748907463278907,-0.1840130923390899,56.47721,61.55695,176.2174,0.4639881,-0.3914031,0.7484972,1
10.84,3.25232,1.299821,-20.93894,-0.4567206057973872,-0.0436270340914469,-0.1719960639657758,59.73977,60.7121,175.2558,0.4556491,-0.4112462,0.7372142,1
10.86,3.350376,1.493185,-20.90317,-0.4172320759427057,-0.0120066064004766,-0.1588489428573325,62.99217,59.65423,174.083,0.446935,-0.4307395,0.7253246,1
10.88,3.571863,1.117898,-20.82075,-0.3570591455028973,-0.0576622465790003,-0.1383397091812619,61.83026,52.25417,167.2056,0.4268435,-0.416304,0.7402614,1
10.9,3.669163,1.304335,-20.78483,-0.2939679171019476,-0.1051958517384904,-0.1169385270870573,64.91461,50.15547,164.8902,0.4184427,-0.4348404,0.7277097,1
10.92,3.765635,1.488135,-20.7492,-0.2388761662238472,-0.0415677351575559,-0.0987353795306917,67.95226,47.45403,161.9746,0.4097072,-0.4530208,0.7145753,1
10.94,3.984731,1.178009,-20.66788,-0.1668245984839944,-0.0461411890477765,-0.0765534503155134,52.11958,54.73096,171.168,0.4417479,-0.3571939,0.7798889,1
10.96,4.083018,1.356101,-20.62958,-0.0929245370763773,-0.0514956242057419,-0.0535310130061152,55.22607,53.59793,169.7969,0.4347132,-0.3765516,0.7692108,1
10.98,4.180052,1.531466,-20.59174,-0.0358323549912562,0.0150811625705963,-0.0371314458649645,58.31322,52.22678,168.1917,0.4273395,-0.395608,0.7579319,1
11.0,4.275691,1.704183,-20.55441,0.0210607340412227,0.079234183269585,-0.0210219208633253,61.37499,50.54448,166.279,0.4196352,-0.4143493,0.746062,1
11.02,4.380203,1.239727,-20.55023,0.0731782855119447,0.0483884334747285,-0.012982963912242,32.05096,62.32623,175.3486,0.5065432,-0.2158501,0.8159697,1
11.04,4.489326,1.410064,-20.5078,0.1112762522817676,0.0850888587428431,-0.0064999246888617,35.48252,62.02911,174.8643,0.5019592,-0.2389061,0.8084237,1
11.06,4.59665,1.577041,-20.46604,0.1483808208168466,0.1206260368467194,-0.0005097639937554,38.91117,61.68103,174.3347,0.49692,-0.2617409,0.8001441,1
11.08,4.690926,1.26809,-20.4591,0.1799584067850217,0.0848938039432449,0.0006237411328826,8.198861,68.60798,177.5542,0.563274,-0.04704244,0.8228983,1
11.1,4.805181,1.435219,-20.41633,0.2111912532592637,0.0474177509981435,0.0014126872462383,11.75066,68.56922,177.4906,0.5620629,-0.07228854,0.8204499,1
11.12,4.917377,1.598705,-20.3743,0.2491495029448638,0.100338146835558,0.0100841566204623,15.30139,68.52581,177.4236,0.5603122,-0.09745789,0.817214,1
11.14,5.032068,1.285279,-20.34258,0.2842918508346908,0.0838407955298957,0.0165921937748305,353.3257,72.16286,178.7093,0.5873687,0.05366466,0.8071455,1
11.16,5.148029,1.44881,-20.29878,0.3171607205114819,0.0662673786508013,0.0228714653341817,356.903,72.12075,178.8788,0.5881807,0.02760161,0.8082191,1
11.18,5.261703,1.608585,-20.25581,0.3491685418704153,0.1162911147765567,0.0314812931930323,0.4793424,72.08931,179.0455,0.5884184,0.001518859,0.8085033,1
11.2,5.372874,1.764766,-20.21374,0.3768337102975805,0.1626601599906157,0.0392456018911748,4.054752,72.06824,179.2106,0.588082,-0.02455772,0.8079983,1
11.22,5.364798,1.282924,-20.22392,0.3712366195776446,0.1100814774221869,0.0387637281755353,353.7786,73.02391,179.7473,0.5940163,0.04492502,0.8026178,1
11.24,5.479548,1.444979,-20.17831,0.3605502462858136,0.1265855698074387,0.0387577652719843,357.3403,72.9744,180.0307,0.5944881,0.01849989,0.8037695,1
11.26,5.591947,1.603311,-20.13361,0.3454495332733143,0.1424047971042414,0.0378953674959321,0.9011293,72.94259,180.3108,0.5943823,-0.007935753,0.8041397,1
11.28,5.594065,1.250471,-20.14384,0.3012583551320669,0.0838200278334799,0.0379433277459573,359.379,73.63397,181.3667,0.5992613,-0.002808559,0.8004465,1
11.3,5.708191,1.415249,-20.09978,0.2538765761203456,0.025358932352144,0.0381549936869642,2.963395,73.61241,181.6557,0.5985485,-0.0293543,0.8005392,1
11.32,5.820107,1.576369,-20.05654,0.2292129375977054,0.0636038655547733,0.0505935856329746,6.547117,73.60892,181.9445,0.5972466,-0.0558639,0.7998438,1
11.34,5.818351,1.232136,-20.0532,0.1712776316741782,0.0272031062612554,0.0651538806116529,8.227317,73.95795,182.8763,0.5983449,-0.07234602,0.7976301,1
11.36,5.933346,1.400888,-20.00985,0.1111833493447311,-0.0074553632121932,0.0809274319816237,11.8591,73.98144,183.1678,0.595957,-0.09902435,0.7958741,1
11.38,6.046328,1.565945,-19.96721,0.0644961025218004,0.0316605083406948,0.1036934207449835,15.48969,74.02447,183.4654,0.5929677,-0.1255951,0.7933142,1
11.4,6.157087,1.727448,-19.92539,0.0147057797145184,0.0691915023310147,0.1269050088940786,19.11943,74.08823,183.7715,0.5893801,-0.1520336,0.7899538,1
11.42,6.018864,1.199706,-19.96993,-0.0808369424332109,0.0028444911593078,0.1391548852237907,14.75637,74.24516,183.6652,0.5949447,-0.1214817,0.7928184,1
11.44,6.131511,1.376223,-19.929,-0.1565238558133179,0.0165044995930471,0.1601744894686065,18.3538,74.29565,183.938,0.5914248,-0.1475286,0.7897226,1
11.46,6.242621,1.549216,-19.8886,-0.2332662021781864,0.0311344672442969,0.1829842601658371,21.94987,74.36579,184.2205,0.5873205,-0.1734215,0.7858455,1
11.48,6.169499,1.168313,-19.90368,-0.3413444510653394,-0.0357924823895614,0.197295050468151,20.13618,72.53581,184.0683,0.577082,-0.1615347,0.7970147,1
11.5,6.279052,1.353031,-19.86467,-0.4497508643223287,-0.1002442111432491,0.2140227589328942,23.68483,72.56079,184.2081,0.5726785,-0.1865858,0.7928995,1
11.52,6.387576,1.534419,-19.82599,-0.5224760230461016,-0.0588596989627326,0.2449437533738359,27.23238,72.59625,184.3537,0.5677268,-0.2114506,0.7880245,1
11.54,6.336393,1.139121,-19.83025,-0.6171958141286036,-0.1005632059210801,0.2693683588840656,26.28737,69.33878,183.9733,0.5471219,-0.2061107,0.8049052,1
11.56,6.442568,1.331737,-19.79205,-0.7107199512082278,-0.1387666337167468,0.2970654478391106,29.77975,69.28141,183.909,0.5418116,-0.2300237,0.7996258,1
11.58,6.548186,1.52121,-19.75402,-0.7772889143295714,-0.0914442492509991,0.3351067985190106,33.27063,69.21725,183.8381,0.5360006,-0.2537138,0.793606,1
11.6,6.653074,1.707581,-19.71623,-0.8413853828856397,-0.0447145600056604,0.3760438868023628,36.76046,69.14497,183.7593,0.529694,-0.277162,0.7868514,1
11.62,6.556861,1.121839,-19.73876,-0.9191347481705624,-0.1118950415889429,0.4115889458770869,34.69375,65.86871,183.2602,0.5116213,-0.2649015,0.8054078,1
11.64,6.660411,1.319728,-19.70121,-0.9762129591041668,-0.0894972504677409,0.4547262196272972,38.12082,65.65104,182.9391,0.5051566,-0.2874703,0.798533,1
11.66,6.76372,1.514616,-19.66371,-1.0297378829272428,-0.0656343973349117,0.5008320709320264,41.54582,65.39669,182.5843,0.4982398,-0.3097742,0.7909423,1
11.68,6.787477,1.115034,-19.6625,-1.079834034661218,-0.0436432124083089,0.5494912049779122,43.26742,65.25833,181.7493,0.4964203,-0.3181021,0.7857983,1
11.7,6.889245,1.315282,-19.626,-1.1238407112283846,-0.049417550693078,0.5960860263675127,46.63734,64.92664,181.3181,0.4890414,-0.339636,0.7772097,1
11.72,6.99091,1.512635,-19.58951,-1.1633360961466703,-0.0517132431121204,0.6459043694239814,50.00429,64.53307,180.8274,0.4812388,-0.3608677,0.7679462,1
11.74,7.082929,1.110009,-19.55877,-1.1984068890055275,-0.0539508439995666,0.698563528829343,50.65757,63.70153,178.7372,0.4809545,-0.3581161,0.7652341,1
11.76,7.182755,1.309437,-19.52303,-1.2186622027150875,-0.0559726032857177,0.7676913899307105,53.96204,63.15907,178.0859,0.4730734,-0.3786604,0.7551147,1
11.78,7.282437,1.506083,-19.48731,-1.234856134843899,-0.0555167208042658,0.838438941841797,57.26123,62.49977,177.3198,0.4647957,-0.3988796,0.7443615,1
11.8,7.381824,1.699963,-19.45168,-1.2470787318323482,-0.0559504311370356,0.91042243059615,60.55367,61.68504,176.4,0.4561288,-0.4187568,0.732984,1
11.82,7.517433,1.104408,-19.40475,-1.2453883463460684,-0.1379239844603867,1.003132345790979,61.20789,57.72757,171.2378,0.4483329,-0.4128132,0.7328054,1
11.84,7.615406,1.295594,-19.37028,-1.2363378665979352,-0.1036967443748699,1.0975853050789155,64.39294,56.19007,169.5399,0.4397052,-0.4317565,0.7205325,1
11.86,7.712793,1.484132,-19.336,-1.224016322850197,-0.0698543606219311,1.1916704671644998,67.55148,54.20325,167.3947,0.4307206,-0.4503383,0.7076754,1
11.88,7.928425,1.14405,-19.25723,-1.2084906526361257,-0.0395919850696976,1.284996255197325,58.42358,52.08053,167.7861,0.4276459,-0.3952445,0.7569748,1
11.9,8.026373,1.326034,-19.22123,-1.2069093756906273,-0.0237604705076189,1.376991285939687,61.48405,50.25908,165.7135,0.4197066,-0.4138122,0.7450949,1
11.92,8.12326,1.50535,-19.18559,-1.2033302775181205,-0.0066223277670162,1.4676948160299772,64.50482,47.98266,163.1893,0.4114361,-0.4320456,0.7326261,1
11.94,8.326093,1.211745,-19.12589,-1.1977764890439155,0.0086988222234822,1.556694473848412,43.13615,59.60444,173.9488,0.4784005,-0.2941482,0.7962197,1
11.96,8.428725,1.385965,-19.08674,-1.2018072997777718,0.0268730639194972,1.6410951789103407,46.37409,59.01627,173.1515,0.4724198,-0.3150065,0.7869764,1
11.98,8.529859,1.557228,-19.04813,-1.2045537672286362,0.0455552599232211,1.724110913950438,49.6046,58.32085,172.2517,0.4660524,-0.3356,0.7770885,1
12.0,8.629339,1.725625,-19.01011,-1.2061265546615865,0.0616603434184361,1.805175556108531,52.82646,57.49166,171.2224,0.4593039,-0.3559162,0.7665621,1
12.02,8.696498,1.257126,-19.02681,-1.2065604493646156,0.0051455671549724,1.8825865027999864,20.13009,66.30791,176.5707,0.542611,-0.130137,0.8210906,1
12.04,8.809994,1.425345,-18.98508,-1.206878111913294,0.0404175518919956,1.9629935223711583,23.66121,66.19034,176.3265,0.5396632,-0.1545396,0.8159596,1
12.06,8.921518,1.589966,-18.94405,-1.2081626710945268,0.0743395488889555,2.0403164733984225,27.1928,66.05218,176.0664,0.5361995,-0.1787999,0.8100491,1
12.08,9.001856,1.275662,-18.93329,-1.2105909257989371,0.1040657591741758,2.1139835468447643,358.4567,71.61191,178.1806,0.5847418,0.02020807,0.8109524,1
12.1,9.117584,1.441371,-18.89193,-1.2189738739167169,0.1093377701274132,2.180012706299824,2.021955,71.58583,178.2518,0.5849167,-0.00538943,0.8107582,1
12.12,9.231151,1.603385,-18.85132,-1.2293162841429006,0.1147388363905198,2.2433979760089704,5.586189,71.56411,178.3217,0.5845253,-0.03097431,0.8097792,1
12.14,9.343207,1.29381,-18.82103,-1.2418297459973904,0.1174315258193731,2.3035422302973427,352.8186,73.42913,179.2547,0.5963162,0.05408431,0.8002768,1
12.16,9.460064,1.455333,-18.77716,-1.263988005569782,0.1154264799692709,2.3520504686140065,356.4029,73.38002,179.4973,0.5970749,0.02778734,0.8015594,1
12.18,9.574505,1.613053,-18.73415,-1.2894229394972283,0.1142820458513876,2.3971520076085526,359.9863,73.34621,179.7363,0.597247,0.001470546,0.8020542,1
12.2,9.686314,1.767137,-18.69209,-1.3183170093725387,0.1112162286757229,2.4382947346739616,3.568802,73.32732,179.9735,0.5968327,-0.02484024,0.8017613,1
12.22,9.594374,1.262309,-18.70184,-1.356294949885039,0.0324174338333599,2.465036147535958,355.7262,70.93672,180.5071,0.5799785,0.02780198,0.8137661,1
12.24,9.706553,1.42627,-18.65435,-1.3794482150116876,0.0475245244967388,2.496088825333701,359.2787,70.90038,180.7393,0.5800046,0.001385804,0.8145635,1
12.26,9.816522,1.586608,-18.60777,-1.405671965427857,0.0621817257394204,2.5229064794006413,2.830323,70.87846,180.9695,0.5794713,-0.02502443,0.8145746,1
12.28,9.752711,1.240923,-18.54778,-1.4351627100762974,0.0736691552362259,2.544966438966004,3.966654,65.68653,181.9361,0.5414494,-0.03822966,0.8398515,1
12.3,9.862095,1.407501,-18.49151,-1.4691178335726711,0.0623322372211795,2.544333937680449,7.594184,65.67815,182.1122,0.5399737,-0.06560428,0.8388723,1
12.32,9.969448,1.570371,-18.43624,-1.5049062403688138,0.0533154514763572,2.5409592178555007,11.22138,65.68122,182.2906,0.5379562,-0.09291448,0.8370501,1
12.34,9.863813,1.217885,-18.3667,-1.5427381911824094,0.0437456023155415,2.5343812845053426,11.87813,59.49713,183.2005,0.4908303,-0.1035819,0.8646482,1
12.36,9.96619,1.39067,-18.30146,-1.580735475748114,0.0303924322184064,2.508418547169345,15.49827,59.50006,183.3229,0.4880847,-0.1312711,0.8618485,1
12.38,10.06697,1.559843,-18.2372,-1.620100196314987,0.0203819668943178,2.480063001163558,19.11736,59.51128,183.448,0.4848527,-0.1588217,0.8581887,1
12.4,10.16597,1.725525,-18.17402,-1.6610586471286697,0.0107659915046599,2.448951647880877,22.73547,59.53188,183.5784,0.4811393,-0.1862126,0.853672,1
12.42,9.963856,1.183623,-18.18987,-1.7173016037487343,-0.0798939996229539,2.39648827304538,17.39405,54.07004,183.7712,0.4446337,-0.1493978,0.8822719,1
12.44,10.05769,1.364645,-18.11858,-1.7375722464041008,-0.0656939556893757,2.354695609198725,20.96587,54.07014,183.8504,0.4412525,-0.1769853,0.8781455,1
12.46,10.15045,1.542252,-18.04806,-1.7577837942008177,-0.0497721171891359,2.311156127323651,24.53662,54.07571,183.9318,0.4374439,-0.2043929,0.873167,1
12.48,10.02982,1.15362,-18.0482,-1.7781772188659677,-0.0351438588178937,2.265606679174941,23.04339,47.17016,183.8797,0.3856268,-0.1962201,0.9001901,1
12.5,10.11625,1.342921,-17.97338,-1.7910367219779102,-0.0490651605711434,2.1982442290521216,26.55497,47.08573,183.7401,0.38168,-0.2231242,0.8947742,1
12.52,10.20206,1.528999,-17.89906,-1.802011214030211,-0.0587877915721083,2.130802842423445,30.06512,46.98889,183.5904,0.3773767,-0.2498108,0.8885189,1
12.54,10.12513,1.1291,-17.88757,-1.81134124060798,-0.067535298418738,2.063105189734112,30.00992,40.29612,183.5945,0.3249161,-0.2533743,0.9091465,1
12.56,10.2033,1.325127,-17.80847,-1.7954736898894803,0.0075430629582342,2.001361014745508,33.45709,40.10323,183.277,0.3204906,-0.2796683,0.9020827,1
12.58,10.28119,1.518096,-17.72961,-1.7888258980400458,-0.0298067615730467,1.9218573382213628,36.90228,39.87847,182.9318,0.3157757,-0.3057016,0.8941995,1
12.6,10.35869,1.708034,-17.65112,-1.7792106749529308,-0.0641971946768974,1.8429621700066243,40.34528,39.61554,182.5519,0.3107752,-0.3314494,0.8855052,1
12.62,10.32284,1.115839,-17.62873,-1.76686452857361,-0.0989805003632612,1.764575392436809,41.8331,34.89276,182.2607,0.2732827,-0.3460431,0.893069,1
12.64,10.39458,1.31601,-17.54698,-1.7248065733491904,-0.1058458605714705,1.6895384164376528,45.21319,34.49692,181.7234,0.2681814,-0.3711894,0.8832638,1
12.66,10.46624,1.513251,-17.46529,-1.6787099612893712,-0.1090738072096524,1.6155235994790522,48.5893,34.02762,181.1161,0.2628454,-0.3960016,0.8726831,1
12.68,10.5377,1.707574,-17.38381,-1.628844525859478,-0.1120646879082305,1.542461222710246,51.96061,33.466,180.4195,0.2572795,-0.4204579,0.8613366,1
12.7,10.51013,1.113116,-17.37713,-1.5635993866968083,-0.0294371396022849,1.475710186098863,48.0451,31.73292,179.47,0.2515245,-0.3904274,0.8780626,1
12.72,10.57695,1.313703,-17.29398,-1.4965887069309516,-0.0620682519425318,1.406034109696233,51.35948,31.20578,178.8127,0.246714,-0.4148375,0.8667649,1
12.74,10.64369,1.511471,-17.21088,-1.425742566977151,-0.0931275973116778,1.337591784595654,54.66844,30.57109,178.0504,0.2416952,-0.438888,0.8547338,1
12.76,10.74129,1.102309,-17.05047,-1.3499383482057818,-0.0364327198570559,1.2712068762589896,59.62018,26.58609,174.0208,0.2244681,-0.4727435,0.8373192,1
12.78,10.80459,1.296144,-16.9677,-1.2614653655562873,-0.0608258648825798,1.2223796405942349,62.84478,25.36971,172.6628,0.2195455,-0.4955864,0.8234881,1
12.8,10.86758,1.487306,-16.88528,-1.1703508832057217,-0.0849769949299096,1.1739339947732164,66.05162,23.81584,170.9694,0.2144467,-0.5180135,0.8089832,1
12.82,11.00108,1.128774,-16.66278,-1.0768979229753757,-0.1121937791154663,1.1258398689699762,60.95846,16.17536,166.6501,0.178797,-0.4846837,0.8391632,1
12.84,11.06119,1.313094,-16.57805,-0.9777543981146306,-0.0971913809316163,1.0925028002545425,63.99814,13.98606,164.2111,0.1745118,-0.5067974,0.8249094,1
12.86,11.1207,1.494769,-16.49411,-0.877555068701394,-0.0811112910836809,1.059253351094856,66.98549,11.20136,161.1797,0.1700886,-0.5284994,0.8100003,1
12.88,11.17952,1.673859,-16.41109,-0.7765862876713909,-0.0671272218029667,1.0260531704257214,69.89782,7.577499,157.312,0.1655357,-0.5497735,0.7944482,1
12.9,11.24813,1.19531,-16.28078,-0.6929692553228137,0.0205465281248546,0.986164158394875,48.35829,21.4387,173.0928,0.1936158,-0.3914913,0.8901333,1
12.92,11.30618,1.371838,-16.19202,-0.6060060598884858,0.0150601806037514,0.9428311326308224,51.48527,20.60451,172.0361,0.1903774,-0.4151091,0.8786988,1
12.94,11.36344,1.545607,-16.10442,-0.5193863886980588,0.0089803897577328,0.9010440016047474,54.60012,19.60868,170.822,0.1869919,-0.4383966,0.866583,1
12.96,11.46926,1.25007,-15.9869,-0.4495127863178449,0.0697358446578811,0.8569886060594682,26.29931,27.48523,175.9677,0.238963,-0.2127074,0.9434158,1
12.98,11.53458,1.418885,-15.8858,-0.3793339957660413,0.0610319399156065,0.8072746660760681,29.8163,27.27621,175.5772,0.2373294,-0.2410381,0.936053,1
13.0,11.59877,1.584141,-15.78641,-0.3116965019195807,0.0517466985131105,0.7593045720935019,33.33221,27.03066,175.1566,0.2354708,-0.2691426,0.9277993,1
13.02,11.66211,1.271888,-15.69703,-0.2470065659642597,0.038846483677236,0.7129083993522696,2.47491,32.77022,177.9213,0.2823558,-0.01559991,0.9588953,1
13.04,11.72841,1.438461,-15.59392,-0.1772478751608728,0.0475779192137069,0.6732598354096504,6.037997,32.7446,177.9153,0.2823591,-0.04540255,0.9576902,1
13.06,11.79349,1.601356,-15.49267,-0.1128893160896689,0.0566039625376292,0.635740576344948,9.600077,32.71841,177.9077,0.2820897,-0.07515284,0.9555598,1
13.08,11.85722,1.76072,-15.39346,-0.0544511051354976,0.0630672374773462,0.6001728899360836,13.16111,32.69141,177.8982,0.281548,-0.1048218,0.9525073,1
13.1,11.87474,1.291468,-15.35689,0.0019325342849736,0.1355022382304209,0.5708254586195372,352.2373,34.73272,179.0145,0.2972292,0.06716374,0.9523652,1
13.12,11.93986,1.453677,-15.25049,0.0446178301417916,0.1131939157648199,0.524472425257946,355.8257,34.68716,179.2114,0.2976569,0.03681276,0.9539532,1
13.14,12.00363,1.612085,-15.14623,0.0801215193456468,0.0903871258339698,0.4819026305857192,359.4133,34.65407,179.4048,0.297792,0.006434336,0.954603,1
13.16,12.01936,1.270003,-15.10968,0.107803255623206,0.1344702655871241,0.4444175134275121,354.0968,34.99545,179.9837,0.3002621,0.0491521,0.952466,1
13.18,12.081,1.433287,-15.00426,0.1210221763444969,0.1038962525890218,0.3898261770808269,357.6413,34.95014,180.2656,0.3002719,0.01893628,0.9536288,1
13.2,12.14139,1.592929,-14.90091,0.1257366649835485,0.074003766567148,0.339609993554989,1.184928,34.9223,180.5444,0.2999928,-0.01128924,0.9538737,1
13.22,12.16165,1.246182,-14.86992,0.1214070017487884,0.0419979816082965,0.2937091307673747,1.361093,35.25719,181.5781,0.3026397,-0.01548894,0.9529317,1
13.24,12.22431,1.411353,-14.76401,0.1376728912160956,0.1034716206912229,0.2597026387418082,4.974278,35.24813,181.865,0.3017719,-0.04627572,0.9522537,1
13.26,12.28575,1.572819,-14.66011,0.1336559319816079,0.0671719769061719,0.2051392363707107,8.587048,35.25729,182.1534,0.3006025,-0.07701238,0.950623,1
13.28,12.34584,1.730742,-14.55841,0.1220193902291906,0.032385535640684,0.1563352183332464,12.1987,35.28515,182.4456,0.2991331,-0.1076633,0.9480428,1
13.3,12.2828,1.22637,-14.63967,0.1279077513097186,0.071612483492523,0.111130116726535,10.30433,35.02085,183.1544,0.2971931,-0.09385524,0.9501932,1
13.32,12.3454,1.396731,-14.53446,0.1126740574948694,0.0334604920797873,0.0502586932049746,13.93308,35.0531,183.426,0.2953334,-0.1245433,0.9472064,1
13.34,12.40694,1.563422,-14.43099,0.0904033206838945,-0.0019316575863498,-0.0055365696451459,17.56062,35.10396,183.7047,0.2931767,-0.1550973,0.9432659,1
13.36,12.36377,1.191057,-14.48217,0.092183376587805,0.0392674531870928,-0.058515649106507,16.06886,35.07931,183.7675,0.2938657,-0.1430071,0.9450236,1
13.38,12.42531,1.369673,-14.38037,0.0878063749241981,0.0793744243353788,-0.1082909444544384,19.65462,35.13304,184.0232,0.2914892,-0.1730584,0.9406075,1
13.4,12.48605,1.544813,-14.27983,0.0527977100371317,0.0132171647487678,-0.182420457348629,23.23907,35.20552,184.2889,0.2888271,-0.2029308,0.9352677,1
13.42,12.45041,1.160932,-14.30984,0.012314078635718,-0.0504797338388655,-0.251460845396604,21.55646,32.3903,184.0925,0.2674023,-0.1892557,0.9446366,1
13.44,12.51011,1.347783,-14.21105,0.0107863484783468,-0.0091471190525412,-0.3036774074297483,25.09216,32.39759,184.1732,0.2645338,-0.2183773,0.9389541,1
13.46,12.56931,1.531352,-14.11306,-0.0119438011785684,-0.0503437525651255,-0.3691068769900731,28.62678,32.41077,184.2569,0.2614144,-0.2472821,0.9323794,1
13.48,12.62789,1.711704,-14.01604,-0.0378316586679141,-0.087914527860814,-0.4291120388426557,32.16,32.43059,184.3447,0.2580479,-0.2759406,0.9249203,1
13.5,12.54819,1.132877,-14.11669,-0.0354633390261343,-0.0406093667621803,-0.4732082837041664,28.0063,28.85974,183.9365,0.2335979,-0.242508,0.9411899,1
13.52,12.6053,1.327252,-14.02029,-0.0454185984013126,-0.076906449497297,-0.5220361379344851,31.48236,28.77099,183.8073,0.2302659,-0.2705847,0.9340434,1
13.54,12.66215,1.518526,-13.92429,-0.0568864913356761,-0.1099351404017961,-0.5651614764535093,34.95713,28.66914,183.6663,0.226723,-0.2984033,0.9260392,1
13.56,12.71865,1.706734,-13.82884,-0.0459324618950462,-0.0555764071555403,-0.5932600787180935,38.43067,28.55171,183.5108,0.2229727,-0.3259393,0.917185,1
13.58,12.69126,1.11717,-13.85777,-0.0348828640740501,-0.0018138542583311,-0.6160390907712223,39.6055,25.56895,182.6875,0.2003936,-0.3351759,0.9190456,1
13.6,12.74674,1.316489,-13.76357,-0.0366737399063588,-0.0623781490944395,-0.6502424477145936,43.0102,25.27869,182.285,0.196408,-0.3616887,0.9092577,1
13.62,12.80212,1.512849,-13.6695,-0.0385213978303546,-0.1214470079506308,-0.6782759172523056,46.41223,24.9363,181.8333,0.1922489,-0.3878722,0.8986638,1
13.64,12.83731,1.113769,-13.6186,-0.0237955346101177,-0.0655411418071893,-0.6918453010325099,46.35741,24.8646,180.3734,0.1966549,-0.3850136,0.897997,1
13.66,12.89153,1.314253,-13.52609,-0.0095778641280541,-0.0953345880278833,-0.6996180329316415,49.69856,24.46889,179.8742,0.1927437,-0.4104773,0.8867096,1
13.68,12.94569,1.51189,-13.43365,0.0052000451305893,-0.1232493335858219,-0.701705136216497,53.03612,23.99503,179.299,0.1886682,-0.4355814,0.8746643,1
13.7,12.99971,1.70669,-13.34141,0.0202686596448029,-0.1526959667128688,-0.6982177574386612,56.36934,23.42029,178.625,0.1844322,-0.4603047,0.8618723,1
13.72,13.03744,1.103772,-13.279,0.0501700978183063,-0.0691417316205972,-0.6780913592191933,56.45752,22.18391,176.227,0.1846913,-0.458326,0.8611435,1
13.74,13.09079,1.299853,-13.18882,0.0926067441099942,-0.0970694632858258,-0.63188541783695,59.72152,21.34255,175.2649,0.180665,-0.4822317,0.8477036,1
13.76,13.14394,1.493228,-13.09892,0.1350712661190152,-0.1249631276665423,-0.5812070810997996,62.97541,20.28857,174.092,0.17649,-0.5057271,0.8335654,1
13.78,13.26146,1.11784,-12.89451,0.1726719890696457,-0.0655094260142501,-0.5378497781793461,61.83551,12.80629,167.2058,0.1519713,-0.4967625,0.8408613,1
13.8,13.31383,1.304293,-12.80496,0.2100117004822534,-0.0075184252008612,-0.4910551906966247,64.91993,10.70862,164.8874,0.1483214,-0.5193743,0.826204,1
13.82,13.36574,1.488107,-12.71615,0.2481378434791732,-0.0489020185287853,-0.4339947979640459,67.95766,8.007802,161.9685,0.1445533,-0.5415609,0.8108851,1
13.84,13.48181,1.177886,-12.51399,0.2749139602684625,-0.009959509486332,-0.394345561652637,52.14728,15.19354,171.1494,0.1520081,-0.4252071,0.8832085,1
13.86,13.53333,1.355994,-12.42193,0.3004790173452649,0.0290865598550403,-0.3529560075630442,55.2533,14.05969,169.7731,0.1490201,-0.4487262,0.8707698,1
13.88,13.58418,1.531373,-12.33102,0.3312579970136413,-0.0005027623838656,-0.304234248979419,58.33994,12.68693,168.1619,0.1459163,-0.4718863,0.8576514,1
13.9,13.63428,1.704104,-12.24139,0.3611761030446709,-0.0320836202126528,-0.2525063289858367,61.40102,11.00202,166.2424,0.1427012,-0.4946688,0.8438649,1
13.92,13.71526,1.239633,-12.17239,0.388462924530923,0.0294552948439022,-0.2053275363778641,32.09372,23.25699,175.3523,0.2045303,-0.2626726,0.9382775,1
13.94,13.77307,1.409964,-12.07059,0.4156667108718626,0.0213084011139795,-0.158874695405599,35.52552,22.96793,174.8763,0.2027763,-0.2901951,0.9296151,1
13.96,13.8299,1.576937,-11.97045,0.4420269759674746,0.0123324078835886,-0.1105539382299556,38.95449,22.62873,174.3557,0.2008382,-0.3174489,0.9201096,1
13.98,13.91024,1.268024,-11.91499,0.4599307232239784,0.0694462405689729,-0.0654258556615716,8.232754,30.63287,177.5734,0.2648752,-0.06363874,0.9613765,1
14.0,13.97341,1.435117,-11.81064,0.4746909553865235,0.1236973084513188,-0.0218717303175812,11.78432,30.60151,177.5311,0.2645639,-0.09333957,0.958652,1
14.02,14.03541,1.598568,-11.70814,0.4788562559828273,0.0832711905396992,0.0083792345847089,15.33485,30.56698,177.4861,0.2639988,-0.1229425,0.9550075,1
14.04,14.12315,1.2852,-11.62736,0.480501110930895,0.1124808744149956,0.0396202232752311,353.3297,35.27996,178.7336,0.3018906,0.05878097,0.9515023,1
14.06,14.18891,1.448692,-11.52229,0.4787687589407037,0.1402813270473538,0.0691370083346567,356.9053,35.23945,178.9283,0.3023338,0.02856503,0.952774,1
14.08,14.25335,1.608429,-11.41928,0.4691297724834937,0.0958132368060034,0.0901406571860954,0.4799889,35.21118,179.1201,0.302482,-0.001669942,0.9531152,1
14.1,14.31635,1.764573,-11.3185,0.4560687930560343,0.0498927602637736,0.1099445751564218,4.053741,35.19484,179.3106,0.3023353,-0.03189474,0.9525266,1
14.12,14.33687,1.282934,-11.35195,0.4461210010181085,0.0934596176062767,0.1371749758378144,353.7738,37.73892,179.7825,0.3228378,0.05200113,0.9448932,1
14.14,14.40321,1.444919,-11.24779,0.4321513307786526,0.1340260564317696,0.1611307286946282,357.3327,37.69035,180.1015,0.3229439,0.0217407,0.9461316,1
14.16,14.46816,1.603181,-11.14573,0.4042554106897693,0.0752268303926606,0.1639482323182142,0.8907745,37.66165,180.4172,0.3227363,-0.00853225,0.9464501,1
14.18,14.49585,1.250431,-11.18744,0.3803163517353227,0.090875843180862,0.1745926194011017,359.3592,40.40104,181.4124,0.3453398,0.0009916788,0.9383802,1
14.2,14.56587,1.415137,-11.08717,0.3534800224713312,0.1061952347145326,0.1825375679222142,2.938113,40.38403,181.7488,0.3446466,-0.02932443,0.9382585,1
14.22,14.63452,1.57619,-10.98883,0.3134822645573263,0.0470527076976941,0.1731781975191325,6.516407,40.38798,182.0846,0.3436144,-0.0596025,0.9372141,1
14.24,14.70167,1.733746,-10.8926,0.2772644674492044,0.0640967309749533,0.1724049021427508,10.09359,40.41326,182.4237,0.3422449,-0.08981331,0.9352484,1
14.26,14.68855,1.226271,-10.96936,0.2384724660331794,0.0815662378342615,0.1688688975142924,10.29322,42.54008,183.217,0.3588126,-0.09370285,0.9286718,1
14.28,14.76269,1.396523,-10.87203,0.1969205167205818,0.096672717128678,0.1621010811552596,13.91444,42.58698,183.5534,0.3567991,-0.1239809,0.9257912,1
14.3,14.83556,1.563113,-10.77632,0.13291790229581,0.0083723204413789,0.1209675394458371,17.53428,42.65697,183.8987,0.3544271,-0.1541253,0.9219797,1
14.32,14.81323,1.191014,-10.82073,0.0858379310205359,0.0201664863228437,0.1053728350010935,16.06325,43.15831,183.7966,0.359675,-0.141919,0.9219861,1
14.34,14.88771,1.369567,-10.72804,0.0376023550357342,0.0331878229796394,0.0882953409866792,19.64592,43.22251,184.0828,0.3570274,-0.1714382,0.9177314,1
14.36,14.96125,1.544647,-10.63648,-0.0267643700434052,-0.0340028429173356,0.0483755273034127,23.22718,43.30775,184.3804,0.35403,-0.2007803,0.9125762,1
14.38,15.0337,1.71636,-10.54625,-0.0760555170336196,-0.018049666788757,0.0305228586555922,26.80673,43.41594,184.6917,0.3506847,-0.2299125,0.9065273,1
14.4,14.93588,1.160941,-10.65189,-0.1253311202078695,-0.0004399542469697,0.0125699322664396,21.55242,40.24456,184.0968,0.3314667,-0.1875284,0.9241117,1
14.42,15.00841,1.34778,-10.56212,-0.1873531887768176,-0.0660345111612586,-0.0227141171550815,25.08739,40.25491,184.1823,0.3282314,-0.2160413,0.9186345,1
14.44,15.08033,1.531337,-10.47307,-0.2346638396020615,-0.0453063386866721,-0.038366032061033,28.62133,40.27158,184.2711,0.3246846,-0.2443404,0.9122847,1
14.46,15.02658,1.132915,-10.5089,-0.2809244839417681,-0.0226439083374114,-0.0530302640467796,28.00138,36.22074,183.928,0.2935562,-0.2401498,0.9242598,1
14.48,15.09577,1.327307,-10.42076,-0.3262566733571748,-0.0012310156489419,-0.0670437134785498,31.47728,36.12876,183.7899,0.2897696,-0.2676075,0.9173468,1
14.5,15.16465,1.518597,-10.33297,-0.3707699213695967,0.0007229383129876,-0.0807288665170041,34.95187,36.02297,183.6395,0.2857178,-0.2948103,0.909591,1
14.52,15.15681,1.118853,-10.31563,-0.4104350392234765,-0.0106586044957762,-0.0909173566395866,37.34797,32.33138,182.991,0.2556432,-0.314302,0.9119146,1
14.54,15.22349,1.317605,-10.22865,-0.4471815573932893,-0.0179667132049916,-0.0981607093300893,40.75732,32.05211,182.585,0.2511801,-0.3404421,0.9029198,1
14.56,15.29003,1.513385,-10.14181,-0.4810979787327567,-0.0245627921161379,-0.1027576293876204,44.16401,31.72363,182.1332,0.2464941,-0.3662709,0.8931218,1
14.58,15.35633,1.706209,-10.05526,-0.5164577551444554,-0.1175126208797146,-0.1135526124267682,47.56756,31.3348,181.6241,0.2415899,-0.3917659,0.8825299,1
14.6,15.33342,1.114593,-10.08667,-0.5364696209798114,-0.0936616087368079,-0.1033354072396586,44.66764,31.34998,181.1004,0.246388,-0.3682528,0.8915302,1
14.62,15.39777,1.315179,-10.00037,-0.5529373639848512,-0.0683561263610429,-0.0898177068402876,48.02122,30.98595,180.6296,0.2418483,-0.3934548,0.8808616,1
14.64,15.46205,1.512894,-9.914117,-0.5620728354988751,-0.1301822465515904,-0.0668911106112942,51.37147,30.55193,180.0912,0.237101,-0.4183095,0.8694351,1
14.66,15.51518,1.107273,-9.828885,-0.5651191604055277,-0.102642851892535,-0.0354648622183341,53.26859,28.29126,177.6579,0.2272929,-0.4301456,0.8643614,1
14.68,15.57722,1.30575,-9.743636,-0.5648444573212958,-0.0742756796813088,-0.0017085293320451,56.55092,27.60228,176.8446,0.2226752,-0.4540761,0.8518193,1
14.7,15.63913,1.501478,-9.658537,-0.5613306810435992,-0.0484102547036305,0.0340844326597297,59.82546,26.75502,175.8752,0.2178745,-0.4776179,0.838569,1
14.72,15.7008,1.694477,-9.573713,-0.5502517262035318,-0.13494173857732,0.0799810545891838,63.09011,25.69205,174.692,0.212893,-0.5007539,0.8246217,1
14.74,15.84218,1.117908,-9.344813,-0.533904801391115,-0.104697503874009,0.1314464016378697,61.8319,16.48901,167.1297,0.1792377,-0.4914782,0.8354485,1
14.76,15.90136,1.304439,-9.25935,-0.5145914657171895,-0.0742741747335546,0.1842407985818269,64.90867,14.30941,164.7182,0.1749601,-0.5137472,0.8209282,1
14.78,15.96002,1.488321,-9.174592,-0.4846858989183795,-0.116366277004891,0.2519583261598173,67.93506,11.50544,161.6852,0.1705426,-0.5355938,0.8057478,1
14.8,16.01808,1.669607,-9.090661,-0.4620085997778229,-0.0756554962466314,0.3030998646711696,70.88742,7.801997,157.7552,0.1659917,-0.5570005,0.789921,1
14.82,16.08433,1.177933,-8.95814,-0.437461522568709,-0.0350642068492728,0.3535112961912464,52.14627,18.06416,171.1082,0.174235,-0.4218314,0.8790783,1
14.84,16.14114,1.356107,-8.869204,-0.4110918958858667,0.002336915187545,0.4029044755719748,55.24616,16.89567,169.6874,0.1708548,-0.4450682,0.8667353,1
14.86,16.19721,1.531549,-8.781376,-0.3824543876461979,0.0190828240445647,0.4399108719854511,58.32548,15.48137,168.025,0.1673417,-0.4679487,0.8537154,1
14.88,16.29898,1.239679,-8.653717,-0.3520119230685021,0.0366048340125524,0.4755444829193511,32.09854,24.99894,175.3208,0.2188401,-0.2611952,0.9350215,1
14.9,16.36064,1.410071,-8.554188,-0.3198679242597322,0.0518320160968391,0.5093823965508002,35.5274,24.69257,174.8117,0.216906,-0.2885145,0.9263928,1
14.92,16.42126,1.577102,-8.45627,-0.2837802632377855,-0.0056469698942805,0.5395662213867132,38.95321,24.33316,174.2559,0.2147763,-0.3155679,0.9169235,1
14.94,16.49034,1.268084,-8.370914,-0.250172002354605,0.0288704984145142,0.5713332487747663,8.251894,30.68323,177.5345,0.2653195,-0.06369201,0.9612342,1
14.96,16.5547,1.435249,-8.267262,-0.2160693850683235,0.0622503497634439,0.5993252180459209,11.80345,30.6464,177.4544,0.2650008,-0.09330382,0.9584984,1
14.98,16.61789,1.598771,-8.16545,-0.1816341200112523,0.0916498613879359,0.6230598574436044,15.35394,30.60389,177.3707,0.2644278,-0.1228175,0.9548429,1
15.0,16.67979,1.758792,-8.065667,-0.1548667813699298,0.0966568608600136,0.6390844950301373,18.90335,30.55511,177.2826,0.2636012,-0.1522048,0.9502715,1
15.02,16.68933,1.285254,-8.047854,-0.1285710158710635,0.1019884479878877,0.6513879143783348,353.3358,33.75819,178.693,0.289209,0.05892155,0.9554322,1
15.04,16.75343,1.448826,-7.941759,-0.1029464248568441,0.104808531681009,0.6594348494544687,356.9132,33.72209,178.8496,0.2896731,0.02868537,0.9566942,1
15.06,16.81624,1.608643,-7.837729,-0.0871540140909372,0.1031036134164794,0.655642562401641,0.4897482,33.69584,179.0036,0.2898544,-0.001570249,0.9570219,1
15.08,16.84745,1.283068,-7.78042,-0.0730572046384518,0.1024465196945431,0.647193539229744,353.7764,34.25187,179.7345,0.2939178,0.05255894,0.9542854,1
15.1,16.90872,1.44513,-7.673183,-0.0608354147838552,0.1000557190496585,0.6335927027611729,357.339,34.20796,180.008,0.2940291,0.02217234,0.9555147,1
15.12,16.96871,1.603466,-7.568119,-0.0548510190855884,0.0221165334691931,0.6038193845098537,0.9006852,34.18112,180.2786,0.2938547,-0.008227286,0.955815,1
15.14,17.02731,1.758244,-7.465422,-0.0438623405489777,0.0382353084249287,0.5894285238932233,4.461483,34.17107,180.5482,0.293395,-0.03861013,0.9551868,1
15.16,17.01582,1.246331,-7.488001,-0.0347447688832032,0.0540960186821329,0.5701928696881622,1.336815,34.67918,181.5822,0.2978321,-0.01524917,0.9544473,1
15.18,17.07698,1.411663,-7.381817,-0.0276948674338859,0.0669797824154466,0.545642016401781,4.933816,34.67254,181.8743,0.2969913,-0.04595065,0.95377,1
15.2,17.13695,1.573323,-7.277641,-0.0175206461282968,0.1352774171475114,0.5365695042390675,8.530127,34.68438,182.1679,0.2958562,-0.07660054,0.9521472,1
15.22,17.1243,1.226424,-7.275513,-0.030421428211055,0.0980105321494732,0.4889177919518969,10.29055,34.48824,183.1555,0.2927789,-0.09374703,0.9515736,1
15.24,17.18579,1.396814,-7.169811,-0.0446609027010667,0.0627972302653117,0.4389491976052965,13.91475,34.52323,183.4299,0.2909566,-0.1244382,0.9485793,1
15.26,17.24624,1.563543,-7.065851,-0.0604314083638688,0.0267329158955548,0.3863133974461664,17.53768,34.57703,183.7113,0.2888423,-0.1549954,0.9446323,1
15.28,17.30553,1.726746,-6.963827,-0.0806180181156581,0.0098293712578242,0.3330638997093997,21.15956,34.65108,184.0026,0.2864383,-0.1853902,0.9397369,1
15.3,17.2254,1.191088,-7.081104,-0.102284581116911,-0.0033696182013723,0.2788244112545402,16.06334,34.57735,183.7685,0.2897255,-0.1430114,0.9463078,1
15.32,17.28599,1.369704,-6.97879,-0.1256723704955149,-0.0158407718844181,0.2232858239006376,19.64756,34.63382,184.0258,0.2873899,-0.173086,0.9418782,1
15.34,17.34581,1.544849,-6.877741,-0.1505530490259672,-0.0293369100476353,0.1670872343671931,23.23043,34.70919,184.2932,0.2847729,-0.2029816,0.9365245,1
15.36,17.3,1.160965,-6.926292,-0.1765143873071721,-0.0386803294266958,0.1114800726801424,21.54962,31.91535,184.0933,0.2634886,-0.1892761,0.9457473,1
15.38,17.35886,1.347807,-6.827003,-0.2038070526102391,-0.0469906569186102,0.0562164748183433,25.08486,31.92544,184.1753,0.2606648,-0.2184296,0.9400495,1
15.4,17.41721,1.531366,-6.728517,-0.2326643358257127,-0.0573352346944922,0.0010717141115312,28.61903,31.94163,184.2607,0.2575939,-0.2473665,0.9334586,1
15.42,17.38572,1.132901,-6.750275,-0.2565503283655865,-0.0706039115621797,-0.0531203072322531,27.99931,28.40014,183.9372,0.2298255,-0.2425624,0.9421334,1
15.44,17.44204,1.327266,-6.653399,-0.2801864709633057,-0.0795949226564359,-0.1043744003457404,31.47572,28.3142,183.809,0.2265423,-0.2706771,0.9349694,1
15.46,17.49811,1.518529,-6.556918,-0.3038094000751847,-0.087562007257527,-0.1528967593492221,34.95082,28.21533,183.6693,0.2230517,-0.2985335,0.9269468,1
15.48,17.55383,1.706725,-6.460994,-0.3089063195329893,-0.0108850796847016,-0.1802797403657899,38.42471,28.10113,183.5155,0.219357,-0.3261071,0.9180732,1
15.5,17.60911,1.785237,-6.365786,-0.3233064137400148,-0.0457795778438274,-0.2222909863504879,41.89732,27.96849,183.3445,0.2154617,-0.353373,0.9083579,1
15.52,17.54708,1.117173,-6.455441,-0.3364859067321477,-0.077802884229293,-0.2602054836254712,39.59645,25.15163,182.6901,0.1970451,-0.3353005,0.9197963,1
15.54,17.60185,1.316486,-6.360821,-0.3372076091137153,-0.0221230643912254,-0.2836955310597029,43.00111,24.86482,182.2894,0.1931166,-0.361846,0.9099916,1
15.56,17.65651,1.512841,-6.26633,-0.3392386640181937,-0.0500895360812274,-0.3085554730790468,46.40307,24.52624,181.8398,0.1890176,-0.3880619,0.8993804,1
15.58,17.68134,1.11377,-6.232611,-0.3397690360159844,-0.0757296649142142,-0.3291164512214174,46.35096,24.45452,180.3771,0.1934325,-0.3852596,0.8987191,1
15.6,17.73489,1.314253,-6.1397,-0.3389971869864392,-0.1024574713898936,-0.3455396708706446,49.6922,24.06198,179.879,0.1895811,-0.4107532,0.8874151,1
15.62,17.78837,1.511888,-6.046854,-0.3162272289512291,-0.1007329894899608,-0.3276843847995034,53.02988,23.59165,179.3055,0.1855682,-0.4358869,0.8753524,1
15.64,17.8691,1.103783,-5.908839,-0.2920579179595988,-0.0966161152097294,-0.3061055780039309,56.44365,21.7854,176.2353,0.1816695,-0.4586466,0.861846,1
15.66,17.9218,1.299872,-5.818269,-0.2666998618798688,-0.0934637707348474,-0.2809821920788308,59.70807,20.94794,175.275,0.1777087,-0.4825825,0.8483902,1
15.68,17.97433,1.493255,-5.727981,-0.2387121362083912,-0.0045030576161313,-0.2523609779871336,62.96238,19.89861,174.1048,0.1736014,-0.5061074,0.8342353,1
15.7,18.02659,1.683956,-5.638106,-0.2046700698087429,-0.0212688566117946,-0.2108984176534474,66.20341,18.55221,172.6391,0.1693513,-0.5292056,0.819392,1
15.72,18.10966,1.117806,-5.489666,-0.1699405645909371,-0.0381184261775485,-0.1665363008878092,61.83836,12.40177,167.2079,0.148994,-0.4973198,0.8413823,1
15.74,18.16139,1.304267,-5.399747,-0.1347128990488273,-0.058330098715446,-0.1194621036908337,64.92277,10.30694,164.8902,0.1454132,-0.5199567,0.8267094,1
15.76,18.21268,1.488091,-5.310576,-0.1111768467000593,0.0299088992563101,-0.0915260148792262,67.9605,7.609283,161.9724,0.1417163,-0.5421678,0.8113744,1
15.78,18.3179,1.177826,-5.124108,-0.0782884916166719,0.0262615553100382,-0.0488826707904075,52.16062,14.79225,171.1422,0.1489426,-0.4257424,0.8836759,1
15.8,18.36879,1.355938,-5.031696,-0.0459336587604788,0.0221787532834047,-0.0049965248085977,55.26659,13.65998,169.7653,0.1460153,-0.4492863,0.8712211,1
15.82,18.41902,1.531322,-4.940442,-0.0142761326423554,0.0145254496035211,0.0399048159279671,58.35322,12.28878,168.1535,0.1429744,-0.4724708,0.858086,1
15.84,18.46852,1.704057,-4.850477,0.0225038514668449,0.035429478213121,0.0804020768562247,61.41433,10.60531,166.2334,0.1398245,-0.4952773,0.8442825,1
15.86,18.58928,1.250531,-4.719236,0.0590219056137715,0.056533218170214,0.1218823712934166,26.25933,24.02077,175.9983,0.2102831,-0.2149723,0.9503096,1
15.88,18.64657,1.419993,-4.615961,0.0950640763642454,0.0747620008143261,0.1639809208942224,29.7113,23.8324,175.6436,0.2089697,-0.243093,0.9430505,1
15.9,18.70288,1.586033,-4.514403,0.1234469317828383,0.1568097743809469,0.2001906459529541,33.16186,23.61145,175.2619,0.2074652,-0.2709889,0.9349291,1
15.92,18.77461,1.272003,-4.425043,0.1441571153083134,0.1440735754612271,0.2196475378614351,2.488854,29.92245,177.9371,0.2584402,-0.01633186,0.9656156,1
15.94,18.8349,1.438754,-4.319045,0.1635058959887763,0.1308316601217782,0.2383642575602268,6.032508,29.90152,177.9487,0.2585002,-0.04621822,0.964412,1
15.96,18.89408,1.601865,-4.214951,0.1798200908005998,0.1850822758172724,0.2575646725645927,9.575173,29.88118,177.959,0.2583132,-0.07605192,0.9622868,1
15.98,18.95203,1.761481,-4.112949,0.1932835824952885,0.168300937289357,0.2717027242681006,13.11683,29.86125,177.9682,0.2578797,-0.1058045,0.9592428,1
