t,pX,pY,pZ,aX,aY,aZ,reX,reY,reZ,rtX,rtY,rtZ,ID
4.78,-44.30335,1.102192,-36.82993,3.7105897560140217,-0.0922457499321599,0.7565462485779664,14.58886,356.3396,163.5427,-0.01319023,-0.130131,0.9817744,9
4.8,-44.30096,1.30271,-36.83155,3.81301643414729,-0.1044157993471535,0.7822100559638692,14.53653,356.322,163.4727,-0.01332815,-0.1297125,0.9817432,9
4.82,-44.75607,1.154954,-37.66627,3.909856915168548,-0.0919110591815333,0.8068645091304791,14.67505,2.124251,163.7342,0.03626437,-0.1238071,0.9813325,9
4.84,-44.7569,1.354748,-37.66552,4.013224418680711,-0.122186515339371,0.8238408424005934,14.69683,2.131098,163.7611,0.03632014,-0.1239938,0.9813392,9
4.86,-44.75773,1.554539,-37.66477,4.1116882822001495,-0.1273934641610387,0.8399045387188355,14.71874,2.138013,163.7882,0.03637631,-0.1241816,0.981346,9
4.88,-44.67479,1.160351,-37.56871,4.204671810707212,-0.1094276610701644,0.8549515556992295,18.36037,7.303687,166.3127,0.08140192,-0.1505889,0.9769568,9
4.9,-44.68375,1.355055,-37.5414,4.2819143225083325,-0.1375676955761862,0.8625150336346676,19.14825,7.431623,166.7105,0.082681,-0.1574643,0.9761413,9
4.92,-44.6927,1.549543,-37.51416,4.3547309805305,-0.1410652871114689,0.8690091976141971,19.93737,7.566325,167.1131,0.0839585,-0.1643488,0.9752666,9
4.94,-44.49875,1.188085,-37.42841,4.423007515494086,-0.1669562348584428,0.8714820616910117,12.54533,18.40364,169.9476,0.1677931,-0.09351311,0.9759177,9
4.96,-44.48473,1.378529,-37.37895,4.486451088006675,-0.1684978628647626,0.8727143085593179,14.0883,18.42058,170.021,0.1687767,-0.1067787,0.9742374,9
4.98,-44.47076,1.568314,-37.32974,4.544466091391656,-0.1475889648076234,0.8726423733246733,15.63361,18.43914,170.0933,0.1697285,-0.1200424,0.972376,9
5.0,-44.28464,1.209902,-37.2821,4.59646336850372,-0.1060474560593759,0.8712028718645346,3.778154,27.95703,173.0515,0.2429215,-0.01729923,0.9675942,9
5.02,-44.24283,1.387432,-37.19419,4.629851746461993,-0.1336226599247083,0.864455183389234,6.678785,27.96879,173.1803,0.2441822,-0.04207492,0.9661618,9
5.04,-43.99585,1.244712,-37.11981,4.658526502287103,-0.1372996249370311,0.8566886437426895,358.8755,35.80276,176.8743,0.3069958,0.01771706,0.9512696,9
5.06,-43.925,1.404514,-37.00218,4.672731969378625,-0.1674860824462896,0.8456068950766742,2.904611,35.80799,177.2087,0.3078205,-0.01662489,0.9507954,9
5.08,-43.85568,1.559709,-36.88712,4.681951545248246,-0.1732070222444401,0.833496163443816,6.935513,35.83691,177.5454,0.3082621,-0.05096192,0.9491367,9
5.1,-43.78808,1.710515,-36.77491,4.685681710669108,-0.1563321898440096,0.8202891519945483,10.96798,35.89029,177.888,0.3083195,-0.08525073,0.9462941,9
5.12,-43.62682,1.255207,-36.96373,4.67267279184465,-0.189747370796716,0.8025149231153224,356.4151,44.94831,180.8331,0.3822797,0.02612517,0.9234887,9
5.14,-43.53883,1.410789,-36.84976,4.655145008226747,-0.1980723732855424,0.7834791888737076,0.6080543,44.93439,181.369,0.3820633,-0.009468561,0.924044,9
5.16,-43.43339,1.244497,-36.94341,4.632637276585484,-0.1832071792847043,0.7631388904235425,1.559898,51.41968,181.7816,0.4335306,-0.01900686,0.900902,9
5.18,-43.3448,1.407941,-36.85201,4.581755436830946,-0.2174509344711881,0.7400243382487286,5.283314,51.4485,182.2638,0.4326744,-0.0500783,0.9001557,9
5.2,-43.25798,1.567448,-36.76246,4.527462255942358,-0.2258135765035257,0.7154668413796896,9.004079,51.50906,182.7502,0.4313545,-0.08107223,0.898445,9
5.22,-43.24215,1.231462,-36.91676,4.469363926977544,-0.2102268950769595,0.6894449513551688,8.298594,57.57118,183.0452,0.4784166,-0.07615343,0.8747478,9
5.24,-43.14649,1.399695,-36.83822,4.383700447722668,-0.2471796086521444,0.6613283969812835,11.94075,57.65145,183.5016,0.4765238,-0.1057343,0.8724637,9
5.26,-43.05251,1.564181,-36.76108,4.295453160115519,-0.2567252833795259,0.6315191662009694,15.58112,57.76299,183.9702,0.474143,-0.1351979,0.8692861,9
5.28,-43.04742,1.198995,-36.91326,4.204357513429168,-0.2408433617207709,0.6000199114782498,14.75944,65.23505,183.9164,0.5305545,-0.1263901,0.8371886,9
5.3,-42.9469,1.375139,-36.84859,4.081604170133665,-0.2781989380551046,0.5666577771494525,18.32023,65.38605,184.4464,0.5276511,-0.1545593,0.8335544,9
5.32,-42.91072,1.174907,-36.89882,3.9575764549692334,-0.286925283962112,0.5314865638544939,18.72005,68.62608,184.3986,0.5506439,-0.1555796,0.8178911,9
5.34,-42.80953,1.35707,-36.84146,3.832118231534089,-0.2690358277120885,0.4945262284720186,22.22219,68.81805,184.9472,0.547126,-0.1827757,0.8135056,9
5.36,-42.70942,1.535907,-36.78472,3.679955461573435,-0.3068549008815432,0.4567190639748659,25.72136,69.05232,185.5235,0.5430871,-0.2097884,0.8083459,9
5.38,-42.75589,1.152135,-36.86165,3.5276921678539868,-0.3145057591712558,0.4171065284780182,23.05363,69.92697,184.4181,0.5547671,-0.1852829,0.8068062,9
5.4,-42.65395,1.340278,-36.81131,3.375304641836961,-0.2940504919140922,0.3757118241874817,26.52838,70.10662,184.8462,0.5505756,-0.2112916,0.8016384,9
5.42,-42.55278,1.525237,-36.76135,3.2053179144377912,-0.3300180013720627,0.3339752424767948,30.00109,70.32157,185.2999,0.5458711,-0.2370937,0.7957273,9
5.44,-42.56237,1.127848,-36.81443,3.0361751126647007,-0.3346522766214052,0.2904763785983899,30.07234,70.40015,184.0372,0.5488851,-0.2314681,0.7939448,9
5.46,-42.45944,1.322821,-36.77335,2.8679671853614046,-0.3100503982725185,0.2452400899781031,33.51672,70.48406,184.1963,0.5435326,-0.2555611,0.7876022,9
5.48,-42.3569,1.514769,-36.73243,2.684072261317328,-0.341624764161422,0.1976755119897415,36.9597,70.58155,184.3651,0.5376853,-0.2794014,0.7805544,9
5.5,-42.37116,1.118312,-36.77392,2.502220164628474,-0.3413640634482893,0.14832775682589,37.45392,70.60055,183.153,0.5398533,-0.2769842,0.7777398,9
5.52,-42.26664,1.316716,-36.74279,2.3225774033791486,-0.3113714594191828,0.0972308353119011,40.85583,70.46095,182.9319,0.5331182,-0.2988367,0.7703695,9
5.54,-42.16232,1.512177,-36.71173,2.139055345862123,-0.3374839285187493,0.0435229716643359,44.25633,70.29521,182.687,0.525914,-0.320419,0.7623211,9
5.56,-42.10587,1.114274,-36.74232,1.958333751429695,-0.3314678536959616,-0.011786888562141,44.71913,73.21127,181.2208,0.5481861,-0.3112414,0.7447778,9
5.58,-42.00127,1.314583,-36.71772,1.7806517770642882,-0.2954235548914382,-0.0686645100764247,48.0741,72.98537,180.9089,0.5405329,-0.3317617,0.736116,9
5.6,-41.89676,1.512031,-36.69315,1.6062421644868188,-0.231391190547064,-0.1270766839609027,51.42728,72.7141,180.5536,0.5324168,-0.3519914,0.726823,9
5.62,-41.8585,1.109797,-36.70971,1.4309858735807204,-0.2537280082379712,-0.1874293648600238,50.72453,73.32615,178.7799,0.5431854,-0.3378334,0.7220824,9
5.64,-41.75472,1.309084,-36.68983,1.2595821358340586,-0.244272682379858,-0.2493241682752609,54.02106,72.87334,178.2084,0.534797,-0.3570561,0.7124554,9
5.66,-41.55968,1.102091,-36.67601,1.092322545797364,-0.2050697236488024,-0.312720900295707,59.71988,71.62234,174.0877,0.527586,-0.3770502,0.6873327,9
5.68,-41.457,1.295666,-36.66002,0.9482640402893958,-0.2180365483152805,-0.3771097018257849,62.94908,70.57695,172.8968,0.5181536,-0.394842,0.6761383,9
5.7,-41.35479,1.486589,-36.64411,0.8078732147990708,-0.2005933359757712,-0.4429104203899454,66.16437,69.23302,171.409,0.5082975,-0.4122995,0.6643973,9
5.72,-41.08729,1.128939,-36.62734,0.6888770576162715,-0.2008270265350042,-0.5096099104417515,60.95187,64.0628,166.772,0.5035883,-0.3744513,0.6947875,9
5.74,-40.98442,1.312997,-36.61291,0.5735689442806322,-0.1719306570865222,-0.5774666210128423,64.01542,62.04276,164.4951,0.4942892,-0.391124,0.6832063,9
5.76,-40.88255,1.494411,-36.59861,0.462241297809502,-0.1158017604447167,-0.6464546717311084,67.03371,59.46354,161.6623,0.4845983,-0.4074796,0.6710827,9
5.78,-40.73741,1.178394,-36.59938,0.3551910476673994,-0.0342727455215196,-0.7165487999332099,52.0213,68.95458,171.2959,0.5347089,-0.3218613,0.7198801,9
5.8,-40.63309,1.356384,-36.585,0.2560301421421833,-0.0189496727516487,-0.7912456068497518,55.13246,67.92596,170.0181,0.526751,-0.3392836,0.7099628,9
5.82,-40.5301,1.531657,-36.5708,0.1632840682772185,-0.0060289113436981,-0.8663995954068229,58.22705,66.67776,168.5249,0.518384,-0.3564354,0.6994948,9
5.84,-40.33969,1.239959,-36.60322,0.1457787603506402,0.0530805560850564,-0.8170052687668425,31.89618,77.55759,175.401,0.6103186,-0.1898645,0.7420565,9
5.86,-40.22329,1.410203,-36.59004,0.1398882144142685,0.0390363053435906,-0.7656032633464136,35.33136,77.31366,174.9605,0.6050406,-0.2105779,0.7350234,9
5.88,-40.10879,1.577084,-36.57708,0.1475281991437089,0.0197007234130378,-0.7073594069790836,38.76425,77.02435,174.4805,0.5992131,-0.2310947,0.7273242,9
5.9,-40.06495,1.263525,-36.60938,0.156378433967304,0.0804665599338705,-0.656412680381794,13.82094,83.00367,177.1983,0.6598366,-0.07400159,0.7413225,9
5.92,-39.94352,1.431053,-36.59855,0.1801574840595998,0.0671672778640286,-0.6046816623342384,17.37457,82.97054,177.0751,0.6575022,-0.09639962,0.7377369,9
5.94,-39.82075,1.275704,-36.60822,0.2199968840475907,0.0488702060094992,-0.5506688021676123,358.3343,87.1865,178.2033,0.6892117,0.02133589,0.7242449,9
5.96,-39.69797,1.441295,-36.59908,0.2457808516505206,0.1053229754440679,-0.5032428805348905,1.904143,87.18671,178.2932,0.6895432,-0.001764287,0.723901,9
5.98,-39.57747,1.603179,-36.59011,0.2830419452641362,0.1550334955823213,-0.4575686543458488,5.472946,87.19254,178.3834,0.6892055,-0.02485545,0.7228546,9
6.0,-39.45949,1.761505,-36.58133,0.3204776774152797,0.1068882254585038,-0.4148485259652217,9.040683,87.2041,178.4746,0.6881992,-0.04791588,0.7211074,9
6.02,-39.42923,1.293833,-36.60019,0.3462204547198535,0.134211546425667,-0.3737448610584479,352.8375,89.52518,179.2765,0.7025018,0.04878797,0.7089079,9
6.04,-39.30473,1.455293,-36.59014,0.3805028209918726,0.1578172689625127,-0.3406371944951116,356.4218,89.50089,179.5362,0.7035817,0.0250203,0.7099171,9
6.06,-39.24768,1.269622,-36.59601,0.3757088350255664,0.1498743695040911,-0.3161059121264591,354.0982,90.40805,180.0154,0.7086843,0.03617639,0.7036452,9
6.08,-39.12618,1.432982,-36.58635,0.3747120431704642,0.1434020273526871,-0.3053037987911899,357.6332,90.38595,180.3221,0.7093712,0.01256038,0.704527,9
6.1,-39.00708,1.592714,-36.57687,0.3773637189605585,0.1357773396126393,-0.308826203287456,1.16716,90.38278,180.6272,0.7093782,-0.01106077,0.7047333,9
6.12,-38.96669,1.246032,-36.59167,0.3704929136618391,0.0538309684763802,-0.3272508915587133,1.416744,91.44338,181.6059,0.7157112,-0.01866281,0.6981465,9
6.14,-38.84385,1.411197,-36.58428,0.3548836874051186,0.0620632981913607,-0.3164340885763002,5.026742,91.46082,181.9158,0.7147629,-0.04256583,0.6977915,9
6.16,-38.72337,1.572657,-36.57704,0.3403635289357822,0.0708241261302372,-0.3201219362302767,8.636255,91.49808,182.2285,0.7131003,-0.06642041,0.696739,9
6.18,-38.76777,1.231983,-36.58006,0.2978075226212544,0.0529234564516184,-0.3076847776086406,8.283384,91.77396,182.8852,0.7146006,-0.06828464,0.6953435,9
6.2,-38.64501,1.400781,-36.57415,0.2573512662588708,0.0373829757045136,-0.3066727495069203,11.91396,91.82558,183.1792,0.712125,-0.09199633,0.6937971,9
6.22,-38.52438,1.565884,-36.56834,0.2187745093826754,0.021372038317228,-0.3175589843325994,15.54321,91.8973,183.4811,0.7089311,-0.1156084,0.6915506,9
6.24,-38.57145,1.199447,-36.56695,0.1680431464120015,-0.0005915367381643,-0.3034614603597374,14.79249,92.31502,183.6741,0.7120196,-0.1120518,0.6895383,9
6.26,-38.45163,1.376006,-36.56295,0.119383923265202,-0.0193559712055978,-0.2991555980202465,18.38897,92.3951,183.9543,0.7082177,-0.1351147,0.6868528,9
6.28,-38.33344,1.549038,-36.55901,0.072605367339908,-0.0378689711920632,-0.3050616183766719,21.98394,92.49599,184.2465,0.7037157,-0.1580373,0.683488,9
6.3,-38.41905,1.17564,-36.55638,0.040597739963804,0.0198960860389613,-0.2874063048727331,18.7593,91.47549,184.0563,0.7021098,-0.1386825,0.6923115,9
6.32,-38.3021,1.358425,-36.55354,-0.0275570146892674,-0.0295590832072623,-0.2755894689916074,22.3125,91.54315,184.2489,0.6975377,-0.1609287,0.6890091,9
6.34,-38.18637,1.537845,-36.55072,-0.0831257334686501,-0.020324007986433,-0.2547316213563988,25.86433,91.62592,184.4516,0.692295,-0.1830127,0.6850441,9
6.36,-38.24976,1.145354,-36.5414,-0.1356923804817595,-0.0100942884125336,-0.2404743712453427,24.62694,88.60862,184.0567,0.676572,-0.1766745,0.7040113,9
6.38,-38.13617,1.336281,-36.53864,-0.2090277914072151,-0.0841511964448583,-0.2311820865057434,28.13153,88.60858,184.0565,0.6709469,-0.1977963,0.6997568,9
6.4,-38.02327,1.524024,-36.5359,-0.2566398430178775,-0.072208887793662,-0.2092420541244539,31.63466,88.60854,184.0564,0.6646971,-0.2187246,0.69485,9
6.42,-38.03469,1.124787,-36.52316,-0.2998180217723734,-0.0588406477429276,-0.1930271013898803,32.11688,84.89878,183.5372,0.6419942,-0.2240295,0.7145064,9
6.44,-37.92394,1.321874,-36.52006,-0.3512793366646178,-0.1306141926016986,-0.1825478998432057,35.5596,84.75477,183.2786,0.6351023,-0.2438443,0.7090381,9
6.46,-37.8135,1.515924,-36.51697,-0.381582082530282,-0.1136545396975167,-0.1631188075907452,39.0007,84.58405,182.9969,0.6276372,-0.2634322,0.7029294,9
6.48,-37.82175,1.11714,-36.51825,-0.4068900707820084,-0.0954957522882214,-0.1483551921657957,39.6558,83.82729,182.6699,0.6223564,-0.2669852,0.7051249,9
6.5,-37.71294,1.316523,-36.51613,-0.4274227585453927,-0.0794529173079792,-0.1385460273544376,43.04227,83.55645,182.2601,0.6142842,-0.2857369,0.6984241,9
6.52,-37.60428,1.512973,-36.51402,-0.4448603549606718,-0.0916771516103356,-0.1225007175121888,46.42616,83.23433,181.8026,0.6056738,-0.3042322,0.6911103,9
6.54,-37.54016,1.113736,-36.51826,-0.4563068131416559,-0.1007389293472185,-0.1097834977605307,46.40645,83.30818,180.3515,0.6099661,-0.2962531,0.6875348,9
6.56,-37.43306,1.314215,-36.516,-0.461974953913483,-0.1100513180675295,-0.1006160990103524,49.74247,82.93941,179.856,0.6012017,-0.3143883,0.6794615,9
6.58,-37.32604,1.511851,-36.51374,-0.449879686419842,-0.1196358257758679,-0.0861083898156973,53.07517,82.49496,179.2876,0.5919255,-0.3322502,0.6708089,9
6.6,-37.21928,1.706656,-36.51149,-0.4327109209996473,-0.1268562810881059,-0.0741934427527377,56.40371,81.9528,178.6239,0.582146,-0.3498223,0.6615856,9
6.62,-37.14371,1.103685,-36.51236,-0.4106994477221288,-0.1350980299631626,-0.0650411603057738,56.55493,80.77692,176.1794,0.5823518,-0.3416118,0.6601687,9
6.64,-37.03895,1.299681,-36.51085,-0.3527409120056139,-0.1381030636475723,-0.0521323754238505,59.81762,79.96249,175.2214,0.5724079,-0.3585191,0.6502711,9
6.66,-36.93452,1.492972,-36.50935,-0.2910053772300101,-0.1400414711376637,-0.0412596162461653,63.07051,78.93806,174.0555,0.5619926,-0.3751213,0.6398388,9
6.68,-36.69782,1.118134,-36.50454,-0.2394522721764787,-0.0836769148076726,-0.0316542602222709,61.80965,71.51378,167.1966,0.5447288,-0.3582972,0.6584824,9
6.7,-36.59403,1.304505,-36.5028,-0.1853114100605939,-0.0291986243172869,-0.0237348791922213,64.89455,69.45009,164.8885,0.534519,-0.3739285,0.6473767,9
6.72,-36.36783,1.16187,-36.49772,-0.1217780410184161,-0.0744062316285601,-0.0172658168091128,55.7501,71.30448,168.7869,0.5498855,-0.3277586,0.6882268,9
6.74,-36.26266,1.341546,-36.49456,-0.0805435117973543,-0.0398807562369316,-0.0125758509535707,58.82359,69.7732,166.9676,0.5407324,-0.3436842,0.6780702,9
6.76,-36.15873,1.518507,-36.49143,-0.038710488689241,-0.0056798238649951,-0.009458665163053,61.8657,67.886,164.7968,0.5311534,-0.3593332,0.6673788,9
6.78,-36.05621,1.692833,-36.48834,0.0122976678088413,-0.0405106089994775,-0.0123776272477478,64.86497,65.52172,162.1528,0.5211595,-0.3746932,0.6561626,9
6.8,-35.93186,1.229089,-36.51021,0.058544827076445,-0.0035182791268556,-0.0145365864331852,37.71844,80.02162,174.75,0.6191172,-0.2194555,0.7145264,9
6.82,-35.81794,1.400946,-36.5062,0.1052372139050605,0.0320132670317579,-0.0182113910924019,41.06396,79.62768,174.1295,0.6126305,-0.2383473,0.7068913,9
6.84,-35.70581,1.56962,-36.50224,0.151720498155786,-0.0037316861328896,-0.0271183934431267,44.40485,79.1614,173.4426,0.6056129,-0.2570267,0.6986436,9
6.86,-35.59365,1.263663,-36.53079,0.1861953334177144,0.027714275225097,-0.0307481456245479,13.8231,86.6442,177.1817,0.6830602,-0.07076973,0.7199728,9
6.88,-35.47223,1.431376,-36.52822,0.2183663863310903,0.0576486041234361,-0.0356599152138104,17.36186,86.60698,177.0432,0.6806138,-0.09230825,0.7164841,9
6.9,-35.35294,1.595468,-36.5257,0.2477496002093291,0.083225322274978,-0.0419369678191241,20.9006,86.55967,176.8988,0.6775169,-0.1137575,0.7123114,9
6.92,-35.23305,1.279307,-36.5342,0.2711052593045968,0.0842017148314227,-0.0442711207089967,354.3965,91.19942,178.4125,0.713073,0.04408213,0.6992475,9
6.94,-35.10981,1.444159,-36.53225,0.2922077710406183,0.0852391398474822,-0.0473141017632556,357.963,91.19072,178.5435,0.7140874,0.02151559,0.6997157,9
6.96,-34.98891,1.605296,-36.53035,0.3100007873496819,0.1313811254052632,-0.0480901608083303,1.52843,91.19016,178.6738,0.7144093,-0.001065006,0.6995054,9
6.98,-34.87059,1.762872,-36.52848,0.3160739275020505,0.1058309591379216,-0.0501254180176333,5.092846,91.19775,178.8046,0.714039,-0.02363852,0.6986174,9
7.0,-34.83583,1.296045,-36.53327,0.318913023518987,0.0795059168964039,-0.052329470804417,353.4716,92.18947,179.4975,0.7191384,0.04264049,0.6925163,9
7.02,-34.71103,1.45694,-36.52851,0.3180344547940432,0.0495829277099919,-0.0547821501100411,357.0509,92.16685,179.7714,0.720075,0.01928521,0.6934162,9
7.04,-34.58882,1.614027,-36.52385,0.311814760008994,0.0349643631693554,-0.0551019750679717,0.6293707,92.16136,180.0434,0.720305,-0.004082758,0.6936358,9
7.06,-34.58738,1.254591,-36.5328,0.3018124288221111,0.0215103377553923,-0.0558583728094035,357.445,92.77715,181.1481,0.7239722,0.008125373,0.6893962,9
7.08,-34.46576,1.419024,-36.52901,0.2972783894672748,0.0579483222734341,-0.054770888275728,1.001953,92.77333,181.4317,0.7238519,-0.01507602,0.689787,9
7.1,-34.3465,1.579843,-36.5253,0.2882603485997705,0.0916879440368686,-0.0541342078172677,4.557829,92.78715,181.7159,0.7230301,-0.03825556,0.6895093,9
7.12,-34.32222,1.237721,-36.52187,0.2443325480527529,0.0273186968037472,-0.053995817050696,6.193982,93.31078,182.5953,0.7251505,-0.05351835,0.6860964,9
7.14,-34.19885,1.404928,-36.51885,0.2097945025862442,0.0385173864042901,-0.0509212668772685,9.828929,93.3532,182.8993,0.7230992,-0.07709659,0.6849512,9
7.16,-34.07772,1.568413,-36.51588,0.1721512159845857,0.0495426656026826,-0.0481183106821401,13.46252,93.416,183.2101,0.7203164,-0.1005901,0.6831126,9
7.18,-34.14277,1.217318,-36.50981,0.1043859965728155,-0.0170096616174749,-0.044869620593241,11.91234,93.38457,183.351,0.7213615,-0.09230719,0.6841296,9
7.2,-34.02131,1.389806,-36.50814,0.0590745787948359,-0.0073529966934158,-0.0406897083130504,15.5267,93.44952,183.6246,0.7181066,-0.1153671,0.6819913,9
7.22,-33.90173,1.558677,-36.5065,0.011841329199151,0.0030302878657658,-0.036881703868973,19.13971,93.53398,183.9079,0.7141346,-0.1383054,0.6791719,9
7.24,-33.95547,1.183055,-36.49746,-0.0616929599807778,-0.0665486445277612,-0.0319171351676734,17.43045,93.03444,183.916,0.7132223,-0.1287127,0.6835505,9
7.26,-33.83743,1.363756,-36.49673,-0.1114786535701299,-0.0545827029021883,-0.0269074060394496,21.00215,93.10905,184.1425,0.7088732,-0.1510487,0.6804875,9
7.28,-33.72073,1.541031,-36.49602,-0.1617217267067086,-0.0414023572833874,-0.0222387661314282,24.57253,93.20115,184.3801,0.7038347,-0.1732313,0.676762,9
7.3,-33.60559,1.714975,-36.49531,-0.2128128583784079,-0.0300091576835877,-0.0179201178188792,28.14113,93.31273,184.6313,0.6981124,-0.1952351,0.6723795,9
7.32,-33.75346,1.152979,-36.48223,-0.27090762587919,-0.0477018574789828,-0.0118419194793091,23.09197,90.22299,184.049,0.6887216,-0.1656884,0.6960264,9
7.34,-33.63891,1.341876,-36.48151,-0.3266979976062778,-0.0614213544429565,-0.0060202913428044,26.61246,90.23981,184.0889,0.6833296,-0.1869002,0.6920631,9
7.36,-33.52518,1.527538,-36.4808,-0.3805030848540145,-0.0743606762449253,-0.000463295323386,30.1316,90.25999,184.1313,0.677295,-0.2079275,0.6874484,9
7.38,-33.57885,1.128696,-36.46606,-0.425543329312517,-0.0871635830061918,0.0054797310180694,30.07409,86.58909,183.7077,0.6558126,-0.2101585,0.7083033,9
7.4,-33.46741,1.324442,-36.46459,-0.4666173039287637,-0.0960723337042207,0.0110453492589677,33.5339,86.48761,183.5152,0.6492241,-0.2301621,0.7032098,9
7.42,-33.35636,1.517118,-36.46313,-0.5040183115909351,-0.1044017805266853,0.0162227113697985,36.99237,86.36719,183.3066,0.6420446,-0.2499496,0.6974755,9
7.44,-33.33432,1.117128,-36.4594,-0.5289074418517608,-0.111441066551234,0.0185633497740278,39.66064,84.43536,182.6777,0.6260608,-0.2659378,0.7018169,9
7.46,-33.22518,1.316474,-36.45821,-0.5490978169715319,-0.1149482740395433,0.0203590678952352,43.05776,84.16973,182.2758,0.617939,-0.2846759,0.6951234,9
7.48,-33.1162,1.512871,-36.45702,-0.5648679199669933,-0.1183170791096574,0.0215920789747707,46.45233,83.85362,181.8271,0.6092725,-0.303157,0.6878162,9
7.5,-33.00754,1.706333,-36.45584,-0.5587583461312633,-0.0364089834742789,0.0228998953646026,49.84396,83.47477,181.3186,0.6000693,-0.3213645,0.6799027,9
7.52,-33.03312,1.113738,-36.46071,-0.5614884238220572,-0.0689921706050987,0.0235268621161237,46.40476,83.81574,180.3535,0.6130041,-0.2951004,0.6848353,9
7.54,-32.92592,1.314214,-36.45939,-0.558817632471134,-0.0996189059513928,0.0237424939020529,49.74347,83.44705,179.8582,0.6041974,-0.3131649,0.6767939,9
7.56,-32.8188,1.511842,-36.45807,-0.5443566695273203,-0.042781261250313,0.0244911827057947,53.07878,83.00259,179.2898,0.5948759,-0.3309558,0.668175,9
7.58,-32.67608,1.103695,-36.45761,-0.5095932074586864,-0.0711731427571405,0.0249683726292415,56.54787,81.18046,176.1805,0.5846874,-0.3404144,0.6581405,9
7.6,-32.57127,1.299699,-36.45689,-0.4707793686219483,-0.0988925053844365,0.0249498953389233,59.81137,80.36322,175.2191,0.5747015,-0.3572527,0.6482807,9
7.62,-32.4668,1.492996,-36.45617,-0.4281763221951178,-0.129290600562315,0.0244303773676728,63.06502,79.33528,174.0492,0.5642422,-0.3737866,0.6378873,9
7.64,-32.21124,1.118114,-36.45172,-0.3567779536318087,-0.1207033526599138,0.0246073470920631,61.81152,71.84698,167.1944,0.5466443,-0.357204,0.6568809,9
7.66,-32.10743,1.304495,-36.45063,-0.2825093465883785,-0.1110897070006585,0.0245782428110086,64.89611,69.77961,164.8823,0.5363959,-0.3727738,0.6458085,9
7.68,-32.00451,1.488232,-36.44954,-0.2056518575842312,-0.1036873904983061,0.0243307429039711,67.93473,67.11439,161.9752,0.5257182,-0.3880391,0.6342189,9
7.7,-31.90261,1.669384,-36.44847,-0.1463861831584108,-0.0168581622299593,0.0233548040765159,70.90556,63.5839,158.2055,0.5146213,-0.4029863,0.6221228,9
7.72,-31.75213,1.178368,-36.44503,-0.0824660324340493,-0.0244129901856284,0.0204555684076357,52.03998,74.38897,171.2151,0.5684167,-0.3068186,0.6934338,9
7.74,-31.6466,1.356421,-36.44206,-0.0351425939223029,0.0165254032539461,0.0170507616219941,55.14753,73.29478,169.8561,0.559853,-0.3231585,0.6839817,9
7.76,-31.54241,1.531741,-36.43913,0.012206953710911,0.056951965127724,0.0133609143391861,58.23647,71.9675,168.2685,0.5508528,-0.3392399,0.673996,9
7.78,-31.37738,1.239951,-36.46706,0.0620052130913468,0.0276333737882921,0.0041890536922331,31.9263,81.96756,175.3629,0.6384379,-0.1819315,0.7178947,9
7.8,-31.2602,1.410246,-36.4639,0.1133792819659476,-0.0037963919467056,-0.0051694398384682,35.36027,81.70239,174.8845,0.6328327,-0.2016839,0.7111003,9
7.82,-31.14494,1.577173,-36.46078,0.1624338130615359,0.0548638181633985,-0.0110132780772076,38.79159,81.38821,174.3635,0.6266525,-0.2212492,0.70366,9
7.84,-31.03378,1.268183,-36.48322,0.208268797759318,0.0432122048295917,-0.0191410343137068,8.071939,88.1948,177.5628,0.6950727,-0.03577164,0.7151734,9
7.86,-30.91172,1.435296,-36.4814,0.2534038001230412,0.0307934834885832,-0.027488446439273,11.62403,88.18453,177.5026,0.6936598,-0.057628,0.7128233,9
7.88,-30.79185,1.59876,-36.47961,0.2970846250872738,0.0853713239682348,-0.031217304476411,15.17512,88.17027,177.4409,0.691581,-0.07942288,0.7097889,9
7.9,-30.67439,1.758721,-36.47786,0.3371608534411363,0.1366904257527722,-0.0347510641916555,18.72515,88.1517,177.3773,0.6888388,-0.1011356,0.7060739,9
7.92,-30.65207,1.285422,-36.48581,0.3607399826276207,0.0939744916236635,-0.0390647922520699,353.3007,91.69083,178.7163,0.7157365,0.04872235,0.6958327,9
7.94,-30.52807,1.448922,-36.48351,0.3817362715768815,0.120835309744311,-0.0411835703777239,356.8779,91.67609,178.8886,0.7168895,0.0259338,0.6965873,9
7.96,-30.40651,1.608662,-36.48125,0.3893785583640574,0.0974067110591996,-0.043102791711612,0.4540353,91.67213,179.0596,0.7173423,0.00312621,0.6966615,9
7.98,-30.34089,1.282628,-36.48458,0.3933678496404011,0.073735053973446,-0.0442264768956954,353.7857,92.53262,179.7532,0.7214163,0.03902533,0.690374,9
8.0,-30.21747,1.444703,-36.48016,0.3932318868722255,0.0470041276826435,-0.0446005796971702,357.347,92.51056,180.039,0.7222396,0.01576097,0.6912557,9
8.02,-30.09656,1.603054,-36.47582,0.4006588888528051,0.1076181081555072,-0.0432750065344604,0.9073493,92.50624,180.323,0.7223608,-0.007511604,0.6914656,9
8.04,-30.07695,1.250381,-36.48329,0.3840999485498511,0.0702061619066258,-0.0433381207842318,359.4205,93.09907,181.3712,0.7259496,-0.005209271,0.6876253,9
8.06,-29.95459,1.415162,-36.48001,0.3637187862188824,0.0337132750679672,-0.0432418678694137,3.005466,93.10524,181.662,0.7254187,-0.02855839,0.6876554,9
8.08,-29.83459,1.576282,-36.47681,0.3567644711414148,0.0722692690454369,-0.0410006634519559,6.589622,93.12973,181.9544,0.7241736,-0.05187313,0.6870084,9
8.1,-29.71717,1.733897,-36.47367,0.3202484654574715,0.0374638925626137,-0.0380445882899298,10.17261,93.173,182.251,0.722216,-0.07513053,0.6856855,9
8.12,-29.81431,1.232007,-36.47041,0.2813083921239845,0.0040211900684908,-0.0349753867381261,8.273993,93.37988,182.8827,0.724282,-0.06772511,0.6852628,9
8.14,-29.6914,1.400794,-36.46797,0.2533775076591933,0.0439744869972714,-0.0317822904439113,11.90528,93.43126,183.1757,0.7217864,-0.09113868,0.6837531,9
8.16,-29.57063,1.565885,-36.46558,0.1956817278013383,0.00624314373159,-0.0276567236896623,15.53522,93.50266,183.4765,0.7185624,-0.1144533,0.6815532,9
8.18,-29.63981,1.199512,-36.45782,0.1356511850554125,-0.0289460963803132,-0.023603392885394,14.78526,93.61575,183.6673,0.7198144,-0.111156,0.6814119,9
8.2,-29.51991,1.37607,-36.45674,0.1004733868644067,0.0121154365005583,-0.0201004235136696,18.38252,93.69403,183.9414,0.7159806,-0.1339483,0.6787753,9
8.22,-29.40164,1.5491,-36.45567,0.0405530910084284,-0.0265809685197272,-0.0147700461012387,21.9783,93.79264,184.227,0.7114391,-0.1566007,0.6754674,9
8.24,-29.45454,1.168157,-36.44361,-0.0204975794498349,-0.0620054657381521,-0.0095157573942703,20.16645,91.84505,184.0684,0.7025352,-0.1468199,0.6889192,9
8.26,-29.3382,1.352915,-36.44316,-0.057298044761973,-0.0160548974374621,-0.0054473548372833,23.71489,91.89745,184.2085,0.6976616,-0.1685993,0.6854292,9
8.28,-29.22294,1.534339,-36.44271,-0.0947293758448348,0.0290802318950051,-0.001381928591595,27.26208,91.96117,184.3565,0.6921204,-0.1902103,0.6812825,9
8.3,-29.10897,1.712508,-36.44226,-0.1669195880128176,-0.0364850379101026,0.0047498716244103,30.80775,92.03764,184.5139,0.6859172,-0.2116298,0.6764846,9
8.32,-29.25179,1.138986,-36.42815,-0.2382937768309303,-0.0995307977116719,0.0108791547411657,26.32379,88.61572,183.9721,0.6741083,-0.1864178,0.7018923,9
8.34,-29.1389,1.331635,-36.42721,-0.2698937463653146,-0.0533474164095191,0.0151531960801589,29.81556,88.58572,183.9084,0.6681495,-0.2070488,0.6974114,9
8.36,-29.0266,1.521139,-36.42627,-0.3150947613269044,-0.0908525946257994,0.0207111285153285,33.30589,88.55001,183.8401,0.661573,-0.2274799,0.6922849,9
8.38,-29.05357,1.121773,-36.41375,-0.357578468292711,-0.1251831679743966,0.0260923371101995,34.75329,85.08893,183.2535,0.6387972,-0.238263,0.7085784,9
8.4,-28.94335,1.319677,-36.41241,-0.3726341366236956,-0.0724374008220108,0.0291972098476209,38.18027,84.89803,182.9324,0.6314323,-0.2575681,0.7027189,9
8.42,-28.83338,1.514574,-36.41107,-0.390683234794523,-0.1040163512927292,0.0307102794869988,41.6054,84.67177,182.5798,0.6235017,-0.2766367,0.6962289,9
8.44,-28.79031,1.115023,-36.41634,-0.4050780514892427,-0.1330356225231089,0.0318806183941173,43.29815,84.45399,181.7354,0.6204538,-0.2826098,0.6919305,9
8.46,-28.68213,1.315274,-36.4153,-0.4027932433396826,-0.0744299162643024,0.0323597471179342,46.66787,84.15034,181.306,0.6119078,-0.3009972,0.6845386,9
8.48,-28.57405,1.512625,-36.41427,-0.3964624869059756,-0.0166947598246131,0.0325035738935213,50.03484,83.78677,180.8196,0.6028311,-0.3191172,0.6765522,9
8.5,-28.46624,1.707089,-36.41324,-0.3954746985212227,-0.0751357851664408,0.0320727678203187,53.3985,83.34736,180.26,0.5932321,-0.3369544,0.6679788,9
8.52,-28.45676,1.109945,-36.41409,-0.3906518884275161,-0.1329742771824046,0.0312577494252988,50.71521,82.85166,178.7167,0.6014603,-0.3144041,0.6743546,9
8.54,-28.35068,1.309347,-36.41309,-0.3621594603726636,-0.0761380098606409,0.0309645133626945,54.0192,82.33582,178.0656,0.5921582,-0.3319207,0.6655363,9
8.56,-28.24474,1.505963,-36.41208,-0.3089775667977816,-0.1031726943399401,0.0306172753264499,57.31818,81.70525,177.3023,0.5823595,-0.3491528,0.6561592,9
8.58,-28.03383,1.104483,-36.41019,-0.2527760314529863,-0.1299402024442633,0.0298454288671079,61.2391,76.77437,171.172,0.5635302,-0.3569214,0.6481988,9
8.6,-27.9299,1.295611,-36.40976,-0.1992009734902931,-0.0693176604070789,0.0287792497192302,64.42337,75.25639,169.4665,0.5531355,-0.3729697,0.6373873,9
8.62,-27.82657,1.484087,-36.40934,-0.1219170272201819,-0.0817656912181541,0.0281517723513085,67.58143,73.29005,167.3149,0.5422921,-0.388706,0.6260592,9
8.64,-27.57797,1.144418,-36.40372,-0.0431948560310671,-0.0948796242276744,0.0274259704735673,58.36541,71.14866,167.8082,0.547159,-0.3404125,0.6759826,9
8.66,-27.47354,1.326349,-36.4018,0.0139541504172489,-0.0270604204055211,0.0260307444289926,61.42642,69.36157,165.7432,0.5375302,-0.3560486,0.6654621,9
8.68,-27.37024,1.505607,-36.3999,0.0706067674207959,0.0389029211884925,0.0244246989015328,64.44858,67.12516,163.2328,0.5274772,-0.3713979,0.6544155,9
8.7,-27.26821,1.682261,-36.39802,0.1298101586336901,0.0100795632102025,0.0192939331121984,67.41631,64.27066,160.1077,0.5170106,-0.3864479,0.6428527,9
8.72,-27.14055,1.212116,-36.40757,0.1899188873820243,-0.0208464386132801,0.0142900332361719,43.01954,78.6355,173.9652,0.6036067,-0.2522408,0.7065366,9
8.74,-27.03061,1.386287,-36.40414,0.2431482648600393,0.04340976850372,0.0090270828977843,46.25959,78.07891,173.1734,0.5963639,-0.2700773,0.6982805,9
8.76,-26.92226,1.557493,-36.40078,0.2955733623097796,0.0382366030432557,-0.0009434349992343,49.49264,77.41784,172.2824,0.5886323,-0.2876871,0.6894516,9
8.78,-26.79634,1.257275,-36.43393,0.3484651152200801,0.0320901233753014,-0.0110989545489408,19.99288,85.30653,176.5834,0.670783,-0.1077188,0.7204739,9
8.8,-26.67537,1.425478,-36.43157,0.3920624175545568,0.0915465160448374,-0.0168503789203828,23.52441,85.21748,176.3433,0.6672224,-0.1288099,0.7157695,9
8.82,-26.55648,1.590079,-36.42925,0.4327016887917687,0.0805577224481734,-0.0240997120775992,27.05655,85.109,176.0894,0.6630238,-0.1497822,0.7103813,9
8.84,-26.4515,1.27575,-36.44178,0.4707917133852843,0.0688699429049429,-0.0313829643891132,358.3635,90.51621,178.1852,0.7099644,0.02129878,0.703915,9
8.86,-26.32855,1.441436,-36.44036,0.5061674439908743,0.1244589302445688,-0.0348971913115212,1.928859,90.51643,178.2586,0.7102839,-0.001054395,0.7035505,9
8.88,-26.20788,1.603423,-36.43896,0.5364384896562333,0.1767359098557221,-0.0380905994587204,5.493183,90.52121,178.3321,0.7099156,-0.02339935,0.7025049,9
8.9,-26.08972,1.761861,-36.4376,0.5496183656107188,0.1352242821081393,-0.0417914387031252,9.056507,90.53068,178.4067,0.7088607,-0.04571588,0.7007802,9
8.92,-26.06173,1.293865,-36.44306,0.5591028940178453,0.0917618025649233,-0.0447245104226192,352.8324,92.23004,179.2585,0.7190279,0.04798525,0.6921343,9
8.94,-25.93692,1.455378,-36.43945,0.5783010951057834,0.1379805233233499,-0.0454855516895413,356.4163,92.20721,179.5023,0.7201414,0.02480873,0.6931089,9
8.96,-25.88104,1.26973,-36.43928,0.5752033607178326,0.1081338823485718,-0.0473673677980244,354.0966,92.7327,180.0023,0.7228072,0.03551884,0.6891286,9
8.98,-25.75924,1.433108,-36.43493,0.567732737870259,0.0784945555946523,-0.0486090336550866,357.632,92.7114,180.2978,0.7235186,0.01238088,0.6899908,9
9.0,-25.63985,1.592858,-36.43067,0.5634412790270402,0.1185872163741516,-0.0484160874615176,1.166584,92.70834,180.5917,0.7235366,-0.01076263,0.6901917,9
9.02,-25.52309,1.749137,-36.4265,0.5401895775005023,0.0855695277120814,-0.0478942734297849,4.700034,92.72345,180.8863,0.7228619,-0.03388902,0.6897317,9
9.04,-25.53597,1.240683,-36.43421,0.5127263997149809,0.0535251193306372,-0.0472225557725511,3.999404,93.43422,182.0724,0.7269827,-0.03707661,0.6855308,9
9.06,-25.41323,1.407116,-36.43137,0.4954084940237639,0.0957378489988082,-0.0446799737016903,7.610635,93.46498,182.376,0.725457,-0.06054195,0.6847495,9
9.08,-25.29276,1.56986,-36.42858,0.4728628696726029,0.1357675320070864,-0.0418284798144004,11.2213,93.51547,182.6844,0.7232059,-0.08394222,0.6832839,9
9.1,-25.35266,1.226258,-36.42289,0.410068807285199,0.0753382657509329,-0.0380138125110276,10.349,93.39208,183.165,0.722775,-0.08184955,0.6846256,9
9.12,-25.23036,1.396688,-36.42109,0.3442525517590038,0.0161440302508544,-0.0341612901942474,13.97283,93.45045,183.4418,0.7198389,-0.1050448,0.6827608,9
9.14,-25.11009,1.563456,-36.4193,0.3068564060907341,0.0536807734740056,-0.0303108763122024,17.59525,93.52821,183.7274,0.7161801,-0.1281274,0.6802103,9
9.16,-25.17542,1.190851,-36.41203,0.2403579644133198,0.0126260796836666,-0.0251188485429105,16.09831,93.65528,183.7755,0.7185662,-0.1195382,0.6804512,9
9.18,-25.05647,1.36951,-36.41142,0.171805978432304,-0.0253895342992053,-0.0200398717702938,19.68196,93.7361,184.0383,0.7144796,-0.1421129,0.6775976,9
9.2,-24.93901,1.544693,-36.41081,0.1290323312788626,0.0158383148420769,-0.0158863975993766,23.26422,93.83677,184.3132,0.7096921,-0.1645418,0.6740793,9
9.22,-24.98241,1.160732,-36.39776,0.0622789823288472,-0.0242687165349621,-0.0097897605227368,21.59015,91.11914,184.0991,0.6962051,-0.156138,0.6921194,9
9.24,-24.86695,1.347622,-36.39744,-0.005031428609461,-0.0609103432904434,-0.0037434714278283,25.12502,91.15369,184.1861,0.6910663,-0.177601,0.6884124,9
9.26,-24.75244,1.531227,-36.39713,-0.047751385642289,-0.014618875194461,0.0006098910929059,28.65875,91.1954,184.2783,0.6852713,-0.198888,0.6840516,9
9.28,-24.63908,1.711614,-36.39682,-0.0903142064589346,0.0310310136950577,0.0049195059493394,32.19105,91.24532,184.3768,0.678827,-0.2199776,0.6790422,9
9.3,-24.76555,1.132716,-36.38195,-0.1634953435332811,-0.0352142826792413,0.0112218889003194,28.0479,87.72846,183.9417,0.6658919,-0.1977318,0.7048559,9
9.32,-24.65347,1.327116,-36.3809,-0.235262211824899,-0.0990677307881889,0.0174737139686316,31.52366,87.6671,183.8182,0.659627,-0.218044,0.7001133,9
9.34,-24.54185,1.518413,-36.37986,-0.2675174059337339,-0.0515078844837396,0.0216302801106769,34.99824,87.59415,183.6852,0.6527569,-0.2381494,0.6947277,9
9.36,-24.54271,1.118725,-36.36899,-0.3089211770932785,-0.0881547193556908,0.0250043016932908,37.41862,84.54911,183.0053,0.630695,-0.2539715,0.7062481,9
9.38,-24.43307,1.317445,-36.36789,-0.3470562001901087,-0.1219089237595707,0.0280903595851986,40.82925,84.30669,182.6213,0.622887,-0.2729106,0.699962,9
9.4,-24.32362,1.51319,-36.36678,-0.3613688170600229,-0.0682499336458236,0.029156578999844,44.23752,84.01886,182.1957,0.6145253,-0.2916008,0.6930531,9
9.42,-24.26196,1.114523,-36.37406,-0.3750096871436499,-0.0993064558028949,0.0296798160751441,44.70727,84.4333,181.1116,0.6186811,-0.2876851,0.6874024,9
9.44,-24.15425,1.315055,-36.37298,-0.384792430980585,-0.1280919741034416,0.0298126080521994,48.06305,84.11567,180.673,0.6100299,-0.3059505,0.6797036,9
9.46,-24.04662,1.512712,-36.37191,-0.3809606271834109,-0.0692843179237704,0.0305385966990323,51.41596,83.73421,180.1733,0.6008538,-0.3239464,0.6714197,9
9.48,-23.93925,1.707506,-36.37083,-0.3729919793763594,-0.0114447916524686,0.0309615790315582,54.76545,83.27139,179.5948,0.5911616,-0.3416575,0.6625583,9
9.5,-23.89647,1.107146,-36.37141,-0.3583797180359909,-0.0703464544629547,0.030919176447484,53.33436,82.24152,177.6643,0.5944621,-0.3260496,0.6670375,9
9.52,-23.79099,1.305533,-36.37072,-0.3405152762520269,-0.1294149671109081,0.0304678797473041,56.61949,81.60767,176.8906,0.5848417,-0.343234,0.6577643,9
9.54,-23.68572,1.50117,-36.37003,-0.3049294201221735,-0.0737039858757179,0.0298921382782033,59.89758,80.82405,175.9695,0.5747355,-0.3601237,0.647945,9
9.56,-23.43878,1.109135,-36.36721,-0.2456967472832056,-0.0967196706252336,0.0296387654252274,62.66034,73.40762,167.8212,0.5518702,-0.3603686,0.6479999,9
9.58,-23.33504,1.297797,-36.36687,-0.1838935429765382,-0.1200752560409993,0.0291225681744489,65.77688,71.38349,165.5741,0.5414137,-0.3760083,0.6368274,9
9.6,-23.23205,1.483819,-36.36653,-0.1355640632553019,-0.057749821755708,0.0282040274340138,68.8502,68.74395,162.7143,0.5305214,-0.3913366,0.6251425,9
9.62,-22.9794,1.161811,-36.36079,-0.0674400286930798,-0.0646007826656202,0.0270560065782499,55.75893,71.63141,168.7676,0.5518863,-0.3267476,0.6865647,9
9.64,-22.8744,1.341578,-36.35857,0.0014769863664798,-0.0721093775570914,0.025983682898155,58.82313,70.08672,166.9325,0.5426914,-0.3425283,0.6764794,9
9.66,-22.77065,1.518641,-36.35637,0.0490441388555726,-0.0046131890176177,0.0241860199793446,61.85544,68.18424,164.744,0.5330709,-0.3580345,0.6658627,9
9.68,-22.66829,1.693076,-36.3542,0.0952752702496368,-0.0067188199690627,0.0177316438164369,64.8445,65.80278,162.0804,0.523035,-0.3732554,0.6547232,9
9.7,-22.54414,1.228924,-36.37539,0.1425511451815144,-0.0096941009923118,0.0112459941092781,37.76155,80.31084,174.7411,0.6208697,-0.2190742,0.7128394,9
9.72,-22.43028,1.400829,-36.37209,0.1904863810237591,-0.0166826284858374,0.004695718007964,41.1041,79.91318,174.1153,0.6143534,-0.237875,0.7052255,9
9.74,-22.31821,1.569555,-36.36883,0.2334657988969843,-0.0004232260750064,-0.0038463392245935,44.44195,79.44261,173.4226,0.6073055,-0.2564644,0.6970011,9
9.76,-22.20623,1.263634,-36.39722,0.2759511268129895,0.0160786399025664,-0.0126144796023153,13.86033,86.90516,177.1764,0.6846802,-0.07074422,0.7183769,9
9.78,-22.08481,1.431359,-36.39527,0.317496347297316,0.0298024920136496,-0.0216356578480327,17.39844,86.86725,177.0357,0.6822182,-0.09221616,0.7148877,9
9.8,-21.96553,1.595464,-36.39336,0.3547837230937145,0.1080807849200414,-0.0254712492884392,20.93661,86.81913,176.8891,0.6791044,-0.1135998,0.7107161,9
9.82,-21.84621,1.279283,-36.40189,0.3742373969019605,0.0926331226780872,-0.0304919969371084,354.4269,91.44013,178.41,0.7145509,0.04386036,0.6977549,9
9.84,-21.72297,1.444144,-36.40051,0.3912752406063635,0.0764602969146433,-0.0352263821403502,357.9933,91.43156,178.5397,0.7155613,0.02134684,0.6982141,9
9.86,-21.60207,1.60529,-36.39915,0.4071637355095361,0.1280131437470136,-0.0374762781751032,1.558663,91.43109,178.6689,0.715878,-0.001181165,0.6979962,9
9.88,-21.48374,1.762876,-36.39783,0.4108595319880583,0.1080690449396459,-0.0399961181088208,5.122988,91.43866,178.7984,0.7155008,-0.0237012,0.6971023,9
9.9,-21.44924,1.296033,-36.40231,0.4109588031944473,0.0874868220685876,-0.0416786687168215,353.4678,92.41769,179.4955,0.720514,0.04260012,0.6910822,9
9.92,-21.32441,1.456933,-36.39807,0.4069908344386621,0.0634408475682247,-0.0425629938712042,357.0472,92.3951,179.7686,0.7214537,0.01929085,0.6919804,9
9.94,-21.20219,1.614025,-36.39392,0.3976547197877647,0.0549052578584811,-0.0432853388070153,0.6256486,92.38962,180.0399,0.7216855,-0.004030921,0.6921997,9
9.96,-21.20111,1.254644,-36.40253,0.3842138562839223,0.0476833311826622,-0.0436045400589684,357.4329,92.9912,181.1435,0.7252575,0.008184202,0.6880413,9
9.98,-21.07948,1.419074,-36.39921,0.3761581740737587,0.0905064945098467,-0.0430545778668305,0.9898,92.98733,181.4267,0.7251411,-0.0149757,0.6884339,9
10.0,-20.96021,1.579888,-36.39596,0.363341935853708,0.130784985065927,-0.0422833037091425,4.54568,93.00106,181.7105,0.724322,-0.03811427,0.6881592,9
10.02,-20.93627,1.237743,-36.39242,0.3153072171905067,0.0731165354396946,-0.0412236623367112,6.17826,93.51398,182.5911,0.7263755,-0.05335617,0.6848114,9
10.04,-20.81289,1.404945,-36.38985,0.2650072737181164,0.0157197269124678,-0.0401209355591607,9.813126,93.55627,182.8949,0.7243259,-0.07689454,0.6836725,9
10.06,-20.69175,1.568423,-36.38732,0.2311096723645822,0.0549191787537124,-0.0372394455255058,13.44673,93.61891,183.2053,0.7215435,-0.1003489,0.6818414,9
10.08,-20.57308,1.728322,-36.38485,0.1670619386363174,0.0173779816014427,-0.0332567828389045,17.07959,93.70314,183.525,0.7180308,-0.1236979,0.6793207,9
10.1,-20.70127,1.208623,-36.3776,0.1010935314015144,-0.0179145801218922,-0.0292696685364033,13.45837,93.74564,183.5461,0.721985,-0.1024917,0.6812319,9
10.12,-20.58043,1.383088,-36.37644,0.0595396929793818,0.0215330441665224,-0.0257281844622054,17.06788,93.82036,183.8297,0.7184076,-0.1254505,0.6788244,9
10.14,-20.46135,1.553973,-36.37529,-0.0080716903748485,-0.0181651343891976,-0.0204655108505074,20.67591,93.9158,184.1245,0.7141148,-0.1482775,0.6757404,9
10.16,-20.52566,1.175699,-36.36535,-0.0764735791074384,-0.0547147590261347,-0.0152970108479983,18.74952,92.77539,184.0555,0.7099308,-0.1375642,0.6843094,9
10.18,-20.40842,1.35841,-36.36512,-0.1184404145688218,-0.0107508054634427,-0.0110437411463868,22.31042,92.84353,184.2496,0.7053134,-0.1596259,0.6810519,9
10.2,-20.29241,1.537739,-36.3649,-0.1606146614053158,0.0322818731328004,-0.00675713915669,25.87005,92.92696,184.4539,0.700015,-0.181527,0.6771364,9
10.22,-20.3362,1.145436,-36.3511,-0.2395237250700903,-0.0343771603319402,-0.0003846098420501,24.61348,89.7049,184.0524,0.6833032,-0.1753728,0.6975167,9
10.24,-20.2225,1.336343,-36.35063,-0.2930483022565613,-0.0151701131566353,0.0041200125219456,28.12044,89.70325,184.0486,0.6776333,-0.1962887,0.6933197,9
10.26,-20.10948,1.52406,-36.35015,-0.344106505164266,0.0055067545301345,0.0085631998446613,31.62596,89.70131,184.0447,0.6713316,-0.2170128,0.6884755,9
10.28,-19.99735,1.708636,-36.34967,-0.4126747272063353,-0.0583226969187246,0.0146554289990596,35.13052,89.699,184.0404,0.6644037,-0.2375281,0.6829886,9
10.3,-20.10141,1.124838,-36.33484,-0.478312863264412,-0.1199486348980179,0.0206576525795014,32.09737,85.83684,183.5341,0.6478637,-0.2225372,0.7092537,9
10.32,-19.99061,1.321923,-36.33366,-0.5054417174976606,-0.069232473818744,0.0243899821231625,35.5403,85.69057,183.2713,0.6409252,-0.2421632,0.7038506,9
10.34,-19.88011,1.51597,-36.33248,-0.5376052319644742,-0.1028242835137079,0.0268997836458178,38.98159,85.51723,182.9851,0.6334083,-0.261564,0.6978117,9
10.36,-19.85581,1.115578,-36.33517,-0.5652146251139702,-0.1337303748938328,0.0291006844897943,41.87675,84.67654,182.3604,0.6234574,-0.2770568,0.6951809,9
10.38,-19.74715,1.315538,-36.33458,-0.5717145746520502,-0.0771268117676732,0.0295165978686817,45.26054,84.38635,181.9395,0.6150078,-0.2955311,0.6881179,9
10.4,-19.63861,1.512573,-36.33397,-0.5730298061181185,-0.0213736783732374,0.0295249253718754,48.64161,84.03975,181.4654,0.6060202,-0.3137405,0.6804522,9
10.42,-19.55467,1.112934,-36.33407,-0.5833652442878832,-0.0812595603080892,0.028895624863324,48.08454,83.45793,179.5377,0.6090848,-0.3015964,0.680457,9
10.44,-19.44795,1.313352,-36.33311,-0.5812499428091693,-0.0516109673220058,0.0291188096603551,51.40618,83.02853,178.9753,0.6001045,-0.3194026,0.6721031,9
10.46,-19.34132,1.510949,-36.33216,-0.5734554674735912,-0.0209528432857312,0.0290102779619676,54.72374,82.50841,178.3248,0.5906166,-0.3369322,0.6631804,9
10.48,-19.23493,1.705735,-36.33122,-0.5454174383708408,-0.0768139937354429,0.0286425501554878,58.03625,81.87001,177.5585,0.5806298,-0.3541703,0.6536973,9
10.5,-19.10923,1.102168,-36.33142,-0.5133028711174592,-0.1332894809757727,0.0278517457752025,59.69306,79.86182,174.0527,0.5757757,-0.3522346,0.6476426,9
10.52,-19.00497,1.295821,-36.33127,-0.4677122849315067,-0.0748792667961577,0.0268906816504994,62.92685,78.75478,172.7913,0.5654421,-0.3686441,0.6372132,9
10.54,-18.90119,1.486801,-36.33113,-0.3971791011162877,-0.0924541397032076,0.0262471832629973,66.14529,77.3332,171.2173,0.5546465,-0.3847426,0.6262636,9
10.56,-18.65763,1.128896,-36.32601,-0.3234202614973132,-0.110655873982863,0.0254362900663149,60.95363,70.70512,166.7071,0.5431904,-0.3531707,0.6642281,9
10.58,-18.55366,1.313062,-36.32475,-0.2680018293057333,-0.044999906615706,0.02412796905715,64.00725,68.61163,164.3474,0.5331103,-0.368619,0.6532964,9
10.6,-18.45069,1.494579,-36.32351,-0.2110185110424614,0.01894138705678,0.0226667809623464,67.01233,65.94137,161.4142,0.5226068,-0.3837678,0.6418453,9
10.62,-18.21831,1.195574,-36.32251,-0.1489330026629725,-0.0129743713380215,0.0194313189238455,48.29018,77.02935,173.1667,0.5862998,-0.2856258,0.6975447,9
10.64,-18.11217,1.371977,-36.31938,-0.1070045251207869,0.0289697865843402,0.0155394731430424,51.42522,76.26131,172.1623,0.5783403,-0.3024558,0.6887511,9
10.66,-18.00746,1.545616,-36.31629,-0.0648327302713802,0.0703987960758098,0.0114487311162694,54.54946,75.34123,171.0105,0.569932,-0.3190449,0.679423,9
10.68,-17.90414,1.239181,-36.34451,-0.0200142715551745,0.0420798493610355,0.0019457939578924,32.04912,82.13042,175.3453,0.6393232,-0.1823189,0.7167041,9
10.7,-17.78406,1.408608,-36.34171,0.0266342605167408,0.0116398264038551,-0.0076536582774595,35.56895,81.85477,174.8501,0.6335341,-0.2025122,0.7097189,9
10.72,-17.666,1.574495,-36.33895,0.071237769411302,0.0713562670370698,-0.0138815606222282,39.08662,81.5266,174.3091,0.6271385,-0.2225112,0.7020552,9
10.74,-17.55863,1.267936,-36.36174,0.1128164532648283,0.0607636219358944,-0.0223394355359589,8.130659,88.36431,177.5598,0.6961132,-0.03602555,0.7141092,9
10.76,-17.43573,1.43478,-36.3603,0.1539842228116072,0.0494049455771105,-0.0309580012759971,11.7078,88.35377,177.4985,0.6946734,-0.05799828,0.7117305,9
10.78,-17.31505,1.597926,-36.35888,0.1940197337870215,0.1050458048657826,-0.035021666066255,15.28394,88.3391,177.4356,0.692557,-0.0799084,0.7086591,9
10.8,-17.19682,1.757521,-36.35749,0.2307614824907122,0.1574341299632844,-0.0388381051059241,18.85901,88.32001,177.3705,0.6897671,-0.1017343,0.7048985,9
10.82,-17.17657,1.285314,-36.36552,0.2513003139295173,0.1157913317028747,-0.0433430753059891,353.3146,91.86566,178.7147,0.7168026,0.04859623,0.6947442,9
10.84,-17.05233,1.448737,-36.36361,0.2696848219976757,0.1437357912830407,-0.0456892756598836,356.8989,91.85098,178.8869,0.7179562,0.025797,0.6954947,9
10.86,-16.93053,1.608388,-36.36173,0.284459796068452,0.1699340253554497,-0.0473139809630858,0.4821751,91.8471,179.0579,0.7184057,0.002979325,0.6955631,9
10.88,-16.86544,1.282699,-36.36528,0.279554438313937,0.1202686945162553,-0.0494810157704765,353.7856,92.7086,179.7516,0.722475,0.03897796,0.6892658,9
10.9,-16.74192,1.444741,-36.36124,0.2716599318444104,0.0696380726590941,-0.0508502089433697,357.3491,92.68653,180.0373,0.7233003,0.01573271,0.6901461,9
10.92,-16.62092,1.603055,-36.35728,0.2725216579370593,0.1083637495386055,-0.0505930390230764,0.9116386,92.68223,180.3214,0.7234216,-0.007521392,0.6903552,9
10.94,-16.60165,1.250395,-36.36483,0.2545794807952708,0.0734824498723718,-0.0507081341990955,359.4124,93.27672,181.3703,0.7270151,-0.005173222,0.6864983,9
10.96,-16.47927,1.415168,-36.36194,0.2333751473407914,0.0394809170805993,-0.0506217817603182,2.997787,93.28287,181.6612,0.7264859,-0.02849327,0.6865306,9
10.98,-16.35924,1.576279,-36.3591,0.226221051862699,0.0804788758142232,-0.0484708219470002,6.582354,93.30731,181.9536,0.7252411,-0.05177809,0.6858869,9
11.0,-16.2418,1.733885,-36.35632,0.215225611085011,0.119151120451595,-0.0459861605739764,10.16573,93.35056,182.2503,0.7232828,-0.0750057,0.684568,9
11.02,-16.33927,1.232045,-36.35282,0.1661070815849836,0.0585551411791962,-0.042597801463958,8.26008,93.56024,182.8808,0.7253693,-0.06757437,0.6841252,9
11.04,-16.21635,1.400821,-36.35077,0.1293945262631923,0.0737415613346325,-0.0391665505718323,11.89154,93.61156,183.1738,0.7228742,-0.0909563,0.6826217,9
11.06,-16.09556,1.565898,-36.34876,0.0902224608556012,0.0892830799353781,-0.0355764414181418,15.52166,93.68292,183.4747,0.7196496,-0.1142398,0.6804291,9
11.08,-16.165,1.199568,-36.3408,0.0207864024582005,0.0259303592835288,-0.030741570152581,14.77698,93.79758,183.6666,0.7209037,-0.1109886,0.680273,9
11.1,-16.0451,1.376112,-36.3401,-0.0500063946970363,-0.0354050396475711,-0.0259925818328623,18.37436,93.87582,183.9408,0.7170673,-0.1337485,0.677644,9
11.12,-15.92681,1.549127,-36.3394,-0.0858169794676997,0.0037328318494599,-0.0220568633038453,21.97028,93.97442,184.2265,0.712522,-0.1563694,0.6743446,9
11.14,-15.98006,1.16821,-36.32721,-0.1464656140056563,-0.0376689027557544,-0.016103056615357,20.15623,92.03399,184.0683,0.7036835,-0.1465912,0.6877683,9
11.16,-15.86371,1.352953,-36.32713,-0.2068659758579385,-0.0757219212786235,-0.0102187040453216,23.70474,92.08652,184.2088,0.6988066,-0.168339,0.6842878,9
11.18,-15.74845,1.534362,-36.32704,-0.2400875064633456,-0.0316509078951608,-0.0057188708524114,27.25207,92.15038,184.3572,0.6932602,-0.1899188,0.6801516,9
11.2,-15.63447,1.712515,-36.32696,-0.272347074224827,0.0116656495458494,-0.0012210981168436,30.79784,92.22703,184.515,0.6870511,-0.2113068,0.675365,9
11.22,-15.77763,1.139029,-36.31242,-0.3376165117910965,-0.0563277977714707,0.0053992806543128,26.31205,88.80668,183.9725,0.6752952,-0.1861248,0.7007827,9
11.24,-15.66474,1.331667,-36.31184,-0.3767251253937733,-0.0366299094789281,0.0099779578253462,29.8039,88.77689,183.9092,0.6693312,-0.2067238,0.6963134,9
11.26,-15.55243,1.521158,-36.31126,-0.4123644891588294,-0.0154331392308011,0.0144010049272811,33.29432,88.74146,183.8415,0.6627486,-0.2271233,0.6911993,9
11.28,-15.57979,1.121793,-36.29864,-0.4603431111215539,-0.0793240220369584,0.0190630933519955,34.73627,85.27822,183.2553,0.6399961,-0.2378688,0.7075549,9
11.3,-15.46956,1.319691,-36.29765,-0.5046974546084748,-0.1413431728955072,0.0235139707641218,38.16341,85.08764,182.9346,0.6326244,-0.2571428,0.7017099,9
11.32,-15.35958,1.514582,-36.29667,-0.5133798868151445,-0.0900290851760551,0.0256038133863087,41.58868,84.86177,182.5824,0.6246861,-0.2761803,0.6952356,9
11.34,-15.31689,1.115027,-36.30208,-0.5236475286564559,-0.1232908957089065,0.026575319446132,43.28938,84.64103,181.7392,0.6215928,-0.2821902,0.690945,9
11.36,-15.2087,1.315275,-36.3014,-0.5290561674643779,-0.1541990549143197,0.0271720415969305,46.65925,84.33748,181.3099,0.6130354,-0.3005459,0.6835688,9
11.38,-15.10062,1.512624,-36.30072,-0.5169902475657291,-0.097429654102165,0.0279679350069219,50.02636,83.97408,180.8237,0.6039463,-0.3186348,0.6755987,9
11.4,-14.99281,1.707085,-36.30004,-0.4996854362736551,-0.0416231210216707,0.0284970039046843,53.39009,83.53485,180.2643,0.5943339,-0.3364408,0.6670429,9
11.42,-14.98382,1.109965,-36.30095,-0.4820575238536431,-0.1024561399317874,0.0285419818462351,50.69795,83.04315,178.7228,0.6026114,-0.3138472,0.6734134,9
11.44,-14.87773,1.309373,-36.30029,-0.4560364245992501,-0.0740347052983179,0.0283512725982726,54.00212,82.52798,178.0724,0.5932969,-0.3313347,0.6646132,9
11.46,-14.77178,1.505996,-36.29963,-0.4251312609818087,-0.0449654742747004,0.027777332851345,57.30117,81.89838,177.3101,0.5834852,-0.3485378,0.6552551,9
11.48,-14.56118,1.104465,-36.29845,-0.3709841309632795,-0.0985499457429778,0.0272209596811805,61.23157,76.97952,171.1878,0.5646579,-0.3562953,0.6472682,9
11.5,-14.45724,1.295606,-36.29837,-0.3135850309162169,-0.1535274779336629,0.0263125850058862,64.41618,75.46383,169.4847,0.5542456,-0.3723155,0.6364756,9
11.52,-14.35391,1.484095,-36.29828,-0.2561612088081717,-0.0938739995646941,0.0252212023097131,67.57463,73.50059,167.3365,0.5433837,-0.3880244,0.6251673,9
11.54,-14.10555,1.144328,-36.29351,-0.1774592096248206,-0.10528247876213,0.0242528413387743,58.37959,71.33598,167.8026,0.5482541,-0.3398919,0.6750144,9
11.56,-14.00112,1.326271,-36.29193,-0.096732975693619,-0.1173736348508958,0.0233067221694938,61.44058,69.54745,165.7363,0.5386056,-0.3554965,0.6645074,9
11.58,-13.89781,1.505541,-36.29038,-0.0353208009524599,-0.0514085896313533,0.0216198099031856,64.46264,67.30894,163.2238,0.5285319,-0.3708142,0.6534755,9
11.6,-13.79578,1.682207,-36.28885,0.0261052331700506,0.0125676334621159,0.0197133882501336,67.43027,64.45157,160.0959,0.5180438,-0.3858337,0.6419277,9
11.62,-13.66849,1.212001,-36.29877,0.1002186847779036,-0.0165907706421422,0.0119063865334174,43.05581,78.81569,173.9599,0.6046669,-0.2520192,0.7054746,9
11.64,-13.55856,1.386186,-36.29572,0.1561517358500024,0.0235755071506857,0.0041999060052964,46.29525,78.2579,173.1669,0.5974054,-0.269817,0.6972262,9
11.66,-13.45023,1.557408,-36.29271,0.2111314144289264,0.0624235862475735,-0.0037525554316104,49.52762,77.59535,172.2744,0.5896542,-0.2873881,0.6884062,9
11.68,-13.32459,1.257228,-36.32636,0.2647446084153453,0.0969739426253029,-0.0119917271500433,20.03495,85.48946,176.5796,0.6719005,-0.1077408,0.7193434,9
11.7,-13.20361,1.425435,-36.3244,0.3035509550694308,0.105973300071042,-0.0187379129051015,23.56645,85.39996,176.3387,0.6683242,-0.1287924,0.7146369,9
11.72,-13.08472,1.590039,-36.32248,0.3400507779814512,0.1157865850260349,-0.0255307480995128,27.09855,85.291,176.0841,0.6641091,-0.1497255,0.7092477,9
11.74,-12.98027,1.275721,-36.33544,0.373732784731523,0.1235263463522547,-0.0323918533990994,358.3949,90.70489,178.1834,0.7111279,0.02111902,0.7027447,9
11.76,-12.85732,1.441414,-36.33444,0.4056179553159509,0.1303014307710347,-0.0364700544801852,1.96019,90.70514,178.2564,0.7114411,-0.001195563,0.702373,9
11.78,-12.73665,1.603408,-36.33345,0.4338116770296161,0.1372352869207847,-0.0399790218817903,5.524496,90.70992,178.3296,0.7110655,-0.02350258,0.7013218,9
11.8,-12.61849,1.761853,-36.33249,0.4577430235337634,0.1415022252079885,-0.0429472653080642,9.087781,90.71938,178.4037,0.7100022,-0.04578034,0.6995923,9
11.82,-12.59073,1.29385,-36.33809,0.4686006732621577,0.0700525930660176,-0.0459707298475571,352.8285,92.42694,179.2571,0.720214,0.04794779,0.690897,9
11.84,-12.46591,1.455368,-36.33492,0.4897860656734665,0.0906555626433873,-0.046843214012032,356.4123,92.4041,179.5007,0.7213301,0.02480881,0.6918702,9
11.86,-12.34365,1.613077,-36.33181,0.5057277315990301,0.1101407719010344,-0.0470201717420684,-0.004773475,92.39655,179.7424,0.7217376,0.001651569,0.6921633,9
11.88,-12.3339,1.262075,-36.33747,0.5159091092456229,0.125810939888706,-0.0465450148602828,355.7492,93.04851,180.5732,0.7252851,0.02188955,0.6874309,9
11.9,-12.21204,1.425923,-36.33403,0.5035731859045678,0.1146123291081549,-0.0465823352685408,359.2991,93.03603,180.8625,0.7255883,-0.001253031,0.6880608,9
11.92,-12.09259,1.586142,-36.33067,0.4871359123085346,0.1049652144252402,-0.0463786635592322,2.848082,93.04144,181.1514,0.7251907,-0.02438769,0.6880261,9
11.94,-12.07416,1.2406,-36.33235,0.4660890862095828,0.0940679027351921,-0.0459751420534795,3.996434,93.60253,182.0658,0.7279919,-0.03699777,0.6844618,9
11.96,-11.951,1.406899,-36.32999,0.4344486375559011,0.0840019733267154,-0.0428760934279273,7.620409,93.633,182.3665,0.7264598,-0.06048953,0.6836795,9
11.98,-11.83012,1.569483,-36.32767,0.3993547201116029,0.0762490598571838,-0.0395805465687928,11.24381,93.68311,182.6719,0.7241965,-0.0839162,0.6822092,9
12.0,-11.71177,1.728512,-36.32541,0.3603253589801517,0.0679364473566439,-0.0361111108188341,14.86588,93.7539,182.9851,0.7212051,-0.1072519,0.6800528,9
12.02,-11.8351,1.217353,-36.31894,0.2939074794708826,-0.0194574271821534,-0.0316261506152066,11.90114,93.74602,183.3583,0.7235195,-0.09211126,0.6818594,9
12.04,-11.71346,1.389757,-36.31775,0.2563846316121144,-0.0073441469220898,-0.0273507427774628,15.51981,93.81316,183.6413,0.7202578,-0.1151872,0.6797247,9
12.06,-11.59372,1.558536,-36.31657,0.2158803020814981,0.0060026453527972,-0.0230871408033461,19.13709,93.90048,183.9343,0.7162748,-0.1381408,0.6769092,9
12.08,-11.66934,1.18313,-36.30761,0.1719732049754087,0.0177095287196029,-0.0188369133819605,17.41654,93.38937,183.9169,0.7153512,-0.1283673,0.6813484,9
12.1,-11.55124,1.363792,-36.30752,0.1167578533431387,0.001773753131765,-0.0136695699771776,20.98962,93.46491,184.1464,0.7109951,-0.1506638,0.6782972,9
12.12,-11.43449,1.541026,-36.30744,0.0611254955613752,-0.0103064331849825,-0.0085463503450897,24.56135,93.55815,184.3871,0.7059467,-0.1728072,0.6745853,9
12.14,-11.48857,1.153057,-36.29343,0.004713590093247,-0.0216155027270026,-0.0034583384028277,23.07665,90.56375,184.0496,0.6908097,-0.1652513,0.6939916,9
12.16,-11.37399,1.341928,-36.29337,-0.0511170915471741,-0.0344254864095522,0.002081874099332,26.59803,90.58095,184.0905,0.6854079,-0.1864111,0.6900449,9
12.18,-11.26023,1.527563,-36.29331,-0.1057258415426933,-0.0430475167165245,0.0075680289397999,30.11797,90.60158,184.1339,0.6793615,-0.2073862,0.6854488,9
12.2,-11.14747,1.710018,-36.29325,-0.1594273295955707,-0.050705403264745,0.0130052656960266,33.63691,90.62622,184.1805,0.672676,-0.2281597,0.6802073,9
12.22,-11.27348,1.128736,-36.27824,-0.2255336540772605,-0.143677994384509,0.019869041451102,30.05258,86.95547,183.7105,0.6581064,-0.2095474,0.706238,9
12.24,-11.16204,1.324466,-36.27745,-0.2522470742771121,-0.1228025650083343,0.0244471917275266,33.51249,86.85478,183.5194,0.6515064,-0.2294917,0.7011677,9
12.26,-11.05097,1.517127,-36.27666,-0.2761257717699452,-0.1001562425519866,0.0287160215231807,36.97108,86.73528,183.3124,0.6443134,-0.2492206,0.6954587,9
12.28,-11.04981,1.117146,-36.27308,-0.2974689413239197,-0.079014748591054,0.0326755008520223,39.63625,84.77089,182.681,0.6281577,-0.2651882,0.7000369,9
12.3,-10.94066,1.316486,-36.27253,-0.315029343309317,-0.0851771102298448,0.033303782697895,43.03345,84.50539,182.2791,0.6200196,-0.2838671,0.6933719,9
12.32,-10.83166,1.512877,-36.27199,-0.3281923541849491,-0.0877135611336456,0.033523830973456,46.42813,84.1893,181.8301,0.6113347,-0.3022892,0.686095,9
12.34,-10.76914,1.113749,-36.27628,-0.3372284999183293,-0.0900278306531153,0.033330439275657,46.38628,84.14359,180.3617,0.614983,-0.294286,0.683144,9
12.36,-10.66192,1.314225,-36.27557,-0.3319607754874291,-0.0916093877522859,0.0335328053146497,49.72542,83.77515,179.8665,0.6061543,-0.3122971,0.6751311,9
12.38,-10.55478,1.511854,-36.27486,-0.3226161237749783,-0.0900995162340098,0.0333703778783238,53.06115,83.33091,179.2982,0.5968086,-0.3300352,0.6665421,9
12.4,-10.4479,1.706646,-36.27416,-0.3094555989846472,-0.088903073602881,0.0328443906707907,56.39277,82.78899,178.6347,0.5869544,-0.3474854,0.6573846,9
12.42,-10.374,1.103722,-36.27497,-0.2700148130157174,-0.174077688837108,0.0321369212944988,56.51303,81.52884,176.2001,0.5867148,-0.3393028,0.656531,9
12.44,-10.26918,1.299753,-36.27486,-0.213960985559884,-0.143162691826271,0.0312476656070792,59.77662,80.71433,175.2415,0.576705,-0.35609,0.6467074,9
12.46,-10.16471,1.493075,-36.27474,-0.1552993592602217,-0.1124559985698508,0.029957755919356,63.03038,79.69006,174.0754,0.56622,-0.3725738,0.6363513,9
12.48,-9.928796,1.118009,-36.2718,-0.0943025834261704,-0.0852116529188361,0.0282730206268402,61.82062,72.19498,167.2002,0.548601,-0.3561425,0.6551997,9
12.5,-9.824988,1.304414,-36.27132,-0.0373383374584653,-0.0723633317931782,0.0267811998285569,64.90551,70.12796,164.8887,0.5383183,-0.3716599,0.6441561,9
12.52,-9.722057,1.488176,-36.27084,0.0208619874854886,-0.0580748611699879,0.02520840605575,67.94442,67.46295,161.9821,0.5276051,-0.3868733,0.6325966,9
12.54,-9.488914,1.178193,-36.26788,0.0800412352789016,-0.0455320111968113,0.0235442324996091,52.07845,74.69903,171.1928,0.5702798,-0.3060885,0.6917001,9
12.56,-9.383365,1.356261,-36.26553,0.1180892583279096,0.0409826178788902,0.0210794611795721,55.18589,73.60091,169.8296,0.5616814,-0.3223691,0.6822658,9
12.58,-9.279151,1.531596,-36.26322,0.1663463414605288,0.0360669509838168,0.0138736263755872,58.27465,72.26858,168.2366,0.5526448,-0.3383917,0.6722991,9
12.6,-9.176425,1.704278,-36.26094,0.2148078869868549,0.0306008318419207,0.0066443486220135,61.33889,70.63046,166.3421,0.5431797,-0.3541459,0.6618074,9
12.62,-8.983821,1.250749,-36.29873,0.2631351946176722,0.0214676861172967,-0.0006395822268103,26.1348,83.93359,176.0143,0.6568359,-0.1453572,0.718583,9
12.64,-8.865628,1.420173,-36.29659,0.3071459002570362,0.0351460844539896,-0.0099257369987579,29.58858,83.77037,175.6652,0.652235,-0.1655549,0.7128414,9
12.66,-8.749415,1.586171,-36.29448,0.3502764366973022,0.0492566862908718,-0.0194178526866384,33.0411,83.57592,175.2912,0.6470372,-0.1855988,0.7064478,9
12.68,-8.63538,1.748858,-36.29241,0.3920843849392806,0.0607861182746186,-0.0291467547601591,36.49286,83.34515,174.8866,0.6412464,-0.2054756,0.6994064,9
12.7,-8.615868,1.272079,-36.31069,0.4292943506816993,0.1370696169842858,-0.0336495565537902,2.364903,89.84969,177.9468,0.7061768,-0.001958906,0.7075082,9
12.72,-8.493882,1.438815,-36.30983,0.4487772580529503,0.1194890588428063,-0.0392963054090964,5.908425,89.85085,177.9626,0.7057847,-0.02394591,0.7063268,9
12.74,-8.3741,1.601909,-36.30898,0.465538713381779,0.1013354535051161,-0.0446354395509844,9.450968,89.85301,177.9786,0.7047181,-0.04590394,0.7044706,9
12.76,-8.255144,1.291586,-36.31489,0.4809125894901015,0.1510601772624721,-0.0474633071464234,352.214,92.34872,179.0357,0.7193648,0.05306936,0.6912562,9
12.78,-8.130533,1.453802,-36.31256,0.483887158134844,0.1293788320862643,-0.0505402270600132,355.7966,92.32633,179.2502,0.7206483,0.03011637,0.6922995,9
12.8,-8.008445,1.612224,-36.31028,0.4829559732116572,0.1071946298567884,-0.0527547209251402,359.3782,92.31738,179.4627,0.721225,0.007140366,0.692664,9
12.82,-7.947709,1.269788,-36.31208,0.4776327924926509,0.0816823399356199,-0.0541462150145832,354.0997,93.02359,180.0003,0.7245547,0.03541768,0.6872931,9
12.84,-7.825664,1.433081,-36.30835,0.4665981590749715,0.0717922644346394,-0.0553634843714396,357.6416,93.00228,180.2961,0.7252687,0.01229161,0.6881536,9
12.86,-7.706041,1.592733,-36.3047,0.4511127555945667,0.0633485429351321,-0.0561514478051643,1.182446,92.99928,180.5904,0.7252852,-0.01083981,0.6883519,9
12.88,-7.589063,1.748903,-36.30112,0.4306916469502864,0.0535748400936884,-0.0565510565838449,4.72225,93.01449,180.8853,0.7246048,-0.03395416,0.6878889,9
12.9,-7.647513,1.246103,-36.31128,0.4213547012625552,0.1155251028812478,-0.0552914943055089,1.390564,93.63498,181.592,0.7289383,-0.01843241,0.6843312,9
12.92,-7.524448,1.411266,-36.30896,0.3764045936304167,0.0804931063349342,-0.0534974082720767,5.002431,93.65168,181.891,0.7279907,-0.04187826,0.6839986,9
12.94,-7.403731,1.572723,-36.30669,0.328755403582899,0.0467160306833357,-0.0515262668404616,8.613803,93.68752,182.193,0.7263151,-0.06527797,0.6829823,9
12.96,-7.429679,1.226264,-36.29866,0.2927465487567841,0.0866646710642215,-0.0486593910609389,10.33521,93.66815,183.1674,0.7244307,-0.08167031,0.6828883,9
12.98,-7.307222,1.396627,-36.29728,0.2261468301612637,0.0500566701156386,-0.0445516213461969,13.9632,93.72755,183.4494,0.7214899,-0.1048707,0.6810278,9
13.0,-7.186799,1.563319,-36.29593,0.1571978744147298,0.0158808213485807,-0.0404068799160324,17.58978,93.80669,183.7403,0.717823,-0.1279584,0.6784817,9
13.02,-7.231432,1.190908,-36.28851,0.0855349513548515,-0.0187960990276394,-0.0362304134401334,16.089,93.94829,183.7765,0.7203127,-0.1192857,0.678618,9
13.04,-7.112443,1.369536,-36.28845,0.0226596787618856,-0.0346410221550175,-0.0309445933104681,19.67391,94.02967,184.0414,0.7162198,-0.1418258,0.6757739,9
13.06,-6.994936,1.544687,-36.28839,-0.0410655728324016,-0.0465285787576227,-0.0257201962277129,23.25737,94.13107,184.3182,0.7114239,-0.16422,0.6722664,9
13.08,-6.87913,1.716464,-36.28833,-0.10598870123891,-0.0574825962895879,-0.0205529890443534,26.83902,94.25469,184.61,0.7059307,-0.1864429,0.6681001,9
13.1,-7.017811,1.160798,-36.27532,-0.1434393354228501,0.0106381709270557,-0.0166075585218576,21.57768,91.43709,184.0996,0.6981395,-0.1557636,0.690197,9
13.12,-6.902344,1.347666,-36.27561,-0.2175779835538207,-0.0300346619473224,-0.0104031299693518,25.11265,91.47215,184.1879,0.6929935,-0.1771763,0.686505,9
13.14,-6.787825,1.531249,-36.27589,-0.2901909062110403,-0.067331210162968,-0.0042096616790709,28.64648,91.51446,184.2815,0.6871895,-0.1984135,0.682161,9
13.16,-6.842547,1.13277,-36.26058,-0.3361542260438969,-0.0201437195121307,-0.0001066117396,28.03303,88.0258,183.9415,0.667744,-0.1972672,0.703145,9
13.18,-6.73044,1.327154,-36.2601,-0.3994796349697256,-0.0564656602727416,0.0056798352660649,31.50934,87.96465,183.8184,0.6614689,-0.2175303,0.69842,9
13.2,-6.618802,1.518433,-36.25962,-0.4597182384131885,-0.0895995253154433,0.0113111294063186,34.98443,87.89193,183.6857,0.6545868,-0.2375868,0.6930536,9
13.22,-6.59987,1.118749,-36.24876,-0.517123866811563,-0.1228476418175577,0.016792461662912,37.39703,84.86654,183.0077,0.6326879,-0.2533063,0.7045438,9
13.24,-6.490214,1.317461,-36.24824,-0.53629611376216,-0.0453587424992962,0.019884941670468,40.80795,84.62488,182.6247,0.6248666,-0.2721946,0.6982815,9
13.26,-6.380757,1.513198,-36.24771,-0.5650146428680811,-0.0810368886120238,0.0216353991262554,44.21646,84.33794,182.2003,0.6164901,-0.2908342,0.6913979,9
13.28,-6.271675,1.705976,-36.24719,-0.5889991705898542,-0.1140030420234828,0.023060539927056,47.62222,83.99552,181.7238,0.6075662,-0.3092091,0.6838997,9
13.3,-6.299687,1.114525,-36.25528,-0.5920778922256116,-0.059197434992191,0.0237368591295004,44.69505,84.76551,181.1175,0.6206844,-0.2869218,0.6856481,9
13.32,-6.191977,1.315054,-36.25481,-0.5867428989604443,-0.0899626249320876,0.0238998271681705,48.05071,84.44846,180.6797,0.6120134,-0.3051316,0.6779768,9
13.34,-6.084351,1.512708,-36.25435,-0.5767979553227511,-0.1187449987434267,0.023681837636488,51.4035,84.06776,180.1809,0.6028159,-0.3230725,0.669722,9
13.36,-5.974064,1.107171,-36.25491,-0.5555431400639674,-0.060048804652286,0.0238092390116815,53.31132,82.56657,177.6747,0.5963793,-0.3250899,0.6654466,9
13.38,-5.868574,1.305566,-36.25481,-0.5295679237245356,-0.002383310604308,0.023574751256798,56.59686,81.93372,176.902,0.5867348,-0.3422248,0.6562039,9
13.4,-5.763289,1.501212,-36.25471,-0.4885221724047052,-0.0586280705743095,0.0230908616342562,59.87534,81.15144,175.9822,0.5766031,-0.3590658,0.6464161,9
13.42,-5.497634,1.109088,-36.25333,-0.443947006064551,-0.1157022335874155,0.0221833299901907,62.64917,73.76379,167.8513,0.5538104,-0.3592566,0.6464278,9
13.44,-5.393883,1.297769,-36.25357,-0.3911920673582492,-0.0576982072567374,0.0210813460053618,65.7665,71.7444,165.6093,0.5433225,-0.374849,0.6352873,9
13.46,-5.290885,1.48381,-36.25382,-0.3163809679444967,-0.0726425989831753,0.0202380338043486,68.84076,69.11108,162.7561,0.5323973,-0.3901302,0.6236361,9
13.48,-5.188786,1.667259,-36.25406,-0.238854600747543,-0.0881011939860224,0.0193084599788884,71.85107,65.56896,158.9963,0.5210434,-0.4050909,0.611482,9
13.5,-5.019557,1.161664,-36.24962,-0.178660827792305,-0.022444042348527,0.0178594846987323,55.77973,71.95494,168.7607,0.5538053,-0.3258798,0.6849052,9
13.52,-4.914562,1.341449,-36.248,-0.1026797547164228,-0.0241298055564871,0.0130293546269237,58.84375,70.40869,166.9241,0.544579,-0.3416049,0.6748434,9
13.54,-4.810811,1.518533,-36.2464,-0.0249972673100798,-0.026595812808269,0.0083400613115074,61.87577,68.50425,164.7337,0.5349259,-0.3570561,0.6642516,9
13.56,-4.708452,1.692989,-36.24481,0.0343815971423185,0.0406852243188626,0.0033913722678358,64.86442,66.11994,162.0675,0.524856,-0.3722223,0.6531385,9
13.58,-4.527053,1.240245,-36.27415,0.0929699356126402,0.1053522402780252,-0.0017732081536614,31.94456,82.33469,175.3599,0.6407152,-0.1813586,0.7158028,9
13.6,-4.411603,1.41108,-36.27187,0.1409458429506464,0.0748449186720764,-0.0118664093641269,35.32623,82.0717,174.8853,0.6351693,-0.2007282,0.7091349,9
13.62,-4.298015,1.57865,-36.26962,0.1902926761956328,0.0424277725314208,-0.0221511397218092,38.70493,81.76097,174.3694,0.6290644,-0.2199154,0.701843,9
13.64,-4.185521,1.268259,-36.29309,0.2269153626507352,0.0985374267292787,-0.0266495670059709,8.134217,88.57936,177.5574,0.6974517,-0.03591208,0.712798,9
13.66,-4.063957,1.435541,-36.29214,0.2579263728462463,0.0843926745041996,-0.0325908318920236,11.67122,88.56882,177.4961,0.6960266,-0.05759349,0.7104517,9
13.68,-3.944559,1.599204,-36.29121,0.2868878584599603,0.0697522456412113,-0.0384251072099326,15.20739,88.55422,177.4332,0.693939,-0.07921503,0.7074291,9
13.7,-3.827544,1.75939,-36.2903,0.3133373318524594,0.0517004854109326,-0.0441672676624005,18.74258,88.53526,177.3683,0.6911911,-0.1007554,0.7037339,9
13.72,-3.805008,1.285385,-36.29871,0.3506738121689498,0.1228368270291046,-0.0467881625331552,353.3102,92.1047,178.7123,0.7182473,0.04856643,0.6932469,9
13.74,-3.681147,1.448952,-36.29732,0.3790147882542531,0.0993289804991635,-0.0498415615338281,356.883,92.09003,178.884,0.7194011,0.0258848,0.6939941,9
13.76,-3.559713,1.608768,-36.29596,0.4042368323487154,0.0751748196518956,-0.0520894964929565,0.4548241,92.08608,179.0545,0.719854,0.003184421,0.6940652,9
13.78,-3.494136,1.282813,-36.30007,0.4256264438732329,0.1180258766022501,-0.0525555856489594,353.7803,92.96143,179.7501,0.7239916,0.03893552,0.6876687,9
13.8,-3.370704,1.444887,-36.29656,0.4414951647473137,0.1578588215757909,-0.0524545898269206,357.3406,92.9393,180.0359,0.7248194,0.01575515,0.688548,9
13.82,-3.249786,1.603238,-36.29313,0.4238480980511909,0.0989573051820035,-0.0535755163113949,0.9000381,92.93496,180.32,0.7249433,-0.007434338,0.6887582,9
13.84,-3.230857,1.250434,-36.30103,0.4115740699033584,0.1144316806321119,-0.0536041982200812,359.3967,93.54167,181.3689,0.7286012,-0.005098298,0.684814,9
13.86,-3.108496,1.415214,-36.29869,0.3951582902468447,0.1294594737597975,-0.0533735178134158,2.981015,93.54774,181.6599,0.7280755,-0.02836392,0.6848506,9
13.88,-2.988494,1.576334,-36.29641,0.3543692298179346,0.0703710797119386,-0.0523953343297067,6.564453,93.57211,181.9525,0.726833,-0.05159492,0.6842132,9
13.9,-2.871074,1.733951,-36.29416,0.3108477551019146,0.0117390896425715,-0.0513660343694573,10.14672,93.61527,182.2493,0.7248758,-0.07476865,0.6829027,9
13.92,-2.968706,1.232089,-36.29047,0.2901094445269794,0.0490247218894054,-0.0482634825380525,8.244765,93.83923,182.879,0.7270431,-0.06738611,0.6823606,9
13.94,-2.845781,1.400854,-36.28901,0.2420455323336303,0.0098920829259086,-0.0438121776131277,11.87597,93.89055,183.1725,0.7245478,-0.0907176,0.6808659,9
13.96,-2.724994,1.565923,-36.28757,0.1917635699394882,-0.0266698700141037,-0.0393445243943881,15.50582,93.96191,183.4738,0.7213213,-0.1139507,0.6786839,9
13.98,-2.794622,1.199619,-36.27947,0.1605322548596442,0.0120769164863628,-0.0357368949277612,14.76925,94.08755,183.6663,0.722631,-0.1107579,0.6784506,9
14.0,-2.674709,1.376151,-36.27935,0.1266322699596511,0.0496746794037164,-0.0320538355881812,18.36664,94.16591,183.9408,0.7187898,-0.133467,0.6758323,9
14.02,-2.556419,1.549153,-36.27924,0.0523698396369311,-0.0179994522013331,-0.026453880961121,21.96258,94.2646,184.227,0.7142377,-0.1560372,0.6725455,9
14.04,-2.609852,1.168248,-36.26695,0.0018284719567397,-0.0028903355215342,-0.0218984762486931,20.14894,92.33758,184.0685,0.7055125,-0.1462795,0.6859079,9
14.06,-2.493499,1.352979,-36.26746,-0.0487277000142705,0.0135185869526659,-0.0173347063365669,23.69746,92.39027,184.2095,0.7006279,-0.1679743,0.6824411,9
14.08,-2.378231,1.534378,-36.26797,-0.1258362586751273,-0.0528609747327996,-0.0104715851301131,27.24478,92.45435,184.3584,0.6950723,-0.1895014,0.6783205,9
14.1,-2.264251,1.71252,-36.26848,-0.202111992574918,-0.1165771532038764,-0.003640523954318,30.79055,92.5313,184.5169,0.6888522,-0.2108377,0.673551,9
14.12,-2.407619,1.139063,-36.25331,-0.2398889650743002,-0.0721665377277068,0.0012259369921396,26.30274,89.11924,183.973,0.6772182,-0.1857028,0.69895,9
14.14,-2.294724,1.331691,-36.25334,-0.2755802844172773,-0.0282290034260174,0.0060172944831204,29.79465,89.08973,183.9103,0.6712442,-0.2062477,0.6944979,9
14.16,-2.18241,1.521172,-36.25336,-0.3319669281019384,-0.0970202429440327,0.0128604262549174,33.28516,89.05463,183.8432,0.6646496,-0.2265937,0.6894026,9
14.18,-2.210168,1.121814,-36.24068,-0.3603465700133188,-0.0764660546297126,0.0172433085751029,34.71704,85.59673,183.2574,0.6419931,-0.2372569,0.7058102,9
14.2,-2.099933,1.319706,-36.24029,-0.384659155830736,-0.054167331239383,0.0212610744293728,38.14433,85.40665,182.9375,0.6346089,-0.2564771,0.6999883,9
14.22,-1.989947,1.514591,-36.2399,-0.4121215087213862,-0.1170074340960431,0.0237390797970205,41.56968,85.18132,182.586,0.6266562,-0.275461,0.6935386,9
14.24,-1.880388,1.70649,-36.23952,-0.4220476484653044,-0.0899191224664782,0.0243370108065681,44.99287,84.91336,182.1953,0.6181426,-0.2941921,0.6864674,9
14.26,-1.869232,1.114522,-36.24593,-0.4275572023878741,-0.0613207319877962,0.0245144525941301,44.70262,84.86107,181.122,0.6212276,-0.2867827,0.685122,9
14.28,-1.761209,1.31503,-36.24553,-0.428938510630937,-0.0345676022773361,0.0242661961865557,48.0683,84.54655,180.6877,0.6125295,-0.3050473,0.677426,9
14.3,-1.653273,1.512647,-36.24513,-0.4356974057023591,-0.124951743746883,0.023425853442931,51.43116,84.16866,180.1928,0.6033015,-0.3230416,0.6691436,9
14.32,-1.523818,1.107172,-36.24607,-0.4179798752448759,-0.098501258549876,0.0233969804814453,53.30922,82.68188,177.6785,0.597043,-0.3247858,0.664863,9
14.34,-1.418239,1.305561,-36.24614,-0.3952362642073176,-0.0709800402087379,0.0229706611504347,56.59775,82.05064,176.9078,0.5873845,-0.3419243,0.6556185,9
14.36,-1.312865,1.501195,-36.2462,-0.3478035065400757,-0.128444989045142,0.0221832914369448,59.87926,81.2702,175.9902,0.5772375,-0.3587686,0.645829,9
14.38,-1.207854,1.694092,-36.24626,-0.2976112443507078,-0.0966856158491128,0.0211005044032104,63.15203,80.28708,174.8721,0.5666102,-0.3753078,0.6355013,9
14.4,-1.028179,1.109072,-36.24552,-0.2442665156988205,-0.0647647878725383,0.0196375968331761,62.64663,73.89639,167.8606,0.5545341,-0.358843,0.6458279,9
14.42,-0.9244131,1.297755,-36.24597,-0.166815177111806,-0.1074160996342121,0.0182849507176383,65.76482,71.87916,165.621,0.5440345,-0.3744222,0.634696,9
14.44,-0.8213987,1.483796,-36.24642,-0.111563434224513,-0.0644632273909624,0.0166049403408221,68.84007,69.24831,162.7704,0.5330963,-0.3896906,0.6230536,9
14.46,-0.5881591,1.161611,-36.2428,-0.0559774215144621,-0.0215404607853448,0.0148180286399375,55.78733,72.0905,168.7586,0.5546073,-0.3255125,0.6842153,9
14.48,-0.4831504,1.341399,-36.24142,-0.0003075295261348,0.018249383961551,0.0129203714270307,58.85183,70.54409,166.9221,0.5453678,-0.341219,0.6741607,9
14.5,-0.3793837,1.518483,-36.24006,0.0552159928732036,0.0367736845926419,0.0109025839829541,61.88438,68.63913,164.7313,0.5357005,-0.3566517,0.6635768,9
14.52,-0.1723005,1.2286,-36.26133,0.1027751910725636,0.0528168321969514,0.0035455475939798,37.84005,80.77717,174.7329,0.6236603,-0.2185444,0.7101017,9
14.54,-0.05846202,1.400537,-36.25897,0.1508282277642831,0.0698046663315941,-0.0039000927438621,41.1819,80.37807,174.1059,0.6171,-0.2372525,0.7025027,9
14.56,0.05359805,1.569298,-36.25665,0.1990128912560289,0.0846587495411705,-0.0114680754130862,44.51903,79.90573,173.4116,0.6100063,-0.2557498,0.6942963,9
14.58,0.1637061,1.734981,-36.25436,0.2442918426340202,0.0272357423632385,-0.022909627049696,47.85186,79.34383,172.6333,0.6023828,-0.2740284,0.6854858,9
14.6,0.2045455,1.263571,-36.28518,0.27886074155559,0.060252533077148,-0.0298665723158828,13.92503,87.36184,177.1699,0.6875045,-0.07070962,0.7155778,9
14.62,0.3259602,1.431304,-36.28424,0.3112969376746138,0.09215474282982,-0.036835771520189,17.46288,87.32347,177.0281,0.6850166,-0.09208611,0.7120862,9
14.64,0.4452475,1.595415,-36.28331,0.3413586654952957,0.0530693452266683,-0.0451051912662716,21.0009,87.27483,176.8805,0.6818743,-0.1133749,0.7079147,9
14.66,0.5435452,1.279253,-36.29342,0.3695467210138526,0.0834000996042203,-0.049444683182374,354.461,91.92869,178.4084,0.717532,0.04355598,0.6947097,9
14.68,0.6667873,1.44412,-36.29309,0.3937269093430662,0.1122600580729389,-0.0533232375140864,358.0273,91.9202,178.5381,0.7185383,0.02113492,0.6951576,9
14.7,0.7876904,1.605273,-36.29276,0.4133611623128885,0.1368837543946004,-0.0567561881763909,1.592643,91.91978,178.6671,0.7188478,-0.00130025,0.6949316,9
14.72,0.9060289,1.762866,-36.29245,0.4099203613347149,0.0648173171112362,-0.0605502252043068,5.15694,91.92743,178.7966,0.7184607,-0.02372794,0.6940322,9
14.74,0.9893608,1.282795,-36.29809,0.4173580275459244,0.0849649526914698,-0.0621805352941287,353.7857,93.18022,179.743,0.7253029,0.0388763,0.6862894,9
14.76,1.112998,1.444813,-36.29529,0.4204653583986386,0.1038815208759871,-0.063076241369635,357.352,93.15863,180.0224,0.7261359,0.01574027,0.6871631,9
14.78,1.234112,1.603096,-36.29255,0.401709971728315,0.0471086519842995,-0.0648776165385074,0.9173637,93.15445,180.3,0.7262615,-0.007404424,0.6873673,9
14.8,1.352476,1.757811,-36.28988,0.3876171445058242,0.0622988684359841,-0.0652556200727563,4.481671,93.16756,180.5781,0.72568,-0.03053479,0.6869022,9
14.82,1.273504,1.25043,-36.29964,0.369146406607634,0.077140619487161,-0.0653384358928468,359.396,93.7571,181.3668,0.7298874,-0.005102706,0.6834431,9
14.84,1.395914,1.4152,-36.29783,0.3458004994272372,0.0889232769647866,-0.0651622603655495,2.981617,93.7631,181.6558,0.7293621,-0.02832441,0.6834806,9
14.86,1.515963,1.576307,-36.29606,0.3077693764831077,0.0775678287129371,-0.062201493700658,6.566407,93.78733,181.9465,0.7281186,-0.05151168,0.6828448,9
14.88,1.493819,1.232092,-36.2906,0.266801995852109,0.0687186876023671,-0.0590061630310749,8.242848,94.04205,182.8778,0.7282516,-0.06730465,0.681073,9
14.9,1.616772,1.400851,-36.2896,0.2224307241918032,0.05950317421779,-0.0555928985178733,11.8748,94.09322,183.1705,0.7257534,-0.09059773,0.679583,9
14.92,1.737585,1.565911,-36.28861,0.1512019007163481,-0.0285910885779947,-0.0510128180084015,15.50538,94.16439,183.471,0.7225227,-0.1137926,0.6774068,9
14.94,1.688994,1.199649,-36.28009,0.1094470974750078,-0.0169813450222568,-0.0467458473364441,14.76503,94.29659,183.6658,0.7238722,-0.1105979,0.6771333,9
14.96,1.808914,1.376172,-36.28042,0.0652781979862412,-0.003942703351122,-0.0424777012186083,18.36262,94.37489,183.9402,0.7200267,-0.1332688,0.6745228,9
14.98,1.92721,1.549167,-36.28075,0.0182879919687641,0.0076512039836434,-0.0382097821365858,21.95874,94.47355,184.2263,0.7154692,-0.1558011,0.6712449,9
15.0,2.043663,1.718745,-36.28107,-0.0394030386548804,-0.0081968017763842,-0.0327957518700703,25.5531,94.59465,184.5267,0.7102049,-0.1781694,0.6673043,9
15.02,1.8946,1.168276,-36.26835,-0.0969045391724516,-0.0199940921850376,-0.0274437066712023,20.14331,92.55866,184.0684,0.7068419,-0.1460491,0.6845501,9
15.04,2.010946,1.353001,-36.26931,-0.1545644534017584,-0.0308248725217803,-0.0221380453227002,23.69164,92.61146,184.2098,0.7019522,-0.1677038,0.6810937,9
15.06,2.126208,1.534393,-36.27026,-0.2109986376457299,-0.0429587120336588,-0.0162622155923584,27.2388,92.67565,184.359,0.6963903,-0.1891912,0.6769846,9
15.08,2.05531,1.139089,-36.25508,-0.2655615518220865,-0.0507085349028667,-0.0104699307670932,26.29619,89.31654,183.9729,0.6784314,-0.1854289,0.6977905,9
15.1,2.168214,1.33171,-36.2555,-0.3185563837024969,-0.0572982347923324,-0.0047492376241029,29.78839,89.28694,183.9099,0.6724502,-0.2059379,0.6933498,9
15.12,2.280537,1.521184,-36.25591,-0.3833085529220096,-0.1490037673387348,0.0024991651145143,33.27914,89.25168,183.8425,0.6658472,-0.2262481,0.6882669,9
15.14,2.392093,1.707552,-36.25632,-0.407948521470279,-0.1266699092527554,0.0072519599256892,36.76887,89.20982,183.7695,0.6586285,-0.246343,0.6825469,9
15.16,2.34412,1.118743,-36.24174,-0.4290519148995912,-0.1023682818598598,0.0116630375268727,37.39569,85.22511,183.015,0.6348763,-0.2527182,0.702576,9
15.18,2.454073,1.317419,-36.2417,-0.4469052713726055,-0.079374463231853,0.0157373618639615,40.81643,84.98799,182.6392,0.6270233,-0.2716302,0.6963079,9
15.2,2.563827,1.513102,-36.24166,-0.440886697489249,0.011878106685335,0.0175744810413132,44.23489,84.70635,182.2227,0.61861,-0.2902935,0.6894168,9
15.22,2.624346,1.114525,-36.24992,-0.4536012417897792,-0.0225899755026682,0.0179267301440093,44.69192,85.11118,181.1221,0.6227458,-0.2861738,0.6837903,9
15.24,2.732152,1.315044,-36.25006,-0.4612285922601399,-0.054417648789699,0.017827206199616,48.05071,84.79567,180.6864,0.6140472,-0.3043491,0.6761352,9
15.26,2.839873,1.512684,-36.25019,-0.4640012994826188,-0.0870167518182217,0.0172751835501738,51.40663,84.4167,180.1899,0.6048194,-0.3222555,0.6678973,9
15.28,2.94734,1.707456,-36.25032,-0.4427209722588806,-0.0918223166979518,0.0170140786275743,54.75917,83.95679,179.6149,0.595071,-0.3398781,0.6590838,9
15.3,2.989136,1.107176,-36.25161,-0.4166823072202039,-0.0936641847796781,0.0162868408552423,53.30424,82.93702,177.6796,0.5985312,-0.3240712,0.66355,9
15.32,3.094645,1.305571,-36.25215,-0.3861437552830795,-0.0959258718564373,0.015096253778255,56.5905,82.30584,176.9088,0.5888585,-0.3411539,0.6543355,9
15.34,3.199948,1.501215,-36.25269,-0.3333252092248888,-0.0918877150139124,0.0136486278620511,59.86979,81.52557,175.9914,0.5786965,-0.3579435,0.6445774,9
15.36,3.445914,1.109063,-36.25299,-0.2776603759514611,-0.0859915421013612,0.0118682427989966,62.64331,74.14958,167.8677,0.5559445,-0.3580098,0.6446381,9
15.38,3.549665,1.297753,-36.2539,-0.2194149783800199,-0.0815279331191039,0.0097599991362269,65.76118,72.13307,165.6288,0.5454213,-0.3735467,0.6335321,9
15.4,3.652663,1.483804,-36.2548,-0.1588432945940072,-0.0817371337935969,0.0073284393041044,68.83611,69.50367,162.7797,0.5344593,-0.3887739,0.6219164,9
15.42,3.904895,1.161586,-36.25228,-0.1005284195391309,-0.0682194146316176,0.004572327028077,55.79098,72.33015,168.7571,0.556035,-0.3248082,0.6830355,9
15.44,4.009907,1.341377,-36.25134,-0.0405550415157383,-0.0530975631260786,0.001791721440381,58.85538,70.78318,166.9199,0.5467734,-0.3404736,0.6730003,9
15.46,4.113675,1.518466,-36.25042,0.0208232336587124,-0.039525080435205,-0.0010237816975857,61.88776,68.87741,164.7283,0.5370828,-0.3558654,0.6624371,9
15.48,4.216051,1.692926,-36.2495,0.0637011060424548,0.04524569544307,-0.0044934641883882,64.87679,66.49142,162.0604,0.526974,-0.3709738,0.6513532,9
15.5,4.316892,1.758178,-36.2486,0.1125287258903731,0.0387746640166834,-0.0143138368595634,67.80532,63.44235,158.7328,0.5164524,-0.3857852,0.6397592,9
15.52,4.434568,1.240203,-36.27962,0.1625893964985367,0.0318825041553508,-0.0242219216143624,31.96749,82.69397,175.3572,0.6429302,-0.180829,0.7137392,9
15.54,4.550014,1.411046,-36.27808,0.197805440784559,0.0911216455452186,-0.0308529727834407,35.34864,82.43044,174.8819,0.6373594,-0.2001266,0.7070861,9
15.56,4.663599,1.578624,-36.27657,0.2261289940693405,0.0804826619152745,-0.0403417446189511,38.72689,82.11907,174.3652,0.6312279,-0.2192429,0.699811,9
15.58,4.75604,1.268241,-36.30138,0.2533942539191272,0.0696152702075156,-0.04998905857936,8.156178,88.96406,177.5563,0.6998344,-0.03582438,0.7104394,9
15.6,4.877603,1.435526,-36.30124,0.2791593474930003,0.0555407772642166,-0.0598129447372395,11.6931,88.95352,177.4951,0.6983977,-0.05743218,0.7080936,9
15.62,4.997002,1.599191,-36.30111,0.3138353809129997,0.0640385507708648,-0.0660074154121854,15.22921,88.93888,177.4322,0.6962958,-0.07898022,0.7050739,9
15.64,5.115686,1.285354,-36.30994,0.345817977005258,0.0728003307181337,-0.0716828161903899,353.3152,92.51465,178.7114,0.7207247,0.04841881,0.6906747,9
15.66,5.239559,1.448923,-36.30942,0.3745593281306516,0.0789817026246006,-0.0768596231343723,356.8882,92.49998,178.8834,0.7218804,0.02581117,0.6914166,9
15.68,5.361004,1.608741,-36.30891,0.4023494320753498,0.1513301490055046,-0.0799037042415022,0.4602153,92.49603,179.0542,0.7223326,0.003184742,0.6914851,9
15.7,5.479795,1.764968,-36.30842,0.3987504560926416,0.1270278823996339,-0.0784171052675377,4.031186,92.50275,179.2251,0.7220817,-0.01943844,0.6908804,9
15.72,5.468138,1.282863,-36.31355,0.3920166277440591,0.1028281079104735,-0.0756748524586257,353.779,93.38052,179.7494,0.7265011,0.03880932,0.6850162,9
15.74,5.591589,1.444935,-36.31094,0.3816812849464781,0.0759125792930777,-0.071754523532487,357.3391,93.35838,180.0355,0.7273324,0.01570478,0.6858925,9
15.76,5.712526,1.603284,-36.30838,0.3721549818592755,0.1386731640894238,-0.0658404104192786,0.8982977,93.35401,180.3198,0.7274573,-0.007408688,0.6861026,9
15.78,5.710461,1.250449,-36.3172,0.3306026753721829,0.1036942637722064,-0.0487446794298369,359.3896,93.97852,181.3686,0.7312068,-0.005099368,0.6820307,9
15.8,5.832831,1.415227,-36.31578,0.2858679562977444,0.0699430767174618,-0.0303523210620806,2.973695,93.98454,181.66,0.7306824,-0.0282859,0.6820707,9
15.82,5.952844,1.576346,-36.3144,0.2375073364264861,0.0345875202594749,-0.0108299967565619,6.556962,94.0089,181.9529,0.7294391,-0.05143771,0.6814396,9
15.84,6.070272,1.733963,-36.31304,0.1905386933314281,0.0212360359676996,0.0198253974522364,10.13904,94.05208,182.25,0.7274784,-0.07453273,0.680138,9
15.86,6.013364,1.226279,-36.30552,0.1415279062161485,0.0107960575609476,0.0520693785607466,10.32477,94.28891,183.1743,0.7281223,-0.0813975,0.6789606,9
15.88,6.135802,1.396628,-36.30519,0.0900412203687981,0.0003817516814741,0.0856891300276538,13.95118,94.35001,183.4646,0.7251763,-0.1045243,0.6771141,9
15.9,6.256208,1.563308,-36.30487,0.0566267112708136,0.0624455430977372,0.1199175003232522,17.57621,94.43143,183.7641,0.7215008,-0.127539,0.6745864,9
15.92,6.211472,1.190952,-36.2977,-0.020250487100105,0.0217097731472414,0.1564064938828044,16.08078,94.5981,183.7789,0.724156,-0.1187973,0.6745294,9
15.94,6.330452,1.369564,-36.29889,-0.0978382854573389,-0.0159633886292449,0.1945062895848242,19.66531,94.68039,184.0468,0.7200502,-0.1412333,0.6717076,9
15.96,6.447947,1.544698,-36.30006,-0.1514095173949516,0.0256203556389562,0.2328569950151759,23.24834,94.78293,184.3269,0.715238,-0.1635239,0.6682266,9
15.98,6.563744,1.716458,-36.30123,-0.2345675799173758,-0.0132587345830302,0.2729360137679641,26.82965,94.90791,184.6221,0.7097244,-0.1856441,0.6640909,9
16.0,6.424953,1.160849,-36.28719,-0.3169009996100262,-0.0486487948340578,0.3147538623147001,21.5677,92.11867,184.1007,0.7022446,-0.1550584,0.6860425,9
16.02,6.540411,1.347699,-36.2888,-0.3986959721112897,-0.08366270279253,0.3580820672082927,25.10262,92.15442,184.1909,0.6970799,-0.1763542,0.682381,9
16.04,6.654923,1.531263,-36.29039,-0.4406861909789985,-0.0138401109102678,0.4007387155115944,28.63645,92.19762,184.2864,0.6912534,-0.1974761,0.6780713,9
16.06,6.600077,1.132807,-36.27477,-0.5107647641418764,-0.0548129339492845,0.4433186976674124,28.02214,88.73102,183.9424,0.6720752,-0.1963164,0.6990378,9
16.08,6.712185,1.327178,-36.27564,-0.5777961332125479,-0.0919694865548584,0.4875588969586397,31.49854,88.67052,183.8206,0.6657742,-0.2164562,0.6943517,9
16.1,6.823823,1.518444,-36.2765,-0.6142715597100992,-0.0425409440718257,0.5308150243989571,34.97371,88.59855,183.6893,0.6588622,-0.2363904,0.689028,9
16.12,6.842565,1.118765,-36.26612,-0.6569429253332588,-0.0770154162477705,0.573977366332711,37.38117,85.59354,183.0099,0.6371729,-0.2519628,0.7005499,9
16.14,6.952219,1.317471,-36.26696,-0.6953695390397712,-0.1082276395831835,0.6182598722532031,40.79219,85.35275,182.6282,0.629316,-0.2707245,0.6943383,9
16.16,7.061676,1.513201,-36.2678,-0.7297654862016061,-0.1395316171825433,0.6634398799741694,44.20084,85.06685,182.2051,0.6208998,-0.2892392,0.6875091,9
16.18,7.170759,1.705972,-36.26863,-0.7365418513595559,-0.0584030745452958,0.7070441330322277,47.6068,84.72566,181.7302,0.6119322,-0.3074909,0.6800685,9
16.2,7.279291,1.789151,-36.26946,-0.7546657819136828,-0.0909009324407378,0.7472640844962486,51.0095,84.31535,181.1893,0.6024219,-0.3254634,0.672024,9
16.22,7.226315,1.113758,-36.27725,-0.767355611976082,-0.1208614937452984,0.7880509315990096,46.38039,85.00425,180.3673,0.6200959,-0.2923077,0.6785337,9
16.24,7.333781,1.314226,-36.27814,-0.7675024598704856,-0.0629980688248521,0.8304282641352199,49.72715,84.63545,179.8716,0.6111876,-0.3102126,0.6705695,9
16.26,7.441158,1.511833,-36.27903,-0.7620634668849653,-0.0057752495983235,0.873025041802693,53.0705,84.19058,179.3026,0.6017556,-0.327845,0.6620304,9
16.28,7.581899,1.103739,-36.28185,-0.7387972533989873,-0.0647091410457222,0.9231769399165676,56.48996,82.41669,176.2146,0.5917997,-0.3366669,0.6520832,9
16.3,7.686787,1.29978,-36.28332,-0.7114981317107096,-0.1238669557992135,0.972790873611448,59.7563,81.60398,175.2579,0.5817107,-0.3533278,0.6423319,9
16.32,7.791335,1.49311,-36.28479,-0.6705981481086962,-0.0677663793509329,1.0218246005135745,63.01278,80.58199,174.0942,0.571142,-0.369687,0.6320511,9
16.34,8.046055,1.117921,-36.28624,-0.6076620251132108,-0.0873247274758679,1.0798238407574503,61.82876,73.12032,167.2057,0.5538408,-0.353156,0.6507335,9
16.36,8.149879,1.304339,-36.2874,-0.5415295798584261,-0.1071230155571022,1.1366308866818882,64.91484,71.05441,164.8956,0.5434686,-0.3685345,0.6397666,9
16.38,8.252826,1.488112,-36.28854,-0.4935966417045407,-0.0426592299152594,1.1919745049957156,67.95502,68.39046,161.9904,0.5326615,-0.3836117,0.6282869,9
16.4,8.354746,1.669299,-36.28967,-0.444078433687298,0.0204723405233391,1.24570987339267,70.92754,64.86032,158.2215,0.5214297,-0.3983744,0.6163052,9
16.42,8.504555,1.17804,-36.28998,-0.3900130692125445,-0.0119072651985125,1.2990196558272071,52.11229,75.61202,171.1741,0.5757592,-0.3036473,0.6869671,9
16.44,8.610119,1.356122,-36.28935,-0.3562280634132906,0.0299911585387791,1.350607809217097,55.21949,74.51132,169.8082,0.5670801,-0.3197711,0.6775964,9
16.46,8.714348,1.531472,-36.28873,-0.3223490652050851,0.0717588796284211,1.4004113709553403,58.30797,73.17574,168.212,0.5579587,-0.3356394,0.667697,9
16.48,8.81709,1.70417,-36.28811,-0.2886347756722096,0.1103943669921219,1.4481475126448862,61.37178,71.5333,166.3131,0.5484046,-0.3512412,0.6572763,9
16.5,8.965879,1.250652,-36.32985,-0.2533899666967554,0.0542022473803876,1.4894887684152458,26.18861,84.88589,176.0088,0.6627317,-0.1441951,0.713002,9
16.52,9.084066,1.420088,-36.32967,-0.2164636922589333,0.011041640428772,1.5294686316214283,29.64178,84.72227,175.6595,0.6580747,-0.1642094,0.7072896,9
16.54,9.200275,1.586098,-36.3295,-0.1809364106044515,0.0658224351844342,1.572548647789814,33.09373,84.52736,175.2851,0.6528156,-0.1840713,0.7009306,9
16.56,9.282214,1.272045,-36.34886,-0.1494931762467719,0.0503627417564965,1.61232207716011,2.412532,90.83997,177.9444,0.7122635,-0.00200038,0.7013673,9
16.58,9.404199,1.438783,-36.3501,-0.118965033483904,0.0344530877128491,1.6505946437086507,5.956178,90.84115,177.9603,0.7118526,-0.02380017,0.7001798,9
16.6,9.523979,1.601878,-36.35132,-0.0868969631703298,0.0863700946334179,1.6909892996790878,9.498821,90.84333,177.9765,0.7107613,-0.04557123,0.6983234,9
16.62,9.646625,1.291533,-36.36057,-0.0566647905812918,0.0692765687188619,1.7306167724206434,352.2231,93.38664,179.0339,0.7255999,0.0526333,0.6847161,9
16.64,9.771251,1.453758,-36.36048,-0.0293737026204319,0.0514088917170096,1.7691667836182416,355.8056,93.36421,179.249,0.7268913,0.02987032,0.6857461,9
16.66,9.893356,1.612188,-36.36039,-0.0057144620818894,0.1010283806790421,1.807643011595112,359.3871,93.35529,179.4621,0.7274696,0.007084607,0.6861034,9
16.68,10.01271,1.766992,-36.3603,0.0127331269945418,0.1474154877506868,1.8443849222224944,2.967563,93.35966,179.6749,0.7273351,-0.01570156,0.6857885,9
16.7,9.945062,1.270022,-36.3327,0.0254764771148048,0.1728781989561301,1.879062209197329,354.0991,90.99097,179.9421,0.7122315,0.03644048,0.7000548,9
16.72,10.06696,1.433429,-36.32651,0.0028326529094055,0.090882498072505,1.896632265174948,357.6431,90.97359,180.1836,0.7129603,0.01327624,0.700901,9
16.74,10.18645,1.593197,-36.32045,-0.0038542388808773,0.1031222623973108,1.9139479176424856,1.186165,90.97114,180.4238,0.7130041,-0.009894326,0.7010739,9
16.76,10.3033,1.749484,-36.31451,-0.0144869701151826,0.1152143797472518,1.929614039080457,4.728235,90.98358,180.6646,0.7123633,-0.03304889,0.7005737,9
16.78,10.23161,1.240993,-36.23458,-0.0477928348535796,0.0534466275579823,1.935914512360239,3.964907,85.89748,181.9428,0.6804089,-0.03686141,0.73182,9
16.8,10.35341,1.407675,-36.21965,-0.0656304347472154,0.0686134223071331,1.9425836781346064,7.58155,85.91585,182.1252,0.678956,-0.06098662,0.7309632,9
16.82,10.47297,1.570665,-36.20498,-0.0863768029877207,0.0841613833282484,1.947915767311546,11.19776,85.94633,182.3118,0.6768258,-0.08505566,0.729376,9
16.84,10.42212,1.217712,-36.13178,-0.1104774896983293,0.0973084702528178,1.9516624969245315,11.8839,82.50823,183.2561,0.6533814,-0.09642821,0.7493911,9
16.86,10.54165,1.390369,-36.11014,-0.1682916583796256,0.0071194545208599,1.9414599364057856,15.50258,82.55093,183.4363,0.6503195,-0.1209163,0.7470129,9
16.88,10.65933,1.559409,-36.08884,-0.2018324483238691,0.0176842951853954,1.9292290805389127,19.12007,82.60651,183.6229,0.6466087,-0.1452769,0.7438889,9
16.9,10.77494,1.724956,-36.06789,-0.2371497971347058,0.0296667188418099,1.9158169426374947,22.7364,82.67671,183.8194,0.6422545,-0.1694937,0.7400215,9
16.92,10.6037,1.183422,-36.03864,-0.2961183131753739,-0.0383275942102839,1.8932820617936343,17.40282,79.3385,183.8319,0.6267614,-0.1374822,0.7636862,9
16.94,10.71877,1.364281,-36.01245,-0.3317247599994062,-0.0229789528355817,1.8687245520734832,20.97657,79.38557,183.975,0.6227645,-0.1617677,0.7602006,9
16.96,10.83254,1.541715,-35.98656,-0.3676867821296747,-0.0057740101539915,1.8432356676624853,24.54916,79.4437,184.1251,0.6181625,-0.1858886,0.755976,9
16.98,10.73885,1.153322,-35.95786,-0.4043766317257184,0.010247604514615,1.816718202095264,23.05901,74.23972,183.9762,0.5854224,-0.1797908,0.7849995,9
17.0,10.84935,1.342365,-35.92774,-0.4738778835927921,-0.0847565009787476,1.7768301933057673,26.57809,74.2245,183.9399,0.5805735,-0.2033835,0.7804103,9
17.02,10.95906,1.528173,-35.89783,-0.5048124462095493,-0.0689617478883606,1.7343893258609535,30.09579,74.20644,183.9018,0.5751799,-0.2267775,0.7750868,9
17.04,11.06781,1.7108,-35.86817,-0.5335780459277317,-0.0510328474597671,1.6915684792417105,33.61248,74.18546,183.8621,0.5692475,-0.2499559,0.7690331,9
17.06,10.96435,1.125061,-35.84671,-0.5605136775834305,-0.0341536802169431,1.6483256286859629,32.07532,67.37508,183.4663,0.5258797,-0.2458942,0.8039596,9
17.08,11.06993,1.322282,-35.81221,-0.580352175682266,-0.0441357440429739,1.5941301691628444,35.52166,67.1885,183.131,0.5197977,-0.268396,0.7975908,9
17.1,11.17523,1.516449,-35.7778,-0.5963093933914814,-0.0498572161330717,1.5396906760987568,38.96604,66.96735,182.7658,0.5132445,-0.2906474,0.790498,9
17.12,11.20665,1.11572,-35.75119,-0.6086868075749425,-0.05467954619589,1.4850091619735952,41.84328,64.84727,182.3105,0.4946459,-0.3114591,0.7921547,9
17.14,11.30919,1.315785,-35.71499,-0.6097585580966838,-0.057474454099016,1.4249624731242445,45.22491,64.51665,181.8307,0.4874501,-0.3329789,0.7838213,9
17.16,11.41161,1.512921,-35.67883,-0.6067362116872945,-0.0563473052904744,1.3647340819241522,48.60333,64.12183,181.2903,0.4798275,-0.3541997,0.7748008,9
17.18,11.51377,1.707142,-35.64277,-0.5999104868818268,-0.0547095126134329,1.3043578749716662,51.97787,63.64642,180.6726,0.4717853,-0.375103,0.7651018,9
17.2,11.50007,1.113035,-35.63256,-0.5895694600321484,-0.0559227297661015,1.2438618633488208,48.0567,62.54757,179.5048,0.4756424,-0.3459702,0.7797113,9
17.22,11.5998,1.313541,-35.59451,-0.5802887017735805,-0.1596595303736352,1.1811033607709192,51.3746,62.08065,178.8929,0.4682484,-0.3668835,0.7699342,9
17.24,11.69944,1.511226,-35.55648,-0.5437693022037347,-0.1348027218772511,1.119326431793079,54.6879,61.51547,178.1858,0.4604589,-0.3874794,0.759505,9
17.26,11.79885,1.706099,-35.51855,-0.5029946729703938,-0.1089481130582875,1.0576167645384915,57.99541,60.82208,177.3531,0.4522803,-0.4077402,0.7484341,9
17.28,11.98646,1.10448,-35.42729,-0.4582753193388704,-0.0854231475120463,0.996036075915666,61.21509,54.85579,171.172,0.4300596,-0.4200688,0.7436115,9
17.3,12.08321,1.295697,-35.3887,-0.3963119759457245,-0.082121318185767,0.9445691288212076,64.40009,53.28822,169.4104,0.4218061,-0.4392401,0.7310557,9
17.32,12.17938,1.484248,-35.35033,-0.3319680122803672,-0.076821520873083,0.8930696907562616,67.5573,51.25946,167.1901,0.4132113,-0.4580448,0.7179035,9
17.34,12.40014,1.144146,-35.24246,-0.2655426746010003,-0.0727812444582343,0.8416045899343727,58.41151,48.53019,167.7551,0.4041129,-0.4040434,0.7698326,9
17.36,12.4961,1.326163,-35.2011,-0.2058414116991671,-0.0559032711669018,0.7969851979551734,61.46727,46.70419,165.6461,0.3966576,-0.4229437,0.7576528,9
17.38,12.59103,1.505504,-35.16018,-0.1462932712769205,-0.0373645254876504,0.7526945898538369,64.48254,44.41935,163.0822,0.388889,-0.4415017,0.7448739,9
17.4,12.68478,1.682237,-35.11977,-0.087183227434159,-0.0202876255360899,0.7087710353053573,67.44131,41.50497,159.8922,0.3808173,-0.4597049,0.7315064,9
17.42,12.7997,1.211846,-35.06994,-0.02877508142255,-0.0077469197236461,0.6652609978367039,43.1141,55.48574,173.9325,0.4495472,-0.301821,0.812933,9
17.44,12.89961,1.386094,-35.02409,0.0316595762922187,0.009035267661283,0.6199223734545649,46.34985,54.91138,173.1167,0.444058,-0.3231394,0.8034001,9
17.46,12.99807,1.55738,-34.97889,0.0916711494655131,0.0265807893750762,0.5761176623152604,49.57814,54.22916,172.1985,0.4382052,-0.3441858,0.7932094,9
17.48,13.09494,1.725794,-34.93443,0.1508296658882497,0.0418094935418947,0.5338218596338793,52.79784,53.41293,171.1514,0.4319946,-0.3649493,0.7823666,9
17.5,13.20372,1.263659,-34.9194,0.208730577852648,0.0517012711262801,0.4930140506976554,13.95046,63.21451,177.154,0.5226227,-0.09047516,0.8435159,9
17.52,13.31397,1.431542,-34.86942,0.2454083135016755,0.0571828518371768,0.4516710086264295,17.47632,63.17259,176.9993,0.5209135,-0.1158129,0.8395926,9
17.54,13.42231,1.59582,-34.82031,0.2791654025458197,0.0635992278551345,0.4133520505170303,21.00304,63.11951,176.8382,0.5187095,-0.1410474,0.8348716,9
17.56,13.51223,1.279273,-34.78263,0.3094880979221295,0.0680458919104604,0.3780566229159952,354.492,67.44918,178.3968,0.5539469,0.04771609,0.8310473,9
17.58,13.6243,1.444203,-34.73162,0.3392688945626068,0.0730097078808635,0.3471312676734275,358.0556,67.4414,178.5166,0.5548359,0.02129654,0.8316861,9
17.6,13.73425,1.605423,-34.68157,0.364594064458227,0.0783844790244535,0.3205775868913081,1.618226,67.44109,178.6358,0.5551878,-0.005136348,0.83152,9
17.62,13.85273,1.296019,-34.6259,0.3849102983088968,0.0813413506110991,0.2983832880781918,353.4573,68.18353,179.484,0.5593882,0.04977693,0.8269271,9
17.64,13.96491,1.45695,-34.57105,0.3989080350614107,0.1496151854760254,0.281749074685389,357.0366,68.16152,179.7496,0.5601254,0.02264074,0.8280013,9
17.66,14.07475,1.614075,-34.51734,0.3896090209795195,0.1195219569355803,0.2598502523075057,0.6148862,68.15613,180.0134,0.5603133,-0.004510113,0.8282633,9
17.68,14.18205,1.767565,-34.46488,0.3742457948225155,0.0903076629476439,0.2433007284230282,4.192178,68.16721,180.2775,0.5599521,-0.03164849,0.8277138,9
17.7,14.2866,1.810942,-34.41376,0.3523643914908496,0.0591778841216753,0.2321329108988754,7.768364,68.195,180.5439,0.5590426,-0.05874825,0.8263537,9
17.72,14.18137,1.250556,-34.46821,0.3391400233658559,0.050054526468946,0.21664588218455,359.3717,68.72854,181.3645,0.5644578,-0.002195169,0.825358,9
17.74,14.2912,1.415439,-34.41494,0.3209146245838026,0.0431228629713565,0.2062866703638848,2.946945,68.7344,181.6526,0.5639431,-0.02936128,0.8252875,9
17.76,14.39893,1.576682,-34.36268,0.2971930042778457,0.0355367759503194,0.2010780955372109,6.521101,68.75836,181.9427,0.5628763,-0.05649149,0.8244089,9
17.78,14.37499,1.232162,-34.36406,0.2675228573659272,0.0245112954182568,0.201043896229204,8.225766,68.8421,182.8725,0.5621545,-0.07327679,0.8235394,9
17.8,14.48577,1.400947,-34.31094,0.2593515616526902,0.0914740028540495,0.1950975543077291,11.85495,68.89258,183.1618,0.5600458,-0.1006511,0.8215473,9
17.82,14.59462,1.566039,-34.25874,0.205397946702353,0.0503908265181396,0.1749087196047396,15.48279,68.96282,183.4589,0.5573727,-0.127916,0.818727,9
17.84,14.70135,1.727577,-34.20755,0.1479258905304106,0.0120546370739518,0.1593864009536423,19.10969,69.05433,183.7664,0.554138,-0.1550475,0.8150815,9
17.86,14.59385,1.190946,-34.24318,0.1117317728319315,0.0503936970222098,0.1397495486333504,16.08233,68.9252,183.7802,0.5561957,-0.1337519,0.8185559,9
17.88,14.70182,1.369488,-34.19255,0.0467484338355483,0.0099149472340378,0.1130571223947241,19.67452,69.00814,184.0502,0.5528122,-0.1604306,0.8148825,9
17.9,14.80843,1.544537,-34.14256,-0.0204935322228787,-0.0271522543462018,0.09007111791189,23.26525,69.1115,184.3325,0.5488839,-0.186943,0.8104057,9
17.92,14.76165,1.160869,-34.1483,-0.0903463667353636,-0.0638518777065957,0.0708332618019351,21.56633,66.30174,184.0983,0.531245,-0.1757483,0.8255823,9
17.94,14.86639,1.347705,-34.09949,-0.1424110974802861,-0.0786546141481451,0.0460051382128092,25.10398,66.33659,184.1862,0.5270236,-0.201299,0.8208581,9
17.96,14.97027,1.531249,-34.05107,-0.1944843964721139,-0.0887326743813537,0.024609105120084,28.64053,66.3787,184.2793,0.522301,-0.2266502,0.815353,9
17.98,15.07311,1.711572,-34.00315,-0.2469025766111019,-0.097254598161396,0.0066781238437769,32.17557,66.42912,184.3788,0.5170829,-0.2517748,0.8090737,9
18.0,14.95022,1.132841,-34.04246,-0.2690823571248701,-0.0229551644487482,-0.0082254818794442,28.01463,62.83259,183.94,0.4983532,-0.2238261,0.8318744,9
18.02,15.05149,1.327209,-33.99432,-0.3089983538644776,-0.0601890664511713,-0.0269618192481946,31.49143,62.77098,183.8158,0.4932603,-0.2482225,0.8258986,9
18.04,15.15234,1.518471,-33.94639,-0.3472862603250481,-0.0937352021898181,-0.0424736428463443,34.96699,62.6977,183.6821,0.4877148,-0.2723823,0.8191642,9
18.06,15.25259,1.706661,-33.89874,-0.384206263004939,-0.1269024833097052,-0.0547322373522813,38.44139,62.61071,183.5366,0.4817219,-0.2962846,0.8116776,9
18.08,15.2131,1.117156,-33.9074,-0.3883452480056766,-0.0481521053592892,-0.0625215302735782,39.61591,59.58934,182.6888,0.4604656,-0.3049616,0.8201923,9
18.1,15.31182,1.316467,-33.86025,-0.4067331967377434,-0.0822658236700112,-0.0772782052557676,43.02104,59.32676,182.2913,0.453971,-0.3277611,0.8118927,9
18.12,15.41039,1.512815,-33.81317,-0.4216241886924852,-0.1134799732117513,-0.0889869609400353,46.42364,59.01408,181.8471,0.4470745,-0.3502625,0.8028734,9
18.14,15.46749,1.11376,-33.79056,-0.4222627891030632,-0.0564079550447715,-0.0965100513416006,46.36678,58.91111,180.3715,0.4509259,-0.3442514,0.8010485,9
18.16,15.56424,1.314235,-33.74417,-0.4190143046315646,0.000241920650967,-0.1012541836646221,49.70819,58.54308,179.8767,0.4440575,-0.3661632,0.7912982,9
18.18,15.66092,1.511858,-33.69781,-0.40978809331828,-0.0593151939411338,-0.1022651476964586,53.04625,58.09939,179.3091,0.4368101,-0.3877546,0.7808716,9
18.2,15.75736,1.70664,-33.65157,-0.3975951627174052,-0.1181399288703675,-0.100803616906048,56.38021,57.55812,178.6462,0.4291901,-0.4090074,0.7697781,9
18.22,15.82302,1.103756,-33.62088,-0.3653559168054112,-0.0618027814206121,-0.093029023912786,56.47295,56.25801,176.2212,0.4288866,-0.4033104,0.7691693,9
18.24,15.91778,1.299817,-33.57601,-0.3104328185561305,-0.0863477372582872,-0.0735023824993641,59.73736,55.44485,175.2638,0.4212683,-0.423803,0.7574002,9
18.26,16.01224,1.493168,-33.53129,-0.2531833885874355,-0.1104740392659869,-0.0522200558086609,62.99196,54.42252,174.0994,0.4133027,-0.4439347,0.7450073,9
18.28,16.10625,1.683834,-33.48678,-0.1938701403008895,-0.1374932106862681,-0.0292322590278599,66.23367,53.10682,172.6437,0.4049962,-0.4636921,0.7319997,9
18.3,16.33157,1.128702,-33.3744,-0.1460364160375449,-0.051599050853381,-0.0126076925164095,60.97186,45.47276,166.6856,0.3850589,-0.4261376,0.7666996,9
18.32,16.4255,1.312887,-33.32918,-0.0910808045426763,-0.0630605520863135,0.008232547418518,64.02924,43.34817,164.2913,0.377543,-0.4452385,0.7538169,9
18.34,16.51853,1.49441,-33.28439,-0.0350135399064615,-0.0742728075494377,0.0304229155129718,67.03667,40.63699,161.3137,0.3697257,-0.4639755,0.7403319,9
18.36,16.71015,1.195282,-33.19238,0.0031309304514794,-0.0095109686585246,0.0434167385960293,48.35288,51.74602,173.1321,0.4194599,-0.3439892,0.8086655,9
18.38,16.80494,1.371702,-33.14437,0.0406238696368803,0.0540164315686516,0.0564557400975358,51.48901,50.96799,172.1157,0.413591,-0.3645265,0.7983307,9
18.4,16.89845,1.545354,-33.09701,0.0865925159018385,0.0251867164155244,0.067481610531523,54.61417,50.03575,170.9496,0.4074008,-0.3847733,0.7873753,9
18.42,16.99055,1.716323,-33.05035,0.1333316429841469,-0.0052222080291756,0.0796174548983561,57.72515,48.90696,169.5913,0.4008966,-0.404714,0.7758086,9
18.44,17.15418,1.257277,-33.01982,0.1771525182184179,0.0563436743443271,0.0912180164393756,20.1096,60.16067,176.5708,0.4978152,-0.1362427,0.8490335,9
18.46,17.26223,1.425673,-32.96662,0.2180211753296981,0.048014352605757,0.0988059568439485,23.62381,60.07034,176.3283,0.4953584,-0.1614256,0.8436694,9
18.48,17.36841,1.590505,-32.91434,0.2586376410310738,0.0393886790161253,0.1066490598292526,27.13831,59.96047,176.0721,0.4924327,-0.1864599,0.8375077,9
18.5,17.47254,1.75191,-32.86306,0.2986193487963451,0.0274372122532302,0.1145674410448478,30.65226,59.82857,175.7992,0.4890419,-0.2113175,0.8305548,9
18.52,17.48647,1.275716,-32.87202,0.335564531892607,0.1033672972091849,0.126688443265011,358.4463,65.36127,178.1792,0.5396568,0.01998898,0.8416262,9
18.54,17.59703,1.441479,-32.81861,0.3692002923846811,0.0867164919516182,0.1367533455291001,2.006623,65.36156,178.2504,0.5400373,-0.006493881,0.8413205,9
18.56,17.70554,1.603552,-32.76619,0.3998612177005118,0.0695391779894956,0.146589492479003,5.565945,65.36628,178.3219,0.5398964,-0.03296294,0.840203,9
18.58,17.80159,1.29383,-32.72607,0.4295522579067481,0.1205861904291762,0.1575461958021051,352.8181,67.09468,179.2535,0.5511892,0.05579195,0.8320012,9
18.6,17.91302,1.455369,-32.66983,0.4543420698405205,0.1685470716400845,0.1673559157803801,356.4009,67.07185,179.4964,0.552067,0.02860165,0.8331968,9
18.62,18.02217,1.613105,-32.61475,0.4507569049276712,0.1180150704673802,0.1634963544958729,359.9828,67.06428,179.7374,0.552403,0.001391171,0.8335742,9
18.64,18.12881,1.767205,-32.56093,0.4421606452445927,0.1371295308854365,0.1583987787759726,3.563649,67.07174,179.9782,0.5521968,-0.02581291,0.8331339,9
18.66,18.1212,1.254754,-32.57565,0.4286677931038309,0.1561023799693182,0.1517667903343973,357.4039,67.82472,181.1373,0.5579402,0.01326342,0.8295129,9
18.68,18.22986,1.419149,-32.52077,0.4098424979529476,0.1722572640756633,0.143355558006113,0.9619672,67.82063,181.4246,0.5577453,-0.01390175,0.829877,9
18.7,18.33641,1.579923,-32.46695,0.3646371059117199,0.0898593198551946,0.1222554811223544,4.519023,67.83441,181.7125,0.5570095,-0.04104585,0.8294359,9
18.72,18.3556,1.237795,-32.45398,0.3161855605858426,0.0234539632144479,0.1002221687105668,6.136094,68.33298,182.5816,0.5596548,-0.05690645,0.8266909,9
18.74,18.46616,1.404973,-32.39912,0.2952275455952886,0.0611988965027522,0.0927177663571496,9.771144,68.37515,182.8862,0.5579109,-0.08452692,0.825141,9
18.76,18.57471,1.568426,-32.34526,0.2484045840301347,0.0237602421861471,0.0747292721907975,13.40496,68.43771,183.1974,0.5556023,-0.1120545,0.8227559,9
18.78,18.68105,1.728299,-32.29251,0.1995422948885843,-0.0111098683828771,0.0561358851536146,17.03803,68.52191,183.5179,0.5527313,-0.1394649,0.8195382,9
18.8,18.78498,1.778102,-32.24095,0.1677129334829832,0.0290170198056572,0.0446555061048261,20.66955,68.62964,183.8511,0.5493019,-0.1667265,0.8154922,9
18.82,18.6099,1.199666,-32.31409,0.1331763950204267,0.068206925175407,0.0322519941945049,14.76,68.57133,183.6727,0.5549651,-0.1239772,0.8212926,9
18.84,18.71815,1.376113,-32.26204,0.0664470861671957,0.0022818683350563,0.0070081816922238,18.36273,68.65191,183.9552,0.5517969,-0.1509032,0.8178818,9
18.86,18.82492,1.54902,-32.21069,-0.0014689227381157,-0.0606211600317452,-0.0187000707435887,21.96397,68.75347,184.2496,0.5480813,-0.1776712,0.8136594,9
18.88,18.75156,1.168324,-32.23199,-0.0390063181110114,-0.0192992442022409,-0.0321078915370836,20.13374,66.7959,184.0698,0.5364529,-0.1650853,0.8249126,9
18.9,18.85679,1.353018,-32.1822,-0.0771880480487166,0.0216326173734082,-0.0456579378609762,23.68406,66.84945,184.2132,0.5324574,-0.1909752,0.8204506,9
18.92,18.96104,1.534375,-32.13287,-0.150188133893991,-0.0465171439476691,-0.0731456226660056,27.23318,66.91454,184.3645,0.5279514,-0.216674,0.8152019,9
18.94,18.90872,1.139134,-32.14126,-0.1995260896770285,-0.028310220228457,-0.0918490029983569,26.28412,63.54528,183.9735,0.5057499,-0.2109543,0.8315312,9
18.96,19.01059,1.33174,-32.09252,-0.2470622265003288,-0.0080935569287738,-0.109672958723459,29.77699,63.51598,183.9111,0.5009109,-0.2357003,0.8258694,9
18.98,19.11193,1.521197,-32.04403,-0.3118266309819151,-0.0718296472139888,-0.1336262523966005,33.2684,63.48114,183.8445,0.4956091,-0.2602178,0.8194426,9
19.0,19.21259,1.707548,-31.99588,-0.3743906109664472,-0.1328153369308755,-0.1565327592094973,36.75878,63.43973,183.7723,0.4898489,-0.2844868,0.8122571,9
19.02,19.18072,1.118769,-31.99485,-0.4012737618743687,-0.0809461288507294,-0.1654716142600776,37.37408,59.44383,183.0167,0.4621672,-0.290514,0.8265565,9
19.04,19.27971,1.317438,-31.94698,-0.4245167537920657,-0.0292339062863825,-0.1729687197673093,40.79506,59.20705,182.6413,0.4559131,-0.3136269,0.8186983,9
19.06,19.37853,1.513114,-31.8992,-0.4566471441583544,-0.0912961445204869,-0.1859953465305102,44.21367,58.92576,182.2252,0.4492518,-0.3364516,0.810108,9
19.08,19.477,1.705817,-31.85159,-0.4850338831749412,-0.1512494084648159,-0.1974514010451553,47.62959,58.58995,181.7579,0.4421898,-0.3589682,0.8007936,9
19.1,19.45399,1.114529,-31.87166,-0.4890133193824146,-0.0962669657031196,-0.1990295357289762,44.67933,59.31853,181.1273,0.4544301,-0.3347845,0.8055752,9
19.12,19.55111,1.315047,-31.82487,-0.4856965485277298,-0.1264731065342218,-0.1976310463654891,48.03796,59.00299,180.6915,0.4476598,-0.3569716,0.7961757,9
19.14,19.64815,1.512686,-31.77813,-0.4784287809171941,-0.1543149870386644,-0.1947369194314072,51.39374,58.62403,180.1949,0.4405039,-0.3788433,0.7860899,9
19.16,19.74497,1.707456,-31.73149,-0.4612474111525739,-0.0943139951919045,-0.1867955364867275,54.74614,58.16418,179.6199,0.4329691,-0.4003811,0.7753269,9
19.18,19.85843,1.103745,-31.6779,-0.4400118384234392,-0.034969190894227,-0.1772855706414895,56.47929,56.14849,176.2235,0.4281322,-0.4035998,0.7695601,9
19.2,19.95329,1.299783,-31.63269,-0.4149818157181473,0.0053469141885832,-0.1663298242958331,59.75167,55.33636,175.2674,0.4205127,-0.4241624,0.75775,9
19.22,20.04785,1.493099,-31.58763,-0.37484661973141,-0.0804162748373437,-0.148183204379741,63.0142,54.31474,174.1041,0.4125451,-0.4443618,0.7453131,9
19.24,20.27603,1.117851,-31.47607,-0.3274132076295015,-0.0490398598686067,-0.1267994466435968,61.83608,46.81826,167.2075,0.3912474,-0.4306144,0.7596484,9
19.26,20.36966,1.304275,-31.43108,-0.27706920463983,-0.0171145725654604,-0.1043058606202551,64.92387,44.7504,164.8954,0.3836368,-0.4498084,0.746601,9
19.28,20.46251,1.488052,-31.38647,-0.2240568348705802,0.0121444342889674,-0.0808094290239407,67.96563,42.08321,161.9868,0.3757188,-0.4686339,0.7329548,9
19.3,20.55442,1.669242,-31.3423,-0.1533382672971184,-0.0566857518992726,-0.0488387964952323,70.93948,38.54779,158.2126,0.3675012,-0.4870737,0.7187231,9
19.32,20.68822,1.177928,-31.27585,-0.100356834373716,-0.0174142350274231,-0.0260481010921989,52.1371,49.25542,171.1585,0.4040047,-0.3694304,0.8000131,9
19.34,20.78257,1.356019,-31.22846,-0.0468908478550407,0.0219762360299642,-0.0031354591712062,55.24442,48.15112,169.7887,0.3976827,-0.3894612,0.7889056,9
19.36,20.87572,1.531376,-31.18167,0.0161258458760134,-0.0074544385337815,0.0180798413993983,58.33292,46.8111,168.1876,0.3910507,-0.4091806,0.7771823,9
19.38,20.96755,1.704082,-31.13554,0.0661123539499941,0.0329316930548204,0.033217312028217,61.39656,45.16294,166.2826,0.3841161,-0.4285735,0.7648529,9
19.4,21.12408,1.250598,-31.10401,0.1162053435459036,0.0724579431098678,0.0481852879805897,26.21926,58.52638,176.0049,0.4826902,-0.1811545,0.8452663,9
19.42,21.2299,1.420041,-31.05141,0.166032111773843,0.1081344079579516,0.0627657000480441,29.67209,58.36213,175.6545,0.4794535,-0.2055268,0.8386369,9
19.44,21.33395,1.586061,-30.99969,0.2136995609858991,0.0481980229716519,0.0726508361916002,33.12363,58.16648,175.2791,0.4757782,-0.2297084,0.8312408,9
19.46,21.42489,1.27202,-30.97551,0.2511562566840006,0.0795330195781099,0.0848785846660642,2.455458,64.45901,177.941,0.5334291,-0.008541968,0.8453826,9
19.48,21.53474,1.438762,-30.92245,0.2855325695294342,0.1100606844519627,0.0958783930991384,5.99913,64.46013,177.9559,0.5332944,-0.03475835,0.8441224,9
19.5,21.6426,1.601861,-30.87035,0.3163692539974208,0.136985626146591,0.1054195947921687,9.541815,64.46219,177.971,0.5326499,-0.06093407,0.8420555,9
19.52,21.74828,1.761461,-30.8193,0.3323313487791259,0.0694883795344354,0.1071090027392065,13.08349,64.46523,177.9864,0.5314968,-0.08704428,0.8391849,9
19.54,21.85636,1.293923,-30.77636,0.359241320758612,0.0947911826302789,0.117202466968532,352.8096,67.14034,179.2408,0.5515114,0.05590289,0.8317811,9
19.56,21.96779,1.45558,-30.72069,0.3826540755120846,0.1188064176774856,0.1264721809188209,356.3857,67.11862,179.4715,0.5523978,0.02882717,0.8329711,9
19.58,22.07695,1.613447,-30.66616,0.4020831720482225,0.1388038951808049,0.1346517604415642,359.9607,67.11135,179.7003,0.5527444,0.001730987,0.8333468,9
19.6,22.18361,1.767692,-30.61287,0.4002106275693049,0.1286373099900171,0.1323317523127998,3.534842,67.11833,179.9291,0.5525506,-0.02535968,0.8329084,9
19.62,22.12498,1.262234,-30.64779,0.3946312303948405,0.1203886265836987,0.1288295548629077,355.7189,67.75248,180.5598,0.5571568,0.02828909,0.8295527,9
19.64,22.23365,1.426113,-30.59277,0.3849188693814622,0.1112901398932248,0.1238990441076675,359.2661,67.73999,180.8455,0.557323,0.001205491,0.8302383,9
19.66,22.34019,1.586368,-30.53883,0.3560250933676494,0.0280372001218044,0.1103659852049689,2.812352,67.74517,181.1306,0.556952,-0.02587151,0.8301237,9
19.68,22.4444,1.743155,-30.48606,0.3411452107477206,0.0441521480243618,0.1059547670985616,6.357501,67.76813,181.4175,0.5560445,-0.05291574,0.8292091,9
19.7,22.39998,1.237911,-30.51016,0.3230997468637944,0.060584959894927,0.1004300435810776,6.118535,68.39467,182.581,0.5601074,-0.05677051,0.826394,9
19.72,22.51018,1.405223,-30.45558,0.2818046324865513,0.0011269382218279,0.0854146171383916,9.74023,68.43676,182.8859,0.558373,-0.08428875,0.8248559,9
19.74,22.61839,1.568834,-30.40198,0.2511494858753433,0.0183686966923632,0.0753949892475569,13.36114,68.49914,183.1971,0.5560772,-0.1117169,0.8224885,9
19.76,22.56732,1.208821,-30.41599,0.2175237586538401,0.0368764962730074,0.0641010169034181,13.42307,68.60196,183.5422,0.5564271,-0.113797,0.8220712,9
19.78,22.67613,1.383273,-30.36363,0.1805225276912128,0.0538204715386092,0.0513305071282852,17.02936,68.67649,183.8257,0.5534683,-0.1408117,0.8189537,9
19.8,22.78335,1.554148,-30.31204,0.1397734764868183,0.0513524370709687,0.0368976820639233,20.63424,68.77165,184.1204,0.5499591,-0.1676788,0.8150215,9
19.82,22.8888,1.721569,-30.2613,0.0541773523398361,-0.0502990661718744,0.0033151841796099,24.23751,68.88949,184.4289,0.5459035,-0.1943694,0.81028,9
19.84,22.78667,1.168303,-30.29439,0.0090339625011037,-0.0397388311649356,-0.012395955466617,20.1368,66.93237,184.0749,0.5374241,-0.1650513,0.8242728,9
19.86,22.89211,1.352952,-30.24464,-0.0362716979907089,-0.0272501139893922,-0.0281921718672175,23.69219,66.98797,184.2238,0.5334209,-0.1909818,0.8198034,9
19.88,22.99656,1.534254,-30.19535,-0.1068165120380824,-0.096848931209778,-0.0535484485000541,27.24642,67.0556,184.3809,0.5289049,-0.2167208,0.8145452,9
19.9,23.09984,1.712289,-30.14661,-0.1499486779103334,-0.0805586108013817,-0.0678960854339267,30.79901,67.13676,184.5481,0.523881,-0.2422396,0.8085054,9
19.92,22.96268,1.13914,-30.19496,-0.1913555650296525,-0.0619860127077622,-0.0814846807297984,26.28235,63.68283,183.9751,0.5067469,-0.2108394,0.8309275,9
19.94,23.06468,1.331735,-30.1464,-0.2313503637671083,-0.0442787464642902,-0.0944519097770975,29.77649,63.65434,183.9144,0.5019017,-0.2355817,0.825268,9
19.96,23.16615,1.521179,-30.0981,-0.2682117697821016,-0.0536533918385932,-0.106154989565367,33.26914,63.6204,183.8496,0.496592,-0.2600951,0.8188437,9
19.98,23.13465,1.12185,-30.0987,-0.3015758411978186,-0.0584780077667768,-0.1165183154468398,34.68614,60.12672,183.2603,0.4706496,-0.2714896,0.8300389,9
20.0,23.23402,1.319732,-30.05093,-0.3317021896407968,-0.0620915765765425,-0.1256645210439853,38.11414,59.93701,182.9408,0.4647333,-0.2948777,0.8227372,9
20.02,23.33317,1.514606,-30.00326,-0.3646830528327558,-0.1513675352974867,-0.1377726036397648,41.54021,59.71212,182.5898,0.4584007,-0.317994,0.8146974,9
20.04,23.43193,1.706492,-29.95578,-0.3749415241396479,-0.1235993739296681,-0.1417223075764697,44.96412,59.4447,182.1997,0.451658,-0.3408178,0.8059276,9
20.06,23.44371,1.114531,-29.95688,-0.3812442257975976,-0.0939297982913475,-0.1442702451229651,44.68271,59.35538,181.13,0.4546755,-0.3347608,0.8054235,9
20.08,23.54105,1.315036,-29.91002,-0.3838573885987881,-0.065711336610798,-0.1455435940455252,48.04869,59.04045,180.6951,0.4478897,-0.3569959,0.7960024,9
20.1,23.63832,1.51265,-29.8632,-0.3830353903510106,-0.0573239184572183,-0.1456717613453935,51.41185,58.66203,180.1993,0.4407163,-0.3789142,0.7858921,9
20.12,23.75454,1.10721,-29.80854,-0.3671304417750614,-0.0629911334368547,-0.1378074677772969,53.27365,57.16693,177.6937,0.4354963,-0.3850051,0.7804472,9
20.14,23.84986,1.305614,-29.76311,-0.3468572020010692,-0.0653135848995919,-0.1283111240824146,56.56242,56.53677,176.924,0.4281197,-0.4059491,0.7693055,9
20.16,23.94499,1.501263,-29.71777,-0.3224583526358517,-0.0676784727875804,-0.1172964349492891,59.84414,55.75791,176.008,0.4203872,-0.4265438,0.7575238,9
20.18,24.03979,1.694174,-29.67258,-0.2776471813416821,-0.1534284291367299,-0.0966634761650975,63.11718,54.77685,174.8919,0.4123047,-0.4467753,0.7451113,9
20.2,24.13413,1.77771,-29.62762,-0.2327070476938542,-0.1219064973033393,-0.0762342576293253,66.3783,53.51112,173.493,0.4038795,-0.4666272,0.7320786,9
20.22,24.30965,1.117839,-29.54149,-0.1852836465873255,-0.0898158295558104,-0.0549530678313425,61.83995,46.84951,167.1905,0.3915147,-0.4305042,0.7594814,9
20.24,24.40356,1.30426,-29.49671,-0.1356217774878265,-0.0603684647736434,-0.0329316503840675,64.92979,44.76177,164.8562,0.3838594,-0.4496886,0.7464309,9
20.26,24.49668,1.488028,-29.45231,-0.0864394063666558,-0.0441096208709769,-0.0115066629395652,67.97272,42.06834,161.9192,0.3758955,-0.4685027,0.7327803,9
20.28,24.58887,1.669198,-29.40836,-0.0369764463641848,-0.0259826637149529,0.0099766684318232,70.94639,38.49758,158.1075,0.3676308,-0.4869305,0.7185422,9
20.3,24.78799,1.195205,-29.31135,0.0125378922769501,-0.0091111690840496,0.0313840327547647,48.37185,51.68907,173.1027,0.4191251,-0.3441322,0.8087506,9
20.32,24.88315,1.371614,-29.2636,0.0724052742178789,-0.0624752801667757,0.0532454053568924,51.5112,50.89037,172.0596,0.4132035,-0.364648,0.7984112,9
20.34,24.97703,1.545244,-29.2165,0.1271629815705681,-0.0186772712967847,0.0726562327902624,54.63902,49.93309,170.8626,0.4069597,-0.3848717,0.7874485,9
20.36,25.13522,1.249985,-29.18206,0.1818567693388106,0.0241901210106934,0.0919933952329925,26.3112,58.54861,175.9901,0.4828123,-0.1817493,0.8449823,9
20.38,25.24323,1.418718,-29.12862,0.2361294587436497,0.0631198583019567,0.1110245690528355,29.83324,58.37717,175.6259,0.4794841,-0.2065791,0.8381946,9
20.4,25.34941,1.583886,-29.0761,0.2896402972632619,0.0800883178834949,0.1295275589862825,33.35446,58.1722,175.2348,0.4756986,-0.2312131,0.8306082,9
20.42,25.45354,1.745618,-29.02459,0.3144839920838649,0.086001927919541,0.1450127928323143,36.8748,57.92814,174.8107,0.4714594,-0.25563,0.8222294,9
20.44,25.54451,1.275654,-29.00318,0.3376150339145098,0.0930708974664098,0.1599893079024532,358.4714,65.43829,178.1788,0.5402268,0.01981071,0.8412638,9
20.46,25.65527,1.441369,-28.94984,0.3586092495553554,0.0983888501069062,0.1741837616139454,2.036223,65.43862,178.2504,0.5406038,-0.006696285,0.8409512,9
20.48,25.76398,1.603386,-28.8975,0.3727829873174566,0.1044275406121648,0.1986512340607853,5.600039,65.44343,178.3224,0.5404577,-0.03318933,0.839825,9
