t,pX,pY,pZ,aX,aY,aZ,reX,reY,reZ,rtX,rtY,rtZ,ID
3.06,-43.30582,1.101693,-39.82857,2.919984989083672,-0.0910233150387557,1.4304941722115174,14.60366,356.3865,163.5979,-0.01283213,-0.130195,0.9818307,5
3.08,-43.30658,1.301527,-39.82808,2.968504860202729,-0.075187578381138,1.4446192497678183,14.61991,356.3922,163.6206,-0.01278834,-0.1303247,0.9818413,5
3.1,-43.30733,1.501359,-39.82759,3.01506675625526,-0.1059802999719729,1.4552606996923565,14.63626,356.398,163.6434,-0.01274421,-0.1304552,0.9818518,5
3.12,-43.29469,1.155027,-39.80756,3.057163696960198,-0.1100249154272374,1.462986437143316,14.72019,0.03932196,163.6398,0.01856427,-0.1267531,0.981664,5
3.14,-43.29567,1.35481,-39.80693,3.101812194077139,-0.1345367843468545,1.4660027539092058,14.73896,0.04926859,163.671,0.01863804,-0.1269068,0.98168,5
3.16,-43.22,1.163043,-39.71767,3.142181271247556,-0.1329203149614807,1.4656017974800255,17.76647,5.300836,166.1928,0.06389762,-0.1476461,0.9789343,5
3.18,-43.22834,1.360839,-39.70934,3.177871246013167,-0.1069193163464865,1.4617656757181925,17.97704,5.494374,166.4959,0.0653603,-0.1494087,0.9788615,5
3.2,-43.23673,1.558635,-39.70111,3.208616949938202,-0.0582550951556632,1.4545515125543087,18.1795,5.683388,166.7997,0.06676556,-0.1511146,0.9787915,5
3.22,-43.09534,1.182487,-39.61208,3.2251506352884807,-0.085534205048378,1.4400473194165606,14.64189,13.21999,168.7919,0.1259874,-0.1148259,0.9791135,5
3.24,-43.08717,1.377352,-39.58121,3.2376609774134897,-0.086928707833894,1.4233613238609797,15.6103,13.07393,168.7413,0.1254805,-0.1232072,0.9780312,5
3.26,-42.92295,1.209274,-39.50291,3.2476257637264974,-0.1118605217748558,1.404921304245068,5.980581,22.26765,171.6607,0.1960496,-0.03702816,0.9765171,5
3.28,-42.89956,1.399507,-39.4564,3.253304496362724,-0.1112062706272977,1.384338830520809,7.551973,21.8372,171.4482,0.1932982,-0.05039168,0.9761088,5
3.3,-42.87649,1.58899,-39.4097,3.254445173251652,-0.0867022814790969,1.3615885509240222,9.133181,21.39775,171.2266,0.1904998,-0.06384978,0.9754973,5
3.32,-42.70495,1.234566,-39.35189,3.242345418159081,-0.1118277427688012,1.3348008921467356,359.8944,29.71144,175.2497,0.2561286,0.01151515,0.9657536,5
3.34,-42.66101,1.411609,-39.27127,3.2261495390051884,-0.1115910420570401,1.3069338510165665,2.630731,29.22359,175.165,0.2529146,-0.01155522,0.9662971,5
3.36,-42.6174,1.586734,-39.19217,3.195877850785505,-0.1411989896307824,1.2741567212190397,5.358062,28.75842,175.0418,0.2497933,-0.03450419,0.9662071,5
3.38,-42.39135,1.268765,-39.19095,3.1615900090944304,-0.1448039690322063,1.2410572407969802,354.1908,38.00825,179.9983,0.3252172,0.04791602,0.9442807,5
3.4,-42.3265,1.431111,-39.08429,3.1231871616709306,-0.1241828323897022,1.2077359198013893,357.8242,37.48613,180.2562,0.3213063,0.01726149,0.9467824,5
3.42,-42.23587,1.257657,-39.1482,3.064972790833472,-0.1564398490393983,1.165993834399221,358.6441,43.10493,181.2984,0.3674286,0.006842046,0.9299077,5
3.44,-42.17965,1.431277,-39.07109,3.0038654342383087,-0.1622378231257853,1.124670911130334,1.438025,42.60201,181.4898,0.3630563,-0.01641293,0.9315922,5
3.46,-42.1246,1.602664,-38.9948,2.9281676168837256,-0.1947324368075998,1.0792007584611332,4.235062,42.1077,181.6568,0.3584639,-0.03966955,0.9327005,5
3.48,-42.08443,1.243229,-39.08472,2.850720089149835,-0.2002319919887048,1.034421999317387,5.544162,47.06562,182.5481,0.3977225,-0.05319722,0.9159617,5
3.5,-42.01948,1.417262,-39.00743,2.771596362670904,-0.1805262340342686,0.9901336872765728,8.523067,46.59182,182.7749,0.3926184,-0.07778062,0.9163784,5
3.52,-41.97628,1.221966,-39.05659,2.670934993564263,-0.2167780617584477,0.9396114114624536,11.23873,50.55813,183.3312,0.4222222,-0.1008575,0.9007285,5
3.54,-41.90804,1.400483,-38.98582,2.570031576837656,-0.2248569125047446,0.8904306989880091,14.17248,50.10685,183.5553,0.4165596,-0.1247384,0.9001816,5
3.56,-41.84095,1.576642,-38.91562,2.468844635185153,-0.2065968876730223,0.8425216587978603,17.10749,49.66154,183.7584,0.4106186,-0.1485316,0.8990229,5
3.58,-41.8619,1.194195,-39.01622,2.344561400179747,-0.2439998193996629,0.7865679377832633,15.46709,53.34282,183.7412,0.4406283,-0.1347027,0.8869678,5
3.6,-41.79002,1.377522,-38.95104,2.221412698387832,-0.2522328558386577,0.7328826209363015,18.40804,52.90123,183.9385,0.4345108,-0.1582312,0.8857177,5
3.62,-41.77239,1.170414,-38.98779,2.08483456970112,-0.289211735679813,0.6767702421370432,19.5325,54.15728,184.0799,0.4429554,-0.1669082,0.8796718,5
3.64,-41.69949,1.358678,-38.92764,1.9501880259490785,-0.2960917462965236,0.6234382238980851,22.43744,53.70318,184.2027,0.4363877,-0.1897066,0.8777652,5
3.66,-41.62736,1.544754,-38.86761,1.817564577139307,-0.2747863370005969,0.5728711020802661,25.34279,53.24614,184.3028,0.4295351,-0.2123758,0.875276,5
3.68,-41.66815,1.146442,-38.94234,1.666518662439338,-0.3107873177097488,0.5161218791853512,24.07731,53.83937,184.0741,0.4358937,-0.201593,0.8748379,5
3.7,-41.59233,1.339454,-38.88536,1.519131117574025,-0.3158240572489233,0.463312262701149,27.03255,53.33823,184.0636,0.4287271,-0.2241979,0.8720368,5
3.72,-41.5751,1.129009,-38.89715,1.3755317119452624,-0.2918615267297373,0.4144175828276699,29.58948,52.10062,183.7434,0.4168811,-0.2431605,0.8718231,5
3.74,-41.4982,1.325977,-38.84235,1.21715513471014,-0.3246446548997798,0.3600292936275284,32.55877,51.51036,183.56,0.4090613,-0.2653083,0.8679146,5
3.76,-41.4217,1.520748,-38.78739,1.0646246489373947,-0.3258862121223215,0.3107366139312155,35.52822,50.88781,183.3324,0.400959,-0.2872862,0.8633994,5
3.78,-41.43125,1.118685,-38.81232,0.9110771856816484,-0.3542976844231789,0.2620482350990301,37.25792,50.71254,183.0221,0.3980554,-0.2992652,0.8596266,5
3.8,-41.34663,1.317795,-38.75475,0.7647184207360178,-0.3508483788701227,0.2192240317763767,40.48576,49.96745,182.6224,0.3889931,-0.3226102,0.8535631,5
3.82,-41.27803,1.114992,-38.73919,0.6230834011518116,-0.3740896475429629,0.1815556966961278,43.24366,51.60319,181.7376,0.3995533,-0.337841,0.8392934,5
3.84,-41.19027,1.315406,-38.68198,0.488975488361663,-0.3653579758035449,0.1499649756594285,46.54882,50.78255,181.2738,0.3899111,-0.3613217,0.8317167,5
3.86,-41.1028,1.51311,-38.62449,0.3625478415992589,-0.3267431582109928,0.1244059423146,49.84771,49.86644,180.706,0.3799396,-0.3844857,0.8234271,5
3.88,-41.08586,1.112928,-38.63438,0.237908979369223,-0.3451120233385097,0.1015309909131829,48.07542,51.0591,179.525,0.3951214,-0.3659321,0.8233734,5
3.9,-40.99775,1.313475,-38.57823,0.1214958826054974,-0.3316425398681759,0.0848541710324095,51.36807,50.09937,178.9118,0.3852823,-0.3890009,0.8146527,5
3.92,-40.90991,1.511326,-38.52178,0.0134984852072088,-0.2883991811805071,0.0743438441573518,54.6522,49.0035,178.155,0.375119,-0.4117299,0.8052362,5
3.94,-40.7487,1.102163,-38.44701,-0.0716830817786808,-0.3001190233246316,0.0831318454589071,59.7159,48.34526,174.0378,0.3782735,-0.4351138,0.7795442,5
3.96,-40.66162,1.295891,-38.39279,-0.1490818456413816,-0.281287440823149,0.0973663457221754,62.93755,46.70145,172.7235,0.367796,-0.4568586,0.7683586,5
3.98,-40.57577,1.487318,-38.34047,-0.2184922815450969,-0.2338736986779453,0.1170125133657862,66.07755,44.63561,170.9492,0.3571422,-0.4776764,0.756753,5
4.0,-40.46355,1.120362,-38.2962,-0.2774870251085151,-0.2337485884798893,0.1461377562726786,61.34235,40.55677,167.0251,0.3502521,-0.4417489,0.781658,5
4.02,-40.38875,1.310464,-38.25742,-0.3281224572982255,-0.2042213448646085,0.1809842149334377,63.78633,37.6923,164.5342,0.3390473,-0.4585621,0.7732461,5
4.04,-40.21862,1.166585,-38.17599,-0.3611184222288157,-0.1910301108639953,0.2295598015040525,55.04589,40.37767,168.421,0.3482465,-0.4006267,0.8120068,5
4.06,-40.14234,1.352137,-38.1405,-0.3854914451964868,-0.1496137614049481,0.283824231944811,57.36747,38.05632,166.2269,0.3383656,-0.4161792,0.8045997,5
4.08,-40.06743,1.536098,-38.10543,-0.4010144680870526,-0.0818418270441761,0.3436981636555032,59.61499,35.39716,163.7092,0.3282245,-0.4314075,0.7968809,5
4.1,-39.9711,1.218478,-38.07591,-0.4073413323554637,-0.0194960661973891,0.4090350257254718,42.23413,47.71038,173.4779,0.3954004,-0.3075021,0.8434838,5
4.12,-39.89065,1.400343,-38.04269,-0.4042541332871767,-0.0558916309965867,0.4735981196705445,44.66489,46.58292,172.1633,0.3887457,-0.3232044,0.8373595,5
4.14,-39.75978,1.258975,-38.02229,-0.3912295172904398,-0.0169753720948546,0.5428616745239552,25.17741,53.68709,175.4745,0.4480345,-0.1769137,0.8662286,5
4.16,-39.67352,1.438382,-37.99369,-0.3669488636397107,-0.0282207574843364,0.616297714587164,27.688,53.27657,174.5529,0.4450035,-0.1929534,0.861811,5
4.18,-39.58921,1.616027,-37.96569,-0.3414577045866656,0.0136329624679005,0.6840416217591505,30.16436,52.77636,173.5906,0.4415003,-0.2087368,0.8571286,5
4.2,-39.50612,1.791746,-37.93783,-0.3026827154372506,0.0498991293472963,0.7572804225095702,32.63136,52.20625,172.5837,0.4377009,-0.2244376,0.8520412,5
4.22,-39.48811,1.279838,-37.93823,-0.2593879584915459,0.0089424193416286,0.8264391784765452,1.494822,60.98039,177.5524,0.5074722,-0.0004020426,0.8613049,5
4.24,-39.40155,1.456714,-37.90481,-0.2232930503142798,0.0465549736867265,0.8898971210726128,4.142641,60.94907,177.1784,0.5074375,-0.01866247,0.8605793,5
4.26,-39.30397,1.294374,-37.86865,-0.1755337338343894,0.0784271754700134,0.9554065672199484,352.4477,63.79663,178.3221,0.526391,0.0636275,0.8475628,5
4.28,-39.21758,1.469364,-37.8354,-0.139991926084253,0.0894126566566229,1.0122398010858893,355.0782,63.92197,178.1176,0.5281838,0.04511061,0.8478854,5
4.3,-39.13264,1.642337,-37.80271,-0.0955017474832988,0.0964097084463249,1.068702688950939,357.701,64.02603,177.9198,0.5296091,0.02662842,0.8478105,5
4.32,-39.10912,1.305448,-37.7837,-0.0476546341026233,0.0461895891471312,1.1168774741621768,352.6041,64.75521,179.2302,0.5340039,0.05805863,0.8429919,5
4.34,-39.02456,1.478184,-37.74508,-0.0126095405013533,0.0710780435265491,1.1622043140991325,355.2452,64.85787,179.2315,0.5355448,0.03860517,0.843461,5
4.36,-39.01061,1.270502,-37.73372,0.0274113039588641,0.0925181901968409,1.2005599372114384,354.8966,65.06723,180.4264,0.5373971,0.035535,0.8421454,5
4.38,-38.92985,1.444971,-37.69175,0.0591934427667002,0.0371357514960888,1.2179075597520876,357.5417,64.93739,180.5013,0.5367892,0.01574995,0.8434324,5
4.4,-38.85015,1.617134,-37.64909,0.0700609715527109,0.0517134298807184,1.2399138806011685,0.2073884,64.77515,180.5893,0.5356279,-0.004282916,0.8444365,5
4.42,-38.88201,1.253772,-37.66446,0.0823175107416913,0.0650186999565552,1.250548394366669,0.5966773,64.90383,181.3947,0.5364912,-0.01092413,0.8438022,5
4.44,-38.8015,1.429218,-37.62086,0.0773875397320447,0.0529027959332576,1.2620369055821694,3.287036,64.63423,181.4704,0.5340299,-0.03109325,0.8448817,5
4.46,-38.80427,1.238981,-37.60957,0.0756769900362845,0.0408142396190298,1.2669877690294138,7.457371,64.24097,182.6422,0.5291651,-0.06729575,0.8457118,5
4.48,-38.72183,1.41675,-37.56605,0.0769799427187676,0.0255873918343085,1.2647071554740783,10.21133,64.06442,182.6945,0.5263717,-0.08784373,0.8452629,5
4.5,-38.63938,1.592358,-37.52403,0.0609386604065989,0.0089356371385638,1.2605925010046253,12.97409,63.96838,182.7168,0.5238743,-0.1082773,0.8439456,5
4.52,-38.69804,1.203971,-37.5298,0.0477228579582673,-0.0065229095442019,1.250171847288704,14.07191,63.49001,183.5194,0.5187328,-0.1201528,0.8455753,5
4.54,-38.61523,1.386829,-37.48512,0.0401871255157955,0.0310806229107004,1.2516685626369846,16.89106,63.45516,183.596,0.516003,-0.1411801,0.8433438,5
4.56,-38.53333,1.56756,-37.44104,0.0143591309515977,-0.0124537096202123,1.2321847461799624,19.70356,63.43215,183.669,0.5130332,-0.1620552,0.8405696,5
4.58,-38.61358,1.178705,-37.46306,-0.008512921245054,-0.055046704013885,1.2073538681749838,18.07751,61.35361,183.9513,0.4989017,-0.1524076,0.8516373,5
4.6,-38.53302,1.366065,-37.41634,-0.0155809787075487,-0.0165288681640512,1.2021884395818558,20.90311,61.31175,184.0111,0.4956526,-0.1735043,0.8486913,5
4.62,-38.55634,1.154875,-37.4029,-0.043819106917871,-0.0606278314584404,1.1747545982536804,22.40562,57.89644,183.9762,0.4686127,-0.1863775,0.8611295,5
4.64,-38.47818,1.346963,-37.35474,-0.0605013679481256,-0.0450406512384186,1.1588672907907949,25.22295,57.77158,183.9342,0.4645704,-0.2072428,0.8575761,5
4.66,-38.40044,1.536976,-37.30674,-0.0859192201274225,-0.0852659796821724,1.1321704866157545,28.03963,57.64215,183.886,0.4602506,-0.2279849,0.8535023,5
4.68,-38.46852,1.13332,-37.32215,-0.1075508598762322,-0.1238100003035384,1.1028688779854443,27.50106,54.15527,183.9389,0.4346167,-0.2267116,0.8680794,5
4.7,-38.39043,1.329347,-37.26994,-0.1087490316637023,-0.0767762424731574,1.0907645290582175,30.41297,53.98419,183.8078,0.4299692,-0.2481481,0.8633505,5
4.72,-38.3126,1.523197,-37.21781,-0.1146026667131039,-0.1148481157655702,1.069953421676802,33.32663,53.7997,183.6621,0.4250409,-0.2694393,0.8580578,5
4.74,-38.36739,1.121839,-37.23221,-0.1078466610154516,-0.0909955180557719,1.0575754131735025,34.4563,50.69547,183.252,0.4011433,-0.2791582,0.8664292,5
4.76,-38.28563,1.320436,-37.17573,-0.0971871553161882,-0.0666220780275868,1.0439146753121422,37.55286,50.39749,182.9277,0.3955295,-0.3014481,0.8599041,5
4.78,-38.2535,1.115597,-37.15078,-0.0929724397269948,-0.1288659550423595,1.019069972109696,41.79438,49.37071,182.3332,0.3834843,-0.3319723,0.8517053,5
4.8,-38.16748,1.315788,-37.09034,-0.071925000888334,-0.1018242159169909,1.0047660151576592,45.07464,48.95096,181.8786,0.3768934,-0.3550689,0.8431219,5
4.82,-38.09986,1.113779,-37.03453,-0.0476715564119683,-0.0743062854831684,0.9890375256896684,46.36589,47.89711,180.3262,0.3721139,-0.3608384,0.8405661,5
4.84,-38.01458,1.314378,-36.97217,-0.0160051450535405,-0.0747120883135953,0.978706551130192,49.66254,47.39423,179.7937,0.3654371,-0.3838814,0.8307214,5
4.86,-37.92941,1.512215,-36.90978,0.0176506562775733,-0.0728763601376943,0.96648490435099,52.95462,46.80331,179.1736,0.3584568,-0.4065954,0.8201838,5
4.88,-37.88722,1.107165,-36.87079,0.0530012424498487,-0.072231042207842,0.95204672295431,53.35503,45.37086,177.6137,0.3531668,-0.4069687,0.8206352,5
4.9,-37.80348,1.305645,-36.80814,0.1056838662233259,-0.0702269870050632,0.9491073653406517,56.61741,44.58886,176.7893,0.3461572,-0.4292432,0.8092325,5
4.92,-37.71994,1.501423,-36.74554,0.1595230808129839,-0.0669848400890591,0.9437672819319678,59.87137,43.63902,175.7978,0.3388647,-0.4511564,0.7971624,5
4.94,-37.53619,1.109267,-36.58995,0.2274563375880873,-0.1160861666123459,0.946452226611461,62.65743,35.49844,167.7466,0.3117675,-0.4645771,0.7919748,5
4.96,-37.45453,1.298031,-36.52675,0.2840928033477787,-0.0772007878403149,0.9430015757211424,65.75742,33.29898,165.4226,0.304663,-0.4853729,0.7783779,5
4.98,-37.37351,1.484181,-36.46393,0.3395250590233374,-0.0391587220403594,0.9360271401279469,68.8092,30.45464,162.4552,0.297316,-0.5057688,0.7641552,5
5.0,-37.27755,1.144549,-36.37257,0.3935398185803818,-0.0051900497305237,0.9255133263250644,58.34464,32.71385,167.8017,0.2942008,-0.4389351,0.81849,5
5.02,-37.19757,1.326589,-36.30639,0.4470340706326254,0.012399347216025,0.9152270632613142,61.39079,30.80336,165.7159,0.2877901,-0.4599292,0.8057244,5
5.04,-37.05445,1.195946,-36.18378,0.5000699972978104,0.0298998338437858,0.9035729084111592,48.21621,38.04457,173.1477,0.3200522,-0.3676845,0.853433,5
5.06,-36.97393,1.372419,-36.11496,0.54753657376697,0.0505230049844275,0.8852310959318022,51.34434,37.1301,172.0889,0.314599,-0.3899047,0.8428372,5
5.08,-36.89455,1.546141,-36.04699,0.5942468124664941,0.0699909203653455,0.8665541554221914,54.45919,36.04848,170.8656,0.3089023,-0.4118135,0.8315859,5
5.1,-36.81644,1.717199,-35.97996,0.639888587095081,0.0849802844645198,0.847306983132138,57.55716,34.75464,169.4329,0.3029706,-0.4333956,0.8196883,5
5.12,-36.73991,1.250339,-35.95758,0.6836066356561021,0.1009368389720551,0.8249167566737601,26.13713,44.28258,175.993,0.3742284,-0.1964793,0.8987367,5
5.14,-36.64879,1.419101,-35.87903,0.7251754224605067,0.1152583266890742,0.8025711149136825,29.65725,43.99648,175.6067,0.3709325,-0.2232424,0.8919828,5
5.16,-36.5645,1.268613,-35.82353,0.7564375977928091,0.1729015475788407,0.7819100636571941,7.972825,48.68497,177.5543,0.4124509,-0.05454951,0.9080751,5
5.18,-36.47299,1.4362,-35.74515,0.7760431388723266,0.1574884228854452,0.7538579026444188,11.48405,48.5667,177.4761,0.4110953,-0.08216357,0.9058231,5
5.2,-36.38317,1.600233,-35.66807,0.791937430471668,0.138810440152849,0.7270925199381981,14.9941,48.44186,177.3893,0.4093543,-0.1096925,0.9027204,5
5.22,-36.35871,1.279373,-35.6585,0.8036476657442,0.113637472085053,0.7014006449254948,354.395,51.80318,178.4084,0.4356514,0.05003741,0.89868,5
5.24,-36.26556,1.444322,-35.57846,0.8216993058596307,0.1157525357330516,0.6798363988377876,357.9553,51.69037,178.5291,0.4356297,0.02165153,0.8998579,5
5.26,-36.17426,1.605582,-35.49984,0.8349992186607258,0.115339148449149,0.659431742152802,1.514676,51.58522,178.6427,0.4351874,-0.006747005,0.9001652,5
5.28,-36.08859,1.296059,-35.44502,0.8412173653183403,0.1598246250093691,0.6394638672956425,353.4709,53.0862,179.4997,0.4459191,0.05289109,0.8932493,5
5.3,-35.99563,1.456979,-35.36195,0.8245951454149827,0.1267589984581365,0.6041152516231012,357.0492,52.95953,179.7688,0.4456865,0.02394541,0.8948166,5
5.32,-35.94381,1.261986,-35.33172,0.8029702156461669,0.0908579395629829,0.5704170288596275,355.7771,53.70838,180.5806,0.4515757,0.03058226,0.8914577,5
5.34,-35.85256,1.425929,-35.25145,0.78491853269374,0.1251457370463283,0.5401631642384386,359.3225,53.59224,180.8592,0.4508362,0.001897525,0.8925559,5
5.36,-35.76318,1.586265,-35.17266,0.7502970828274416,0.0832145630037387,0.4996090545727654,2.867274,53.49332,181.1308,0.4496632,-0.02678075,0.8927935,5
5.38,-35.76783,1.245953,-35.18999,0.7217266409745635,0.0959717484310206,0.4645248319871324,1.426517,54.27275,181.5906,0.4558769,-0.01740742,0.8898475,5
5.4,-35.67446,1.411012,-35.10947,0.68916678019119,0.1059468419140978,0.4302709223014718,5.051256,54.18515,181.879,0.4542827,-0.04668606,0.8896165,5
5.42,-35.58297,1.572353,-35.0304,0.6374203776811358,0.0377991738634533,0.3848350297687402,8.676061,54.11539,182.1638,0.4522316,-0.07591398,0.8884891,5
5.44,-35.59413,1.226152,-35.0394,0.5990602883883733,0.0475324884856071,0.3492576176585986,10.36997,54.4693,183.1713,0.4533651,-0.0929337,0.8863069,5
5.46,-35.50064,1.396523,-34.96048,0.5576596151971076,0.0554820920981649,0.3149432410467438,14.00177,54.4237,183.4459,0.4504082,-0.1219922,0.8839679,5
5.48,-35.40878,1.563229,-34.88277,0.5035678776395631,0.0377062402982516,0.2693998286243744,17.63267,54.39561,183.7224,0.4469977,-0.1509187,0.8807365,5
5.5,-35.47587,1.199484,-34.93882,0.4475793892990074,0.0210614178205719,0.2260579904428494,14.79249,54.82508,183.6579,0.4526836,-0.1287896,0.8817717,5
5.52,-35.38364,1.376168,-34.86302,0.3891858777604788,0.0022911531584698,0.1849495380784311,18.38251,54.79494,183.914,0.4491446,-0.1572445,0.8784355,5
5.54,-35.29272,1.549356,-34.78815,0.3296946042470416,-0.0161276501724637,0.139195646298635,21.97158,54.78146,184.174,0.4451641,-0.1855358,0.8742335,5
5.56,-35.3447,1.168153,-34.82233,0.2693533788052926,-0.0324806339288646,0.0962160690719446,20.16828,53.18922,184.0655,0.4349281,-0.1721041,0.8826089,5
5.58,-35.25455,1.352954,-34.74933,0.2078736226057902,-0.0501170571085894,0.0559717425261698,23.71444,53.13479,184.1954,0.4306869,-0.1996757,0.8781018,5
5.6,-35.1653,1.534444,-34.67693,0.1691500566455026,0.012798115019703,0.0282425224310989,27.25967,53.08787,184.3253,0.4260344,-0.2270479,0.8727536,5
5.62,-35.24303,1.145411,-34.73223,0.101704508835418,-0.0356509382237141,-0.0173648044352487,24.61541,50.96011,184.0494,0.4132487,-0.2071581,0.8846769,5
5.64,-35.15512,1.33639,-34.661,0.0509078923376415,-0.0229823392678738,-0.0541003966123847,28.11375,50.85095,184.0348,0.4085001,-0.2338855,0.8792281,5
5.66,-35.15366,1.128712,-34.64822,0.0021268983044926,-0.0099555546933582,-0.0869685626408944,30.06186,48.13026,183.7057,0.3859611,-0.2494087,0.8848006,5
5.68,-35.06782,1.324516,-34.57825,-0.0588107579968477,-0.0831086703190261,-0.1259157134953241,33.50872,47.92126,183.5035,0.3806349,-0.2751917,0.8782022,5
5.7,-34.98233,1.51729,-34.50845,-0.0956007513880141,-0.0670321247147234,-0.1511747776655987,36.95383,47.68813,183.2769,0.3749655,-0.3007171,0.8708088,5
5.72,-34.95594,1.117132,-34.4878,-0.1311002190960559,-0.1065935862292371,-0.1757314220793437,39.65687,46.04522,182.676,0.3605174,-0.320693,0.8686472,5
5.74,-34.87138,1.316507,-34.41946,-0.1635112548883861,-0.144516961719271,-0.1963038890919186,43.04969,45.6707,182.2639,0.354268,-0.3452142,0.8599943,5
5.76,-34.78698,1.512957,-34.35115,-0.1731480943575967,-0.0953635033123232,-0.2029735449210075,46.43932,45.23842,181.7951,0.347708,-0.3694234,0.8505832,5
5.78,-34.77447,1.114512,-34.35062,-0.1795474713027367,-0.0477072300036654,-0.2058584310681257,44.70588,45.95464,181.1111,0.3576222,-0.3536212,0.8528797,5
5.8,-34.69122,1.315069,-34.28317,-0.1846499698449797,-0.0563204087401556,-0.2082830204716681,48.05268,45.53098,180.6668,0.351243,-0.3774878,0.8431072,5
5.82,-34.60809,1.512784,-34.2157,-0.1867073848955045,-0.0623799574991454,-0.2070773856306607,51.39595,45.03573,180.1512,0.3445638,-0.4010228,0.8326119,5
5.84,-34.5101,1.107136,-34.1424,-0.1832069489010428,-0.0093993113191631,-0.2016607688690102,53.3443,43.80883,177.6579,0.3418041,-0.4095787,0.8254838,5
5.86,-34.42815,1.305542,-34.07659,-0.163940653339468,-0.0422283663548789,-0.1836304589848296,56.6262,43.06329,176.8719,0.3350304,-0.4322078,0.8138762,5
5.88,-34.3464,1.501219,-34.01084,-0.1429723917503036,-0.0749634832132234,-0.1633679275917443,59.90009,42.15601,175.9248,0.3279792,-0.4544669,0.8015926,5
5.9,-34.22671,1.104539,-33.91762,-0.1141182107867866,-0.0209379546181021,-0.1375045745517766,61.23197,38.43559,171.1522,0.3195252,-0.4576184,0.7972909,5
5.92,-34.14587,1.295739,-33.85326,-0.0657778059296636,-0.0434252269889701,-0.0960248731835307,64.40305,36.79337,169.4206,0.3125298,-0.4788916,0.7840103,5
5.94,-33.97176,1.129041,-33.71318,-0.0167646818874249,-0.0670825136485352,-0.0530446122791286,60.93805,32.3469,166.7153,0.2948007,-0.4559647,0.8058977,5
5.96,-33.89178,1.313244,-33.64763,0.0176122863633434,-0.0073848643005053,-0.022694147763782,63.98277,30.15623,164.3595,0.288181,-0.4767748,0.7925602,5
5.98,-33.81262,1.494829,-33.58264,0.0514969792301318,0.0500649851104794,0.0078771198141156,66.9769,27.38026,161.4205,0.2813343,-0.497199,0.7785953,5
6.0,-33.7344,1.673855,-33.51831,0.0906180618123708,0.0111106080051525,0.0390954104039078,69.89822,23.77639,157.6552,0.2742677,-0.5172215,0.7640149,5
6.02,-33.6201,1.195716,-33.43458,0.1272970158299866,0.0481361859484398,0.0668952746278703,48.26144,38.68858,173.1782,0.3247127,-0.3670711,0.8515113,5
6.04,-33.5395,1.372151,-33.36602,0.1634488560282649,0.0839393091219789,0.0945264726420118,51.39252,37.81489,172.1669,0.3193311,-0.3893022,0.8408969,5
6.06,-33.39268,1.239242,-33.28919,0.1967673772007447,0.0957626091847121,0.1100743598121738,32.01055,43.84647,175.3299,0.3690147,-0.240952,0.8867897,5
6.08,-33.30028,1.408636,-33.21241,0.2297915862464452,0.1074917371803214,0.1252755366974369,35.53554,43.45482,174.8063,0.3650156,-0.267216,0.8786188,5
6.1,-33.20951,1.574491,-33.13684,0.2622005855701612,0.1160587966275566,0.1398307871967778,39.05727,43.00312,174.2267,0.3606665,-0.2932234,0.8696027,5
6.12,-33.10023,1.267952,-33.08461,0.2961160867718702,0.0512386025007747,0.1498825830674164,8.104116,50.07646,177.5546,0.423435,-0.05499942,0.902917,5
6.14,-33.00514,1.434798,-33.00695,0.3299081344517809,0.0777489810372022,0.1660202485187003,11.68324,49.96352,177.4801,0.4220636,-0.08299631,0.9005722,5
6.16,-32.91185,1.597955,-32.93061,0.3608927991660735,0.1023548726943285,0.1797901100850607,15.26117,49.84417,177.3972,0.4202812,-0.1109041,0.8973485,5
6.18,-32.87003,1.279182,-32.91002,0.3845723818587885,0.1031226805716326,0.1873897818169227,354.4211,53.17139,178.4097,0.4463587,0.04971887,0.8934228,5
6.2,-32.77448,1.443909,-32.83183,0.4054910716717788,0.1033435174754244,0.1931064979774235,358.0006,53.06345,178.5323,0.4463888,0.02132891,0.8945776,5
6.22,-32.68082,1.604908,-32.75502,0.4232398014277119,0.1001633055079123,0.1965743907404231,1.579239,52.9633,178.6481,0.4459834,-0.007074096,0.8948575,5
6.24,-32.57922,1.296009,-32.68647,0.441084383144513,0.0928017772362962,0.199061656600044,353.4759,54.18319,179.4951,0.4544488,0.05266237,0.8889429,5
6.26,-32.4844,1.45687,-32.60522,0.4555117670593711,0.0855593810092376,0.1992758122246298,357.0599,54.06176,179.7603,0.4542724,0.02380243,0.8904911,5
6.28,-32.39165,1.613927,-32.52558,0.4661616567199234,0.0756334664874595,0.1968784037230326,0.6432961,53.95716,180.0176,0.4536495,-0.005072564,0.8911626,5
6.3,-32.41898,1.262036,-32.56031,0.4732519379925182,0.1303780778132416,0.194890556737298,355.7664,54.63783,180.5722,0.4587879,0.03052639,0.8877639,5
6.32,-32.32629,1.425969,-32.48164,0.456801746999623,0.0875050066968772,0.1702727403011423,359.3132,54.52679,180.847,0.4581004,0.001942145,0.8888496,5
6.34,-32.23549,1.586292,-32.40443,0.4433221674597489,0.0977203528459988,0.1506177148328862,2.859322,54.43274,181.1152,0.4569722,-0.02663575,0.889078,5
6.36,-32.22374,1.240592,-32.40427,0.4265908426995977,0.1069396491616953,0.1283057343487019,4.016957,55.22883,182.0669,0.4625988,-0.03940495,0.8856918,5
6.38,-32.12925,1.406932,-32.32558,0.3892320071586921,0.0411148739657265,0.0895779266735408,7.640608,55.15938,182.3572,0.4606407,-0.06854579,0.8848457,5
6.4,-32.03659,1.569571,-32.24827,0.3637208929404654,0.0499583239303704,0.0628622725267646,11.26424,55.10796,182.6458,0.4582196,-0.09761415,0.8831086,5
6.42,-32.0503,1.217284,-32.2545,0.3355631062880153,0.0586358509634845,0.0338219384533853,11.91459,55.37659,183.3566,0.459262,-0.1053982,0.8817412,5
6.44,-31.95618,1.389727,-32.17778,0.2849227752645831,-0.0113580655041193,-0.0123613380695819,15.5339,55.34277,183.6297,0.4561182,-0.1341995,0.8790485,5
6.46,-31.8636,1.558557,-32.10218,0.2477818255899579,-0.004217914224573,-0.0476282054188521,19.15229,55.32661,183.9059,0.4525183,-0.162858,0.8754743,5
6.48,-31.92548,1.190872,-32.14863,0.2087778395259976,0.0035478145184915,-0.08482222236479,16.09777,55.42052,183.7668,0.4560971,-0.1390245,0.8782554,5
6.5,-31.83287,1.36961,-32.07464,0.1675710883540007,0.0090493953733198,-0.1241921910578458,19.67712,55.39807,184.0138,0.4524119,-0.1672368,0.8746265,5
6.52,-31.74148,1.544898,-32.00148,0.1167654555348374,-0.0138910262245216,-0.1666600192227676,23.25545,55.39191,184.2653,0.4482849,-0.1952768,0.8701409,5
6.54,-31.78831,1.160726,-32.02734,0.0663318941889525,-0.033416087982555,-0.2093671277405606,21.59254,52.91582,184.0949,0.4313831,-0.1832273,0.8818357,5
6.56,-31.69809,1.347656,-31.95578,0.015980694591581,-0.0526141979991536,-0.2525035010581127,25.12604,52.84777,184.1706,0.4269785,-0.2104647,0.8770283,5
6.58,-31.60867,1.531319,-31.88472,-0.0346085019637532,-0.0737005529224822,-0.2931251097638259,28.65849,52.78298,184.2438,0.4221695,-0.2374933,0.8713879,5
6.6,-31.5202,1.711784,-31.81431,-0.0834172646218847,-0.0910278880546258,-0.3328731025528308,32.18965,52.72118,184.315,0.4169614,-0.2642855,0.864921,5
6.62,-31.63333,1.132713,-31.88984,-0.1306983673752024,-0.1078216928205965,-0.371909989965161,28.05071,49.52475,183.938,0.3985682,-0.2339,0.8839502,5
6.64,-31.5461,1.327145,-31.81992,-0.1638856164256585,-0.1252698870118042,-0.3987788821656619,31.52567,49.36028,183.8035,0.3934369,-0.2600409,0.8777654,5
6.66,-31.45928,1.518491,-31.75022,-0.1939450030039542,-0.1389683551453104,-0.4238701077359765,34.99921,49.17929,183.6515,0.3879454,-0.2859343,0.870774,5
6.68,-31.47157,1.118724,-31.75063,-0.2082120302206815,-0.0929063628809786,-0.4386087620697072,37.4244,46.40211,183.0024,0.365282,-0.3045438,0.8735572,5
6.7,-31.38618,1.31747,-31.68232,-0.2189067701687332,-0.0478590269366457,-0.4512646067518528,40.83416,46.05562,182.6078,0.3592028,-0.3293122,0.8653812,5
6.72,-31.31489,1.115041,-31.63771,-0.2422230998028389,-0.1175432224835577,-0.4749905107528684,43.28793,46.39876,181.7257,0.3610105,-0.3444892,0.8564259,5
6.74,-31.23059,1.315343,-31.57087,-0.2526660244494119,-0.097664150510113,-0.4889772052533097,46.64636,45.98491,181.2778,0.3546054,-0.368441,0.8470063,5
6.76,-31.14643,1.512779,-31.50403,-0.2586998762640671,-0.0768036797114615,-0.5001174486322872,50.00121,45.5023,180.7619,0.3478954,-0.3920661,0.8368551,5
6.78,-31.06252,1.707362,-31.43728,-0.2606745140476669,-0.143204834732734,-0.5097272794040717,53.35183,44.93225,180.1591,0.3408862,-0.4153449,0.8259816,5
6.8,-31.04362,1.109951,-31.42692,-0.248063419414553,-0.1205034856429419,-0.5068182100848335,50.71268,44.9104,178.7133,0.3495857,-0.3918759,0.8332556,5
6.82,-30.96078,1.309379,-31.36125,-0.2310834244418851,-0.0971817666063891,-0.5009812249014569,54.01283,44.28744,178.0491,0.3429404,-0.4148192,0.8222067,5
6.84,-30.87809,1.506045,-31.29561,-0.1914986695643299,-0.1592917372836402,-0.481172799455841,57.30698,43.53925,177.2604,0.3360088,-0.4374065,0.8104681,5
6.86,-30.704,1.104487,-31.1631,-0.1513777005857108,-0.1326133810985061,-0.4604093790247199,61.23825,38.95618,171.1707,0.3230647,-0.4566666,0.795841,5
6.88,-30.6225,1.295637,-31.09911,-0.1086937128836575,-0.106224474703583,-0.4377734072607633,64.4201,37.32983,169.4518,0.3160526,-0.4779629,0.7825263,5
6.9,-30.54152,1.484153,-31.03543,-0.0636676628772114,-0.0833760777565203,-0.4134057491928629,67.57379,35.23941,167.2699,0.3087842,-0.4988592,0.7685769,5
6.92,-30.33575,1.144428,-30.87658,-0.0149893824278044,-0.0758549129615717,-0.3871996936929838,58.36304,33.69348,167.8165,0.3011222,-0.4371663,0.815896,5
6.94,-30.25461,1.326363,-30.81127,0.0353590276273783,-0.0671598826647104,-0.3593003466480677,61.42347,31.80831,165.7494,0.294701,-0.4581529,0.8030929,5
6.96,-30.17439,1.505641,-30.7466,0.0731032886325406,-0.0071828993867129,-0.3412608550918108,64.44289,29.46315,163.2246,0.2880478,-0.4787692,0.7896546,5
6.98,-30.09522,1.68233,-30.68267,0.1227943485437537,-0.0145863742002131,-0.3203214270542087,67.40508,26.48551,160.0696,0.2811697,-0.4989981,0.7755933,5
7.0,-29.97528,1.212083,-30.61543,0.1735169282260455,-0.0228119221405007,-0.2981344002419108,43.02745,41.4258,173.9686,0.3466348,-0.3252347,0.8621687,5
7.02,-29.89047,1.386262,-30.54579,0.2250222058240325,-0.0349980486914767,-0.2749009541102971,46.26709,40.771,173.1734,0.3416835,-0.3485452,0.8523209,5
7.04,-29.80696,1.557492,-30.47709,0.2754402918930587,-0.0226918707293068,-0.2577297169980101,49.49858,40.00517,172.2704,0.3364528,-0.3715618,0.8417736,5
7.06,-29.67171,1.257257,-30.4316,0.3266854566722408,-0.0103317458818706,-0.2398704593418377,19.99256,48.68908,176.5927,0.4104872,-0.1460104,0.8947282,5
7.08,-29.57684,1.425456,-30.35685,0.3683231981162462,0.0450106689706949,-0.2229520322050158,23.5241,48.50565,176.3557,0.4078453,-0.1729755,0.8894839,5
7.1,-29.48368,1.590067,-30.28331,0.4074218572682877,0.0972870123674577,-0.2074362838854822,27.05582,48.30019,176.0983,0.4048133,-0.1997807,0.8833891,5
7.12,-29.37528,1.275732,-30.23638,0.4325738787525459,0.0541067916612063,-0.2038115282060442,358.3662,54.34267,178.1934,0.4563498,0.0198806,0.8895467,5
7.14,-29.27769,1.441416,-30.16191,0.4535273495993497,0.0796969172642864,-0.1974700633913899,1.931371,54.24761,178.2689,0.4560246,-0.008112106,0.8896796,5
7.16,-29.18199,1.603414,-30.08873,0.4715982971852184,0.1037749116999383,-0.1925092840467677,5.495587,54.15699,178.3387,0.4552584,-0.03608868,0.8889503,5
7.18,-29.12297,1.291484,-30.06464,0.4848756272026358,0.0575757710263049,-0.1922477773135589,352.2158,56.30051,179.0587,0.4701899,0.06371339,0.8799134,5
7.2,-29.02439,1.453528,-29.98805,0.5028889710841278,0.0810805397213352,-0.1846403426694483,355.8087,56.18166,179.2876,0.4703462,0.03518455,0.8817024,5
7.22,-28.92789,1.611767,-29.91292,0.5173336294277311,0.1026162634250594,-0.1783886409716535,359.4011,56.07755,179.5084,0.4700386,0.006629168,0.8826202,5
7.24,-28.87528,1.269625,-29.89812,0.5159223789365877,0.0469714962927187,-0.1844579634949608,354.1046,57.49407,180.0157,0.4803132,0.04502028,0.8755883,5
7.26,-28.77898,1.432879,-29.82317,0.5100487167559642,0.0603463758137966,-0.1906716431153903,357.6489,57.3776,180.3186,0.4799992,0.01666259,0.8770247,5
7.28,-28.68467,1.592496,-29.74961,0.4999973852378909,0.0730311968658603,-0.1993826175823314,1.192775,57.28004,180.6141,0.4792232,-0.01170344,0.8776152,5
7.3,-28.59251,1.748635,-29.67759,0.485402388045423,0.0823460633610772,-0.2109173841372422,4.736115,57.20057,180.9043,0.4779863,-0.04005038,0.8773597,5
7.32,-28.63216,1.246043,-29.7378,0.4604368220998882,0.0690751939269039,-0.2247181260047122,1.406382,58.52271,181.6028,0.4885598,-0.01754181,0.872332,5
7.34,-28.53359,1.411194,-29.66431,0.4336238578222828,0.0574568787829976,-0.2395464277954841,5.019068,58.44536,181.9051,0.4870343,-0.04631589,0.8721268,5
7.36,-28.43697,1.572649,-29.59214,0.4045877174863559,0.0446390084751218,-0.2557163032067957,8.631743,58.38671,182.2041,0.4850218,-0.07503829,0.871048,5
7.38,-28.46274,1.226198,-29.6164,0.3624167493900776,0.0297455379744425,-0.2759162815141831,10.35151,59.00911,183.1787,0.4881185,-0.09208593,0.8676668,5
7.4,-28.36352,1.396568,-29.54496,0.3189018010934021,0.0175950784967407,-0.297109617009935,13.97928,58.97517,183.4636,0.4851525,-0.1206432,0.865409,5
7.42,-28.266,1.563279,-29.47463,0.273699605545449,0.005285262478018,-0.31956978592802,17.60615,58.95959,183.7513,0.4816985,-0.1490707,0.8622788,5
7.44,-28.30809,1.190817,-29.50826,0.220996747309873,-0.0104653903142755,-0.3437328118822722,16.09968,59.69073,183.7854,0.4884768,-0.1376706,0.8606584,5
7.46,-28.21037,1.369459,-29.44077,0.1677434359707428,-0.0227497379666313,-0.3685621871670426,19.68429,59.67905,184.0524,0.4847006,-0.1655131,0.8571289,5
7.48,-28.11392,1.544639,-29.37404,0.1136350125641127,-0.0345802636805385,-0.3942948438136411,23.26782,59.6853,184.3251,0.4804492,-0.193184,0.8527572,5
7.5,-28.01893,1.71646,-29.30821,0.0813096352519657,0.0310477707391231,-0.4030297761303889,26.84997,59.71064,184.6056,0.4757269,-0.2206528,0.8475493,5
7.52,-28.14246,1.160713,-29.38882,0.0160538815212216,-0.0113337756679446,-0.4307278426246848,21.59014,57.5127,184.1068,0.4663855,-0.1810255,0.863835,5
7.54,-28.04694,1.347599,-29.32438,-0.0478615262959718,-0.0505301728062322,-0.4578462292206251,25.12492,57.45452,184.1955,0.4618379,-0.2077775,0.8591769,5
7.56,-27.95226,1.531217,-29.2604,-0.0901319163846814,-0.0062673406977789,-0.4698615998039566,28.65869,57.40079,184.2829,0.4568525,-0.2343234,0.853702,5
7.58,-28.00903,1.132701,-29.28952,-0.1503685691190819,-0.0454416751786296,-0.4912087242365723,28.04756,54.45975,183.9485,0.4362375,-0.2306353,0.865984,5
7.6,-27.91624,1.327099,-29.22709,-0.2079177163810674,-0.0814574968350392,-0.5111539477709219,31.52371,54.30558,183.8256,0.4308928,-0.2562283,0.8599964,5
7.62,-27.82389,1.518409,-29.16485,-0.262979363893602,-0.1175926640353684,-0.5298756820231572,34.99841,54.13614,183.6863,0.4251531,-0.2815767,0.8532184,5
7.64,-27.81763,1.118709,-29.15552,-0.2946135293090366,-0.1272249807793227,-0.5323623241768232,37.41867,51.58334,183.0118,0.4043764,-0.2995438,0.8561776,5
7.66,-27.72654,1.317432,-29.09499,-0.3219941560067609,-0.1330399054471163,-0.5326110757795961,40.82937,51.24777,182.6273,0.3979833,-0.3237164,0.8482583,5
7.68,-27.63565,1.513195,-29.03451,-0.3453203055835083,-0.1384007369328932,-0.5308168929346881,44.23714,50.86162,182.1934,0.3912373,-0.3475929,0.8395836,5
7.7,-27.54512,1.706017,-28.97416,-0.3499987165999312,-0.0584030586956203,-0.5167031371844644,47.64154,50.41295,181.6981,0.3841445,-0.3711525,0.8301619,5
7.72,-27.56784,1.114512,-29.00585,-0.3648534796319489,-0.0923534634448339,-0.5099111827177736,44.70668,51.69189,181.1167,0.3998392,-0.3461869,0.8339186,5
7.74,-27.47807,1.315051,-28.94683,-0.3724722960538513,-0.0643994700729093,-0.4968717631276216,48.06198,51.27974,180.6753,0.3930377,-0.369454,0.8244161,5
7.76,-27.3884,1.512731,-28.8878,-0.3749055393782048,-0.035302260608959,-0.4809238713652886,51.41383,50.79688,180.1637,0.3858987,-0.3923947,0.8142031,5
7.78,-27.29978,1.107139,-28.83702,-0.363233483823139,-0.0937755074767657,-0.4570793861172171,53.33349,49.72027,177.6697,0.3838899,-0.3994894,0.806821,5
7.8,-27.21147,1.305534,-28.77983,-0.3474825957703049,-0.1524579779796699,-0.4312816378672566,56.61847,48.99091,176.8919,0.3766022,-0.4214882,0.7955326,5
7.82,-27.12336,1.501194,-28.72269,-0.3181227331706977,-0.0963447390144243,-0.3952806642690518,59.89558,48.10201,175.9552,0.3690016,-0.4431247,0.7835829,5
7.84,-26.90506,1.10913,-28.58652,-0.2669163478263039,-0.1189960859023982,-0.3458138069608307,62.6608,41.04706,167.8249,0.3494231,-0.4524648,0.7761233,5
7.86,-26.81799,1.297802,-28.5306,-0.2125193498740838,-0.1420189271642518,-0.2947801230670208,65.77631,38.92389,165.57,0.3418679,-0.4727827,0.7627612,5
7.88,-26.7316,1.483851,-28.47503,-0.1688735509709999,-0.0793719396214082,-0.2524437640742039,68.84641,36.17086,162.6866,0.3340375,-0.492708,0.7487848,5
7.9,-26.64601,1.667323,-28.41988,-0.1231376635615713,-0.0183632238440604,-0.2093559335892498,71.84895,32.48656,158.8733,0.3259386,-0.512227,0.7342047,5
7.92,-26.50998,1.161806,-28.3342,-0.0708081404893685,-0.0546163663199308,-0.1634763916088126,55.75966,39.35117,168.7675,0.3392769,-0.4090768,0.8129178,5
7.94,-26.4229,1.341589,-28.27599,-0.0351310647863676,-0.0139106051098839,-0.1309382260275482,58.82209,37.70716,166.9232,0.3325898,-0.4296473,0.8009496,5
7.96,-26.3369,1.518686,-28.21841,0.010272508980468,-0.0167722104023389,-0.0986330489079034,61.85042,35.69508,164.7137,0.3256425,-0.4498721,0.7883521,5
7.98,-26.17045,1.228905,-28.14422,0.0577686909230235,-0.0205161625531216,-0.0658192292621082,37.76562,48.17755,174.7412,0.3993334,-0.2774221,0.8568145,5
8.0,-26.07636,1.400822,-28.08043,0.10705441389856,-0.0282890490936315,-0.0328070017115416,41.10761,47.68444,174.1088,0.3944899,-0.301252,0.8480133,5
8.02,-25.9838,1.569574,-28.01755,0.1515551355297835,0.0534932990155367,-0.0005141564932946,44.44402,47.11263,173.4014,0.3893055,-0.3248135,0.8384774,5
8.04,-25.86512,1.263626,-27.98325,0.1953169197607382,0.0422127025949593,0.0246056635983689,13.86899,54.84853,177.1749,0.4597094,-0.09586342,0.8794889,5
8.06,-25.7638,1.431364,-27.91668,0.2399756986026369,0.0300668599124616,0.0489583278767846,17.40693,54.71783,177.0276,0.457604,-0.1225675,0.875819,5
8.08,-25.66431,1.595495,-27.85119,0.2772333532658306,0.0843179574379758,0.075540984429137,20.94465,54.57455,176.8681,0.4550616,-0.1491541,0.8713121,5
8.1,-25.56686,1.756165,-27.7869,0.3036503113522673,0.0683245630671295,0.0930891712866395,24.48103,54.41683,176.6948,0.452086,-0.1755913,0.8659738,5
8.12,-25.54959,1.279288,-27.79603,0.3287763350911405,0.0515888419507557,0.1090341484228143,354.4266,59.42635,178.4085,0.4944381,0.04909703,0.8677415,5
8.14,-25.44639,1.444168,-27.729,0.3496652943468481,0.1025643778538626,0.1267997807827887,357.9929,59.32765,178.5311,0.4945985,0.02156049,0.8688506,5
8.16,-25.34521,1.605344,-27.66316,0.3626999581787244,0.0820667451094348,0.1373610287979025,1.558461,59.23669,178.6475,0.4942797,-0.005989434,0.8691165,5
8.18,-25.25673,1.296031,-27.61989,0.3728822071288959,0.0609212763078424,0.1459061720043704,353.4682,60.51633,179.4951,0.502857,0.05142462,0.8624791,5
8.2,-25.15361,1.456939,-27.54969,0.3850355178340168,0.1068669551989757,0.1592102177144805,357.0484,60.40392,179.7621,0.5028354,0.02330301,0.863996,5
8.22,-25.0527,1.614047,-27.48086,0.3835169993345615,0.0779557866977737,0.1606317696355326,0.6279665,60.30842,180.0217,0.5023206,-0.004833654,0.8646641,5
8.24,-25.03805,1.254644,-27.48855,0.3787885607568122,0.0495151634235667,0.1592556051772264,357.433,61.15927,181.1427,0.5087748,0.01421141,0.8605506,5
8.26,-24.93701,1.419085,-27.42102,0.3767684301314866,0.0932645658052673,0.1635494825946781,0.9905281,61.0654,181.4194,0.5078799,-0.01373706,0.8612956,5
8.28,-24.83801,1.57992,-27.35471,0.3706134868244817,0.1345118436455601,0.1644319666169287,4.547379,60.98857,181.6911,0.5064933,-0.04166419,0.8612049,5
8.3,-24.7412,1.737303,-27.28975,0.3360688461810492,0.0778475125351202,0.1457487325025184,8.103572,60.9283,181.9597,0.5046166,-0.06954314,0.8602793,5
8.32,-24.81071,1.237749,-27.33971,0.2995359121908931,0.02150098019485,0.1246035551635524,6.178016,61.72082,182.5895,0.511027,-0.05781965,0.8575782,5
8.34,-24.70771,1.404967,-27.27208,0.2801585841097358,0.0608991936027127,0.120288314102035,9.813214,61.67235,182.8858,0.5086955,-0.0862774,0.8563228,5
8.36,-24.60663,1.568474,-27.20558,0.2364154922105372,0.0237156113952607,0.1002695498040964,13.44759,61.64264,183.1827,0.50585,-0.1146397,0.8541999,5
8.38,-24.66413,1.20863,-27.23737,0.1911131764278617,-0.011040490771209,0.0781713265608576,13.45767,62.0292,183.5448,0.5083565,-0.1161983,0.8525928,5
8.4,-24.56238,1.383107,-27.17254,0.162016048268462,0.0293688235754177,0.0679826991886849,17.06794,62.01263,183.8215,0.5049049,-0.1441067,0.8496982,5
8.42,-24.46216,1.554016,-27.10857,0.1112537938590709,-0.0093487201949508,0.0447103408277858,20.67711,62.0144,184.103,0.5009509,-0.1718623,0.8459562,5
8.44,-24.51332,1.175702,-27.13392,0.0595330463988204,-0.04488702311148,0.0197322005237436,18.74967,61.11428,184.0542,0.4963317,-0.1579258,0.8520191,5
8.46,-24.41399,1.358428,-27.07205,0.0272790388735324,9.138535186897778e-05,0.0082446188700724,22.31099,61.09067,184.241,0.4921108,-0.1849591,0.8480148,5
8.48,-24.31575,1.537788,-27.01075,-0.0057839873034488,0.0441658011886563,-0.0044193108581356,25.87128,61.07935,184.4314,0.4874153,-0.2118051,0.8431904,5
8.5,-24.21875,1.713865,-26.95013,-0.070106325590991,-0.0214479160083077,-0.0356325715331724,29.43025,61.08115,184.6269,0.4822499,-0.2384349,0.8375521,5
8.52,-24.35204,1.145441,-27.02152,-0.1338388290526211,-0.08454919695308,-0.0673425849102886,24.61319,58.05181,184.0501,0.4671738,-0.2030071,0.8574286,5
8.54,-24.25575,1.33637,-26.96151,-0.1646229937055636,-0.0396545115964794,-0.0778994524188716,28.1198,57.95748,184.0376,0.4621928,-0.2289447,0.8522123,5
8.56,-24.16009,1.524125,-26.9018,-0.2098851669817278,-0.0781966685534661,-0.0966048255261577,31.62494,57.85901,184.0181,0.4567814,-0.2546572,0.8461997,5
8.58,-24.20546,1.124845,-26.9157,-0.2529602106368815,-0.1134410913966659,-0.114695464401576,32.09768,54.19028,183.5313,0.4299271,-0.2594859,0.8590288,5
8.6,-24.11191,1.321951,-26.85678,-0.27146885247768,-0.0618196563519609,-0.1184627386161745,35.54035,53.9501,183.259,0.4240513,-0.2841685,0.852277,5
8.62,-24.01867,1.516037,-26.79795,-0.2929804939330935,-0.0944987399941915,-0.1263241878107779,38.9809,53.67784,182.9555,0.4177935,-0.3085858,0.8447543,5
8.64,-23.98921,1.115585,-26.78597,-0.3113435629641579,-0.1244731547686218,-0.1330658876803609,41.87646,53.03567,182.3572,0.4103286,-0.3282746,0.8388138,5
8.66,-23.89715,1.315568,-26.72873,-0.3139151482209419,-0.0669134239525929,-0.1309618043422977,45.25957,52.64957,181.9252,0.4034657,-0.3516997,0.8300392,5
8.68,-23.80523,1.512641,-26.67149,-0.3129507248225764,-0.0101801376028266,-0.1274519861988565,48.63932,52.19992,181.4308,0.3962505,-0.3748088,0.8205371,5
8.7,-23.71359,1.706818,-26.61434,-0.3188486250066655,-0.0690916083615532,-0.1297198249187783,52.01517,51.67001,180.857,0.3886896,-0.3975824,0.8103163,5
8.72,-23.72674,1.112944,-26.62596,-0.3211432299668937,-0.1271816447781032,-0.1306829109475531,48.08426,51.76804,179.5325,0.4001704,-0.3649075,0.8208966,5
8.74,-23.63654,1.313387,-26.5694,-0.3030909233084844,-0.0706432191765472,-0.1167234778826222,51.40462,51.24017,178.9563,0.3931654,-0.38749,0.8107266,5
8.76,-23.54646,1.511024,-26.51282,-0.2669471056143426,-0.0993778401543512,-0.0928317957389652,54.72016,50.6125,178.2812,0.3858284,-0.409737,0.7998699,5
8.78,-23.39207,1.102177,-26.41953,-0.2277490236131174,-0.1274633522178367,-0.0678779020057973,59.69093,48.14237,174.0478,0.3768901,-0.4354047,0.7803371,5
8.8,-23.30367,1.295856,-26.36474,-0.1855840424091388,-0.0681744851815029,-0.0407978356325124,62.92328,46.93166,172.7681,0.3691812,-0.4563878,0.7677804,5
8.82,-23.2157,1.486876,-26.31014,-0.1221848729662036,-0.0848614246064567,-0.0011908809336276,66.13876,45.39119,171.1594,0.3611707,-0.4769855,0.7545959,5
8.84,-23.00455,1.128925,-26.17599,-0.0571221913696802,-0.1021588042873143,0.038980377768472,60.95109,38.90923,166.6986,0.3404995,-0.4417514,0.7876074,5
8.86,-22.91718,1.313114,-26.1201,-0.0101935236314107,-0.0355727639585523,0.0676624732766923,64.00142,36.71091,164.3192,0.3331732,-0.4618355,0.7746052,5
8.88,-22.83068,1.494667,-26.06469,0.0368629858459175,0.0293205970508803,0.0959922254409288,67.00052,33.92155,161.351,0.3255828,-0.481544,0.7609862,5
8.9,-22.74519,1.673648,-26.00983,0.0892710153410027,-0.00164106859027,0.1243855048031195,69.92561,30.29575,157.5482,0.3177365,-0.5008606,0.746763,5
8.92,-22.62772,1.195587,-25.93976,0.142312489391303,-0.0345526186830287,0.1530593593387745,48.28935,45.1175,173.1595,0.3719812,-0.3561873,0.8318332,5
8.94,-22.53971,1.372021,-25.88081,0.1880713391197948,0.0303844609472646,0.177167478602997,51.42195,44.25063,172.1397,0.3660918,-0.3776816,0.821485,5
8.96,-22.38882,1.239168,-25.82112,0.2394689263371012,0.0266760477872741,0.1972890524394146,32.04938,50.21709,175.3197,0.4177126,-0.2331046,0.8648115,5
8.98,-22.28824,1.408561,-25.75526,0.2915800717748875,0.0219732540641545,0.217469294050097,35.57542,49.83511,174.7896,0.4133512,-0.2585335,0.8568172,5
9.0,-22.18941,1.574408,-25.69044,0.3318398598895933,0.0828031187182408,0.2348433666943608,39.0983,49.39305,174.2041,0.4085934,-0.2837149,0.847998,5
9.02,-22.09251,1.736835,-25.62677,0.3709696803530531,0.0733383117578183,0.2477481240461467,42.61779,48.87801,173.5497,0.4034424,-0.3086276,0.8383607,5
9.04,-22.00055,1.271808,-25.60424,0.4086110487160566,0.0631276565118236,0.2592706349494227,2.371438,57.72754,177.9408,0.4828731,-0.009447484,0.8752617,5
9.06,-21.89714,1.438197,-25.53774,0.4402402973062029,0.1199457295241524,0.2732633420442298,5.948953,57.64122,177.9437,0.4821577,-0.03681793,0.8743632,5
9.08,-21.79567,1.600888,-25.47238,0.4676191299924475,0.1735360415536441,0.2846943292320483,9.525405,57.55445,177.9412,0.4809731,-0.06414435,0.8726127,5
9.1,-21.75644,1.285244,-25.45488,0.4817843731872337,0.1331018095524883,0.2858204175690018,353.3202,59.78977,178.7224,0.4969699,0.05605169,0.8657389,5
9.12,-21.65274,1.448598,-25.38639,0.4927350082278683,0.0907435208681062,0.2853823232170391,356.9098,59.68861,178.8972,0.4972159,0.02817387,0.8671547,5
9.14,-21.55115,1.608179,-25.31916,0.5118039333956395,0.13872633314134,0.293889729640155,0.4987303,59.59863,179.0654,0.4969733,0.0002762885,0.8677169,5
9.16,-21.48325,1.28269,-25.28552,0.5150566467309208,0.1116751306481598,0.290764460516979,353.7871,60.61129,179.7515,0.5037686,0.04787826,0.8621345,5
9.18,-21.38129,1.444721,-25.21584,0.5144129504366752,0.0845120346983604,0.2859194103351861,357.3526,60.50362,180.032,0.5036723,0.01981423,0.8635857,5
9.2,-21.28149,1.603029,-25.14749,0.5110957237968132,0.1244622841207888,0.2822515915259087,0.9176536,60.41356,180.3054,0.5030858,-0.008261546,0.8641951,5
9.22,-21.25015,1.250397,-25.14145,0.4923007529233265,0.0908222084056224,0.2674567171212536,359.4108,61.20636,181.3686,0.509099,-0.001655136,0.8606098,5
9.24,-21.14848,1.415176,-25.07351,0.4694717484352226,0.0580842279827935,0.2501765165140868,2.997286,61.12659,181.6527,0.5079384,-0.02984832,0.8608758,5
9.26,-21.04882,1.576302,-25.0068,0.4548525372279735,0.1003750795693797,0.2413816475925863,6.583247,61.06434,181.9329,0.5062776,-0.05800412,0.8602928,5
9.28,-20.95137,1.733933,-24.94144,0.4355382702787098,0.1403658771642738,0.2299460014580199,10.16845,61.01939,182.2116,0.504119,-0.08609495,0.8588621,5
9.3,-21.02524,1.232051,-24.98916,0.3835682811609828,0.0810995262573386,0.1982338719355367,8.260489,61.43323,182.8774,0.5077505,-0.07469096,0.858125,5
9.32,-20.92266,1.400843,-24.92171,0.3289904787205198,0.0227036016277529,0.1648048682698562,11.89277,61.39756,183.1614,0.5051271,-0.1030532,0.8563701,5
9.34,-20.82191,1.565947,-24.85534,0.2961263933399412,0.0603041489469048,0.1464637857321173,15.5242,61.38007,183.4475,0.5019944,-0.1313037,0.8537499,5
9.36,-20.87393,1.199577,-24.88277,0.2374966831387652,0.0198555500321864,0.1127818872738588,14.77688,61.66782,183.6636,0.5045062,-0.1266108,0.8531992,5
9.38,-20.77312,1.376139,-24.8182,0.1769397093945492,-0.0177064561969914,0.0776528786562358,18.37488,61.65843,183.929,0.5009091,-0.1543659,0.8499897,5
9.4,-20.67373,1.549185,-24.75442,0.1376650229310239,0.0226325741937699,0.0554426770535432,21.97184,61.66681,184.1998,0.4968171,-0.1819598,0.8459385,5
9.42,-20.71453,1.168212,-24.76936,0.0764921746353168,-0.0175541798328624,0.0213837783024195,20.15781,59.86696,184.0647,0.4856062,-0.1689876,0.855792,5
9.44,-20.61635,1.352978,-24.70732,0.0145379906389568,-0.0543720484272613,-0.013339126598002,23.70667,59.83102,184.1957,0.4812434,-0.195787,0.8514611,5
9.46,-20.51913,1.534425,-24.64578,-0.0259709517458723,-0.009034493769453,-0.0356246723998938,27.25452,59.80318,184.3281,0.4764204,-0.2223902,0.8463137,5
9.48,-20.42304,1.712628,-24.58487,-0.0667741060190754,0.0355735285976034,-0.0580786034012077,30.80105,59.78389,184.4629,0.4711422,-0.248769,0.840356,5
9.5,-20.54128,1.139041,-24.64569,-0.1365238971032529,-0.0311273401186234,-0.0965126789618362,26.31195,56.55786,183.9678,0.4541146,-0.2162891,0.8607571,5
9.52,-20.44628,1.331705,-24.58513,-0.2053329656172073,-0.0953794655596101,-0.1344757399738259,29.80361,56.43832,183.8934,0.4489815,-0.2419898,0.85515,5
9.54,-20.35182,1.521237,-24.52481,-0.2390416166079831,-0.0492126266027257,-0.152394049223401,33.29372,56.30904,183.8078,0.4434341,-0.2674562,0.8487505,5
9.56,-20.37162,1.121803,-24.52498,-0.2903634860879149,-0.0870164963386435,-0.1923470673692682,34.73588,52.99144,183.2508,0.4180416,-0.279124,0.8575978,5
9.58,-20.27909,1.319728,-24.46553,-0.3384385931417508,-0.121815279615031,-0.230079316893514,38.16231,52.70986,182.9189,0.4119425,-0.3035193,0.8502501,5
9.6,-20.18681,1.514661,-24.40616,-0.3624363592804589,-0.069344765230639,-0.254738489835387,41.58635,52.38752,182.5477,0.4054751,-0.3276348,0.8421394,5
9.62,-20.13815,1.115039,-24.38399,-0.394580009396472,-0.1014322229484257,-0.3018306919167934,43.28904,52.28326,181.7337,0.4044691,-0.3372746,0.8367737,5
9.64,-20.04721,1.315313,-24.32583,-0.422087222710644,-0.131158627199361,-0.3453325758002448,46.65807,51.88628,181.2912,0.3976754,-0.360608,0.8276126,5
9.66,-19.9564,1.512703,-24.26766,-0.4356690951754589,-0.0731829921715492,-0.3783914150936467,50.02365,51.42194,180.7823,0.3905375,-0.3836199,0.8177325,5
9.68,-19.86585,1.707219,-24.20958,-0.4526027842611162,-0.1008764186529766,-0.4255835694890111,53.38517,50.87183,180.1884,0.3830615,-0.4062909,0.8071423,5
9.7,-19.84748,1.109963,-24.20103,-0.4645615398168687,-0.1268348626127357,-0.4682703475900225,50.6993,50.8615,178.7225,0.3923584,-0.382306,0.8140465,5
9.72,-19.75821,1.309385,-24.14415,-0.471776999226899,-0.154466389443317,-0.5066045864965116,54.00278,50.25615,178.0639,0.3852457,-0.4045941,0.8033004,5
9.74,-19.66911,1.506036,-24.08729,-0.4411537430120795,-0.1520578583274992,-0.5350061865080171,57.30048,49.52764,177.2832,0.3778105,-0.4265345,0.7918792,5
9.76,-19.4821,1.104458,-23.97389,-0.4061603227677366,-0.1481377432434613,-0.5588640086123391,61.23058,44.97226,171.1928,0.3643054,-0.4438909,0.7778736,5
9.78,-19.39432,1.295612,-23.9187,-0.3670654786745495,-0.1460245958636175,-0.5783457286289941,64.41433,43.36654,169.4823,0.3567011,-0.4645303,0.7648966,5
9.8,-19.3071,1.484129,-23.86377,-0.3338160706383777,-0.0584244721162329,-0.5991349514690629,67.57028,41.30051,167.3128,0.3488076,-0.4847806,0.7512991,5
9.82,-19.08991,1.144314,-23.72802,-0.2881230218931963,-0.0710524257454041,-0.6284300583069848,58.38185,39.40345,167.8018,0.3414291,-0.4253014,0.7997724,5
9.84,-19.00252,1.326273,-23.67126,-0.2393077497320761,-0.0839874051656781,-0.6530152706831758,61.4413,37.52345,165.7259,0.3344528,-0.4456076,0.7872683,5
9.86,-18.91612,1.505572,-23.61505,-0.2061955398817445,-0.0184880148211582,-0.6850240692215257,64.4597,35.18277,163.1921,0.327213,-0.4655533,0.7741419,5
9.88,-18.83083,1.682282,-23.55947,-0.1594619678952047,-0.0202139996983443,-0.7251275187441282,67.42075,32.20885,160.0273,0.3197176,-0.4851225,0.7604043,5
9.9,-18.70844,1.212,-23.50052,-0.1104907426744759,-0.0226338825204354,-0.7607347907791575,43.05717,46.89301,173.9576,0.3873633,-0.3166899,0.8445452,5
9.92,-18.61722,1.386203,-23.4395,-0.0596120745677983,-0.0288833798288183,-0.7920495690302309,46.29544,46.24591,173.1555,0.3820277,-0.339323,0.834903,5
9.94,-18.52738,1.557456,-23.37929,-0.0062145629148819,-0.01047297716662,-0.835330724387382,49.52558,45.48758,172.2455,0.3763793,-0.3616703,0.8245758,5
9.96,-18.39393,1.257231,-23.34121,0.0490171464353628,0.0081168095961782,-0.8743984372694915,20.03587,53.62622,176.578,0.4486419,-0.1419208,0.8761406,5
9.98,-18.2927,1.425452,-23.27527,0.0960506233410134,0.0698057155798684,-0.90972617678243,23.56693,53.45149,176.3301,0.4458578,-0.168207,0.8709581,5
10.0,-18.19327,1.590082,-23.2104,0.1412666663616464,0.1285539485128153,-0.9426128946375604,27.09821,53.25431,176.0623,0.4426477,-0.1943387,0.8649428,5
10.02,-18.08818,1.275725,-23.1658,0.1700040361008667,0.0920025248952944,-0.9809495932417388,358.3948,58.87299,178.1817,0.491155,0.01999498,0.8708153,5
10.04,-17.98474,1.441433,-23.09965,0.1982177558166229,0.0540092512389743,-1.015943614060157,1.960193,58.79081,178.2478,0.4909326,-0.007397348,0.8708957,5
10.06,-17.88328,1.603452,-23.03464,0.2259223301004467,0.1052950853335198,-1.04188971523797,5.524718,58.71251,178.3091,0.4902354,-0.03477515,0.8701324,5
10.08,-17.78398,1.761933,-22.9709,0.2452626744718014,0.087281786430814,-1.0623414651531102,9.088307,58.63752,178.3659,0.4890642,-0.0621114,0.8685268,5
10.1,-17.74742,1.293854,-22.9611,0.2622494967976587,0.0682455578507902,-1.079550905971545,352.8286,60.59705,179.2548,0.5031559,0.05727244,0.8619054,5
10.12,-17.64356,1.455385,-22.89206,0.2854413945139638,0.1165814685977749,-1.0869060018466348,356.4129,60.49285,179.491,0.5033482,0.02927379,0.8635054,5
10.14,-17.5419,1.613118,-22.82436,0.2884589843940259,0.0888038313537534,-1.0965956592761597,-0.003412,60.40369,179.7201,0.5030463,0.0012545,0.8642562,5
10.16,-17.52079,1.262081,-22.82385,0.2887048059493207,0.0612335455130629,-1.1036268786744992,355.7485,61.28865,180.5717,0.5095093,0.02937133,0.859651,5
10.18,-17.4195,1.425941,-22.75629,0.2905216503978929,0.1032916151978146,-1.103550984448859,359.2988,61.1946,180.8548,0.5090165,0.001470002,0.8607029,5
10.2,-17.32025,1.58618,-22.68997,0.2883743514304042,0.1428297580754955,-1.1020781729758555,2.848629,61.11808,181.1322,0.5080327,-0.02642493,0.8609227,5
10.22,-17.29417,1.240603,-22.68138,0.2538071562756776,0.0847659264781724,-1.10948378475346,3.996186,61.88898,182.0643,0.5132727,-0.03915585,0.8573284,5
10.24,-17.1911,1.406914,-22.61419,0.2273482145505359,0.1029606352408808,-1.1052435888892274,7.620692,61.83718,182.3584,0.5114021,-0.06754942,0.8565234,5
10.26,-17.09,1.569521,-22.54817,0.1983528978286817,0.1208996200873961,-1.0987421709005225,11.24503,61.80382,182.6519,0.509017,-0.09587054,0.8548554,5
10.28,-16.99106,1.728582,-22.48345,0.1408035655110859,0.0622875059348043,-1.0995265702999206,14.86848,61.78923,182.9474,0.5061206,-0.1240874,0.8523272,5
10.3,-17.08947,1.217365,-22.54267,0.0818463771023336,0.0048846747893225,-1.0977357552960862,11.89984,62.04272,183.356,0.5097603,-0.1038051,0.8535575,5
10.32,-16.987,1.389783,-22.47743,0.0465763286811442,0.0441883743768722,-1.0770081234238211,15.5191,62.02683,183.6316,0.5065979,-0.1318336,0.8509769,5
10.34,-16.88618,1.558586,-22.41313,-0.0138834711537931,0.0048162486720102,-1.064074214670339,19.13734,62.02908,183.9115,0.5029289,-0.1597216,0.8475436,5
10.36,-16.94585,1.183135,-22.44439,-0.0751140730832256,-0.0315429745432866,-1.048525470761081,17.41634,61.74378,183.9155,0.5024697,-0.1472021,0.8505812,5
10.38,-16.84568,1.363811,-22.38219,-0.1147278628460073,0.011317188343362,-1.0168554516746502,20.98985,61.73607,184.1382,0.4985057,-0.1744593,0.8468158,5
10.4,-16.7467,1.541072,-22.32064,-0.1548512915224005,0.053159502272072,-0.9826112925357556,24.56227,61.74346,184.3661,0.494057,-0.201538,0.8422251,5
10.42,-16.79124,1.153064,-22.3359,-0.2288035665328918,-0.0137837944562309,-0.9643887980989674,23.07615,58.94101,184.0477,0.4755831,-0.1910532,0.855959,5
10.44,-16.69394,1.341952,-22.27578,-0.2810379213219292,0.0043522169747221,-0.9311852650101078,26.59762,58.87426,184.0811,0.4708525,-0.2172348,0.8510293,5
10.46,-16.59738,1.527618,-22.21603,-0.3316015073778489,0.0239215323871333,-0.8943629262942245,30.11771,58.80772,184.1108,0.4656796,-0.2432008,0.8452976,5
10.48,-16.50172,1.710116,-22.15675,-0.4009138963551948,-0.040798117676104,-0.864700394935451,33.63678,58.74082,184.1367,0.4600691,-0.2689295,0.8387699,5
10.5,-16.60756,1.128729,-22.20847,-0.4681302707624883,-0.1031569470484785,-0.8313547930994165,30.05391,55.53439,183.7119,0.4422826,-0.2438697,0.8580533,5
10.52,-16.5131,1.324471,-22.14977,-0.5014305716663945,-0.0541177971597585,-0.7765177131607097,33.51367,55.35098,183.5165,0.4366973,-0.2688511,0.8516969,5
10.54,-16.419,1.517157,-22.09121,-0.5403835483461445,-0.089362615302339,-0.7239730594948655,36.97186,55.14496,183.2988,0.4307152,-0.2935797,0.8445639,5
10.56,-16.46618,1.117107,-22.19764,-0.5757232205201086,-0.121746855382544,-0.66754835306079,39.63672,54.16603,182.6977,0.4210913,-0.3118619,0.8410162,5
10.58,-16.3729,1.316424,-22.14142,-0.5905633196071309,-0.0667343552176199,-0.5985789227082741,43.03457,53.82787,182.3073,0.4144348,-0.335467,0.8327178,5
10.6,-16.2798,1.512806,-22.08522,-0.6010230697512136,-0.0125301834297957,-0.5259016227110291,46.42955,53.43582,181.8643,0.4074135,-0.3587682,0.823684,5
10.62,-16.27391,1.113677,-22.20618,-0.6214798641456709,-0.073447103391353,-0.4602216323818977,46.38809,54.83797,180.3967,0.4220623,-0.3510661,0.8165417,5
10.64,-16.18134,1.314098,-22.15258,-0.6308358474310674,-0.0445886710318401,-0.3853539925625133,49.72899,54.41299,179.933,0.415037,-0.373712,0.8068123,5
10.66,-16.08887,1.511687,-22.09897,-0.6352643134073133,-0.0145879828990644,-0.3067672109831627,53.0663,53.91106,179.3932,0.4076585,-0.3960307,0.7963939,5
10.68,-16.0543,1.107133,-22.17285,-0.627200471614795,-0.0721774822259254,-0.2174388840899395,53.31095,53.48158,177.692,0.4101214,-0.3924645,0.7939109,5
10.7,-15.96273,1.305521,-22.12142,-0.6152675176112665,-0.1299692653448425,-0.1257543364233191,56.59021,52.78104,176.9339,0.4025986,-0.4139911,0.7828361,5
10.72,-15.87137,1.501185,-22.07003,-0.588848342284255,-0.0729919561633236,-0.024675848505991,59.86196,51.9262,176.0224,0.3947424,-0.4351628,0.7711139,5
10.74,-15.6554,1.109012,-22.05101,-0.5429310343912881,-0.0948197703839241,0.093248161484944,62.65928,46.61848,167.9137,0.3863918,-0.4392859,0.7584534,5
10.76,-15.56388,1.297613,-22.00285,-0.4938687969282613,-0.1170208035940408,0.2124384171752962,65.78392,44.58695,165.7467,0.3784157,-0.4590639,0.745371,5
10.78,-15.47305,1.483594,-21.95498,-0.456563742322305,-0.0535533768970588,0.3240016077604624,68.86658,41.94835,162.9742,0.3701349,-0.4784604,0.7316899,5
10.8,-15.38305,1.667003,-21.90749,-0.417220147483101,0.008270194409245,0.4357511836318219,71.88675,38.40806,159.3012,0.3615548,-0.4974616,0.7174208,5
10.82,-15.22845,1.16158,-21.94863,-0.3720074071913826,-0.0272010161612684,0.5511641035646093,55.78643,46.79679,168.832,0.3910978,-0.3931639,0.7892138,5
10.84,-15.13516,1.341261,-21.901,-0.344376368530698,0.0142945861973697,0.6545229000381658,58.86219,45.2324,167.0682,0.3838777,-0.4129883,0.7775794,5
10.86,-15.04302,1.518255,-21.85387,-0.3162601594226562,0.055546406296569,0.7564988614835242,61.90685,43.31425,164.9535,0.3763569,-0.4324805,0.7653342,5
10.88,-14.86588,1.228623,-21.88868,-0.2793098778725376,0.0275840260494061,0.8568849509206045,37.81958,56.75439,174.7748,0.4621535,-0.2643458,0.824467,5
10.9,-14.76376,1.400488,-21.83877,-0.2405942735879542,-0.0026128332995797,0.9568054712421828,41.16526,56.30022,174.185,0.4568219,-0.2871718,0.8159561,5
10.92,-14.66328,1.569189,-21.78956,-0.2061004949696776,0.0584777246140085,1.0551378955754118,44.50599,55.77273,173.5254,0.4510954,-0.3097419,0.8067387,5
10.94,-14.52295,1.263574,-21.83797,-0.1718718839303861,0.049387013858181,1.1475875891455538,13.89582,63.65578,177.1861,0.5258626,-0.08989306,0.8415763,5
10.96,-14.41277,1.431288,-21.78737,-0.1371863371347257,0.0394114037614789,1.2378844320794171,17.43389,63.54125,177.0533,0.5235791,-0.115421,0.8380133,5
10.98,-14.30455,1.595393,-21.73759,-0.1090923921034563,0.0958173404145407,1.328677279782224,20.97186,63.41535,176.9096,0.5207954,-0.1408374,0.8336496,5
11.0,-14.19852,1.756039,-21.6887,-0.0836526708040887,0.1490799130167474,1.4153070629775768,24.50853,63.27649,176.7536,0.5175157,-0.1661123,0.8284912,5
11.02,-14.19522,1.279352,-21.69464,-0.0694377693025536,0.1081157933323618,1.4885949771487654,354.4539,65.84089,178.3679,0.5422042,0.04833878,0.8387326,5
11.04,-14.08454,1.44432,-21.64084,-0.0580636772959723,0.136608941562092,1.5613350478434165,358.0209,65.75694,178.453,0.5425327,0.02182975,0.8397488,5
11.06,-13.976,1.605585,-21.58798,-0.049974965226609,0.1633532497736082,1.6297101729058774,1.58706,65.67838,178.5328,0.5423357,-0.004692746,0.8399505,5
11.08,-13.90833,1.296129,-21.51385,-0.0545443613438507,0.1153531421671877,1.6840722561730592,353.4656,64.78916,179.4434,0.5346361,0.05072042,0.8431446,5
11.1,-13.79941,1.457152,-21.45313,-0.0621645562588317,0.0661097522085463,1.7341223222875963,357.047,64.69289,179.6627,0.5347934,0.02334321,0.8445848,5
11.12,-13.69281,1.614379,-21.39358,-0.0640417725356001,0.1062619636318575,1.7872105897094133,0.6276319,64.61051,179.8756,0.5344266,-0.004049177,0.8451966,5
11.14,-13.70525,1.254805,-21.36635,-0.0785827677544881,0.0725060240744519,1.8244505878382864,357.4237,63.2324,181.0847,0.5242521,0.01418192,0.8512139,5
11.16,-13.60087,1.419348,-21.30415,-0.0963363021028025,0.0393302705767718,1.856284756406481,0.9837362,63.15138,181.3097,0.5234874,-0.01329768,0.8519135,5
11.18,-13.49855,1.580285,-21.24307,-0.1058701187054931,0.0797062287322684,1.8920341340283915,4.543019,63.08421,181.5303,0.5222163,-0.04075643,0.8517873,5
11.2,-13.3985,1.737771,-21.18324,-0.1191655284863413,0.1175850215801427,1.921467894651741,8.101482,63.03048,181.7481,0.5204402,-0.06816768,0.8508359,5
11.22,-13.49935,1.237895,-21.19447,-0.1606725572589202,0.0571467554519875,1.9227445857132128,6.166357,61.36358,182.5267,0.5083874,-0.05747908,0.8591661,5
11.24,-13.39565,1.405234,-21.12793,-0.1933602469302329,0.0725778073235944,1.927179151671208,9.804623,61.31895,182.7638,0.5061487,-0.08574264,0.8578681,5
11.26,-13.29387,1.568861,-21.06251,-0.2287563687811553,0.0881126458445694,1.9257805757770623,13.442,61.28928,183.0011,0.5033988,-0.1139115,0.855702,5
11.28,-13.37534,1.208811,-21.06263,-0.2879529210748917,0.0252336011154225,1.9000242996925607,13.45085,59.62526,183.4879,0.4904232,-0.1165915,0.8630583,5
11.3,-13.27531,1.383401,-20.99513,-0.3488181825010994,-0.0358724426985561,1.868612008263532,17.06415,59.60586,183.7079,0.4870955,-0.1445749,0.8600733,5
11.32,-13.17678,1.55442,-20.92854,-0.3823162266516304,0.0018726120753402,1.8495172558413928,20.67645,59.60089,183.9314,0.4832832,-0.172406,0.856231,5
11.34,-13.24476,1.175861,-20.93259,-0.4362625916193769,-0.0401601718141281,1.809623454639444,18.7429,57.0722,184.0055,0.4660494,-0.1594372,0.8689802,5
11.36,-13.14913,1.35869,-20.86511,-0.4908197889724834,-0.0789453718361298,1.7643432153076666,22.3057,57.04344,184.1434,0.4620245,-0.1867761,0.8648183,5
11.38,-13.05453,1.538149,-20.79827,-0.5224171878614341,-0.0364134582221525,1.727481235277566,25.86751,57.02348,184.2831,0.457554,-0.2139263,0.8598201,5
11.4,-12.96114,1.714321,-20.73217,-0.554139813464956,0.0052743600456819,1.685315450452348,29.42793,57.0132,184.4268,0.4526441,-0.2408614,0.8539916,5
11.42,-13.10254,1.14559,-20.79541,-0.6136783450451464,-0.0637742279370457,1.6152788205757522,24.6022,52.70853,184.01,0.4267836,-0.2059641,0.878267,5
11.44,-13.01152,1.336604,-20.72764,-0.6508814885748253,-0.046035730814918,1.5520387732700396,28.10796,52.60802,183.9566,0.4220985,-0.2324016,0.8728187,5
11.46,-12.92109,1.52444,-20.66022,-0.6861901682149216,-0.0267850385269554,1.4845140884771777,31.61222,52.50061,183.8951,0.417022,-0.2586138,0.8665546,5
11.48,-12.97391,1.124951,-20.66656,-0.7334773466186699,-0.0923514073568733,1.4016556704251797,32.08461,47.80842,183.4985,0.3815357,-0.264413,0.8816314,5
11.5,-12.8869,1.322133,-20.59831,-0.7786765936993034,-0.1558750554098579,1.31433093652404,35.52466,47.56125,183.192,0.3760894,-0.289755,0.874562,5
11.52,-12.80017,1.516291,-20.53019,-0.7919151785515162,-0.106546727488544,1.238809068517699,38.96249,47.27904,182.8523,0.3703044,-0.3148271,0.866702,5
11.54,-12.77837,1.115659,-20.50605,-0.8068922834864665,-0.1415853013059494,1.1526285858206342,41.86186,45.83175,182.3293,0.3569216,-0.3363719,0.8629469,5
11.56,-12.69374,1.315699,-20.43826,-0.8186102819282497,-0.1740958441649196,1.0621953903023438,45.24263,45.43624,181.8663,0.3506611,-0.3605555,0.8537582,5
11.58,-12.60923,1.512829,-20.37048,-0.8061719033102794,-0.1190008128742386,0.991925262204437,48.61981,44.97384,181.338,0.3440947,-0.3844148,0.8438216,5
11.6,-12.52499,1.70706,-20.30284,-0.7897175481374823,-0.0647987065985048,0.918522995649924,51.99272,44.4271,180.7267,0.3372282,-0.4079296,0.8331465,5
11.62,-12.5413,1.112998,-20.30828,-0.7639782600739069,-0.1273007251612991,0.8460961984299371,48.07046,43.94513,179.5134,0.3433217,-0.3762591,0.8463018,5
11.64,-12.45927,1.313488,-20.24037,-0.7221542601410711,-0.1006377391311145,0.7960315129208397,51.38874,43.40919,178.911,0.3370666,-0.3996464,0.8356714,5
11.66,-12.37735,1.511171,-20.17246,-0.6767577676648961,-0.0733447799665502,0.7434252006048316,54.70191,42.7703,178.2068,0.3305272,-0.4226871,0.8243337,5
11.68,-12.24077,1.102219,-20.05218,-0.6280489391578419,-0.048753018763016,0.6880399250698619,59.66696,39.84254,174.0404,0.3194874,-0.451715,0.8056525,5
11.7,-12.1609,1.29595,-19.9855,-0.5595773595898466,-0.0467897464791919,0.6560307392854825,62.89682,38.6213,172.7349,0.3127441,-0.4735143,0.7925652,5
11.72,-12.08143,1.487019,-19.91908,-0.4881344375991985,-0.04317642389622,0.6218861786272214,66.10947,37.06667,171.097,0.3057463,-0.4949153,0.7788292,5
11.74,-11.89469,1.12886,-19.74926,-0.4139751986884428,-0.0412065626039789,0.585399943767293,60.95483,30.26548,166.6844,0.2802337,-0.4602244,0.8109826,5
11.76,-11.81645,1.313093,-19.68112,-0.3430862566532067,-0.0257934385103019,0.5624083799050141,64.00188,28.06189,164.2858,0.2739556,-0.4811895,0.7974507,5
11.78,-11.739,1.494689,-19.61358,-0.2716413896079714,-0.0089680845014565,0.5373502904295795,66.9972,25.26473,161.296,0.2674606,-0.5017636,0.7832841,5
11.8,-11.66246,1.67371,-19.54675,-0.19988413418512,0.0061148806482849,0.5100465706229875,69.9179,21.6288,157.4695,0.2607567,-0.52193,0.7684957,5
11.82,-11.55873,1.195495,-19.45343,-0.115567780562334,-0.0493054943703709,0.4848070897931062,48.31177,36.21807,173.1392,0.3063741,-0.3712836,0.8580747,5
11.84,-11.48067,1.371958,-19.3818,-0.0402804787025228,-0.0057121290943791,0.4715004867170198,51.44276,35.354,172.108,0.3013706,-0.3936976,0.8472734,5
11.86,-11.4037,1.545668,-19.31108,0.0341456882145589,0.0365871326707486,0.4572687768527048,54.56149,34.32848,170.9186,0.2961339,-0.4157981,0.8358141,5
11.88,-11.26787,1.250161,-19.23989,0.107375626256895,0.074577137525032,0.4418770989070726,26.22618,42.80302,175.9955,0.3625493,-0.1986843,0.9033222,5
11.9,-11.17889,1.41892,-19.15892,0.1603629895277685,0.0853799443905268,0.4262650068583058,29.74587,42.55318,175.6232,0.3595909,-0.2256145,0.8964071,5
11.92,-11.0915,1.584127,-19.07929,0.2108050503243523,0.0968181792477069,0.4110087664998176,33.26427,42.2664,175.2181,0.3562901,-0.2523316,0.8886376,5
11.94,-11.00559,1.271908,-19.02472,0.2582746705302072,0.105924601140611,0.3958644582369124,2.399432,48.51274,177.9381,0.4110071,-0.01169582,0.9112142,5
11.96,-10.91442,1.438454,-18.9429,0.2963341555478203,0.1135630665291275,0.3930041750640924,5.962753,48.43814,177.9414,0.4104573,-0.04006654,0.910219,5
11.98,-10.82498,1.601329,-18.86251,0.3291812009033875,0.1215129700003426,0.3912503026465725,9.525062,48.36319,177.94,0.4095113,-0.06839044,0.9083439,5
12.0,-10.73741,1.760678,-18.78369,0.3563177077008378,0.1269224768562245,0.3903598972153759,13.08636,48.28729,177.9338,0.4081702,-0.09664028,0.9055912,5
12.02,-10.70998,1.291534,-18.76752,0.375807087821018,0.0588663427162538,0.3871515406858203,352.2223,50.79612,179.0273,0.4273816,0.06489619,0.9014844,5
12.04,-10.61854,1.453712,-18.68278,0.4044367781458386,0.0832692417154631,0.3935563990471511,355.8109,50.70049,179.2296,0.4276327,0.03590542,0.9031885,5
12.06,-10.52902,1.612095,-18.59969,0.4262486686723931,0.106098491402282,0.4007382048918999,359.3986,50.61784,179.4254,0.4274636,0.006887848,0.9040036,5
12.08,-10.50513,1.269821,-18.58238,0.4407744873593392,0.1246370132156273,0.4084423576601241,354.1008,51.34949,179.9936,0.4326853,0.04640148,0.9000754,5
12.1,-10.41684,1.433113,-18.49815,0.4358986522315567,0.1131522266730113,0.3938566852150713,357.6449,51.25463,180.2789,0.4324681,0.01747636,0.9014118,5
12.12,-10.33037,1.59277,-18.41553,0.4247068891089147,0.1031791205674258,0.3796669555624667,1.188433,51.17754,180.5582,0.4318351,-0.01145719,0.9018798,5
12.14,-10.30415,1.246118,-18.4035,0.4067688004113903,0.0919444186277838,0.3656187669058148,1.386373,51.83372,181.5858,0.4368421,-0.01692797,0.8993504,5
12.16,-10.21434,1.411291,-18.3195,0.3857807766803953,0.082767512302086,0.343873987916206,4.999761,51.77571,181.8744,0.4354954,-0.04636976,0.8989854,5
12.18,-10.1263,1.572765,-18.23704,0.3596496739356071,0.075635899968951,0.3227302036348356,8.613007,51.73571,182.1613,0.4337136,-0.075761,0.8977206,5
12.2,-10.04021,1.730701,-18.15628,0.3279522040743989,0.0676816728786234,0.3019428116460645,12.22537,51.71379,182.4488,0.4314987,-0.105068,0.8955578,5
12.22,-10.12672,1.226289,-18.22784,0.2736534634635996,-0.0185204618408455,0.2668592478927465,10.33074,51.75972,183.1614,0.4323132,-0.09296232,0.8968008,5
12.24,-10.03686,1.396669,-18.14487,0.2444009140224619,-0.0059026625395008,0.2432472670487375,13.95944,51.74312,183.4332,0.4296519,-0.1222641,0.8942942,5
12.26,-9.948545,1.563389,-18.06321,0.2106232064401307,0.0077668935651682,0.2197449882086266,17.5871,51.7443,183.7086,0.4265586,-0.1514339,0.8908868,5
12.28,-10.00859,1.190937,-18.11024,0.1719379618163095,0.0196429464759985,0.1961437251696787,16.0863,51.97921,183.7718,0.4295235,-0.1399805,0.8915672,5
12.3,-9.920437,1.369581,-18.03057,0.1279553023852933,0.0036229727196282,0.1588350833974365,19.67187,51.98409,184.0272,0.4261428,-0.1686265,0.8877263,5
12.32,-9.833431,1.544759,-17.95184,0.0817672738737005,-0.0086814967335991,0.1226110637938822,23.25632,52.00651,184.2892,0.4223443,-0.1970982,0.8830135,5
12.34,-9.880991,1.160824,-17.97967,0.0330374994684796,-0.0203190671725393,0.0873011641574217,21.5752,49.39483,184.095,0.4041047,-0.1846036,0.8946958,5
12.36,-9.795223,1.347708,-17.90263,-0.0132067647923304,-0.0334319517905284,0.0479876322902177,25.11072,49.35269,184.1738,0.4000449,-0.21224,0.8896676,5
12.38,-9.710203,1.531318,-17.82616,-0.0600417272149172,-0.0424268242931982,0.0104101972194503,28.64527,49.31481,184.252,0.3956058,-0.2396662,0.8837935,5
12.4,-9.626082,1.71172,-17.75041,-0.1077604892681812,-0.0504948719888867,-0.0255804543871207,32.17846,49.28125,184.3304,0.3907922,-0.2668532,0.8770806,5
12.42,-9.736579,1.132796,-17.83216,-0.1689335786502334,-0.143588719780294,-0.0693225790279303,28.02829,45.9399,183.9375,0.37075,-0.2358364,0.8960251,5
12.44,-9.653811,1.327199,-17.75686,-0.1958171883418962,-0.1236932523923207,-0.0919456868555639,31.5041,45.80105,183.805,0.3660101,-0.2623734,0.8896059,5
12.46,-9.571432,1.518511,-17.68183,-0.2216007175514697,-0.1019662694141816,-0.1121573099596386,34.97851,45.64684,183.6569,0.3609349,-0.2886605,0.8823693,5
12.48,-9.585611,1.118766,-17.68265,-0.2465480050557832,-0.081660394651949,-0.1301060051718294,37.38965,42.74652,183.0044,0.3372705,-0.3074308,0.8848531,5
12.5,-9.504695,1.3175,-17.60898,-0.2639382588441776,-0.0886791798542833,-0.1496429685769371,40.79978,42.42582,182.6115,0.3316483,-0.3325959,0.8764219,5
12.52,-9.423965,1.513271,-17.53539,-0.2785390899153044,-0.0920257397815498,-0.1660056368254723,44.20706,42.05473,182.1702,0.3257321,-0.357457,0.8672105,5
12.54,-9.379308,1.114536,-17.50784,-0.2905808835292947,-0.0950949788585144,-0.1793393188516006,44.69204,42.59841,181.1144,0.3325003,-0.3574805,0.8630326,5
12.56,-9.299811,1.315085,-17.43547,-0.2906108240733284,-0.0124543367531819,-0.1832231738276395,48.04727,42.20053,180.6652,0.3266068,-0.3817197,0.8529739,5
12.58,-9.220417,1.512773,-17.3631,-0.2902308408722809,-0.0446426512442528,-0.1869707276235779,51.39911,41.73228,180.1467,0.320433,-0.4056218,0.8421804,5
12.6,-9.14125,1.707608,-17.29086,-0.2872103140052169,-0.0749356043259719,-0.1877457140314307,54.74687,41.17379,179.539,0.3139843,-0.4291665,0.8306622,5
12.62,-9.023211,1.103728,-17.1876,-0.2817502656303159,-0.1067455210972036,-0.1856776702767413,56.51187,39.41496,176.1998,0.3116501,-0.4355877,0.8234985,5
12.64,-8.94549,1.299763,-17.11723,-0.2430592500124871,-0.1083112814710707,-0.1558279431567115,59.78212,38.51612,175.2271,0.3052904,-0.4581513,0.8109071,5
12.66,-8.86806,1.49309,-17.04705,-0.2022376191343858,-0.1081893255290464,-0.1238493446686517,63.0415,37.39621,174.0345,0.2986785,-0.480323,0.7976442,5
12.68,-8.791035,1.683732,-16.97715,-0.1595021052631927,-0.1097009404255441,-0.0899000425425424,66.28653,35.96558,172.5321,0.2918198,-0.5020876,0.7837201,5
12.7,-8.657554,1.117962,-16.85617,-0.123296013180553,-0.02553257990017,-0.0620044711464831,61.82594,30.14931,167.1997,0.2770388,-0.4680919,0.8083678,5
12.72,-8.581046,1.30438,-16.78624,-0.0797653954700234,-0.0414713754073628,-0.0270050631531542,64.91104,27.99876,164.8754,0.2708786,-0.4893125,0.7945397,5
12.74,-8.505224,1.488165,-16.71685,-0.0351894359608992,-0.0575363267625781,0.0095188408077713,67.94813,25.23759,161.9425,0.2645018,-0.510132,0.7800741,5
12.76,-8.338209,1.178097,-16.56888,-0.0059224225376838,0.0050500075133416,0.0318419563288825,52.0989,32.82793,171.1835,0.2854972,-0.4004902,0.8497131,5
12.78,-8.261621,1.356176,-16.49649,0.033730138777827,0.0005316700428166,0.0586412753241776,55.20616,31.65229,169.8136,0.2802984,-0.4225647,0.8380027,5
12.8,-8.186049,1.531533,-16.42497,0.0736045581443586,-0.0045023725676143,0.0862487416676025,58.29339,30.23516,168.2055,0.2748815,-0.4443006,0.8256374,5
12.82,-8.023371,1.239803,-16.32276,0.1134812231952056,-0.013188819367634,0.1144278140008738,32.00957,40.35041,175.3512,0.3417472,-0.2451415,0.8976604,5
12.84,-7.938308,1.410134,-16.2424,0.1535421078673338,0.002958466320386,0.1363039747751222,35.44167,40.00743,174.8626,0.3383407,-0.2711253,0.8895183,5
12.86,-7.854694,1.577111,-16.16331,0.1937005776834617,0.019457062639186,0.1583870757180101,38.87049,39.61106,174.3251,0.3346273,-0.296858,0.8805681,5
12.88,-7.772667,1.740841,-16.08561,0.2336667410330717,0.0332410929554091,0.1803649211324647,42.29671,39.1504,173.7271,0.3306094,-0.3223256,0.8708147,5
12.9,-7.733323,1.268129,-16.08757,0.2641582893026837,0.1112959179981669,0.2017202642624362,8.157978,46.50499,177.5533,0.3950895,-0.05693183,0.9156384,5
12.92,-7.643794,1.435269,-16.00483,0.2820612386781356,0.0951063571231754,0.2092041956937993,11.70964,46.42167,177.4838,0.3940238,-0.08512101,0.9131636,5
12.94,-7.555926,1.59877,-15.92351,0.2980427830632869,0.0785654885303184,0.2155046492685741,15.26022,46.33272,177.408,0.3925802,-0.1132207,0.9098118,5
12.96,-7.468395,1.285331,-15.8588,0.3117342610631578,0.1298904485248933,0.2238270694603132,353.3176,50.02417,178.7091,0.421469,0.05756802,0.9048985,5
12.98,-7.377768,1.448862,-15.77434,0.3208681590903008,0.1121136883246008,0.2271109963681361,356.8951,49.939,178.8738,0.4217191,0.02870566,0.9062686,5
13.0,-7.28898,1.608644,-15.69149,0.326741371654258,0.09346832670106,0.2289412959029182,0.4718952,49.8643,179.0329,0.4215577,-0.0001765294,0.9067531,5
13.02,-7.21266,1.282837,-15.6313,0.3290081475894036,0.0711194888760999,0.2289364947374781,353.7811,50.83983,179.7465,0.4285078,0.04993994,0.9019059,5
13.04,-7.123909,1.444906,-15.54556,0.3262659742858291,0.0635860592624357,0.2240107560185289,357.3433,50.74738,180.0249,0.4284097,0.02085234,0.9032873,5
13.06,-7.03703,1.603257,-15.4615,0.3198661052298054,0.0573581608586603,0.2168062834296236,0.9048749,50.67237,180.2973,0.4278955,-0.008247063,0.9037901,5
13.08,-6.952184,1.758056,-15.37929,0.3094891181307445,0.0496628289039914,0.2069640896157281,4.46572,50.6142,180.5657,0.4269663,-0.03732999,0.9034145,5
13.1,-6.993092,1.250449,-15.43514,0.3043819794899624,0.1123499660643105,0.2037535415477893,359.3923,51.37729,181.3652,0.4335006,-0.0003856062,0.9010591,5
13.12,-6.9044,1.415241,-15.35099,0.2748217815798158,0.0783911830072488,0.1779108264938405,2.977239,51.31253,181.6485,0.4324435,-0.02964121,0.9011724,5
13.14,-6.817476,1.576381,-15.26841,0.2431266369082804,0.0454647649799502,0.1505047032430104,6.561661,51.26531,181.929,0.430961,-0.05886042,0.9003979,5
13.16,-6.827218,1.232101,-15.2743,0.2177506874915108,0.0861392556443255,0.1315313190399321,8.241722,51.66726,182.8758,0.432873,-0.07556532,0.8982394,5
13.18,-6.737491,1.400875,-15.19046,0.1697590477221521,0.0513094085533888,0.0934327176320932,11.87381,51.64686,183.162,0.4305292,-0.105023,0.8962151,5
13.2,-6.649382,1.56596,-15.10801,0.1199610370529901,0.0186916837883364,0.0539084819418098,15.50491,51.64501,183.4513,0.4277513,-0.1343661,0.8932856,5
13.22,-6.680833,1.199647,-15.12919,0.0680938778641798,-0.0146273387478406,0.0126853850461661,14.76616,51.90604,183.6634,0.4300907,-0.1293571,0.8930404,5
13.24,-6.592365,1.376188,-15.04847,0.0395006835932918,0.0473510077732765,-0.0079098609433332,18.36423,51.91208,183.9307,0.4268983,-0.1582103,0.8894819,5
13.26,-6.505145,1.54921,-14.96879,-0.0164037196682933,0.0045219188963704,-0.0511252958506254,21.96115,51.93637,184.2044,0.4232843,-0.1868981,0.885043,5
13.28,-6.419333,1.718825,-14.89029,-0.0728038188444205,-0.0349759941730657,-0.0949263461441365,25.55669,51.98026,184.4871,0.4192524,-0.2153898,0.8797297,5
13.3,-6.527596,1.168274,-14.97628,-0.107911594299307,0.0061925739401721,-0.1204332314985872,20.14525,50.13747,184.0656,0.4112926,-0.1731192,0.8939065,5
13.32,-6.44129,1.35302,-14.89852,-0.160490450271722,-0.034426663825982,-0.1591890853820974,23.69379,50.11741,184.1991,0.4074335,-0.2010351,0.8891694,5
13.34,-6.355833,1.534443,-14.82143,-0.212416999380106,-0.0713906110488029,-0.1974136608379424,27.24132,50.10611,184.3352,0.4031847,-0.2287496,0.8835801,5
13.36,-6.408521,1.139091,-14.8527,-0.2438795839595386,-0.0244866167087619,-0.2194514428571443,26.297,46.91343,183.9706,0.3801587,-0.2219806,0.8959121,5
13.38,-6.325018,1.33173,-14.77699,-0.2740830694137447,0.0219600391218709,-0.2404374209524191,29.78914,46.81068,183.9004,0.3756367,-0.2488186,0.8898438,5
13.4,-6.241988,1.521234,-14.70163,-0.325156722581472,-0.0438782336545809,-0.27829706842489,33.27972,46.69905,183.8201,0.3707682,-0.2754146,0.8829514,5
13.42,-6.246551,1.121823,-14.6918,-0.3740944058700904,-0.107331460844804,-0.314438716855876,34.7136,43.40279,183.2554,0.3449164,-0.2870907,0.8895921,5
13.44,-6.165236,1.319732,-14.61767,-0.3920013059261876,-0.058253402410748,-0.3254992141106385,38.1405,43.13862,182.9277,0.339575,-0.3126246,0.8817171,5
13.46,-6.084144,1.514647,-14.54367,-0.41379011633209,-0.093308025263098,-0.3420219614739104,41.56504,42.83488,182.5623,0.33393,-0.33787,0.8730512,5
13.48,-6.003406,1.706588,-14.46991,-0.4319640749615416,-0.1254941403337703,-0.3557783919427693,44.98697,42.48286,182.1501,0.3279867,-0.3628044,0.8636027,5
13.5,-6.025051,1.115036,-14.50053,-0.4322736934162624,-0.0699757103354316,-0.3556021410224361,43.27767,42.76277,181.7417,0.3336234,-0.3484859,0.8674949,5
13.52,-5.945014,1.3153,-14.42804,-0.4282125506086729,-0.0995381715787006,-0.3526153988873519,46.64686,42.38391,181.3038,0.3277327,-0.3728995,0.8577582,5
13.54,-5.865093,1.512676,-14.35558,-0.4202968374497091,-0.1268930419600843,-0.3467521597936165,50.01274,41.93932,180.8014,0.3215585,-0.3969808,0.8472766,5
13.56,-5.785412,1.707178,-14.28325,-0.4033114370536002,-0.0667024601948831,-0.3312852087581488,53.37473,41.41117,180.2166,0.3151061,-0.4207095,0.8360596,5
13.58,-5.723392,1.107166,-14.23212,-0.3823767032604183,-0.0074425226648622,-0.3127299508908452,53.31153,40.48324,177.6847,0.3176496,-0.4145896,0.8352167,5
13.6,-5.645192,1.305548,-14.16118,-0.3524213487872331,-0.0636321506225205,-0.2869603293827354,56.60601,39.78106,176.9115,0.3114575,-0.4376152,0.8232809,5
13.62,-5.567182,1.501176,-14.09034,-0.3192269293453013,-0.1202532273789684,-0.2588636830533495,59.8932,38.92235,175.9831,0.3050054,-0.4602658,0.8106556,5
13.64,-5.376559,1.109051,-13.91969,-0.2888335420339909,-0.061270583026583,-0.2332815802971177,62.64473,31.70716,167.8688,0.2849011,-0.4726201,0.8021559,5
13.66,-5.299596,1.297743,-13.8503,-0.2414853701522804,-0.0777396742817962,-0.1926929928832621,65.76377,29.61205,165.619,0.2786177,-0.4938925,0.7881565,5
13.68,-5.223229,1.483803,-13.78137,-0.1923380645022501,-0.0942481366357419,-0.1506942901574897,68.83806,26.89126,162.7453,0.2721096,-0.5147544,0.7735216,5
13.7,-5.147567,1.667277,-13.713,-0.1415610882323952,-0.1140456533948444,-0.1074670682348479,71.84576,23.2449,158.9476,0.2653827,-0.5351914,0.7582623,5
13.72,-5.029689,1.161573,-13.60457,-0.0978589423753265,-0.0272576104557664,-0.0709017803525762,55.79293,29.87454,168.7536,0.271008,-0.4275676,0.8380035,5
13.74,-4.953194,1.34138,-13.5329,-0.0379950772623866,-0.0323342328238856,-0.0249730632661449,58.8559,28.25021,166.9059,0.2654937,-0.4491312,0.825461,5
13.76,-4.877647,1.518493,-13.46203,0.0228537706720852,-0.0381347702734042,0.0219728163589318,61.8852,26.25877,164.6944,0.2597714,-0.4703335,0.8122696,5
13.78,-4.727928,1.228561,-13.35983,0.070690948022016,0.025891047299788,0.0578175730219159,37.85273,38.60115,174.7294,0.3263988,-0.2914244,0.8868991,5
13.8,-4.645584,1.400516,-13.28145,0.1179551956346632,0.0873743769577105,0.0928712537183589,41.19363,38.12897,174.095,0.3224738,-0.3163045,0.8776438,5
13.82,-4.564576,1.569305,-13.20424,0.1602327310980656,0.0534734230130869,0.116121237483125,44.52914,37.57894,173.3869,0.3182703,-0.3409031,0.8676288,5
13.84,-4.452386,1.263556,-13.14642,0.1904173090075921,0.0873586330932041,0.135413416843843,13.9418,45.2028,177.1666,0.3841306,-0.1025786,0.9149432,5
13.86,-4.363447,1.431299,-13.06396,0.2189511358911278,0.120310349338502,0.1533087851927783,17.47969,45.09462,177.0184,0.3825164,-0.1304264,0.9110145,5
13.88,-4.27612,1.59543,-12.9829,0.2439997020184278,0.0820089882200937,0.1652217964539064,21.01752,44.97427,176.8597,0.380537,-0.1581505,0.9062153,5
13.9,-4.190576,1.756099,-12.90338,0.2678913613385447,0.0422368427588314,0.1761024079016944,24.55397,44.84008,176.6886,0.3781954,-0.1857156,0.9005522,5
13.92,-4.171806,1.279243,-12.90566,0.2964853271200373,0.0930520935871704,0.197363739774437,354.482,49.73671,178.4047,0.4193988,0.04951483,0.906419,5
13.94,-4.081161,1.444131,-12.82237,0.3233220841024008,0.074695456952634,0.2158035625116952,358.0483,49.66095,178.5273,0.4196407,0.02085088,0.9074397,5
13.96,-3.992294,1.605315,-12.74061,0.3474542415271637,0.0554036217439825,0.232910241426292,1.613801,49.59289,178.6451,0.419476,-0.00782502,0.9075803,5
13.98,-3.911688,1.296007,-12.67915,0.3683304280978323,0.1033559933089535,0.2505617947026832,353.4605,50.77451,179.4912,0.4278033,0.05342881,0.9020599,5
14.0,-3.821717,1.456921,-12.59267,0.3848805907754242,0.1478959851151023,0.2653207586344701,357.0406,50.68478,179.7585,0.4278339,0.02423928,0.9034864,5
14.02,-3.733683,1.614034,-12.50794,0.3771418643470821,0.0927110061660347,0.2555937496971379,0.6200954,50.61193,180.0198,0.427445,-0.004965752,0.9040254,5
14.04,-3.717132,1.254735,-12.50912,0.3681280810955328,0.1093732941252711,0.2473063329485825,357.4125,51.36111,181.135,0.4334231,0.01605592,0.9008533,5
14.06,-3.628878,1.419167,-12.42551,0.3554879640169893,0.1256036833263836,0.2362243973421265,0.9699194,51.28982,181.4125,0.4326501,-0.01296426,0.9014381,5
14.08,-3.542394,1.57999,-12.34347,0.326223873050484,0.0680753740134425,0.2098527313634106,4.526635,51.23565,181.6863,0.4314582,-0.04196363,0.9011484,5
14.1,-3.457839,1.737357,-12.26314,0.2945750218175471,0.0108640529098844,0.18148463635856,8.082557,51.19831,181.9586,0.429849,-0.0709141,0.8999856,5
14.12,-3.517107,1.237786,-12.32049,0.2788256561800808,0.0499687901111922,0.1712329630187492,6.151576,51.88014,182.5826,0.4356025,-0.05808217,0.8982577,5
14.14,-3.427014,1.40499,-12.23635,0.2600550445102317,0.0870470652145447,0.1587067712219587,9.786623,51.85426,182.8798,0.4335689,-0.08763772,0.8967273,5
14.16,-3.338614,1.568481,-12.15369,0.2143398837477981,0.0225394039972499,0.1231849088700784,13.42068,51.84746,183.1791,0.4310973,-0.1170958,0.8942892,5
14.18,-3.388845,1.208748,-12.19138,0.1814929062217166,0.0350743777973147,0.0993727070045409,13.43664,52.12989,183.5416,0.4329167,-0.1185246,0.8932909,5
14.2,-3.299599,1.383195,-12.11009,0.1469132993576231,0.0486636700503548,0.0740769531572889,17.04694,52.13594,183.819,0.4299062,-0.1475441,0.8900294,5
14.22,-3.211704,1.55407,-12.02994,0.0926465335729098,-0.0173398932128824,0.0328918309614447,20.65611,52.16084,184.1028,0.4264678,-0.1764078,0.8858804,5
14.24,-3.125323,1.721493,-11.95107,0.0550830424597724,-0.0014861478154986,0.0058346832992195,24.26397,52.20588,184.3953,0.4226052,-0.2050851,0.8808494,5
14.26,-3.218112,1.168236,-12.02131,0.0168159342296592,0.015916141014184,-0.0219037986586394,20.15093,50.47923,184.0735,0.4139396,-0.1730646,0.8926716,5
14.28,-3.131291,1.352912,-11.94371,-0.0224370767360583,0.0318653584944698,-0.0505866958175911,23.70751,50.46573,184.2157,0.4100907,-0.2010339,0.8879145,5
14.3,-3.045325,1.53425,-11.86679,-0.0900027677638865,-0.0623812859586701,-0.1022020223988076,27.26304,50.46178,184.3612,0.4058479,-0.2288007,0.8823022,5
14.32,-3.083157,1.139095,-11.88429,-0.1283372661141691,-0.047101750695035,-0.1292517068361414,26.29613,47.23246,183.9726,0.3826486,-0.2218139,0.8948528,5
14.34,-2.999208,1.331716,-11.80895,-0.1653039608528382,-0.0299197964630598,-0.1551987313215796,29.79073,47.13409,183.9047,0.3781354,-0.2486413,0.8887799,5
14.36,-2.915733,1.521199,-11.73396,-0.2157209698767677,-0.0967927638283306,-0.191283332671508,33.28371,47.02715,183.8272,0.3732729,-0.2752263,0.8818828,5
14.38,-2.832869,1.707582,-11.65943,-0.2438517936108276,-0.0749452631159522,-0.2099429759630744,36.77559,46.90971,183.7382,0.3680651,-0.301548,0.874168,5
14.4,-2.905459,1.12183,-11.7106,-0.2692240368457569,-0.0512686434551289,-0.2265494257000144,34.70779,43.70721,183.2564,0.3472829,-0.2868218,0.888687,5
14.42,-2.823744,1.319734,-11.63688,-0.29730424488257,-0.1126562359550984,-0.2475095600915438,38.13512,43.44685,182.9295,0.3419474,-0.3123251,0.8808159,5
14.44,-2.742251,1.514643,-11.56329,-0.3097273961477293,-0.084215452299347,-0.2568326846084583,41.56013,43.14717,182.5651,0.336306,-0.33754,0.8721545,5
14.46,-2.71289,1.115038,-11.5472,-0.3188555736513616,-0.0542050802741381,-0.2638137068968715,43.27422,43.06797,181.7436,0.3359315,-0.3481413,0.8666154,5
14.48,-2.632459,1.315299,-11.47512,-0.3248946783205098,-0.0259699974283327,-0.2686544661869718,46.64385,42.69276,181.3062,0.3300396,-0.3725232,0.8568842,5
14.5,-2.55214,1.512672,-11.40306,-0.3280448702197208,-0.0178823299808335,-0.2715542138430797,50.01024,42.25208,180.8047,0.3238619,-0.3965735,0.8464085,5
14.52,-2.470836,1.110002,-11.33388,-0.3228279967250501,-0.0236276823001881,-0.2663968880305596,50.66975,41.46379,178.7295,0.3243664,-0.396628,0.8435659,5
14.54,-2.391977,1.309438,-11.26318,-0.3136857878975822,-0.0260744288594824,-0.2581778836058539,53.97362,40.87592,178.0701,0.3182865,-0.4199193,0.8322295,5
14.56,-2.313262,1.506099,-11.19252,-0.3008014259418665,-0.0286299825587681,-0.2470755569254461,57.27175,40.16635,177.2903,0.3119403,-0.4428497,0.8201944,5
14.58,-2.234809,1.7,-11.12203,-0.270323013275241,-0.117357431602933,-0.2211269766019772,60.56263,39.29482,176.3497,0.3053332,-0.4654001,0.8074709,5
14.6,-2.119486,1.104432,-11.02126,-0.2347437264854891,-0.0893482391360001,-0.1903663846090448,61.21407,35.41868,171.219,0.2981706,-0.4635538,0.8056312,5
14.62,-2.041991,1.295619,-10.95229,-0.1965637878107218,-0.0611537684610613,-0.1577846164093993,64.39762,33.83075,169.508,0.2917917,-0.485158,0.792027,5
14.64,-1.964988,1.484166,-10.88369,-0.1411944828683474,-0.107521016493689,-0.1102034015774702,67.5537,31.78525,167.3411,0.2851763,-0.5063562,0.7777805,5
14.66,-1.787634,1.144174,-10.72317,-0.1011878885393974,-0.0682604859289242,-0.0764176049224201,58.40409,29.75763,167.7899,0.2730175,-0.4450205,0.8255291,5
14.68,-1.710863,1.326155,-10.65265,-0.0607279675091144,-0.0290075896798472,-0.0423589328644888,61.46316,27.89209,165.7106,0.2672394,-0.4663365,0.8124378,5
14.7,-1.634957,1.505474,-10.58285,-0.0199843068104431,0.0071350278086314,-0.0082115197793778,64.48142,25.56667,163.1743,0.261251,-0.4872755,0.7987044,5
14.72,-1.560028,1.682199,-10.51386,0.0249205677974695,-0.0528460683306814,0.024272155315708,67.44276,22.60903,160.0084,0.2550593,-0.5078207,0.7843409,5
14.74,-1.377029,1.228812,-10.38174,0.0645822676176181,-0.0132487208460763,0.0519792397591434,37.82888,38.75966,174.7195,0.3276644,-0.2910042,0.8865005,5
14.76,-1.294966,1.401114,-10.30463,0.1044961528085247,0.0255715166316999,0.0797238413180942,41.1358,38.2856,174.0765,0.323759,-0.3155841,0.8773516,5
14.78,-1.214216,1.570311,-10.22866,0.1470074284503696,-0.0060403054585643,0.1027302007204408,44.43724,37.73384,173.3602,0.3195795,-0.3398884,0.867458,5
14.8,-1.134905,1.736497,-10.15394,0.1794843845417731,0.0299809242772053,0.1217961786203295,47.73309,37.08711,172.5529,0.3151292,-0.3639043,0.8568254,5
14.82,-1.086991,1.26364,-10.15673,0.2109432075386148,0.0649265301741738,0.1397764431230762,13.9385,45.36025,177.1628,0.3853915,-0.1024443,0.9144159,5
14.84,-0.997955,1.431493,-10.07484,0.2410669785416975,0.0959071522797889,0.156324248817398,17.46662,45.25451,177.0116,0.383799,-0.1301847,0.9104923,5
14.86,-0.9105241,1.59575,-9.994325,0.264369697865951,0.1020408281545151,0.1701655732982164,20.99488,45.1365,176.8499,0.3818421,-0.1578041,0.9057031,5
14.88,-0.8355681,1.27926,-9.945322,0.2851927152660116,0.1086874604076899,0.1822413378992226,354.4843,49.97247,178.4048,0.4212634,0.04948029,0.9055547,5
14.9,-0.744627,1.444176,-9.862474,0.3031613634350453,0.1129960778485304,0.1921739372128236,358.0482,49.89985,178.5279,0.4215316,0.02085881,0.9065629,5
14.92,-0.6554644,1.605392,-9.781141,0.316414195491645,0.0440080419518516,0.1967266641017092,1.611282,49.83496,178.6464,0.4213921,-0.007774697,0.9066926,5
14.94,-0.5594528,1.296007,-9.706102,0.336581412719785,0.0676988511812612,0.211589734503542,353.4578,50.9974,179.4903,0.4295559,0.05341359,0.9012249,5
14.96,-0.4691355,1.456931,-9.620018,0.3528926457638637,0.0900239754127028,0.224056930737714,357.0372,50.91082,179.7577,0.4296146,0.02425092,0.9026398,5
14.98,-0.3807592,1.614055,-9.535669,0.3649976319562589,0.1082673689696483,0.2337404408934034,0.6159897,50.84113,180.0192,0.4292523,-0.004927136,0.9031687,5
15.0,-0.2944904,1.767551,-9.453218,0.3557505685385133,0.0966434813381648,0.2240734270760771,4.194006,50.78767,180.2771,0.4284696,-0.03409205,0.9028118,5
15.02,-0.3491489,1.254769,-9.522673,0.3432502460007579,0.0867424357224678,0.2118555054837955,357.4055,51.58425,181.1329,0.4351761,0.016083,0.9000064,5
15.04,-0.2605606,1.419204,-9.439434,0.3271763976504144,0.0757925361922524,0.1967218187284706,0.9622893,51.51614,181.4106,0.4344307,-0.01291174,0.900582,5
15.06,-0.1737458,1.58003,-9.357759,0.3040644225727923,0.0670555788871545,0.1788516088633863,4.518413,51.46517,181.6849,0.433265,-0.04188578,0.9002843,5
15.08,-0.1785411,1.237795,-9.363511,0.278558814686162,0.0605730602183832,0.1591394001781932,6.143005,52.1468,182.5813,0.4376954,-0.05800281,0.8972445,5
15.1,-0.08805388,1.404992,-9.279787,0.2503369756827185,0.0534784795724271,0.1372419034325126,9.778055,52.12417,182.8797,0.4356845,-0.08753533,0.8957085,5
15.12,0.0007375181,1.568475,-9.197531,0.2022135934275933,-0.031644062293413,0.0986409363968979,13.41214,52.12074,183.1803,0.4332332,-0.1169708,0.8932657,5
15.14,0.08766967,1.728387,-9.116896,0.1736809488736114,-0.0177973417275807,0.0786827178451679,17.04587,52.13717,183.4858,0.4303437,-0.1462845,0.8899187,5
15.16,0.005766287,1.199632,-9.181979,0.1430910080568973,-0.0026864379758702,0.0568658808501989,14.76566,52.42532,183.6718,0.434124,-0.1292582,0.8910848,5
15.18,0.09495336,1.376099,-9.101747,0.110151240096724,0.0108449077914896,0.0328994984324002,18.36884,52.44062,183.9488,0.4309674,-0.1581308,0.8875046,5
15.2,0.1828839,1.549034,-9.022553,0.0951165319609345,0.0828887876506361,0.0243277298334795,21.97086,52.47507,184.2331,0.4273837,-0.1868376,0.8830433,5
15.22,0.1445728,1.16829,-9.044238,0.0436929060793104,0.0402618783863209,-0.0141594719421024,20.14107,50.68367,184.0688,0.4155479,-0.1728943,0.8919423,5
15.24,0.2316237,1.353006,-8.967183,-0.0076290879792133,0.0010129839651834,-0.05274364123855,23.69157,50.67155,184.2064,0.4117181,-0.2007787,0.8871957,5
15.26,0.3178217,1.534396,-8.890801,-0.0590634221543686,-0.0379362541625143,-0.0916251110531517,27.24104,50.66868,184.3472,0.407494,-0.2284619,0.8815976,5
15.28,0.4030141,1.712536,-8.815231,-0.1044136377940049,-0.0537837092963781,-0.1241295166622175,30.78911,50.67579,184.4925,0.4028803,-0.2559139,0.8751553,5
15.3,0.2955818,1.139107,-8.894413,-0.1480859110954188,-0.065224562005293,-0.155297241915611,26.29218,47.45589,183.9718,0.3843984,-0.2216628,0.8941113,5
15.32,0.3797997,1.331736,-8.81946,-0.19030036709795,-0.0754804152890795,-0.185329368686263,29.78465,47.3604,183.9033,0.3799002,-0.248446,0.8880422,5
15.34,0.4635454,1.521229,-8.74485,-0.2245058872688499,-0.0848323898069202,-0.2090214060510703,33.27557,47.25643,183.8253,0.3750513,-0.2749878,0.8811505,5
15.36,0.4436059,1.121834,-8.748597,-0.255927262876502,-0.0899914571128513,-0.2307070677354666,34.70227,43.95914,183.2574,0.3492402,-0.2865928,0.8879347,5
15.38,0.5256354,1.319736,-8.67523,-0.2847657181838219,-0.09429484947379,-0.2505729800263052,38.12937,43.70239,182.9312,0.3439133,-0.3120662,0.8800673,5
15.4,0.6074444,1.514643,-8.601986,-0.3112151453955719,-0.1010293457960647,-0.2688029148130639,41.5542,43.40657,182.568,0.3382788,-0.3372516,0.8714104,5
15.42,0.651797,1.115037,-8.572803,-0.3268571620110175,-0.1085167579867435,-0.2815352826529289,43.27192,43.33042,181.7451,0.3379139,-0.3478475,0.8658521,5
15.44,0.732551,1.315296,-8.501072,-0.3382816695103187,-0.1121650957502721,-0.2911003402438032,46.64146,42.95891,181.3085,0.3320245,-0.3721992,0.8561256,5
15.46,0.8131942,1.512667,-8.429369,-0.3456756384180495,-0.1153784843364193,-0.2976801291193304,50.00779,42.52228,180.8083,0.3258477,-0.3962193,0.8456554,5
15.48,0.8935993,1.707161,-8.357806,-0.3414545264136116,-0.032771880643496,-0.2928649211279586,53.37027,42.00294,180.2266,0.3193891,-0.4198873,0.8344513,5
15.5,0.9736405,1.792137,-8.286495,-0.3316790835754508,-0.0653590735432547,-0.2842271179987151,56.72805,41.37617,179.5387,0.3126546,-0.4431829,0.8225235,5
15.52,0.9851689,1.107176,-8.281303,-0.3181400897810906,-0.0961788239648999,-0.272758702881947,53.30093,41.04941,177.6897,0.321767,-0.4136706,0.8336843,5
15.54,1.064066,1.305561,-8.211122,-0.3011957315916167,-0.0390397028283414,-0.2582119049697213,56.59539,40.35508,176.9183,0.3155649,-0.4366319,0.8217635,5
15.56,1.142777,1.501191,-8.141037,-0.2656674924403617,-0.0627676126267465,-0.2278769514572485,59.88265,39.50521,175.9927,0.3090993,-0.459219,0.8091545,5
15.58,1.320438,1.109028,-7.985271,-0.2277034744876206,-0.0860559582517157,-0.1957834174036831,62.63943,32.31015,167.8842,0.2890574,-0.4714141,0.8007009,5
15.6,1.398119,1.297726,-7.916657,-0.1874902812309837,-0.1122128413872012,-0.1621089723178369,65.75902,30.22578,165.6392,0.2827496,-0.4926198,0.7867184,5
15.62,1.475203,1.483792,-7.848503,-0.1357212108123704,-0.095934936583585,-0.1186180891347293,68.83414,27.51791,162.7726,0.276214,-0.5134161,0.7721018,5
15.64,1.656161,1.161489,-7.686369,-0.0829256557198546,-0.0783789691650291,-0.0741604366304802,55.80487,30.48894,168.7507,0.2755037,-0.4265522,0.8364841,5
15.66,1.733447,1.3413,-7.615513,-0.0292805410417238,-0.0627189095839687,-0.0289265191210866,58.86851,28.87151,166.9041,0.2699696,-0.4480459,0.8239511,5
15.68,1.80978,1.518415,-7.545454,0.0099060925378806,0.0268193277920263,0.0030447332582708,61.89861,26.88752,164.6942,0.2642242,-0.4691793,0.8107705,5
15.7,1.885047,1.692913,-7.476292,0.0527262841486396,0.0234015384973925,0.0310777094856432,64.88319,24.41263,161.9965,0.2582745,-0.4899357,0.796954,5
15.72,1.987661,1.228503,-7.419311,0.096522957631761,0.0195932151750537,0.0599523238459833,37.87125,39.16222,174.7261,0.330735,-0.2908306,0.8852344,5
15.74,2.070812,1.400469,-7.341794,0.1410582441975043,0.0122670627711219,0.0893971014476625,41.21153,38.69586,174.0911,0.3268112,-0.3156351,0.8759781,5
15.76,2.15262,1.56927,-7.265441,0.16973893475341,0.0924982674164306,0.1095498776333261,44.54646,38.15188,173.3829,0.3226052,-0.3401588,0.8659639,5
15.78,2.251089,1.263533,-7.222257,0.1962988867514701,0.0795983527819065,0.1209896598468301,13.96319,45.80606,177.1652,0.3889385,-0.1023787,0.9128848,5
15.8,2.340924,1.431276,-7.140763,0.2221887040470377,0.0664119622696394,0.1316193482868218,17.50106,45.70436,177.018,0.3873525,-0.1301567,0.9089381,5
15.82,2.429136,1.595406,-7.060647,0.2471068766204713,0.0499462944578531,0.1411234916480367,21.03889,45.59066,176.8605,0.3853965,-0.1578112,0.9041227,5
15.84,2.515553,1.756073,-6.982064,0.277466445461759,0.0562969613349363,0.16050865246565,24.5754,45.46338,176.6912,0.3830737,-0.1853073,0.8984456,5
15.86,2.597919,1.285375,-6.931076,0.3054431601275857,0.0629118631449343,0.1784139580447376,353.316,50.79048,178.7031,0.4275074,0.05750416,0.90206,5
15.88,2.689685,1.448995,-6.848157,0.3306614623111182,0.0669423471185197,0.1944514521996269,356.8874,50.71526,178.8636,0.4278447,0.02878698,0.90339,5
15.9,2.779602,1.608876,-6.766806,0.3543831769555636,0.1372060891694804,0.2127582296220732,0.4578815,50.6502,179.0191,0.4277658,4.992052e-05,0.9038404,5
15.92,2.856756,1.282936,-6.707579,0.3571176493786551,0.1108285722630211,0.2116310430313256,353.7773,51.63634,179.7443,0.4347646,0.04982855,0.8989044,5
15.94,2.946738,1.445021,-6.623183,0.3568985762738781,0.08454561981015,0.2089250154611132,357.3378,51.55344,180.0227,0.4347521,0.0208326,0.9002507,5
15.96,3.034833,1.603389,-6.540452,0.3521003869630995,0.1256028916995334,0.2049917891001971,0.8975466,51.48797,180.2956,0.4343178,-0.008175349,0.9007221,5
15.98,3.120879,1.758207,-6.45954,0.3325859783842066,0.0932102635446559,0.1857390305290742,4.45658,51.43936,180.5651,0.4334624,-0.03716716,0.9003192,5
16.0,3.078953,1.250483,-6.515021,0.3100649877801997,0.0618724125408226,0.1640490533645806,359.3779,52.20786,181.3643,0.4400211,-0.0003632829,0.8978921,5
16.02,3.168891,1.415277,-6.432215,0.2842382577881565,0.0287870538336197,0.1395874607175841,2.961924,52.15259,181.6488,0.4390413,-0.0295341,0.8979801,5
16.04,3.257047,1.576418,-6.350952,0.2756411332018519,0.0906471599184718,0.1345308251282612,6.545456,52.11497,181.9311,0.4376298,-0.05866874,0.897184,5
16.06,3.247147,1.232137,-6.356892,0.2426511976248642,0.0541327257508981,0.1090515192307831,8.228489,52.52705,182.8749,0.4396072,-0.07539073,0.8949725,5
16.08,3.33816,1.400899,-6.274417,0.2080717819385537,0.0196883961380389,0.0821921671619229,11.86035,52.51637,183.1628,0.4373247,-0.1047639,0.8929322,5
16.1,3.427541,1.565971,-6.193326,0.1850905455627635,0.0593534975425248,0.0665359346340342,15.49119,52.52449,183.4543,0.4346014,-0.1340228,0.8899902,5
16.12,3.395622,1.199698,-6.214221,0.1419130361207908,0.0213548720946009,0.0344559649865731,14.75822,52.79502,183.6637,0.4370113,-0.1290782,0.8896841,5
16.14,3.485361,1.376224,-6.134877,0.097457516571446,-0.0133984950182399,0.0009983703978594,18.35616,52.811,183.9328,0.4338671,-0.1578426,0.8861156,5
16.16,3.573842,1.549228,-6.056561,0.0514977171591372,-0.0478673748302642,-0.0340531701645564,21.95295,52.84558,184.209,0.4302942,-0.1864423,0.88167,5
16.18,3.660902,1.718825,-5.97942,0.028859410660575,0.0178391852032386,-0.0492974620123562,25.54831,52.90021,184.495,0.4262964,-0.2148464,0.8763533,5
16.2,3.746385,1.778471,-5.90359,-0.0231243811309574,-0.0229114126720844,-0.0876875722112819,29.14232,52.97719,184.7942,0.4218784,-0.2430297,0.870171,5
16.22,3.589314,1.16083,-6.027309,-0.0747432255339748,-0.0601801729004776,-0.1260018791702611,21.57331,50.35865,184.105,0.4116014,-0.1842293,0.8912721,5
16.24,3.676443,1.347621,-5.951271,-0.1074829709934006,-0.0145290015583281,-0.1494747285111743,25.11842,50.33426,184.1959,0.4076017,-0.2118698,0.8862078,5
16.26,3.762816,1.531116,-5.875816,-0.1394752612418501,0.0305161707772956,-0.1724107519536246,28.66252,50.31554,184.2879,0.4032133,-0.2392992,0.8802964,5
16.28,3.705111,1.132831,-5.909301,-0.1944593237200788,-0.0353884991014577,-0.2123630426424401,28.01741,46.97476,183.9422,0.3788289,-0.2351825,0.8926629,5
16.3,3.789237,1.327196,-5.83531,-0.2477966678342839,-0.0985891009434836,-0.2511120872499375,31.49667,46.85187,183.816,0.3741361,-0.2616431,0.886235,5
16.32,3.872974,1.518462,-5.761588,-0.2709164709025555,-0.05008207611193,-0.2657233279571176,34.97452,46.71474,183.6756,0.3691001,-0.2878535,0.8789916,5
16.34,3.87368,1.118785,-5.749428,-0.2989425431499927,-0.0839962155270143,-0.2859121143400514,37.36825,43.81881,183.009,0.3455499,-0.3063915,0.881716,5
16.36,3.955956,1.317501,-5.677165,-0.3239431398687347,-0.1147885153452322,-0.3039673054674047,40.77972,43.5138,182.6205,0.3399543,-0.3314477,0.8732975,5
16.38,4.03805,1.513251,-5.604991,-0.3306231496201592,-0.0579319921429385,-0.3083555097647122,44.18845,43.15961,182.1852,0.334057,-0.3562009,0.8641014,5
16.4,4.11983,1.706051,-5.533026,-0.3336416424774469,-0.0016203700326972,-0.3101915261476296,47.59396,42.74478,181.6911,0.3278635,-0.380629,0.8541365,5
16.42,4.097843,1.114536,-5.565597,-0.3461460925940838,-0.0585679161008415,-0.3212450810748024,44.67955,43.70635,181.1222,0.3408209,-0.3561394,0.8598245,5
16.44,4.178711,1.315076,-5.494692,-0.3491523639836618,-0.0255645661656176,-0.3229359882294955,48.03514,43.324,180.6767,0.3349319,-0.3802567,0.8497851,5
16.46,4.259485,1.512752,-5.423805,-0.3480129213043981,0.0087653481793286,-0.3214588201529059,51.38747,42.8727,180.1636,0.3287552,-0.4040383,0.8390138,5
16.48,4.340035,1.707573,-5.353045,-0.3429349183270678,0.0410542604514821,-0.3170042323754628,54.73586,42.33313,179.5634,0.3222966,-0.427464,0.8275204,5
16.5,4.430086,1.103746,-5.278627,-0.3233636718420618,-0.0424511832682198,-0.3013584817924222,56.48214,40.60164,176.2199,0.3201207,-0.4334677,0.8203785,5
16.52,4.509225,1.299796,-5.209791,-0.3009669565194919,-0.1116909350846359,-0.2838048644946609,59.75301,39.72238,175.2549,0.3137331,-0.4559059,0.8078198,5
16.54,4.588077,1.493135,-5.141141,-0.2656971335920379,-0.0540058608661903,-0.2546228274160451,63.01331,38.62527,174.0734,0.3070862,-0.477954,0.7945927,5
16.56,4.772955,1.117877,-4.980038,-0.2126760382786345,-0.0708903063067367,-0.2107258343472438,61.83353,31.30976,167.2047,0.2851871,-0.4658563,0.8054968,5
16.58,4.850907,1.30431,-4.91165,-0.1574393422789419,-0.0883848509353868,-0.1651317426422466,64.91956,29.1741,164.8831,0.2789789,-0.4869421,0.7916957,5
16.6,4.928167,1.488107,-4.843801,-0.1150691382397088,-0.021977846528491,-0.1309154379735286,67.95794,26.42964,161.9549,0.2725475,-0.5076285,0.7772593,5
16.62,5.111239,1.177964,-4.684702,-0.0575899419191747,-0.0222877530188549,-0.0867883144387947,52.12943,33.78045,171.1614,0.2926112,-0.3990717,0.8471564,5
16.64,5.189183,1.356061,-4.613726,0.0007632284349714,-0.0234255314740272,-0.0416903476175658,55.23592,32.61161,169.7848,0.2873959,-0.4210134,0.8354543,5
16.66,5.266103,1.531435,-4.543607,0.0441069977919068,0.0473299423600503,-0.010012659260505,58.32244,31.201,168.1699,0.2819568,-0.4426178,0.8230995,5
16.68,5.341884,1.704165,-4.474447,0.0867705559523928,0.1156342724218414,0.0208101097096952,61.38269,29.47439,166.2423,0.2763005,-0.4638683,0.8101026,5
16.7,5.445762,1.23971,-4.42835,0.1285656000770085,0.1568205303965839,0.0505535287974618,32.06061,41.37319,175.3463,0.3497287,-0.2443442,0.8944476,5
16.72,5.532309,1.410056,-4.34961,0.168483282193584,0.1029910905137014,0.0687411703200207,35.49179,41.04278,174.8583,0.3463447,-0.2701908,0.8862881,5
16.74,5.617393,1.577046,-4.272113,0.2053886902386583,0.1411622488060015,0.089462688845363,38.91982,40.65956,174.3222,0.3426467,-0.2957874,0.8773243,5
16.76,5.700876,1.74079,-4.195986,0.2415205034770813,0.1779726817624901,0.1093212860414569,42.34534,40.21276,173.7268,0.338637,-0.32112,0.8675607,5
16.78,5.782131,1.271975,-4.168891,0.2743305458462335,0.1444086309256534,0.1230040959843443,2.448847,49.09279,177.9438,0.415617,-0.01198209,0.9091119,5
16.8,5.873673,1.438658,-4.088159,0.3042334683200842,0.1795353797227504,0.1409964352810795,5.998161,49.03503,177.9572,0.4151857,-0.04020771,0.908057,5
16.82,5.96351,1.601694,-4.008836,0.3318329069332701,0.2130643243933442,0.1573301244181174,9.546486,48.97768,177.967,0.4143567,-0.06838679,0.9061313,5
16.84,6.067144,1.291487,-3.931926,0.3567477019250353,0.2404732036879003,0.1716509197186567,352.2303,51.63305,179.0312,0.4339589,0.06466077,0.8983422,5
16.86,6.159673,1.453708,-3.848528,0.370412111769774,0.1714410317671086,0.1794965940005221,355.8146,51.55257,179.2414,0.4343412,0.03575924,0.8999836,5
16.88,6.25028,1.612139,-3.766763,0.3821588005163083,0.1939597993206205,0.1905112224679307,359.3981,51.48552,179.446,0.4342975,0.006830792,0.9007412,5
16.9,6.338793,1.766947,-3.686788,0.3900437384104251,0.2150554891865805,0.1995403677268169,2.980903,51.43122,179.6465,0.4338281,-0.02209609,0.900615,5
16.92,6.307702,1.26996,-3.724117,0.3817057307090112,0.158634891158758,0.1996999747183468,354.0956,52.33183,179.996,0.4403852,0.04624002,0.8963305,5
16.94,6.39741,1.433244,-3.6414,0.3716749251155871,0.174116002719372,0.2014466795544321,357.6382,52.25249,180.2872,0.4403021,0.01739989,0.8976098,5
16.96,6.485287,1.592891,-3.560275,0.3575679400881157,0.189197832175875,0.2005677991563902,1.180144,52.19127,180.5732,0.4397957,-0.01144877,0.8980249,5
16.98,6.498128,1.246155,-3.565009,0.3390894368694259,0.2011786817456979,0.1966491512036388,1.365773,52.99588,181.5886,0.4459433,-0.01684982,0.8948747,5
17.0,6.589613,1.411317,-3.482814,0.292340676956299,0.1128863222127701,0.172037297653904,4.978043,52.95403,181.8832,0.4447192,-0.04618743,0.8944663,5
17.02,6.679306,1.572779,-3.402141,0.2619722874045938,0.1233160837497447,0.1661579772004328,8.590085,52.93065,182.177,0.4430507,-0.0754742,0.8931631,5
17.04,6.767031,1.730704,-3.323144,0.2288019338472391,0.1340247976251314,0.1588260578719932,12.20117,52.92597,182.4726,0.4409402,-0.1046772,0.8909674,5
17.06,6.705731,1.217448,-3.370779,0.1925430818055349,0.1422373944130789,0.1496271560743232,11.88124,53.29218,183.3621,0.4431642,-0.1055515,0.8899729,5
17.08,6.797087,1.389804,-3.290542,0.1402777241161255,0.1203038986934316,0.129749715400492,15.50147,53.30191,183.6478,0.4403947,-0.13462,0.8870673,5
17.1,6.886972,1.55854,-3.211513,0.0864064333034224,0.1021228001723866,0.1092974759960686,19.12055,53.33096,183.9397,0.4371845,-0.1635449,0.883272,5
17.12,6.849701,1.183233,-3.235936,0.0306996880429319,0.0847495440860688,0.0879137612596486,17.39775,53.00177,183.9165,0.4361961,-0.1503435,0.8864227,5
17.14,6.939307,1.363868,-3.159176,-0.0284689050014241,0.0643354617298019,0.0649957325921244,20.97161,53.01893,184.1444,0.432716,-0.1786209,0.8822786,5
17.16,7.027849,1.541081,-3.083252,-0.0882321199008839,0.0483185776313411,0.0423323579279755,24.54432,53.0522,184.3795,0.4288149,-0.2067156,0.8772743,5
17.18,7.115168,1.714968,-3.008303,-0.1487881720509489,0.0336175317414873,0.0196111226122516,28.11554,53.10296,184.6238,0.4244968,-0.2345969,0.8714167,5
17.2,7.003196,1.153171,-3.089875,-0.2103169692767683,0.0172037345936381,-0.0034637459940613,23.05419,50.22919,184.05,0.4092162,-0.1955216,0.8896409,5
17.22,7.090295,1.342022,-3.015647,-0.2996067004200924,-0.096498338697646,-0.0509669187173732,26.57561,50.18749,184.0877,0.4050605,-0.2227369,0.8842858,5
17.24,7.176736,1.527647,-2.94191,-0.3524684359368906,-0.0903697141561502,-0.0678874113975818,30.09569,50.14706,184.1236,0.400524,-0.2497312,0.8780977,5
17.26,7.262371,1.7101,-2.868791,-0.4037033538604477,-0.0818328147494762,-0.0828337483299979,33.61473,50.10777,184.1579,0.3956114,-0.2764817,0.8710829,5
17.28,7.181217,1.130489,-2.918757,-0.4534975575241147,-0.0740670166962271,-0.0961047026043936,32.07291,45.73249,183.5377,0.365425,-0.2659463,0.8884503,5
17.3,7.265279,1.327535,-2.846321,-0.4972709387457468,-0.0943551427389867,-0.107262720256914,35.5259,45.52795,183.2731,0.3603048,-0.2917251,0.8811602,5
17.32,7.349079,1.521535,-2.774045,-0.5377016558037608,-0.1100282400030264,-0.1153206667317271,38.97705,45.29342,182.9804,0.354858,-0.3172306,0.8730689,5
17.34,7.377797,1.131521,-2.756248,-0.574938017161218,-0.1244477693346003,-0.1205440985673519,41.83655,44.62357,182.3667,0.347727,-0.3375587,0.8667721,5
17.36,7.460554,1.331474,-2.685938,-0.6020419312933578,-0.1365132534101341,-0.1202820330670111,45.22311,44.27356,181.9417,0.3417698,-0.3619831,0.8574179,5
17.38,7.543188,1.528508,-2.615667,-0.6253171353129174,-0.1443059747439492,-0.1167520044312908,48.60661,43.86292,181.4578,0.3355135,-0.3860818,0.8473114,5
17.4,7.625566,1.722635,-2.54555,-0.6449018397285462,-0.1512380074960533,-0.1102084278561429,51.98646,43.37584,180.899,0.3289641,-0.4098338,0.8364621,5
17.42,7.616162,1.139747,-2.55747,-0.6609267169450146,-0.1606715345723456,-0.1009028871093046,48.05437,43.47004,179.5529,0.339701,-0.3769002,0.8478242,5
17.44,7.69724,1.340176,-2.488284,-0.6509140625670684,-0.1713175987218805,-0.0647084051498388,51.37644,42.98057,178.986,0.3336924,-0.4004017,0.837079,5
17.46,7.778222,1.537792,-2.41912,-0.6372434901129265,-0.1787926131279475,-0.0259496357138223,54.69399,42.39531,178.325,0.3274019,-0.4235557,0.8256248,5
17.48,7.858981,1.732606,-2.350082,-0.6200531038555839,-0.1864607985358665,0.015129418920152,58.00592,41.68496,177.5402,0.3208352,-0.4463431,0.813472,5
17.5,8.015491,1.143411,-2.221842,-0.5994740139934294,-0.1976362106230489,0.0582893858456495,61.21333,37.02769,171.2464,0.3093432,-0.4605275,0.8014221,5
17.52,8.094946,1.334567,-2.154747,-0.5717958133064525,-0.1997336060850389,0.1102826110025667,64.40592,35.46048,169.5489,0.3028479,-0.4820279,0.7878429,5
17.54,8.173903,1.523069,-2.088015,-0.5412325166569756,-0.1994711752731419,0.1639912256080194,67.57154,33.43863,167.3984,0.2961058,-0.5031227,0.773622,5
17.56,8.355686,1.192716,-1.933586,-0.5079162487937612,-0.2001044476237901,0.2191647843719116,58.42912,31.40649,167.7853,0.284876,-0.4420651,0.8213988,5
17.58,8.43449,1.37469,-1.865208,-0.4785957967028784,-0.1875519452005042,0.272547866406629,61.49142,29.5521,165.7093,0.2789792,-0.4632184,0.8083509,5
17.6,8.512413,1.553997,-1.797528,-0.4479821062361879,-0.172977718788713,0.3261851644453019,64.51324,27.23836,163.1768,0.2728626,-0.4839967,0.7946631,5
17.62,8.689063,1.270671,-1.665561,-0.4161814973346389,-0.1595046323024512,0.3798112675950433,43.14457,38.95702,173.9477,0.3279633,-0.3297774,0.8690349,5
17.64,8.771111,1.444894,-1.592623,-0.3992809692750001,-0.0764956277183835,0.4193906197302727,46.38263,38.33711,173.1477,0.3235064,-0.3532668,0.8589523,5
17.66,8.851929,1.616163,-1.520702,-0.3730658923132832,-0.0849782134698178,0.4582118552826858,49.61289,37.6077,172.2422,0.318785,-0.3764588,0.8481658,5
17.68,8.931396,1.78457,-1.449905,-0.3458070232225088,-0.093417072204351,0.4968823363305849,52.83405,36.74146,171.2036,0.3138033,-0.3993389,0.8366824,5
17.7,9.00939,1.796399,-1.380344,-0.3176949159238418,-0.1049114051327887,0.5350220418050295,56.04305,35.70049,169.9935,0.3085653,-0.421884,0.8245143,5
17.72,9.079836,1.336369,-1.384772,-0.2918226780718509,-0.0946284757261986,0.5740343393414844,13.97991,47.29245,177.1646,0.4007434,-0.101594,0.9077451,5
17.74,9.171473,1.504237,-1.305877,-0.2668452397797789,-0.0831051838196227,0.6112539554165897,17.50591,47.19706,177.0197,0.3991559,-0.1291119,0.9038101,5
17.76,9.261475,1.668507,-1.228311,-0.2430288294408673,-0.0732614339963254,0.6462475674576498,21.03262,47.08995,176.8648,0.3971892,-0.1565135,0.8990164,5
17.78,9.333909,1.361469,-1.187481,-0.220617325440678,-0.0679529484076185,0.6786045388270475,354.511,51.98981,178.4066,0.4371479,0.04912145,0.8980072,5
17.8,9.427694,1.526389,-1.107871,-0.1997506758402654,0.0093740998883023,0.7150713801552913,358.0742,51.92576,178.533,0.4374977,0.02071125,0.8989716,5
17.82,9.519656,1.687609,-1.02972,-0.1900393680161711,-0.0124949024888037,0.7362561400256415,1.63655,51.86964,178.6554,0.4374244,-0.007710856,0.8990654,5
17.84,9.609626,1.83283,-0.9531724,-0.1825601441086419,-0.0345173139246941,0.755446578053584,5.197989,51.82098,178.7747,0.4369282,-0.03611745,0.8982895,5
17.86,9.6393,1.35409,-0.9076309,-0.1799321378757108,0.0109353000117436,0.7723196299509678,353.7829,50.66242,179.6918,0.4270874,0.05016217,0.9025789,5
17.88,9.729166,1.516218,-0.822916,-0.1915909388214933,-0.0186661183539657,0.7701680455810083,357.3504,50.58906,179.9209,0.4271428,0.02119842,0.9038883,5
17.9,9.817154,1.674622,-0.7398754,-0.2062729805265333,-0.0470212322205801,0.7650280042612471,0.9171093,50.53006,180.145,0.4267828,-0.007777654,0.9043179,5
17.92,9.8181,1.31021,-0.7044421,-0.2242110743644829,-0.0769238066870502,0.7564986824427302,359.3764,49.63402,181.3203,0.4197445,0.0001027035,0.9075532,5
17.94,9.905319,1.47507,-0.6187161,-0.2373515938704757,-0.084484828437426,0.7502151889818608,2.964556,49.58348,181.562,0.4188219,-0.0291954,0.907598,5
17.96,9.990809,1.636275,-0.5345887,-0.2524626377847034,-0.0894723800195399,0.7414929362022881,6.552005,49.54799,181.8024,0.4174875,-0.05846006,0.9067487,5
17.98,10.07441,1.793981,-0.4522226,-0.2698087617174836,-0.0947305339902785,0.7299114603271899,10.13855,49.52749,182.0426,0.4157429,-0.08765885,0.9050072,5
18.0,9.988753,1.279636,-0.4939417,-0.2786659856466387,-0.0275994315882005,0.7276975912354443,8.22159,48.6239,182.8369,0.4089022,-0.07547332,0.9094249,5
18.02,10.07485,1.448467,-0.4063354,-0.3095683879085766,-0.0605168661928853,0.7008840815455442,11.8559,48.61238,183.0878,0.4067272,-0.1051197,0.9073016,5
18.04,10.15941,1.613607,-0.3202057,-0.3420192868248644,-0.0901351790235979,0.6719468195373458,15.48918,48.61723,183.3418,0.4041422,-0.1346513,0.9042622,5
18.06,10.24226,1.775195,-0.2357124,-0.3762200492197955,-0.1193807475838817,0.6405906642747194,19.12178,48.63941,183.6016,0.4011504,-0.1640438,0.9003097,5
18.08,10.13167,1.22434,-0.3033594,-0.3903067778526907,-0.0509439044992278,0.625268546601859,16.07938,47.60595,183.7473,0.3952286,-0.1409601,0.9073074,5
18.1,10.21432,1.402948,-0.2175471,-0.4304271001647697,-0.0863579031520937,0.5807396971534258,19.67466,47.6224,183.9801,0.3921202,-0.1700282,0.9032808,5
18.12,10.29591,1.578071,-0.1327671,-0.4709013033246743,-0.1179572129117391,0.5352119440223303,23.2688,47.65518,184.2198,0.3886257,-0.1989197,0.8983629,5
18.14,10.23941,1.182908,-0.1576732,-0.4931039790748523,-0.0676912135248205,0.5037570562358502,21.55942,44.31786,184.074,0.36413,-0.1862801,0.9117308,5
18.16,10.31859,1.369798,-0.07369408,-0.515408157579516,-0.0176809700961362,0.4716476590290962,25.09768,44.28643,184.1332,0.3604223,-0.2143834,0.9064829,5
18.18,10.39709,1.553406,0.009633839,-0.5608250945045268,-0.0775852086924707,0.4150866340266128,28.63492,44.25821,184.192,0.3563723,-0.2422741,0.9003723,5
18.2,10.47476,1.733798,0.09216413,-0.6054454757602563,-0.1340728031115368,0.3588865251041409,32.17074,44.23347,184.2514,0.3519854,-0.2699236,0.893406,5
18.22,10.36308,1.142809,0.00541231,-0.6197342599499418,-0.0804731608514793,0.3262000471048449,28.00585,40.2963,183.9203,0.3262474,-0.2384626,0.9132249,5
18.24,10.43845,1.337229,0.0882156,-0.6425577304180756,-0.1096461319178601,0.2842978144973624,31.48177,40.16782,183.7716,0.3219547,-0.265529,0.9065458,5
18.26,10.51348,1.528551,0.1707083,-0.6632184691361525,-0.1347432210099796,0.2438600230568417,34.95627,40.02337,183.6076,0.3173675,-0.2923428,0.8990332,5
18.28,10.58803,1.71681,0.2527522,-0.6818941643755914,-0.1590705216155405,0.2047297047449557,38.4294,39.85965,183.425,0.3124898,-0.3188799,0.8906953,5
18.3,10.54366,1.117208,0.2244952,-0.6738738548632255,-0.0720308077355269,0.1851111404124079,39.60576,36.53168,182.6704,0.2873149,-0.3284989,0.8956878,5
18.32,10.61632,1.316571,0.3060618,-0.6750891899604172,-0.097555180589717,0.150615398647502,43.00911,36.19778,182.2473,0.2821442,-0.3540387,0.8864176,5
18.34,10.68884,1.51298,0.3875423,-0.6727616612052618,-0.1198466873246277,0.1188176044955716,46.40944,35.8074,181.7699,0.2767243,-0.3792563,0.8763614,5
18.36,10.72363,1.113795,0.4244924,-0.6588783407487271,-0.0551490983766979,0.0976873021697494,46.35983,35.54355,180.3585,0.2794124,-0.3757121,0.8757772,5
18.38,10.79426,1.314311,0.5050602,-0.6413288697251036,0.0093594855485151,0.0796082297011834,49.6997,35.10488,179.8417,0.2742094,-0.4002974,0.8649884,5
18.4,10.86479,1.511984,0.5855953,-0.6192406313467402,-0.0421291636876258,0.0651442099484544,53.03563,34.58314,179.2435,0.2687727,-0.4245321,0.8534603,5
18.42,10.93513,1.706826,0.6659728,-0.594106784124232,-0.0926608762249559,0.0530954220728244,56.36669,33.95409,178.5394,0.2631072,-0.4483957,0.8412032,5
18.44,11.05541,1.102189,0.8079019,-0.5524072751385096,-0.0295040474067234,0.0555937511931281,59.63152,31.01551,174.0906,0.256365,-0.4665168,0.8280782,5
18.46,11.12411,1.295896,0.886536,-0.4945242221558799,-0.0471316589400057,0.0763181051487572,62.8735,29.83646,172.808,0.2508298,-0.4892086,0.8144133,5
18.48,11.19247,1.486921,0.9648437,-0.4341092492194225,-0.0642266730959053,0.0989286505274701,66.09897,28.33125,171.2006,0.2450893,-0.5114855,0.8000789,5
18.5,11.26039,1.675297,1.042712,-0.3713801756267416,-0.0841048741941412,0.1232628169888493,69.30118,26.35056,169.119,0.2391476,-0.5333323,0.7850855,5
18.52,11.36534,1.128662,1.173574,-0.3179631624520074,0.0071639591997663,0.1402498119310798,60.97154,21.6196,166.7007,0.2182391,-0.476254,0.8297511,5
18.54,11.43243,1.312889,1.252905,-0.2495071104219004,0.0034903480636654,0.1745032794712818,64.02428,19.4503,164.3166,0.213181,-0.4980527,0.8157181,5
18.56,11.49884,1.494471,1.331503,-0.1803637104736981,-0.0003354845195919,0.2096812159059458,67.02631,16.69161,161.3458,0.2079539,-0.5194457,0.801035,5
18.58,11.63054,1.195212,1.486352,-0.1262462200267642,0.0699472850194974,0.2323935178900726,48.36949,27.73337,173.1215,0.2420951,-0.3839085,0.8781582,5
18.6,11.69725,1.371669,1.568777,-0.0729098721715475,0.1385188765304504,0.254536362791259,51.50278,26.89504,172.0966,0.2380817,-0.407116,0.8669484,5
18.62,11.76303,1.545369,1.650129,-0.0175232758020467,0.112700849525009,0.2699833538464592,54.62425,25.89729,170.9159,0.2338841,-0.4299989,0.855065,5
18.64,11.82777,1.716397,1.73029,0.0235067774031494,0.1540941650415985,0.27735352483228,57.73053,24.6963,169.5353,0.2295078,-0.4525395,0.8425184,5
18.66,11.95927,1.257268,1.817808,0.0630618311095394,0.1945735355371874,0.2845213388946254,20.13008,36.01012,176.5645,0.3091893,-0.1570101,0.934353,5
18.68,12.03579,1.425691,1.910619,0.1008266901768133,0.231184440659682,0.2911626372612587,23.64301,35.86309,176.3137,0.3074637,-0.1851189,0.9287355,5
18.7,12.11094,1.590557,2.001874,0.1345811398650709,0.1721812946283439,0.2889219977251903,27.15601,35.69436,176.045,0.3054475,-0.213058,0.9222397,5
18.72,12.19506,1.275705,2.080551,0.1673293829931954,0.1334507315948842,0.2872308235923712,358.4678,41.11656,178.1739,0.3508845,0.01811281,0.9361878,5
18.74,12.27363,1.441486,2.174763,0.1996958686994359,0.183659802130725,0.2967208677011391,2.028315,41.06352,178.2374,0.3508851,-0.01117968,0.936125,5
18.76,12.3507,1.603587,2.267269,0.2286837891076898,0.1645648985798313,0.3038620606539168,5.587852,41.01429,178.298,0.3505472,-0.04045302,0.9351584,5
