t,pX,pY,pZ,aX,aY,aZ,reX,reY,reZ,rtX,rtY,rtZ,ID
7.06,-42.3219,1.087826,-35.70374,2.5792127313894744,-0.0738213685448505,2.4160658458829403,18.18677,357.6274,163.736,0.00211406,-0.1593131,0.9777566,19
7.08,-42.36325,1.275114,-35.64473,2.677521698208465,-0.0752242797954274,2.4244199474267063,20.01519,357.7625,164.6435,0.004159409,-0.1747567,0.9762225,19
7.1,-42.49022,1.442394,-35.56594,2.769543552592648,-0.052572260110307,2.431382482058263,22.73615,357.8956,168.1497,0.002437724,-0.1978833,0.9753528,19
7.12,-42.90535,1.12465,-35.52922,2.8719996982643456,-0.0991033571663316,2.427564401506645,16.67593,1.067374,168.0863,0.02421489,-0.1432662,0.9839047,19
7.14,-42.95067,1.313223,-35.50524,2.9679029419296583,-0.119347805797375,2.423507588058306,17.84898,359.1784,169.2116,0.007531722,-0.1551076,0.9835982,19
7.16,-42.98913,1.502421,-35.48339,3.056814142301528,-0.1151413866117674,2.4189488197885307,18.99923,357.4073,170.1673,-0.008090895,-0.1663041,0.9827268,19
7.18,-42.8182,1.160531,-35.43106,3.1567686443194134,-0.1547518457159318,2.399976401987076,18.59219,359.0855,166.2254,0.01155182,-0.1613102,0.979869,19
7.2,-42.83543,1.355396,-35.41081,3.2504059203828586,-0.169151519007077,2.3819505128761724,19.50199,357.0881,166.4448,-0.004884476,-0.1710839,0.9788578,19
7.22,-42.85281,1.550122,-35.39109,3.3371705859984244,-0.1602098321770587,2.364560547723164,20.41989,355.0862,166.6349,-0.02129502,-0.180799,0.9774644,19
7.24,-42.67548,1.188397,-35.23323,3.428639651808516,-0.1971695252623022,2.3325859373551925,12.84918,4.993122,169.6587,0.05318447,-0.1074333,0.9882977,19
7.26,-42.66436,1.379188,-35.18004,3.5132955348725297,-0.2092564944675043,2.301794457007845,14.62457,3.337927,169.1636,0.04077191,-0.1239271,0.9866666,19
7.28,-42.65391,1.569307,-35.12706,3.5905674525268907,-0.1983308534168213,2.271903680951376,16.39048,1.658535,168.5986,0.02841229,-0.1404039,0.9845849,19
7.3,-42.6441,1.758745,-35.0743,3.6599092422170143,-0.1661700388773428,2.242620883739592,18.14427,359.9565,167.968,0.01615281,-0.1568487,0.9820584,19
7.32,-42.46389,1.220164,-34.95062,3.725600406136354,-0.2029503340684863,2.1911611838004337,2.22129,12.44924,174.1157,0.1092523,-0.01367929,0.9924998,19
7.34,-42.45302,1.395125,-34.85114,3.783966292125295,-0.2153059691751172,2.1420231146537017,5.33685,10.84244,173.9896,0.09667461,-0.04133627,0.9928494,19
7.36,-42.44142,1.56799,-34.75381,3.834452144536924,-0.2050766996462215,2.094905307213324,8.452853,9.026243,173.6647,0.08241329,-0.06902117,0.992349,19
7.38,-42.18272,1.271454,-34.61544,3.8777670776864177,-0.2456600431319142,2.025195289381151,354.8938,18.33722,179.7426,0.159083,0.04433387,0.9862572,19
7.4,-42.15873,1.420042,-34.45958,3.913638888454005,-0.2610326861357932,1.9582011016699807,359.5671,16.56174,179.8748,0.1440206,0.003895708,0.989567,19
7.42,-42.13825,1.562726,-34.308,3.941577343921491,-0.2530364205754859,1.89369390137829,4.243965,14.794,179.8624,0.1286994,-0.0365644,0.9909914,19
7.44,-41.99477,1.249992,-34.42827,3.961483731476276,-0.2946337062892097,1.8098601450728693,359.4756,21.67145,181.3668,0.1880321,0.002252307,0.9820798,19
7.46,-41.97385,1.41455,-34.30882,3.974508541952755,-0.3103131160063103,1.7293571364624478,3.108902,19.91195,181.5397,0.1724532,-0.02903816,0.9845526,19
7.48,-41.95542,1.575628,-34.19165,3.9801842383059407,-0.3019511473708414,1.6520201820360052,6.74425,18.1555,181.6001,0.156675,-0.06027756,0.9857988,19
7.5,-41.93948,1.733412,-34.07704,3.978061270726495,-0.2713399371635839,1.5776726898909716,10.37876,16.38785,181.548,0.1407175,-0.09143376,0.9858186,19
7.52,-41.8264,1.231894,-34.25711,3.9525803462776095,-0.3148493523826631,1.4727311923146085,8.294681,24.36997,182.8868,0.2086684,-0.07597262,0.9749869,19
7.54,-41.79816,1.400823,-34.14023,3.921482790776791,-0.3310958063827192,1.3722046739288851,11.94294,22.64548,183.0682,0.1924691,-0.1071997,0.9754136,19
7.56,-41.77238,1.566301,-34.02522,3.884379559037284,-0.3219972367599092,1.2760309080657368,15.59391,20.90761,183.1385,0.1760444,-0.138284,0.9746188,19
7.58,-41.67972,1.199395,-34.17161,3.8280579782783857,-0.366099377185261,1.1575859750515551,14.78978,28.38924,183.7001,0.2390217,-0.1325633,0.9619229,19
7.6,-41.64174,1.376156,-34.06181,3.7671424618266887,-0.381327499026573,1.0440669529608773,18.39123,26.69282,183.8915,0.2224606,-0.163137,0.9611866,19
7.62,-41.60601,1.549667,-33.95314,3.701343045505809,-0.3696462408950487,0.9355397995601908,21.99549,24.97138,183.9723,0.2056425,-0.193502,0.9592727,19
7.64,-41.53657,1.16796,-34.07432,3.617794446214142,-0.4126441136120776,0.8102920734740335,20.16617,30.11982,184.1433,0.2495372,-0.1782001,0.9517632,19
7.66,-41.49109,1.352852,-33.97209,3.530525561415839,-0.4252054557828452,0.6905589768062734,23.71115,28.4114,184.2433,0.2326311,-0.207918,0.949958,19
7.68,-41.44752,1.53471,-33.87033,3.439352705409533,-0.4093414664427361,0.576520027223137,27.25623,26.6605,184.2275,0.2154634,-0.2373794,0.9470217,19
7.7,-41.40593,1.713627,-33.76926,3.3440976447807182,-0.3669968448874888,0.4683392422685637,30.79782,24.84807,184.0831,0.1980517,-0.266544,0.9429609,19
7.72,-41.38836,1.138852,-33.95533,3.2240318318030328,-0.4080349612062608,0.3398874082216583,26.32914,30.00531,184.0148,0.2442005,-0.22868,0.9420177,19
7.74,-41.33561,1.331714,-33.86121,3.101646568433725,-0.4172174461880552,0.2183845594787214,29.81527,28.20033,183.8743,0.2268494,-0.2573258,0.9388103,19
7.76,-41.2844,1.521744,-33.76695,2.976865059157716,-0.39659362940889,0.1040985889056873,33.29407,26.31725,183.5954,0.2092483,-0.2856581,0.9345186,19
7.78,-41.239,1.121651,-33.84138,2.842815178441473,-0.431815088562231,-0.0174580159267465,34.76677,29.93992,183.295,0.2381147,-0.2955925,0.9237764,19
7.8,-41.18047,1.319779,-33.75437,2.707160003557899,-0.4344572598610304,-0.1312584776405509,38.18423,27.96328,182.8864,0.2202545,-0.3230471,0.9186964,19
7.82,-41.12321,1.515224,-33.66682,2.5698947410521784,-0.4065851501771879,-0.2369663085607372,41.58681,25.85515,182.2999,0.2021615,-0.3501291,0.9125816,19
7.84,-41.04027,1.114978,-33.68863,2.431205982684598,-0.4342646127550857,-0.3438114665202807,43.30487,31.61452,181.7512,0.2477266,-0.3588494,0.8957226,19
7.86,-40.9777,1.315495,-33.60677,2.2911984468082265,-0.4290592291955997,-0.4419825771779111,46.66243,29.49216,181.1941,0.2297189,-0.385416,0.8889895,19
7.88,-40.91623,1.513417,-33.52418,2.149930320566697,-0.3930314379527397,-0.5311026119683806,50.00127,27.1769,180.4065,0.2114739,-0.4115511,0.881281,19
7.9,-40.85598,1.708752,-33.44101,2.007458016797135,-0.3281863380801019,-0.6108097383063664,53.31397,24.61072,179.3344,0.1930117,-0.437227,0.872606,19
7.92,-40.79661,1.109938,-33.4803,1.8654715431640776,-0.3492965522425807,-0.6883274775160357,50.72691,31.66908,178.7077,0.2511907,-0.4092975,0.8679469,19
7.94,-40.73289,1.309641,-33.40195,1.7224379948063868,-0.3378431351989919,-0.7557588882756057,54.01461,29.29294,177.8814,0.2333638,-0.4351079,0.8597268,19
7.96,-40.67025,1.506854,-33.32289,1.595383858496099,-0.3502533951284685,-0.8069944738558901,57.27606,26.62412,176.7323,0.2153023,-0.4604451,0.850589,19
7.98,-40.48355,1.104499,-33.20766,1.4663948199577117,-0.3311503148604193,-0.8477279992358517,61.24759,27.92506,171.1603,0.2451144,-0.4768766,0.8231496,19
8.0,-40.42124,1.295903,-33.13103,1.3355957925963935,-0.2824641400750352,-0.8776116001031067,64.40467,24.50217,169.2427,0.2275798,-0.501651,0.8126609,19
8.02,-40.36032,1.484961,-33.05416,1.2031227400369842,-0.206065119019303,-0.8963091863094603,67.49596,20.36123,166.5868,0.2098192,-0.525889,0.8013303,19
8.04,-40.13597,1.144477,-32.9206,1.0953261331347417,-0.1989181996728853,-0.8984740861233145,58.35498,24.6018,167.8216,0.2354907,-0.4539052,0.8372386,19
8.06,-40.07504,1.326686,-32.8419,0.9851237585283056,-0.162135529772543,-0.8882998562502427,61.38316,20.9507,165.5794,0.2181047,-0.4783174,0.8272609,19
8.08,-40.01596,1.506531,-32.76336,0.8726541697647257,-0.0975603277063604,-0.865507287159009,64.32539,16.64127,162.6586,0.2005108,-0.5022336,0.8164428,19
8.1,-39.95884,1.684101,-32.68515,0.7730989149816665,-0.1026265173064726,-0.8476530894033889,67.14619,11.44518,158.8336,0.1827244,-0.5256261,0.8047992,19
8.12,-39.7828,1.212248,-32.67223,0.6923468403452926,-0.1060471842161131,-0.8271392319068882,42.98608,33.44643,173.9543,0.2858706,-0.3362849,0.8843096,19
8.14,-39.71923,1.386718,-32.58762,0.674802831803917,-0.0384265842349232,-0.7981609231679565,46.2051,31.07724,173.0077,0.268999,-0.3623071,0.8781263,19
8.16,-39.65803,1.558519,-32.50347,0.6795135273166402,-0.0413857587360421,-0.7727252199745607,49.39101,28.47804,171.7979,0.2518604,-0.3879417,0.8710248,19
8.18,-39.46873,1.257337,-32.51646,0.6966445096895706,-0.0470995488757623,-0.7353662430717831,19.96024,42.18999,176.5786,0.3591381,-0.1510382,0.9165953,19
8.2,-39.39411,1.425818,-32.42545,0.6952331855188829,0.0205220076545357,-0.6907001733808342,23.48131,40.35675,176.2168,0.3438477,-0.1797409,0.9161685,19
8.22,-39.3224,1.590978,-32.33504,0.7111450891021303,0.0145639753578704,-0.6455114748993815,26.99036,38.44588,175.7168,0.328165,-0.2082344,0.9146611,19
8.24,-39.16804,1.275812,-32.35085,0.7365967002255385,0.0041841594779396,-0.5874790608641294,358.3475,48.67381,178.1689,0.411796,0.01972095,0.911022,19
8.26,-39.08953,1.441785,-32.26015,0.7426378574537491,0.0692367474037817,-0.5373603631005928,1.912069,46.97949,178.1193,0.3987269,-0.008759996,0.9167711,19
8.28,-39.01417,1.60433,-32.17007,0.7527675471788484,0.1281740742032816,-0.4807246229988879,5.472523,45.27696,177.9638,0.3851986,-0.03722209,0.9214275,19
8.3,-38.94207,1.763625,-32.08083,0.7680238903460008,0.089538021391831,-0.4370752771962318,9.025776,43.55286,177.7002,0.3712275,-0.06563177,0.9249872,19
8.32,-38.83938,1.293941,-32.1517,0.7892635968409216,0.044792438181311,-0.3854313192538936,352.838,50.97472,179.2273,0.4290819,0.059276,0.9010787,19
8.34,-38.76062,1.45573,-32.05791,0.7909501672683588,0.0995599323207881,-0.3368500807759473,356.4282,49.27738,179.333,0.4165203,0.03075228,0.9085737,19
8.36,-38.68528,1.613962,-31.96493,0.793765164930301,0.0769541559807336,-0.3117627842107922,0.0189693,47.59164,179.3321,0.4034727,0.002200068,0.9149734,19
8.38,-38.60472,1.262025,-32.0449,0.8025200412745326,0.0530794249325271,-0.2866099959450903,355.7705,53.00974,180.5594,0.4461259,0.03084494,0.8941962,19
8.4,-38.52566,1.426126,-31.95517,0.7802029828982509,0.094926554248544,-0.2683349097271832,359.3282,51.32035,180.7231,0.4330501,0.002552276,0.901329,19
8.42,-38.44983,1.586833,-31.86611,0.7574408091936906,0.0656726672664698,-0.279154173264073,2.887906,49.6408,180.782,0.4194762,-0.02573456,0.9073912,19
8.44,-38.37475,1.240633,-31.93056,0.7391377847164575,0.0400017678806998,-0.3001827895466253,4.023718,54.26251,182.0402,0.4551209,-0.03935213,0.8895596,19
8.46,-38.29172,1.407227,-31.84325,0.7068056948541415,0.0830298758599747,-0.2919248869430877,7.656091,52.60159,182.2017,0.4408635,-0.0683336,0.8948834,19
8.48,-38.2118,1.570357,-31.75644,0.677723465386201,0.1240287190909573,-0.2892668909893587,11.29112,50.93499,182.2569,0.4260812,-0.09722534,0.899109,19
8.5,-38.13515,1.73021,-31.67035,0.633035499159516,0.0643369549402403,-0.3238282003469948,14.92516,49.24891,182.2037,0.4107928,-0.1259901,0.9022325,19
8.52,-38.16895,1.217345,-31.82145,0.5953123576277344,0.0059234513968516,-0.3638427931826413,11.9228,54.5281,183.3152,0.4527534,-0.1054609,0.8851041,19
8.54,-38.08435,1.390121,-31.73885,0.5500577904805883,0.0442853124259035,-0.3660081650596587,15.5494,52.88752,183.4419,0.4373892,-0.1343203,0.8885505,19
8.56,-38.00246,1.559539,-31.65644,0.4949631336704936,0.0038913172582515,-0.3963777074393659,19.17699,51.2243,183.4612,0.4215073,-0.1630077,0.8909122,19
8.58,-38.01426,1.18312,-31.76223,0.4465657308233757,-0.0334583595712247,-0.4318253741363951,17.43269,55.20951,183.8865,0.4532008,-0.149746,0.877808,19
8.6,-37.92855,1.364144,-31.68688,0.3949067199765288,0.0086093677040732,-0.4339437684429708,21.01077,53.57172,183.9711,0.4371979,-0.1780182,0.8800534,19
8.62,-37.84497,1.542016,-31.61132,0.3340828206248343,-0.0308262765456759,-0.4587017568060427,24.58862,51.89782,183.9455,0.4206902,-0.2060703,0.8812501,19
8.64,-37.85271,1.153065,-31.68969,0.2794945222747138,-0.0667998540290666,-0.4873011778561116,23.09484,52.78556,184.0085,0.4289872,-0.1944361,0.8802122,19
8.66,-37.7671,1.342338,-31.62043,0.2261641069944291,-0.0196267088733173,-0.4859321586012539,26.61435,51.07581,183.8917,0.4122391,-0.2218096,0.8809366,19
8.68,-37.68307,1.528661,-31.55061,0.1774643480979243,0.0270237941267268,-0.4867879089392977,30.12765,49.30173,183.6496,0.3950295,-0.2489149,0.8806416,19
8.7,-37.60078,1.712098,-31.48039,0.1127929709087904,-0.0385786452148665,-0.5133911606408197,33.63137,47.44267,183.2677,0.3773788,-0.2757245,0.8793279,19
8.72,-37.66581,1.128829,-31.59583,0.0551780552196161,-0.1018265803453317,-0.5425643243878078,30.07444,49.06437,183.6526,0.3932611,-0.2486851,0.8815638,19
8.74,-37.58136,1.325008,-31.53076,0.0083244857964315,-0.053369111954288,-0.5318023244299499,33.52348,47.21479,183.2815,0.3757288,-0.2751282,0.8803264,19
8.76,-37.49803,1.518411,-31.46487,-0.0386106331866527,-0.0893313086022801,-0.5340095540050354,36.95914,45.25885,182.7556,0.3577893,-0.3012543,0.8780988,19
8.78,-37.46406,1.117228,-31.50257,-0.0787852134659461,-0.1224113713772627,-0.5368256551468624,39.65992,47.74722,182.6336,0.3734927,-0.3188728,0.8631454,19
8.8,-37.37969,1.316971,-31.44137,-0.1112598218634088,-0.0678706191295631,-0.5154046995161754,43.04182,45.71239,182.0499,0.3552359,-0.3444468,0.859652,19
8.82,-37.29618,1.514055,-31.37921,-0.1379064896712991,-0.0982293479207757,-0.5004185795449536,46.4043,43.50738,181.2578,0.3366052,-0.3696365,0.8552173,19
8.84,-37.21233,1.113853,-31.38378,-0.1584230210503125,-0.1263293560940658,-0.4848861633678765,46.40512,47.36072,180.2943,0.3682211,-0.3617565,0.8421321,19
8.86,-37.1288,1.314725,-31.32446,-0.1766091769017856,-0.0666332825461051,-0.4527949790924266,49.72673,45.18977,179.5863,0.3500006,-0.3869224,0.8370833,19
8.88,-37.04604,1.513028,-31.26415,-0.1895906792210482,-0.0078091567583096,-0.4191549074895979,53.02598,42.78978,178.617,0.331422,-0.4116687,0.831143,19
8.9,-36.96421,1.70877,-31.20297,-0.1921926650050256,-0.0661124937739097,-0.3875310974786576,56.2942,40.08947,177.3187,0.3125054,-0.4359693,0.8243186,19
8.92,-36.87191,1.103835,-31.1946,-0.1896080341833297,-0.1246487400884343,-0.3554269027645342,56.54394,44.49214,176.0918,0.3481784,-0.4267772,0.8085665,19
8.94,-36.79141,1.300259,-31.13532,-0.1816734931563992,-0.0680637776230252,-0.3048856407571336,59.77995,41.79387,174.8437,0.3298717,-0.4511756,0.8011416,19
8.96,-36.59224,1.10928,-31.03473,-0.1504773852532253,-0.0904042822046091,-0.2468358828972596,62.65519,37.33575,167.7404,0.3244516,-0.4605649,0.7868711,19
8.98,-36.51455,1.298324,-30.97392,-0.115547647276597,-0.1131095692096103,-0.1878172765820274,65.72317,33.42263,165.2099,0.3064181,-0.4842836,0.7777339,19
9.0,-36.43826,1.48503,-30.91266,-0.0954956732042848,-0.0499067255386058,-0.1337077137125693,68.69807,28.61988,161.7725,0.2880876,-0.5075016,0.7678105,19
9.02,-36.36347,1.669453,-30.85108,-0.0541472199694634,-0.0560672463879485,-0.0757781974599951,71.53344,22.54399,157.0475,0.2694787,-0.530196,0.757112,19
9.04,-36.10492,1.178526,-30.75379,-0.0106056922016293,-0.0629077117308844,-0.017665638060142,52.02385,38.47834,171.1367,0.3272431,-0.389945,0.8348084,19
9.06,-36.02966,1.356975,-30.68621,0.0105850893550991,0.0054744378204518,0.0315874671475646,55.09387,35.55874,169.5313,0.3097827,-0.4138514,0.8278822,19
9.08,-35.95644,1.532982,-30.6186,0.0324771426380774,0.0718367546346571,0.0791513451801506,58.10669,32.23502,167.4985,0.2920298,-0.43734,0.8201371,19
9.1,-35.82294,1.228724,-30.61459,0.0634231589986651,0.0431710285817553,0.1094732134606335,37.78008,44.04015,174.666,0.3683197,-0.2833046,0.8705251,19
9.12,-35.74093,1.400416,-30.53808,0.0954249040047034,0.0127809264361884,0.1390075166910467,41.1577,41.88334,173.8263,0.3518023,-0.3097831,0.8663155,19
9.14,-35.66153,1.569103,-30.46174,0.110246540365928,0.0747719143128197,0.1767019103451677,44.50634,39.5386,172.7626,0.3349113,-0.3359115,0.8611505,19
9.16,-35.50872,1.263604,-30.48308,0.1320475617016123,0.0654364630349672,0.197720695547491,13.84652,51.16903,177.1344,0.4312778,-0.09796751,0.8937914,19
9.18,-35.42064,1.431469,-30.4032,0.1539146624607914,0.055961036023391,0.216427874660591,17.39392,49.47243,176.8426,0.4172566,-0.1258864,0.895717,19
9.2,-35.33552,1.595943,-30.32356,0.1567877615925192,0.1139127138867815,0.2466839419577926,20.93111,47.72119,176.432,0.4027623,-0.1536553,0.8965952,19
9.22,-35.18976,1.279358,-30.32407,0.1706706912903985,0.1004036998785838,0.2639313003315253,354.4134,55.69798,178.3624,0.4659243,0.04975249,0.8833665,19
9.24,-35.10062,1.444492,-30.24294,0.1832087480657911,0.0865884854616538,0.2771234293673945,357.987,54.08606,178.3436,0.4543157,0.02221475,0.8905502,19
9.26,-35.01465,1.606161,-30.16212,0.1817309563688374,0.1412819867363971,0.3012319658635136,1.55749,52.47498,178.2244,0.4421879,-0.005340301,0.8966857,19
9.28,-34.932,1.764543,-30.08183,0.1767346197848631,0.1933058855568905,0.3203345240347959,5.122318,50.85222,178.0043,0.4295556,-0.03288162,0.9017666,19
9.3,-34.84635,1.29614,-30.13774,0.1627432868994169,0.1442753976423081,0.3106082153102534,353.477,56.24223,179.4389,0.4703223,0.05248106,0.8806456,19
9.32,-34.7589,1.45733,-30.05169,0.1477135177888371,0.0945785509730587,0.2960911847950909,357.0659,54.62598,179.5544,0.4586088,0.02453078,0.8882612,19
9.34,-34.67487,1.614944,-29.96619,0.1267925370557225,0.1353345826299095,0.2998736541328055,0.6557248,53.02058,179.5687,0.4463674,-0.003440484,0.8948238,19
9.36,-34.61751,1.254678,-30.04414,0.0984790672164122,0.1008028194593036,0.2800886365105435,357.4452,57.37782,181.1049,0.4801007,0.0149281,0.8768772,19
9.38,-34.53066,1.41938,-29.96222,0.0687629785315522,0.0674661279660506,0.2554997290190015,1.010778,55.77401,181.2468,0.4675988,-0.01288469,0.8838301,19
9.4,-34.44697,1.580687,-29.8807,0.036596181897571,0.1086037143403388,0.2511694281990735,4.577902,54.17577,181.2891,0.4545647,-0.04067432,0.8897472,19
9.42,-34.38412,1.237822,-29.93006,-0.0065095210199848,0.0744189911278695,0.2241318492270063,6.193662,57.93825,182.5461,0.4824615,-0.05799722,0.873969,19
9.44,-34.29441,1.405338,-29.84934,-0.0501256056438919,0.0422986334324744,0.191730747323549,9.837841,56.36236,182.6982,0.468612,-0.08663852,0.8789222,19
9.46,-34.20772,1.569371,-29.7689,-0.09441105788986,0.0850102793257907,0.1762467566057903,13.48376,54.77717,182.7493,0.4542098,-0.1151668,0.8828092,19
9.48,-34.12421,1.730088,-29.68894,-0.1407439073369882,0.1268535753344334,0.1555018023273731,17.12937,53.16907,182.6956,0.4392721,-0.1435529,0.8856255,19
9.5,-34.17985,1.208706,-29.82847,-0.2113452884346074,0.0626515851468356,0.104396065825671,13.47036,57.783,183.489,0.47647,-0.1172427,0.8708162,19
9.52,-34.09017,1.38355,-29.75266,-0.2808463339131957,0.0006646118635562,0.047845518994865,17.08834,56.22362,183.6079,0.4616081,-0.1456481,0.8740123,19
9.54,-34.003,1.55507,-29.67683,-0.3329559929088082,0.0384624755162813,0.0207618483204945,20.70709,54.63976,183.6242,0.44621,-0.1738719,0.8761631,19
9.56,-34.01942,1.17577,-29.76507,-0.4021718539581234,-0.0049042051837696,-0.026326184012126,18.75933,57.10579,184.008,0.4662851,-0.1595573,0.8688266,19
9.58,-33.93017,1.358861,-29.69525,-0.4687435382539315,-0.0448324866184256,-0.0772036835267959,22.32445,55.53281,184.0449,0.4507251,-0.1873202,0.8707578,19
9.6,-33.84286,1.538834,-29.62507,-0.5188431204565935,-0.0029293070371887,-0.1041790701002929,25.88816,53.91957,183.9743,0.4346559,-0.2148578,0.8716748,19
9.62,-33.85382,1.145539,-29.68912,-0.5823572608483518,-0.0443265492457038,-0.1459102038076345,24.62131,53.69743,183.9938,0.4343548,-0.2054884,0.874513,19
9.64,-33.76601,1.336869,-29.62389,-0.6417732244321748,-0.0821842893600938,-0.1900847726066121,28.12449,52.03812,183.818,0.4180144,-0.2324039,0.8747848,19
9.66,-33.67958,1.525278,-29.55801,-0.6836106486086089,-0.0350874014302945,-0.2140239617853585,31.62014,50.30869,183.5173,0.4012172,-0.2590473,0.8740677,19
9.68,-33.5947,1.710823,-29.49164,-0.7358668699475492,-0.0714157504273881,-0.2498827672547348,35.10502,48.48774,183.0758,0.3839821,-0.2853904,0.8723636,19
9.7,-33.65918,1.125005,-29.58728,-0.7818331516128314,-0.1047463127240526,-0.287067707050836,32.10663,48.86812,183.4557,0.3897436,-0.2636362,0.8779863,19
9.72,-33.57358,1.322573,-29.52451,-0.8215198952729161,-0.1383984666601769,-0.3259486019935713,35.53461,47.03595,182.9936,0.3725658,-0.2896349,0.8760832,19
9.74,-33.48897,1.517386,-29.46089,-0.8403616141107264,-0.1447718587109764,-0.3471423007466443,38.94711,45.08495,182.3697,0.3549938,-0.3153086,0.8732183,19
9.76,-33.44705,1.115711,-29.48712,-0.8515545949165269,-0.1474745653037375,-0.36829344270267,41.88435,47.92305,182.2942,0.3726805,-0.3341498,0.8561881,19
9.78,-33.36213,1.316087,-29.42691,-0.8551836514258602,-0.1499187410462702,-0.3897430254108043,45.25144,45.92285,181.6705,0.3548856,-0.3594396,0.8520007,19
9.8,-33.278,1.513809,-29.36576,-0.8441075512401928,-0.066685881266857,-0.3961908783628773,48.59883,43.73975,180.8295,0.3367259,-0.3843375,0.846903,19
9.82,-33.1949,1.113092,-29.3565,-0.8384508547881313,-0.0979591209551895,-0.4106287736087251,48.08824,46.14737,179.45,0.359704,-0.3731233,0.8393989,19
9.84,-33.11202,1.313938,-29.29672,-0.8247046160865867,-0.1273377468246295,-0.4244891033881299,51.38909,43.97049,178.649,0.3420661,-0.3980389,0.8336178,19
9.86,-33.0299,1.512226,-29.236,-0.803169176991616,-0.0690725677653178,-0.4279390791681225,54.66562,41.54335,177.5689,0.3240869,-0.4225334,0.8269712,19
9.88,-32.94867,1.707966,-29.17446,-0.7606238473587443,-0.0960414210184334,-0.428475855290074,57.90854,38.78621,176.133,0.3057853,-0.4465815,0.8194675,19
9.9,-32.83293,1.102336,-29.13396,-0.7114686991197603,-0.1224033649798218,-0.4286394804475537,59.6955,41.91742,173.9296,0.3344211,-0.4476894,0.7994035,19
9.92,-32.75417,1.296419,-29.07297,-0.6558363700387662,-0.1515513204664029,-0.4287168079975609,62.89561,38.96334,172.3399,0.3167375,-0.4717487,0.7908547,19
9.94,-32.6765,1.488098,-29.01138,-0.5768586061858687,-0.1413871307179019,-0.417297425339735,66.04642,35.43064,170.1519,0.2987483,-0.4953211,0.7815091,19
9.96,-32.46896,1.129099,-28.90631,-0.4925765209242216,-0.1302232102424743,-0.4055378975879891,60.93374,32.86139,166.6144,0.2988181,-0.4546059,0.8043752,19
9.98,-32.39412,1.313667,-28.84097,-0.4210905645045071,-0.0635865568569733,-0.3998047620242912,63.935,28.95557,163.963,0.2815252,-0.4780285,0.7949147,19
10.0,-32.3209,1.495868,-28.77542,-0.3455282704110627,0.0013191549020949,-0.3946734547759361,66.83514,24.23949,160.4849,0.2639684,-0.5009713,0.7846726,19
10.02,-32.11777,1.195826,-28.68339,-0.2623372602763489,-0.0296893695654306,-0.3947958219526946,48.25762,38.78431,173.1012,0.3256731,-0.3666677,0.8511275,19
10.04,-32.04507,1.372635,-28.6119,-0.1739674855490065,-0.0627860899170763,-0.3953557505897604,51.35981,36.30066,171.8792,0.3091958,-0.3908685,0.844678,19
10.06,-31.97446,1.546957,-28.54052,-0.1083447005406705,-0.0002251516130777,-0.4019652727641531,54.42176,33.52288,170.338,0.2924339,-0.4146845,0.8374144,19
10.08,-31.90604,1.718892,-28.4694,-0.0364308620980096,-0.0062300171196185,-0.4188003306274321,57.43076,30.36995,168.3995,0.2754064,-0.438094,0.8293447,19
10.1,-31.78248,1.251577,-28.5046,0.0402824711427709,-0.0131860634095684,-0.4373629418857256,25.9901,44.98589,176.0704,0.3796759,-0.1948576,0.8967857,19
10.12,-31.71638,1.424594,-28.42626,0.1122273201108443,0.0474507409333445,-0.4484706865836765,29.03197,43.87765,176.0103,0.3695638,-0.2197676,0.8941688,19
10.14,-31.65553,1.595916,-28.34949,0.1843678936770101,0.0378449841269377,-0.4691083060280876,31.97655,42.87313,175.9717,0.3601277,-0.2438799,0.890726,19
10.16,-31.53848,1.276189,-28.37208,0.2596006105523507,0.0275173997694168,-0.493031853722671,1.751938,52.49222,178.3277,0.4423291,-0.007257462,0.8966038,19
10.18,-31.47171,1.448448,-28.29486,0.326290292655917,0.0841679890430791,-0.5060208713566174,4.701217,51.69531,178.6868,0.4360073,-0.03191675,0.8989352,19
10.2,-31.40592,1.617938,-28.2179,0.3928699154953579,0.1375861868308789,-0.5228478912944468,7.68022,50.88179,178.9939,0.4291297,-0.05671245,0.9007142,19
10.22,-31.24374,1.294844,-28.20559,0.4468482593605798,0.0969463552863291,-0.552254135174115,351.8226,56.50257,179.2522,0.4717149,0.06588669,0.8788398,19
10.24,-31.16743,1.46227,-28.12937,0.4930559632263347,0.1259847471323667,-0.5733705620652798,354.9068,55.82761,179.6692,0.4675652,0.04061242,0.8828368,19
10.26,-31.09387,1.627282,-28.05486,0.5387188444773257,0.1532725704892328,-0.5982460307657718,357.9553,55.22959,180.062,0.4634596,0.01555902,0.8859383,19
10.28,-31.02238,1.789749,-27.98157,0.5682583069900651,0.1046439984658395,-0.6363424611969424,0.9965904,54.6665,180.4257,0.459116,-0.009431402,0.8883262,19
10.3,-30.99357,1.272283,-28.07261,0.5984104784036766,0.0549591745008597,-0.6785973854329432,353.7726,58.92109,180.216,0.4911864,0.04636795,0.8693574,19
10.32,-30.91528,1.440194,-27.99952,0.6280454518953249,0.0948883508850898,-0.705090281438713,356.8527,58.42443,180.7174,0.4880023,0.02091427,0.8723879,19
10.34,-30.83938,1.605627,-27.92801,0.6422120076142543,0.0612041995459116,-0.7438940338870976,359.9056,57.99595,181.1988,0.4847596,-0.004350999,0.8745846,19
10.36,-30.79826,1.249729,-27.98301,0.6568584382767031,0.0283543754429969,-0.7876334178197606,0.8914367,61.28011,181.9401,0.5094413,-0.01532013,0.8603038,19
10.38,-30.72071,1.419467,-27.9087,0.6752862930553398,0.0706676294697147,-0.8123268526115437,3.993428,60.63057,182.5615,0.503653,-0.0413458,0.8629143,19
10.4,-30.64533,1.586499,-27.83531,0.6926029856040623,0.1106554515243371,-0.841066880811995,7.09123,60.02044,183.152,0.4975354,-0.06726155,0.8648025,19
10.42,-30.63169,1.229778,-27.89128,0.6750960541570663,0.0513177621871544,-0.884830548155306,9.793268,62.60942,183.3839,0.515314,-0.08818503,0.8522363,19
10.44,-30.5516,1.405339,-27.82813,0.6619822422047585,0.0679016266558398,-0.9134139156296848,12.78993,62.33592,183.8722,0.5108148,-0.1126262,0.8517919,19
10.46,-30.47346,1.578529,-27.76585,0.6487672613691351,0.0848335002258366,-0.9456561841170004,15.76661,62.1016,184.3572,0.5060872,-0.1368406,0.85069,19
10.48,-30.39683,1.749395,-27.70459,0.607896540373515,0.0228117633862464,-0.9895138245926464,18.73313,61.90951,184.8354,0.5011639,-0.1608545,0.8489182,19
10.5,-30.48049,1.192801,-27.81734,0.5685669857732645,-0.0372852497131226,-1.0376750776111503,15.61334,64.84385,183.9919,0.5268652,-0.1330888,0.8383287,19
10.52,-30.39776,1.37494,-27.76096,0.5510882024866106,0.0033692624828131,-1.0576470314027828,18.60386,64.82478,184.4651,0.5232438,-0.1569585,0.8358538,19
10.54,-30.31662,1.55476,-27.70534,0.5101541727615388,-0.0365480220211941,-1.085365673341229,21.57134,64.84773,184.9498,0.5193942,-0.1805586,0.8327521,19
10.56,-30.36049,1.161352,-27.76251,0.4713277252966379,-0.0731760211432084,-1.1159209678769677,21.15446,64.60111,184.3911,0.5189512,-0.1751656,0.8340422,19
10.58,-30.27439,1.349637,-27.70844,0.449663151643386,-0.027492715491111,-1.1250636471363071,24.25204,64.59011,184.7721,0.514513,-0.1991607,0.8304034,19
10.6,-30.18898,1.535379,-27.65463,0.4297224354129736,0.0174244988459696,-1.135433234923226,27.34912,64.60247,185.1634,0.5096956,-0.2230077,0.8261476,19
10.62,-30.21649,1.132438,-27.69022,0.3778608409154058,-0.0490554411240409,-1.153990787994312,27.71807,63.32595,184.2088,0.5018101,-0.2224561,0.8304316,19
10.64,-30.12816,1.327158,-27.6409,0.3439063340997839,-0.0276634867943978,-1.1538862315649752,30.86369,63.24141,184.3581,0.4964108,-0.2456398,0.8255487,19
10.66,-30.04021,1.51936,-27.59167,0.3135025512885918,-0.0047927126810074,-1.153639596964323,34.01125,63.16204,184.5038,0.4906289,-0.2686371,0.8200413,19
10.68,-30.05581,1.121567,-27.61999,0.2712828021863172,-0.0671009870835495,-1.1572035670106913,34.63199,62.00212,183.3561,0.4840288,-0.2694151,0.8224477,19
10.7,-29.95995,1.319507,-27.57512,0.2330634691164865,-0.1276521132412821,-1.1611915303415885,37.94212,61.71274,183.1328,0.4772192,-0.2922302,0.8160814,19
10.72,-29.86436,1.514678,-27.53024,0.2209231894117573,-0.0745417540328871,-1.1415687893695965,41.25033,61.39231,182.8766,0.4700123,-0.314794,0.8090321,19
10.74,-29.82056,1.114872,-27.54301,0.2072845357119996,-0.1060685911255073,-1.123280421983464,43.26555,62.97081,181.8015,0.4804926,-0.3219737,0.7956378,19
10.76,-29.72229,1.315062,-27.5018,0.1982181490619066,-0.1353219303086556,-1.104229197043733,46.60296,62.55284,181.4318,0.4725608,-0.3440134,0.7874669,19
10.78,-29.62415,1.512443,-27.46051,0.1998613856299607,-0.0766742728815755,-1.0711731387251673,49.93725,62.07347,180.9994,0.464228,-0.3657524,0.7786249,19
10.8,-29.52631,1.707024,-27.41921,0.2058522111545579,-0.0190069656311455,-1.036539521451402,53.2679,61.51583,180.4877,0.4555016,-0.3871728,0.7691194,19
10.82,-29.5189,1.10985,-27.44033,0.2118002862589985,-0.0780912311393663,-1.0021171031958414,50.7056,62.70375,178.7703,0.4740793,-0.3606032,0.769304,19
10.84,-29.42075,1.309201,-27.40222,0.2218802439977607,-0.0477318915789095,-0.9589372178172691,54.00203,62.06723,178.1638,0.4655207,-0.3816119,0.759617,19
10.86,-29.32279,1.505813,-27.36405,0.2358699379414344,-0.0167488953638122,-0.9143530489492172,57.2928,61.31069,177.4366,0.4565745,-0.4022941,0.7492947,19
10.88,-29.13008,1.10441,-27.31393,0.271668487242394,-0.06850282484014,-0.8640444387049957,61.24036,57.86184,171.2298,0.4491669,-0.412645,0.7321236,19
10.9,-29.03284,1.295503,-27.27889,0.3100300981036108,-0.1217664468619657,-0.8132051788795134,64.42621,56.23111,169.5725,0.4397876,-0.43199,0.7203188,19
10.92,-28.93622,1.483976,-27.24395,0.3455093159282936,-0.0600684072693129,-0.758945192344052,67.58466,54.14258,167.4574,0.4300499,-0.450971,0.7079308,19
10.94,-28.70797,1.144356,-27.18325,0.4007304813915135,-0.0694793243176158,-0.699721108313708,58.37154,53.22879,167.8472,0.4350616,-0.3921229,0.7530271,19
10.96,-28.61014,1.326257,-27.14808,0.4574370412536765,-0.0796450141304564,-0.6403918792743131,61.43646,51.31105,165.8107,0.4262314,-0.4109602,0.7416871,19
10.98,-28.51342,1.505512,-27.11316,0.4958626539462569,-0.0115610537070004,-0.5878038617632395,64.4604,48.93257,163.3151,0.4170652,-0.429465,0.7297592,19
11.0,-28.41794,1.682193,-27.07854,0.5344783933043153,0.0545154777611087,-0.5367135594148982,67.42667,45.91918,160.1858,0.4075711,-0.4476198,0.7172558,19
11.02,-28.29803,1.212058,-27.07523,0.5738260550836229,0.0257999308780386,-0.4924782700949772,43.02674,61.5221,173.9867,0.4917005,-0.2897322,0.7885032,19
11.04,-28.1949,1.386211,-27.03821,0.5959494793049713,0.0668078890410729,-0.4535170327376852,46.26814,60.81915,173.2066,0.484733,-0.3106605,0.7799037,19
11.06,-28.09332,1.557425,-27.00158,0.6188452743099133,0.1066906461917184,-0.4174316951919534,49.50093,60.00331,172.3153,0.4773684,-0.3313258,0.7706629,19
11.08,-27.9685,1.257236,-27.02237,0.6400844590507662,0.0755771708521809,-0.3896975145780001,20.00159,68.99474,176.5984,0.561765,-0.1265061,0.8083528,19
11.1,-27.85392,1.425433,-26.98459,0.6635839791912188,0.0422690949560681,-0.36527708053005,23.53306,68.75372,176.3641,0.5578301,-0.1506863,0.803939,19
11.12,-27.74138,1.59005,-26.9473,0.6806035006750539,0.0991678846065938,-0.3287584720729422,27.0645,68.48917,176.1053,0.5533615,-0.1747256,0.7987554,19
11.14,-27.6431,1.275712,-26.95514,0.6990026915364131,0.0854748057041862,-0.298345822869726,358.3764,74.92691,178.1982,0.6079422,0.02080708,0.7936992,19
11.16,-27.52588,1.441397,-26.91913,0.7201270955245134,0.070065447835217,-0.2723179245344678,1.941271,74.77351,178.2753,0.6072389,-0.004320946,0.7941964,19
11.18,-27.41089,1.603405,-26.8836,0.7351132566191625,0.1231527438863551,-0.2363850891035945,5.505333,74.62444,178.3431,0.6059476,-0.02943781,0.7939226,19
11.2,-27.29836,1.761885,-26.84865,0.7505758888332648,0.1718662963666752,-0.2052749926570607,9.068501,74.4786,178.402,0.6040704,-0.05451837,0.7928792,19
11.22,-27.2749,1.293838,-26.87307,0.7485986157204221,0.123577993407309,-0.1855220701917832,352.8311,77.30745,179.2709,0.623067,0.05278965,0.7796401,19
11.24,-27.15604,1.455346,-26.83572,0.734198843647313,0.1459202293727686,-0.1610164171707397,356.4148,77.13136,179.5171,0.6229977,0.02708458,0.7815868,19
11.26,-27.03969,1.613064,-26.79894,0.7189405788144736,0.1662019736522793,-0.141450310074596,-0.001741058,76.97116,179.7517,0.6223162,0.001360378,0.7827631,19
11.28,-27.0341,1.262011,-26.82638,0.686629216895903,0.1097196076543992,-0.1333970250202254,355.7573,78.63529,180.5894,0.6333238,0.02538026,0.7729841,19
11.3,-26.91771,1.425858,-26.79105,0.6550026490420642,0.0515930112711739,-0.1306105319220054,359.3069,78.47015,180.8818,0.6325094,-0.000182448,0.774491,19
11.32,-26.80366,1.586093,-26.75625,0.629960085391025,0.0904109637403206,-0.1090873330573014,2.856314,78.32309,181.1642,0.631084,-0.02573766,0.7752476,19
11.34,-26.79099,1.240568,-26.77478,0.5872772679944931,0.0550292882226842,-0.0964037754382745,4.006943,79.76093,182.079,0.640204,-0.03844871,0.7671953,19
11.36,-26.67266,1.406873,-26.74156,0.545538106642578,0.0198557422844203,-0.0886394161925543,7.630643,79.63943,182.3806,0.6377553,-0.06436956,0.7670809,19
11.38,-26.55659,1.569482,-26.70879,0.5094523809940563,0.0596503152025941,-0.0674420840092895,11.25461,79.53612,182.6769,0.6346644,-0.09021986,0.7661926,19
11.4,-26.44299,1.728556,-26.67653,0.473350666025258,0.0967641083066335,-0.0517286097492242,14.87799,79.4508,182.9707,0.6309355,-0.1159717,0.7645316,19
11.42,-26.56876,1.217289,-26.71934,0.4005508746240864,0.031289291978626,-0.0514951954883771,11.90893,80.32652,183.3668,0.6388822,-0.09808834,0.7617241,19
11.44,-26.45135,1.389712,-26.68884,0.3394198377625286,0.0444749588891216,-0.0377168325007364,15.52752,80.24162,183.6476,0.6348835,-0.1235689,0.7600645,19
11.46,-26.33581,1.55853,-26.65865,0.2801136661401697,0.0575583961877336,-0.0277489790620473,19.14544,80.17392,183.9281,0.6302493,-0.1489178,0.7576417,19
11.48,-26.41548,1.183071,-26.68212,0.1953861939640391,-0.0104430702924392,-0.0281325779587775,17.42418,80.3349,183.9235,0.6332453,-0.1375054,0.7582475,19
11.5,-26.301,1.363756,-26.65463,0.1139684202620547,-0.0774507679211407,-0.0326331385231339,20.99729,80.25803,184.1488,0.6282631,-0.162166,0.7555535,19
11.52,-26.18788,1.541036,-26.62731,0.0595744131857167,-0.0379484417033682,-0.015642875533369,24.56959,80.19465,184.3746,0.6226692,-0.1866607,0.7521216,19
11.54,-26.24721,1.153005,-26.63643,-0.0150194308360429,-0.0810264716936891,-0.0065804949949295,23.08643,77.62971,184.05,0.6082351,-0.1775219,0.7673714,19
11.56,-26.13602,1.341913,-26.61049,-0.0852095129510557,-0.1213749747050422,-0.0002787991485635,26.60773,77.4921,184.0809,0.6022972,-0.2010457,0.7636438,19
11.58,-26.02566,1.52761,-26.58461,-0.1325001400720658,-0.0767043755206217,0.0197683249241853,30.12767,77.35213,184.1029,0.5957927,-0.2243691,0.7591954,19
11.6,-25.91631,1.710153,-26.55882,-0.1755579881184559,-0.0328876812583908,0.0374431480889811,33.6466,77.20843,184.1153,0.5887278,-0.2474732,0.7540305,19
11.62,-26.04458,1.128734,-26.57984,-0.2337364924337568,-0.1023686898389765,0.04783815189545,30.06262,73.83124,183.702,0.5730866,-0.2259823,0.7767935,19
11.64,-25.93661,1.324517,-26.55405,-0.2700847152058334,-0.082041691062571,0.0688630619250108,33.52158,73.57046,183.4918,0.5660749,-0.2483186,0.7717671,19
11.66,-25.82904,1.517256,-26.52822,-0.3011881625008601,-0.0601855589616396,0.0881883910884115,36.97869,73.28259,183.2527,0.558548,-0.2704214,0.7660356,19
11.68,-25.8293,1.117165,-26.52784,-0.3272180681756076,-0.0401865197087718,0.1054885674224319,39.64709,71.41057,182.6674,0.5424736,-0.2880838,0.7683099,19
11.7,-25.72356,1.316562,-26.5026,-0.3507162697947783,-0.0477259692847957,0.1243554478283455,43.04249,70.97881,182.2404,0.5341346,-0.3091959,0.7614755,19
11.72,-25.61801,1.513036,-26.47728,-0.3688820738109624,-0.051628949588538,0.1422680768982251,46.43422,70.48454,181.7506,0.5253252,-0.3300277,0.7539671,19
11.74,-25.55551,1.113773,-26.46839,-0.3819115158185995,-0.0553327176809382,0.1589396766681488,46.39486,70.54661,180.3432,0.5298247,-0.3231712,0.7510806,19
11.76,-25.45177,1.314303,-26.44308,-0.3817233082485507,-0.0582825252830582,0.1826108119141407,49.73188,70.00708,179.8185,0.5209933,-0.3436109,0.7427967,19
11.78,-25.34813,1.512011,-26.41766,-0.3770962116153948,-0.0581172365097485,0.2053969820217527,53.06419,69.3762,179.2021,0.511718,-0.3637493,0.7338772,19
11.8,-25.24477,1.706907,-26.39219,-0.3682533061941027,-0.0582519331890108,0.227037056366115,56.39071,68.62688,178.4668,0.5020068,-0.3835696,0.7243298,19
11.82,-25.17162,1.103738,-26.37681,-0.3338397380526317,-0.1447774670959147,0.2549274539152892,56.53016,67.65675,176.1712,0.5031968,-0.3767835,0.7224449,19
11.84,-25.07023,1.29981,-26.35199,-0.283516324214939,-0.115193625502161,0.2900064341148467,59.79037,66.65952,175.1725,0.4934614,-0.3960055,0.7121702,19
11.86,-24.9692,1.493199,-26.32713,-0.230368429471155,-0.0857942234545893,0.3236703770368243,63.03848,65.42811,173.9396,0.4833199,-0.4148901,0.7013069,19
11.88,-24.74097,1.118092,-26.26913,-0.174636495055577,-0.0598368589859877,0.3556761178736241,61.81298,58.07213,167.177,0.4639859,-0.3997692,0.7176369,19
11.9,-24.64088,1.30454,-26.24333,-0.1214647307061187,-0.0483014279443103,0.3871765703175094,64.89104,55.81864,164.8222,0.4541598,-0.4177783,0.7060515,19
11.92,-24.54166,1.488371,-26.21762,-0.066977265397651,-0.0353078896413091,0.4171853279036921,67.91826,52.93945,161.8429,0.4439703,-0.4354447,0.6938988,19
11.94,-24.31853,1.178309,-26.15873,-0.0114060774964652,-0.0240435986776607,0.4454678197736466,52.05757,60.25934,171.1853,0.4788789,-0.3437502,0.7579437,19
11.96,-24.21745,1.356428,-26.12977,0.0384345442013245,-0.0044647163176932,0.4677742503024924,55.15962,58.98779,169.7896,0.4705139,-0.3625545,0.7481571,19
11.98,-24.11769,1.531837,-26.10105,0.0882713611211558,0.0159407212848901,0.4882974513947271,58.23977,57.46482,168.1445,0.461782,-0.3810683,0.7377847,19
12.0,-24.0194,1.704618,-26.07261,0.1377945995671852,0.0340743711147507,0.5067626788426502,61.29118,55.61394,166.1734,0.4526934,-0.3992787,0.7268345,19
12.02,-23.91855,1.239925,-26.07946,0.1921198756127906,-0.0197828658368134,0.5176417290549375,31.95464,67.58907,175.3472,0.543575,-0.2068543,0.7920622,19
12.04,-23.80639,1.410278,-26.0467,0.2433170690043091,0.0194038087701098,0.5311584936382747,35.38549,67.16283,174.8438,0.5378143,-0.22923,0.7853305,19
12.06,-23.69611,1.577286,-26.01433,0.2931263383378537,0.0571266701481961,0.5422103035594419,38.81233,66.67847,174.2845,0.5315657,-0.2513932,0.7778838,19
12.08,-23.60415,1.268182,-26.0176,0.3411364231841221,0.0904476246308523,0.5505112812871489,8.102287,73.62647,177.5508,0.5987837,-0.04377254,0.7975055,19
12.1,-23.487,1.435338,-25.9844,0.3727144756209899,0.0971198080113832,0.5548228083850182,11.65394,73.46624,177.4711,0.5966489,-0.06821503,0.7957551,19
12.12,-23.37201,1.598866,-25.95163,0.4013836634991898,0.1043231705235354,0.5567474811492468,15.20434,73.29862,177.3799,0.593941,-0.09258478,0.7932389,19
12.14,-23.25799,1.285409,-25.93039,0.4266532886912833,0.1091937360209751,0.5560274931024929,353.3072,76.84675,178.7034,0.6198506,0.05274798,0.7824646,19
12.16,-23.13925,1.448954,-25.89557,0.4505084172081357,0.114265269445022,0.5534513397132872,356.8854,76.68761,178.8553,0.6199059,0.02750799,0.784142,19
12.18,-23.0229,1.608757,-25.86125,0.4700315622695941,0.1193861807651646,0.5489058114882694,0.4630734,76.53835,178.9971,0.6193559,0.002247848,0.7850514,19
12.2,-22.90915,1.764981,-25.82752,0.4846925129449086,0.1217487110787326,0.5421285655169554,4.039997,76.39774,179.1299,0.6182011,-0.02300705,0.7851927,19
12.22,-22.92251,1.282735,-25.83649,0.4841880341703382,0.046124138998452,0.5159253809494735,353.7847,77.19902,179.7363,0.6228563,0.04380161,0.7804523,19
12.24,-22.80516,1.444853,-25.79883,0.4923858802256289,0.0621835602746742,0.4963445610742503,357.3474,77.03323,179.998,0.6225744,0.0181209,0.7822182,19
12.26,-22.69025,1.603262,-25.76177,0.4949685259830612,0.0776246030083015,0.4743718466697295,0.9099143,76.88402,180.249,0.6216877,-0.007570357,0.7832221,19
12.28,-22.69139,1.250427,-25.76896,0.4914703757682459,0.0897613544047433,0.449806021440684,359.4138,77.32384,181.3548,0.6247193,-0.003391365,0.7807434,19
12.3,-22.575,1.415252,-25.73191,0.4766701578823649,0.0793732716787083,0.4121453361831415,3.000493,77.18434,181.6209,0.6232073,-0.02928142,0.7814908,19
12.32,-22.46091,1.576433,-25.69542,0.458251022993402,0.07079920230718,0.3730530588800116,6.586975,77.061,181.8796,0.6210817,-0.05513636,0.7814667,19
12.34,-22.46727,1.232086,-25.68605,0.4357337412823865,0.0611900462173844,0.3323814508854013,8.263844,76.78269,182.8581,0.6178142,-0.07190429,0.782623,19
12.36,-22.35054,1.400925,-25.64838,0.4018967550708709,0.0496592437082359,0.2861835592515729,11.89786,76.68362,183.1185,0.6145704,-0.09804789,0.7815607,19
12.38,-22.2359,1.566086,-25.61122,0.3646804440622517,0.0410257503189195,0.2388547335649007,15.53123,76.60025,183.3763,0.6107065,-0.1240847,0.7797077,19
12.4,-22.12355,1.727708,-25.57462,0.3236447802445688,0.0323885278873676,0.1903138534917476,19.1643,76.5327,183.6339,0.6062264,-0.1499923,0.7770655,19
12.42,-22.27179,1.199616,-25.60575,0.2557599257967888,-0.0562259353579306,0.1340346333367219,14.78015,76.1864,183.6409,0.6082933,-0.1206127,0.7825979,19
12.44,-22.15801,1.376242,-25.56895,0.2205721937168836,-0.043167858219549,0.0875608177655302,18.37977,76.11021,183.8788,0.6039026,-0.1462772,0.7801977,19
12.46,-22.04582,1.54936,-25.5325,0.1830497818526244,-0.0286084102130685,0.0404567841182972,21.97859,76.04847,184.117,0.598915,-0.1717889,0.777024,19
12.48,-22.12698,1.168256,-25.53993,0.1427980196689411,-0.0154875256231814,-0.0073124893824787,20.15971,73.71768,184.0437,0.5852789,-0.1607856,0.7909796,19
12.5,-22.0168,1.353084,-25.50368,0.0926584346082193,-0.0303372663653888,-0.0546661416523144,23.7092,73.61322,184.1485,0.5800006,-0.1855938,0.7875273,19
12.52,-21.90769,1.534602,-25.46764,0.042848357369734,-0.0411044521644952,-0.1017193681057349,27.2578,73.51305,184.2493,0.5741673,-0.210216,0.7833186,19
12.54,-21.9649,1.139066,-25.46777,-0.0069687219966905,-0.0509458988163,-0.1484713916804603,26.31482,70.07772,183.9533,0.552299,-0.2055449,0.8013024,19
12.56,-21.85841,1.331778,-25.43149,-0.0314712710523079,0.0213414849477759,-0.1894828431968189,29.80626,69.89035,183.8595,0.5461119,-0.229335,0.796639,19
12.58,-21.75251,1.521367,-25.39527,-0.0824915366996914,-0.0180034083650841,-0.2337881889227295,33.29601,69.68939,183.7489,0.5394207,-0.2529041,0.7912358,19
12.6,-21.64737,1.707874,-25.35917,-0.131498858905338,-0.0541509808893273,-0.2771952883419799,36.7844,69.47144,183.6184,0.5322309,-0.2762315,0.7850984,19
12.62,-21.67862,1.118758,-25.35539,-0.178763789853078,-0.0904062153505222,-0.3196850995732685,37.42387,65.53913,182.9927,0.5054336,-0.2830496,0.8006724,19
12.64,-21.57531,1.317516,-25.31905,-0.1962561970035601,-0.0994878912793957,-0.3599870323936249,40.84208,65.13815,182.5835,0.4977278,-0.3053449,0.7938137,19
12.66,-21.47223,1.513308,-25.28265,-0.210258604097536,-0.1047176104249261,-0.3988289517083512,44.25684,64.68079,182.1182,0.4895779,-0.3273594,0.7862433,19
12.68,-21.36954,1.706152,-25.24626,-0.2210426736524104,-0.1094742600476273,-0.4361954233640759,47.66758,64.15349,181.5829,0.4809912,-0.3490736,0.7779683,19
12.7,-21.39356,1.114558,-25.26436,-0.2127823096377219,-0.0286063775997575,-0.4682567991190143,44.70401,65.11644,181.0981,0.4946277,-0.325285,0.7814432,19
12.72,-21.29241,1.315142,-25.22832,-0.2142755123560693,-0.0620824102401434,-0.5029692980673937,48.0602,64.63511,180.6297,0.4863791,-0.3468158,0.7730395,19
12.74,-21.19138,1.512872,-25.19219,-0.2116546132016341,-0.0934442651863451,-0.5356985010276576,51.41238,64.07568,180.0828,0.477712,-0.3680398,0.7639675,19
12.76,-21.08662,1.107182,-25.15682,-0.19875982572175,-0.0371739306143385,-0.5639608938003464,53.32498,62.75047,177.6534,0.4730262,-0.3735105,0.7580462,19
12.78,-20.98765,1.305621,-25.12145,-0.1687307180137498,-0.0660046998134747,-0.5882895162685706,56.60858,61.94882,176.8477,0.4641348,-0.3939211,0.7478908,19
12.8,-20.88891,1.501333,-25.08604,-0.1357960647540301,-0.09400995916294,-0.6106608918984011,59.88334,60.97805,175.8728,0.4548585,-0.4139931,0.7371123,19
12.82,-20.63796,1.109139,-24.99648,-0.1002168646295853,-0.1245418190593829,-0.6310707044387618,62.65541,53.87157,167.8171,0.4339518,-0.4198486,0.732246,19
12.84,-20.54074,1.297848,-24.96145,-0.0394857561104111,-0.1159365925744247,-0.6445036936543147,65.76768,51.67628,165.5367,0.4246003,-0.4387,0.7200208,19
12.86,-20.44427,1.483941,-24.92658,0.0230421902878541,-0.1061497261093659,-0.655651587712716,68.83254,48.83909,162.6154,0.4149075,-0.4571868,0.7072144,19
12.88,-20.34867,1.667465,-24.8919,0.0870897895080888,-0.0984204105735879,-0.6645339519628637,71.82698,45.05397,158.7468,0.4048809,-0.4752962,0.6938367,19
12.9,-20.18794,1.161769,-24.83492,0.1332370521498083,-0.0110538953098356,-0.6761405852132745,55.76535,52.14751,168.7589,0.4277755,-0.3799987,0.7700024,19
12.92,-20.09031,1.341578,-24.79737,0.1810990787865032,-0.017963114387085,-0.686860615240263,58.82561,50.44345,166.9016,0.4194475,-0.3990434,0.7590472,19
12.94,-19.99389,1.518707,-24.76015,0.2299076109817828,-0.0251834896798962,-0.6951299981465744,61.85034,48.36443,164.6717,0.410791,-0.4177667,0.7474945,19
12.96,-19.80501,1.228805,-24.72425,0.260637604026753,0.0378441838470236,-0.7060072286452019,37.78963,61.10809,174.7387,0.4932508,-0.2564991,0.8063326,19
12.98,-19.69928,1.40074,-24.68285,0.2934036047844421,0.0324736288874714,-0.7189823945227247,41.13092,60.56306,174.102,0.4870953,-0.278658,0.7983415,19
13.0,-19.59526,1.569518,-24.64196,0.32664252205138,0.0263974250363619,-0.7298855842134815,44.46608,59.93614,173.3858,0.4805187,-0.3005681,0.789658,19
13.02,-19.45489,1.263595,-24.63885,0.3599578201717064,0.0165111054792198,-0.7388286338582448,13.87972,68.4395,177.1844,0.5605344,-0.08616516,0.8189113,19
13.04,-19.34112,1.431322,-24.59729,0.3908722948287484,0.0277727679675704,-0.7424098235020522,17.41764,68.26193,177.0445,0.5576651,-0.1109886,0.8157507,19
13.06,-19.2294,1.595447,-24.55631,0.419849189948281,0.0395476195246862,-0.7443390044270255,20.95534,68.07121,176.8893,0.5542629,-0.1357051,0.8118094,19
13.08,-19.11995,1.756122,-24.516,0.4464062462821248,0.0489140127031249,-0.7447560135750955,24.49147,67.86513,176.7172,0.5503326,-0.1602843,0.8070928,19
13.1,-19.08731,1.279238,-24.54369,0.4725349159737098,0.1239536048405242,-0.738513059182591,354.4403,74.03801,178.428,0.6007836,0.04696904,0.7978219,19
13.12,-18.971,1.44409,-24.50386,0.4818408134395349,0.1060084745193829,-0.7341241214310132,358.0056,73.88957,178.567,0.6007332,0.02142273,0.7991624,19
13.14,-18.85696,1.605247,-24.46463,0.4881739199083772,0.0872316833908096,-0.7276432934510146,1.570339,73.74995,178.6967,0.6001004,-0.004137104,0.7997265,19
13.16,-18.74091,1.295978,-24.46604,0.4908339411931708,0.1358046004483659,-0.7175910734945772,353.4647,76.31119,179.5206,0.6166018,0.0474018,0.7851979,19
13.18,-18.62307,1.456846,-24.4253,0.4733646402939022,0.1096358143807227,-0.7106717185094125,357.0433,76.14838,179.8097,0.6164415,0.02133282,0.7869762,19
13.2,-18.50775,1.61392,-24.38525,0.4517561119367568,0.0836789520468586,-0.7020385188102485,0.621699,76.004,180.0883,0.6156765,-0.004749723,0.7879801,19
13.22,-18.46462,1.254598,-24.46585,0.4255770668477763,0.0551278096110854,-0.6918717125808223,357.4234,79.0917,181.1862,0.6366799,0.01074682,0.7707309,19
13.24,-18.34835,1.418979,-24.43087,0.4130880198276985,0.1165042039324156,-0.6740331160426689,0.976437,78.94882,181.5042,0.6355693,-0.01492106,0.7718852,19
13.26,-18.23439,1.579761,-24.39642,0.3755154124812916,0.080453878739985,-0.6609520255235606,4.529185,78.82539,181.8138,0.6338431,-0.04056598,0.7722899,19
13.28,-18.12295,1.737098,-24.36256,0.3347136358444196,0.0455417960125799,-0.6467186801444713,8.081529,78.72063,182.1178,0.6315037,-0.06616433,0.7719452,19
13.3,-18.16285,1.237689,-24.46977,0.3072914067568453,0.0850882179877314,-0.624980815038735,6.166232,81.35721,182.6303,0.6497643,-0.05571697,0.7578854,19
13.32,-18.04367,1.404843,-24.43896,0.2551918461439919,0.0490738002695451,-0.6063409499100079,9.796726,81.26603,182.9666,0.6469385,-0.08157439,0.7573106,19
13.34,-17.9267,1.568296,-24.40856,0.2005692002700434,0.015288387690595,-0.5867370040785467,13.42663,81.19564,183.3011,0.6434588,-0.1073412,0.7559684,19
13.36,-17.96502,1.208594,-24.46153,0.1607752854130728,0.0561278345421897,-0.5623515326930226,13.44931,82.77659,183.5766,0.6535488,-0.1083001,0.7471381,19
13.38,-17.84731,1.383012,-24.43567,0.1176786579319215,0.0956761688444959,-0.5374476768020067,17.05616,82.71983,183.8833,0.6493346,-0.1333828,0.7451688,19
13.4,-17.73136,1.553871,-24.41004,0.0357550706560023,0.0307690476640736,-0.5196799222995407,20.66216,82.68258,184.1928,0.644474,-0.1583245,0.7424555,19
13.42,-17.77744,1.175674,-24.43033,-0.0475002557333159,-0.0318218300701889,-0.5013433325012304,18.74454,82.51344,184.0748,0.6458676,-0.1454773,0.7450764,19
13.44,-17.66268,1.358358,-24.40817,-0.0936149802840367,0.0078530052602883,-0.4725096841449554,22.30431,82.44847,184.2803,0.6406801,-0.1695186,0.742179,19
13.46,-17.54914,1.537683,-24.3861,-0.1651861136966412,-0.0336803268564763,-0.4473611949956333,25.8632,82.39595,184.4871,0.634874,-0.1933881,0.7385631,19
13.48,-17.43703,1.713737,-24.36418,-0.2360451204997058,-0.0716047240077858,-0.4214629975231387,29.4209,82.35617,184.696,0.6284552,-0.2170576,0.7342341,19
13.5,-17.57957,1.145431,-24.39115,-0.2776892506465966,-0.0264129580579175,-0.3884403931496307,24.60878,79.82661,184.0625,0.6207016,-0.1855725,0.753773,19
13.52,-17.46811,1.336333,-24.37072,-0.3351081735783205,-0.0642632894360007,-0.3571095004943836,28.11521,79.68906,184.0602,0.6145221,-0.2083932,0.7498378,19
13.54,-17.35735,1.524069,-24.3503,-0.3901646421035289,-0.0985265613942661,-0.3250298779119318,31.62022,79.54645,184.0477,0.6077697,-0.2310083,0.7452013,19
13.56,-17.24747,1.708688,-24.32991,-0.4182935583646829,-0.0463749073653564,-0.2869694939180784,35.12419,79.39716,184.024,0.6004506,-0.2534003,0.7398679,19
13.58,-17.33111,1.121763,-24.33833,-0.4429917352069215,0.0053302676638547,-0.248272880967237,34.74377,75.73161,183.2664,0.5788605,-0.2523086,0.7583586,19
13.6,-17.22279,1.319643,-24.31884,-0.4855201982188681,-0.0568484321592973,-0.2152342855599984,38.17852,75.40581,182.9471,0.5710923,-0.2735284,0.7525812,19
13.62,-17.11474,1.514528,-24.29928,-0.5238777104407122,-0.1171348830202628,-0.181708636593068,41.61067,75.0379,182.5854,0.5628105,-0.2944947,0.7461243,19
13.64,-17.05793,1.115016,-24.32037,-0.5379094120117867,-0.0629958992189675,-0.1430360020537673,43.28974,75.31999,181.7453,0.5633804,-0.3006174,0.7391765,19
13.66,-16.95161,1.315274,-24.30225,-0.5527645177394127,-0.0935356079585462,-0.1059561147389342,46.6613,74.87654,181.3099,0.5545699,-0.3208167,0.7317909,19
13.68,-16.84541,1.512653,-24.28402,-0.5626788078549023,-0.1217590868741133,-0.0686385354652974,50.0292,74.36317,180.8043,0.5452778,-0.3407297,0.7237674,19
13.7,-16.73949,1.707164,-24.26573,-0.5678436821378934,-0.1510829170869467,-0.0312737164591174,53.39275,73.76065,180.2092,0.535513,-0.3603393,0.7151136,19
13.72,-16.72935,1.109975,-24.27894,-0.5495174408901409,-0.0676363388768679,0.0141110724480642,50.6958,73.66042,178.7194,0.5455297,-0.3365934,0.7204424,19
13.74,-16.62512,1.309414,-24.26124,-0.5080750633571134,-0.0992978460041646,0.0633125437088502,53.99925,72.99598,178.051,0.5360979,-0.355882,0.7115667,19
13.76,-16.52106,1.506089,-24.24346,-0.4625517740207783,-0.1301576571137767,0.112136414959477,57.29631,72.20216,177.2532,0.5262166,-0.3748642,0.7020921,19
13.78,-16.32546,1.104473,-24.21309,-0.4137480241426803,-0.0734694320662565,0.160500919028403,61.22814,67.50222,171.1827,0.5092807,-0.3854148,0.6917014,19
13.8,-16.22336,1.295656,-24.19588,-0.3610821102069281,-0.0182855334650866,0.2082097050412032,64.40965,65.8262,169.4506,0.4989522,-0.4032457,0.6807081,19
13.82,-16.12187,1.484209,-24.17867,-0.2960262139834013,-0.0680587220061,0.2571259713108715,67.56194,63.67825,167.2472,0.4882189,-0.4207382,0.6691614,19
13.84,-15.89174,1.144318,-24.13676,-0.2504895638021145,-0.031757225180231,0.2970434056585476,58.38274,61.5437,167.7836,0.4886977,-0.3691569,0.7192776,19
13.86,-15.78954,1.326317,-24.11723,-0.2030297341526883,0.004955592218014,0.3354342107584913,61.43773,59.59075,165.6824,0.479094,-0.386607,0.7085907,19
13.88,-15.68847,1.505665,-24.09779,-0.1408335847833428,-0.0275296787248435,0.372828350800686,64.4496,57.1671,163.1125,0.4691123,-0.4037437,0.6973426,19
13.9,-15.58867,1.682431,-24.07847,-0.0766287114119614,-0.0618127267897869,0.4087234434510023,67.40147,54.09769,159.8985,0.4587636,-0.4205551,0.6855422,19
13.92,-15.47711,1.212034,-24.0657,-0.0205516259764118,0.0019397653354969,0.4394956446003175,43.05907,68.17009,173.9329,0.5366752,-0.2759214,0.758458,19
13.94,-15.37006,1.3863,-24.04224,0.0426652936595746,-0.002798332289228,0.4630201164078409,46.29296,67.45055,173.1,0.5292671,-0.2956166,0.7502397,19
13.96,-15.26459,1.557623,-24.01898,0.1079322252641952,-0.0083747289922909,0.4842466299786725,49.5176,66.61271,172.1512,0.5214256,-0.3150624,0.7414051,19
13.98,-15.13721,1.257268,-24.02144,0.1608436703207394,0.0517610374113058,0.5030298129800088,20.03632,74.2454,176.5594,0.5982181,-0.1208021,0.781682,19
14.0,-15.01931,1.425535,-23.99559,0.2125121952543143,0.1089872207949202,0.518208211745077,23.56597,74.01156,176.2887,0.5941842,-0.1439084,0.7773576,19
14.02,-14.90348,1.590218,-23.97004,0.2489250050104283,0.0709345803509811,0.5226387724482175,27.0955,73.75218,175.9938,0.5895826,-0.1668834,0.7722884,19
14.04,-14.8004,1.275756,-23.95712,0.2800689940523801,0.1020775811444947,0.5290680033210293,358.3977,78.94104,178.1655,0.6353649,0.02096723,0.7719198,19
14.06,-14.68061,1.441504,-23.93061,0.3089431139029435,0.1320847303745506,0.531671407008028,1.963545,78.80831,178.2127,0.6348228,-0.003338782,0.7723107,19
14.08,-14.56309,1.60357,-23.90444,0.3337338639659544,0.0919940469486974,0.5277935817612196,5.528441,78.67812,178.2518,0.6336662,-0.02763477,0.7719522,19
14.1,-14.44805,1.762104,-23.87865,0.3566810633117796,0.0501371980142318,0.5202022786560421,9.092405,78.54947,178.283,0.6318965,-0.05189696,0.7708455,19
14.12,-14.42068,1.293883,-23.8756,0.3885362175308016,0.0987817598719036,0.5186728298801886,352.8291,80.20599,179.2406,0.6425716,0.0520933,0.7636408,19
14.14,-14.29977,1.455449,-23.84543,0.4166451142856688,0.1439644424177148,0.5132484296446398,356.4142,80.05309,179.4599,0.6427075,0.02698708,0.765458,19
14.16,-14.1814,1.613224,-23.81573,0.4236550666801038,0.0892895241548993,0.4960663693483647,-0.001101448,79.91431,179.6691,0.6422119,0.001861637,0.7665217,19
14.18,-14.17121,1.262112,-23.81849,0.4275062567676879,0.1040090529038906,0.4810148596285861,355.7473,80.53381,180.5593,0.6460347,0.02515896,0.7623905,19
14.2,-14.05342,1.425999,-23.78805,0.4271481809829356,0.1183602006685815,0.4617258467752378,359.2986,80.39026,180.8278,0.6453977,1.304131e-05,0.7637883,19
14.22,-13.93798,1.586272,-23.75806,0.409630285332704,0.0590528619963928,0.4338558978728533,2.849591,80.26331,181.0877,0.6441376,-0.0251257,0.7644469,19
14.24,-13.8251,1.743086,-23.72857,0.3995971521507067,0.0770926297652884,0.4195217477245734,6.400105,80.15205,181.3409,0.642256,-0.05023322,0.7643661,19
14.26,-13.85273,1.237877,-23.73882,0.3859229856763637,0.0950800190810337,0.4020497283923965,6.15653,80.85798,182.5785,0.6464857,-0.0554368,0.7607031,19
14.28,-13.73371,1.405234,-23.70872,0.3681562016021671,0.1102395605063359,0.3811790219614046,9.780797,80.76611,182.8635,0.6437118,-0.08104676,0.7601,19
14.3,-13.61689,1.568904,-23.67902,0.3124758544412178,0.0242602787689084,0.3482098618243454,13.40487,80.69163,183.1461,0.6402906,-0.1065703,0.7587311,19
14.32,-13.64848,1.208713,-23.67853,0.2773563001956605,0.0368427402417835,0.3329142637323046,13.44731,80.85487,183.5346,0.6409694,-0.1089447,0.7579744,19
14.34,-13.53142,1.383235,-23.65009,0.2395680181407073,0.0503252657644665,0.3155310085592502,17.05506,80.7934,183.799,0.6368161,-0.1341115,0.7559277,19
14.36,-13.41611,1.554199,-23.62193,0.1737094496453417,-0.0152774659821534,0.290220546902006,20.66204,80.74849,184.0648,0.6320297,-0.1591375,0.7531273,19
14.38,-13.30274,1.721726,-23.5941,0.1291680331678733,-0.0003820843537561,0.2750801642172518,24.26807,80.72073,184.3343,0.6266152,-0.183996,0.7495773,19
14.4,-13.43977,1.175762,-23.61944,0.0832556979594718,0.0159672323026384,0.2588028348852087,18.74242,79.68684,184.0449,0.6273353,-0.1472517,0.7607611,19
14.42,-13.32602,1.358513,-23.59256,0.0135872209175644,-0.0495476819814812,0.2371661035364751,22.30307,79.61775,184.22,0.6222447,-0.1715967,0.7577283,19
14.44,-13.21348,1.537905,-23.56584,-0.0327538493688024,-0.0302617462776882,0.2211907969823876,25.86286,79.55891,184.3953,0.6165536,-0.1957682,0.7539622,19
14.46,-13.27886,1.145496,-23.5701,-0.0790090926544215,-0.0091154718843998,0.2047728476489116,24.60492,76.50762,184.044,0.5986481,-0.1885602,0.7714201,19
14.48,-13.16861,1.336435,-23.54379,-0.1255210313982924,0.0107766896047357,0.1878180767863098,28.11154,76.36804,184.0227,0.592611,-0.2118297,0.7672952,19
14.5,-13.05906,1.524207,-23.51752,-0.1726093924617153,0.0112747514040636,0.1702351774341028,31.61668,76.22216,183.9908,0.5860216,-0.2348919,0.7624524,19
14.52,-13.07397,1.124877,-23.50856,-0.2176866390498952,-0.0022746046451922,0.1523212298428897,32.0885,72.51443,183.5263,0.5612488,-0.2402468,0.7796234,19
14.54,-12.96672,1.321999,-23.48221,-0.2597005673131081,-0.0115773054463972,0.1346662770260986,35.53069,72.22828,183.2453,0.5540851,-0.2622842,0.7741058,19
14.56,-12.85979,1.516107,-23.45582,-0.2989365027855939,-0.019949559833458,0.117204791300121,38.97061,71.90727,182.9292,0.5464215,-0.2840775,0.7678871,19
14.58,-12.75335,1.707223,-23.42943,-0.3472468393589634,-0.1142735356919248,0.0955450350903666,42.40797,71.54377,182.5704,0.5382652,-0.3056069,0.7609735,19
14.6,-12.79594,1.115604,-23.44622,-0.3638481358107173,-0.0922520588726261,0.0783692426967177,41.86469,71.26023,182.3535,0.5380254,-0.3014965,0.763267,19
14.62,-12.69068,1.315602,-23.42084,-0.3761849844299294,-0.0686461525652631,0.0616873569181843,45.24698,70.8271,181.9127,0.5295779,-0.3223894,0.7558951,19
14.64,-12.58556,1.512698,-23.39538,-0.3858186417134175,-0.1312244638230027,0.0444480655989778,48.62561,70.32664,181.4046,0.5206677,-0.3429926,0.7478598,19
14.66,-12.52205,1.112951,-23.38363,-0.3842366422799288,-0.1039685963173484,0.0336568893939688,48.07961,70.00941,179.5323,0.5252448,-0.3315387,0.7470979,19
14.68,-12.41877,1.313407,-23.35827,-0.3787117752586828,-0.0754795235094377,0.0237515898977211,51.39976,69.43562,178.9495,0.5164416,-0.3517321,0.7383611,19
14.7,-12.3156,1.511063,-23.33282,-0.3695212759974586,-0.0491163767721493,0.014689740537463,54.71466,68.75784,178.2627,0.5072021,-0.3716204,0.7289975,19
14.72,-12.21269,1.70593,-23.30733,-0.3514288502215015,-0.1394077430875362,0.0071955745017491,58.02298,67.94389,177.4399,0.4975346,-0.3911865,0.7190163,19
14.74,-11.9859,1.104443,-23.25604,-0.3163031140899296,-0.1130016765528424,0.0050386834842806,61.23276,63.37399,171.1918,0.4839966,-0.3973752,0.7096025,19
14.76,-11.8851,1.295593,-23.23137,-0.2777266509039409,-0.0862314086351309,0.0038356454191763,64.42183,61.70872,169.4648,0.4741028,-0.4158287,0.6981825,19
14.78,-11.78493,1.484101,-23.20674,-0.218436572952703,-0.1367210163908803,0.0076925850823239,67.58183,59.57219,167.2673,0.4638233,-0.4339318,0.686193,19
14.8,-11.68552,1.670007,-23.18219,-0.1707309433377857,-0.0997574572708333,0.0106048963020208,70.69972,56.74112,164.3759,0.4531659,-0.4516731,0.6736423,19
14.82,-11.52516,1.144275,-23.1431,-0.1217234780567243,-0.0627058796973125,0.014394138161669,58.38871,57.67083,167.7912,0.4640807,-0.3800988,0.7353768,19
14.84,-11.42449,1.326248,-23.11654,-0.0716644268917675,-0.0287072889473176,0.0190189301668279,61.44745,55.73309,165.7003,0.4548985,-0.3981316,0.7243242,19
14.86,-11.32492,1.505565,-23.09016,-0.0233702089205806,-0.0106839325282953,0.0206058147262488,64.46362,53.32666,163.1428,0.4453571,-0.4158417,0.7126975,19
14.88,-11.13463,1.211962,-23.05871,0.0248757647915655,0.0083920432588899,0.0229980836504264,43.06915,65.20247,173.9539,0.5167902,-0.2823669,0.7721149,19
14.9,-11.02903,1.386174,-23.02922,0.0727568187450306,0.02542719371854,0.0260999106806392,46.30722,64.50623,173.1453,0.5096781,-0.3025981,0.7636461,19
14.92,-10.925,1.557441,-23.00003,0.1245323915050298,-0.0294824748039965,0.0254954299013223,49.53653,63.6951,172.2243,0.5021485,-0.3225735,0.7545497,19
14.94,-10.77495,1.257211,-23.00344,0.1751184577929795,0.0088978426109561,0.0269328392047727,20.0573,71.86388,176.5732,0.5818153,-0.1236634,0.7939311,19
14.96,-10.65832,1.425443,-22.97227,0.2245079345190438,0.0460071599390342,0.0287422411615385,23.58822,71.64231,176.3191,0.5779287,-0.1472484,0.7894782,19
14.98,-10.54375,1.59009,-22.94151,0.2722811900570187,0.0789076262278125,0.0307924073431995,27.11914,71.39656,176.0416,0.5734898,-0.1706977,0.7842694,19
15.0,-10.43146,1.751306,-22.91121,0.3027105729153458,0.0853024503761319,0.0311115057864492,30.64791,71.12262,175.7371,0.5685049,-0.1939773,0.7783125,19
15.02,-10.418,1.275716,-22.92974,0.3305172323648219,0.0924190099761235,0.0318076696347042,358.4124,77.04052,178.1777,0.6224805,0.02074069,0.7823514,19
15.04,-10.29925,1.441442,-22.8989,0.3552100018130876,0.0973929434345761,0.0327414603295874,1.977704,76.91419,178.2378,0.6219704,-0.003950576,0.7827001,19
15.06,-10.18275,1.603486,-22.86849,0.3774487198881939,0.1027520497906725,0.0336031632902789,5.54213,76.79126,178.2904,0.6208581,-0.02863087,0.7822895,19
15.08,-10.07826,1.293845,-22.85517,0.3957274496457915,0.1083497851210305,0.035077637693738,352.8262,78.82731,179.2531,0.6333424,0.05246385,0.7713115,19
15.1,-9.958192,1.455382,-22.82172,0.4095262238407278,0.1113782091513249,0.0369850531640305,356.411,78.67935,179.4855,0.6334907,0.02706296,0.7731036,19
15.12,-9.840635,1.613126,-22.78882,0.4056454487557808,0.0365917650585987,0.033258605990472,-0.004609537,78.54635,179.7083,0.6330164,0.001642543,0.7741343,19
15.14,-9.725817,1.767248,-22.75651,0.4106597236555513,0.0537124150733436,0.0333359018411028,3.579182,78.42716,179.9231,0.6319208,-0.02377197,0.7744034,19
15.16,-9.73322,1.254675,-22.77816,0.4105331155349856,0.0704033933373613,0.0331474509571765,357.4232,79.58829,181.1405,0.6400097,0.01090728,0.7679734,19
15.18,-9.616112,1.41909,-22.74566,0.4048230582927978,0.0839775153983397,0.0325209751171309,0.9825774,79.45881,181.417,0.6390088,-0.01449713,0.7690524,19
15.2,-9.501324,1.579899,-22.71366,0.4089491155301509,0.1525276673581405,0.0360851310758563,4.541553,79.34627,181.6862,0.6373879,-0.03988037,0.7693836,19
15.22,-9.47764,1.237766,-22.71074,0.374969752059796,0.1166705590031003,0.0296468693170526,6.16295,80.09641,182.5843,0.6414102,-0.05562874,0.7649822,19
15.24,-9.358665,1.404975,-22.6788,0.3384194938643587,0.0822789638184516,0.0231316235605993,9.799239,80.01181,182.8771,0.6386731,-0.08148184,0.7643172,19
15.26,-9.241892,1.568475,-22.6473,0.2989106024554983,0.0464730505886358,0.0163914272680085,13.43487,79.94531,183.1681,0.63529,-0.1072451,0.7628767,19
15.28,-9.127538,1.728411,-22.6163,0.2510522206435734,0.0306063565234544,0.0088682160662001,17.07047,79.897,183.4596,0.6312636,-0.132896,0.7606627,19
15.3,-9.252172,1.208687,-22.64562,0.201199593547602,0.018077232366037,0.0011560459342669,13.44878,80.28463,183.5403,0.637183,-0.1092464,0.7611565,19
15.32,-9.13532,1.383164,-22.61584,0.1489640947549667,0.0059617173879269,-0.0068658276408499,17.05952,80.23114,183.8111,0.6330804,-0.1345551,0.7590473,19
15.34,-9.020209,1.554077,-22.58637,0.0924175247353185,-0.0083880885521208,-0.0157377765147641,20.6694,80.19481,184.0841,0.6283473,-0.159722,0.7561799,19
15.36,-9.083731,1.175756,-22.5972,0.0350361106943994,-0.0188077418538298,-0.0246794905034297,18.74071,79.35706,184.0511,0.6251373,-0.1474969,0.7625691,19
15.38,-8.970127,1.358479,-22.56948,-0.0235216319730887,-0.028345986769127,-0.033787571214412,22.30229,79.29665,184.2335,0.6200998,-0.1719329,0.7594811,19
15.4,-8.857733,1.53784,-22.54193,-0.0835732205985556,-0.0399975754288502,-0.0431533238947619,25.86299,79.24723,184.4168,0.6144634,-0.196195,0.7556577,19
15.42,-8.902372,1.145496,-22.54352,-0.1435616547075399,-0.055994982251201,-0.0519542148348168,24.60295,76.28857,184.0482,0.5971683,-0.1887688,0.7725692,19
15.44,-8.792225,1.33642,-22.51667,-0.2017089557312228,-0.0676587234968273,-0.0602334099730428,28.10991,76.15732,184.0319,0.5911844,-0.2120927,0.7683959,19
15.46,-8.682774,1.524175,-22.48987,-0.2583126346028319,-0.0781799372115757,-0.0680716775234118,31.61541,76.02035,184.0056,0.5846496,-0.2352084,0.7635037,19
15.48,-8.574201,1.708808,-22.46316,-0.2871712702665259,-0.0054112775643412,-0.0709289398344621,35.11983,75.87596,183.9681,0.5775698,-0.2580973,0.7578972,19
15.5,-8.46669,1.783718,-22.4366,-0.3382838043926132,-0.0445980103438443,-0.0778585191430436,38.62317,75.72196,183.9176,0.5699519,-0.2807379,0.7515825,19
15.52,-8.608542,1.121804,-22.45919,-0.3857552955451743,-0.0805116454823437,-0.084079618980017,34.73251,71.83311,183.2555,0.5527742,-0.2575358,0.777617,19
15.54,-8.501685,1.319708,-22.43268,-0.4112816311027827,-0.028877566426239,-0.0870783691691596,38.16648,71.51311,182.9248,0.545279,-0.2793222,0.7715364,19
15.56,-8.395094,1.514613,-22.40612,-0.4414147294497595,-0.0613688187782016,-0.093302864262871,41.59784,71.15041,182.5515,0.5372934,-0.3008501,0.7647594,19
15.58,-8.37084,1.115036,-22.41014,-0.4671235710649405,-0.0911199901546198,-0.0988276760244684,43.28394,71.23302,181.7397,0.5366911,-0.3079971,0.7588001,19
15.6,-8.265997,1.315307,-22.38464,-0.4886358094961155,-0.1215359686456727,-0.1037280801140152,46.65506,70.79679,181.2967,0.5282211,-0.3287844,0.7510588,19
15.62,-8.161278,1.512696,-22.35907,-0.4806136029922143,-0.1238722759771496,-0.1015036951969516,50.02253,70.29045,180.7837,0.5192927,-0.3492783,0.7426631,19
15.64,-8.065833,1.109989,-22.34048,-0.4679513534149026,-0.1228720362615733,-0.0984371546765237,50.68462,69.64167,178.7228,0.519946,-0.3456103,0.7391697,19
15.66,-7.963059,1.309431,-22.31551,-0.4508841269035912,-0.1219355399848738,-0.0945984198607154,53.98841,68.99047,178.0554,0.5109119,-0.3654757,0.729914,19
15.68,-7.860448,1.506107,-22.29047,-0.4234449002853315,-0.0353118123065647,-0.0879942711534607,57.28595,68.21117,177.2601,0.5014493,-0.3850264,0.7200438,19
15.7,-7.758156,1.700031,-22.26541,-0.3809364004062319,-0.0611559793617624,-0.0785255727130964,60.57544,67.26112,176.2943,0.4915667,-0.4042463,0.7095685,19
15.72,-7.617372,1.104457,-22.23496,-0.3348476576656106,-0.0863514060717678,-0.0685418773132742,61.22306,63.57964,171.1968,0.4852698,-0.3967527,0.7087865,19
15.74,-7.516665,1.295643,-22.21075,-0.285420046457906,-0.1142300798329203,-0.058117417105985,64.40517,61.92263,169.472,0.4754091,-0.4151167,0.6973895,19
15.76,-7.416574,1.484197,-22.18658,-0.2515293485360461,-0.0290250961135301,-0.0511964600188337,67.55849,59.79716,167.2796,0.4651631,-0.4331326,0.685426,19
15.78,-7.1932,1.14424,-22.13323,-0.1960218546398937,-0.0410472971343168,-0.0397890777043583,58.39394,57.97717,167.7922,0.4660347,-0.3792944,0.7341147,19
15.8,-7.092424,1.326224,-22.1072,-0.1392126338834582,-0.0529916562189978,-0.0280534092774527,61.45166,56.04902,165.7056,0.4568702,-0.3972656,0.723064,19
15.82,-6.992763,1.505556,-22.08135,-0.081333383793985,-0.0680467698971284,-0.0160826345300826,64.46711,53.6539,163.1541,0.4473457,-0.4149152,0.711441,19
15.84,-6.894358,1.682303,-22.05572,-0.0195922600813975,-0.048643376045463,-0.0085676711548314,67.42358,50.61716,159.9628,0.4374708,-0.4322297,0.6992553,19
15.86,-6.678311,1.228967,-22.03123,0.0432421075929335,-0.0285321798030517,-0.0007682858479447,37.78603,67.01086,174.7238,0.5341497,-0.2456722,0.7798476,19
15.88,-6.569738,1.401265,-22.00179,0.1068151731233437,-0.0108226267518007,0.0071678898370204,41.09281,66.47793,174.0762,0.527747,-0.2666314,0.7722008,19
15.9,-6.462878,1.570463,-21.97269,0.1570000209913228,0.0719876251757357,0.0143066419760722,44.39349,65.86384,173.3503,0.5208968,-0.2873571,0.7638975,19
15.92,-6.325689,1.263674,-21.97456,0.1935405438042993,0.0609618422148013,0.0129130051823489,13.90635,73.61631,177.1645,0.5969473,-0.08218012,0.7927198,19
15.94,-6.208706,1.431534,-21.9442,0.2303483292658707,0.049557172850091,0.0113274519953963,17.43445,73.45322,177.0085,0.5940589,-0.1060032,0.7896038,19
15.96,-6.093804,1.595805,-21.91424,0.2598667612346985,0.1050424543308387,0.0142316002057532,20.96249,73.27639,176.8383,0.5906063,-0.1297271,0.785736,19
15.98,-5.981205,1.756639,-21.88473,0.2839128353737825,0.0909592252198064,0.013633473859703,24.489,73.08356,176.6517,0.5865939,-0.153321,0.781122,19
16.0,-5.954517,1.279285,-21.89582,0.3055224565015004,0.0765049437265507,0.012725811134556,354.466,78.13754,178.4025,0.6289343,0.04625136,0.7758337,19
16.02,-5.835451,1.444214,-21.86536,0.3242357534165541,0.0588009403736179,0.0113408728120432,358.0299,78.00945,178.5192,0.6290663,0.02149002,0.7770543,19
16.04,-5.718683,1.60545,-21.83534,0.3540872066943589,0.1300689064049442,0.0165650437157189,1.593007,77.88873,178.6278,0.6285892,-0.003285139,0.7775213,19
16.06,-5.607673,1.296025,-21.8201,0.3690254390669793,0.1048806870975772,0.0165107950012712,353.4619,79.19891,179.4904,0.6361778,0.04676806,0.7694196,19
16.08,-5.487621,1.456954,-21.78646,0.3807541917252158,0.0796665371274677,0.0164464333395404,357.0417,79.05706,179.753,0.6362059,0.02128161,0.7710845,19
16.1,-5.370118,1.61409,-21.75337,0.3902786709006982,0.1218268853438996,0.0186857220885126,0.6209391,78.9319,180.0063,0.63561,-0.004218297,0.7719914,19
16.12,-5.345378,1.254714,-21.76258,0.3841363296248647,0.0905045418302799,0.0151933128818546,357.4184,79.79864,181.1357,0.6414177,0.0109258,0.7667974,19
16.14,-5.228162,1.419159,-21.73071,0.3741676801985151,0.0601470518836821,0.0110507509957358,0.9759286,79.67505,181.4086,0.6404609,-0.01441291,0.7678455,19
16.16,-5.113263,1.580001,-21.69931,0.3599680730047643,0.0279462760379652,0.0060868753963112,4.53301,79.56822,181.6745,0.6388838,-0.03973038,0.7681478,19
16.18,-5.000891,1.737395,-21.66846,0.3590690896626687,0.0906524770978216,0.0081398593925579,8.08954,79.47742,181.9354,0.6366883,-0.06500225,0.7677049,19
16.2,-4.891246,1.784845,-21.63821,0.3232477816637762,0.0562439212222443,0.0019815602388275,11.64542,79.40225,182.1934,0.633877,-0.0902039,0.7665178,19
16.22,-5.010468,1.232113,-21.67409,0.2850647545803533,0.0235450570182907,-0.0046791503782035,8.241365,80.34232,182.8808,0.6418222,-0.07106368,0.7630701,19
16.24,-4.89186,1.400927,-21.64313,0.2574277874227459,0.0645904922871176,-0.0077073749596525,11.86933,80.27339,183.1683,0.6387284,-0.09674054,0.7619634,19
16.26,-4.77535,1.566067,-21.61258,0.2260733717213019,0.1040471065093629,-0.0114362852578682,15.49656,80.22237,183.4557,0.6349916,-0.1223124,0.7600877,19
16.28,-4.843014,1.199638,-21.62704,0.1570169968547808,0.0397749978878777,-0.0237516130213921,14.76678,80.65203,183.6651,0.6383092,-0.1184439,0.7583262,19
16.3,-4.726848,1.376195,-21.59855,0.0861453481222158,-0.0221155179769597,-0.0367544558528076,18.36373,80.609,183.9306,0.6340128,-0.1435176,0.7559431,19
16.32,-4.612287,1.549242,-21.57031,0.0486534081001015,0.0168415130488139,-0.0415775118305847,21.95977,80.58302,184.1994,0.6290898,-0.1684416,0.7528113,19
16.34,-4.665612,1.168265,-21.5759,-0.01388084567938,-0.0243414483655441,-0.0508953213956617,20.14683,78.92322,184.0658,0.6205795,-0.157152,0.7636141,19
16.36,-4.552683,1.35302,-21.54917,-0.0766569343847841,-0.0618033149119947,-0.0605119126950239,23.69548,78.85346,184.1961,0.6153388,-0.1812392,0.7602487,19
16.38,-4.440832,1.534461,-21.52259,-0.1134253147274069,-0.0167559078583239,-0.0645170724913981,27.24321,78.79079,184.3254,0.6095092,-0.2051449,0.7561536,19
16.4,-4.33026,1.712665,-21.4962,-0.1497495567549957,0.0279158748253712,-0.0684808389422975,30.78969,78.73524,184.4545,0.6030969,-0.2288435,0.7513341,19
16.42,-4.471569,1.139085,-21.51964,-0.219015903824192,-0.0383575772485655,-0.0785027123461046,26.29928,75.69329,183.9693,0.5908826,-0.200226,0.7733229,19
16.44,-4.362078,1.33174,-21.4935,-0.2630435126138556,-0.0165540660579258,-0.0839383324357738,29.79094,75.54002,183.8942,0.5846655,-0.2231907,0.7688212,19
16.46,-4.253176,1.521268,-21.4674,-0.304115045803829,0.0071278543328567,-0.0889047157103357,33.28099,75.37566,183.8053,0.5779086,-0.2459394,0.7636064,19
16.48,-4.145041,1.70771,-21.44137,-0.3425501052914828,0.0294478755697046,-0.0934985091844966,36.76982,75.19751,183.7001,0.5706172,-0.2684532,0.7576836,19
16.5,-4.212674,1.118746,-21.44819,-0.3984001879198082,-0.0627611116054286,-0.1031024798614104,37.39981,71.65364,183.0116,0.5474156,-0.2744281,0.7726554,19
16.52,-4.106115,1.317452,-21.42258,-0.4509862088985438,-0.1377694830593652,-0.112308402738094,40.81957,71.29093,182.623,0.539554,-0.2958199,0.7660753,19
16.54,-3.999774,1.513188,-21.39692,-0.4632478129945761,-0.0879140313805595,-0.1138309282059788,44.23621,70.8757,182.1825,0.5312107,-0.3169398,0.7588086,19
16.56,-3.957027,1.114531,-21.39886,-0.47666477834846,-0.1224297220415736,-0.1167377340207544,44.69353,71.55956,181.1174,0.5377291,-0.3137124,0.7524757,19
16.58,-3.852473,1.31508,-21.37402,-0.4853485290438113,-0.154334990266854,-0.1190264686052553,48.05136,71.11624,180.6669,0.52921,-0.3343098,0.7444103,19
16.6,-3.748022,1.512769,-21.3491,-0.4772298440380027,-0.0983009457715986,-0.116187980016245,51.40553,70.59907,180.1427,0.520235,-0.3546112,0.7357017,19
16.62,-3.620489,1.107185,-21.3234,-0.4492542424146429,-0.1282278235250513,-0.1098138794422851,53.3043,69.37411,177.6737,0.5160082,-0.3584483,0.7295698,19
16.64,-3.518082,1.30561,-21.29942,-0.4175200139427487,-0.1567403513626436,-0.102979124864579,56.58938,68.61073,176.8842,0.5067267,-0.3779142,0.7198188,19
16.66,-3.415893,1.501302,-21.2754,-0.3809040693173773,-0.0976118874597139,-0.0946988202493286,59.86613,67.68359,175.9312,0.4970245,-0.3970549,0.7094684,19
16.68,-3.314075,1.69428,-21.25137,-0.3407094349862442,-0.0396489443350178,-0.0859367781399145,63.13235,66.53355,174.7557,0.4869093,-0.4158573,0.6985265,19
16.7,-3.137865,1.109082,-21.21259,-0.2971942878806787,-0.0011737429028225,-0.0767710851571497,62.64394,60.55633,167.8551,0.4757906,-0.4008505,0.7058616,19
16.72,-3.037187,1.297801,-21.18901,-0.2373557748027498,-0.0815926666055885,-0.0644086290371914,65.75811,58.40082,165.591,0.4659137,-0.4187547,0.6940908,19
16.74,-2.937261,1.483899,-21.16551,-0.1807836760040444,-0.0469537611959141,-0.0524647241955378,68.82606,55.61083,162.6937,0.4556619,-0.436311,0.6817602,19
16.76,-2.838227,1.667425,-21.14213,-0.1221271501754107,-0.0120426764837881,-0.0401425605114473,71.82519,51.88335,158.8599,0.4450434,-0.4535074,0.6688792,19
16.78,-2.601212,1.178093,-21.08847,-0.0487031136458295,-0.046486306397894,-0.026985717128642,52.10418,61.53291,171.153,0.4873024,-0.340807,0.7523273,19
16.8,-2.49915,1.356187,-21.06207,0.0081926040874086,-0.0040060941562235,-0.0175438928776756,55.21097,60.28344,169.7461,0.4790061,-0.3593578,0.7424791,19
16.82,-2.39841,1.531559,-21.03589,0.0654642847146175,0.0381577062900702,-0.0081034162772164,58.29603,58.78245,168.0904,0.4703349,-0.3776197,0.732048,19
16.84,-2.212245,1.239781,-21.02696,0.1228447474057675,0.0769819586182154,0.0012113707126437,32.02114,69.18098,175.3452,0.554457,-0.2047114,0.7842867,19
16.86,-2.099086,1.410117,-20.99742,0.1848121819844145,0.020755574157953,0.0038207561514571,35.45372,68.78916,174.8479,0.5488161,-0.2268088,0.7774623,19
16.88,-1.987817,1.577102,-20.96825,0.2308956552921378,0.0554489774217521,0.0069355970473048,38.88259,68.34109,174.2975,0.5426769,-0.2486957,0.7699304,19
16.9,-1.878621,1.740844,-20.93948,0.2756163674215347,0.0892049151800048,0.0096497188306887,42.30833,67.82497,173.6818,0.5360429,-0.2703598,0.7616947,19
16.92,-1.853998,1.268122,-20.96639,0.3194735964843097,0.0516413944932711,0.009499429672696,8.164461,75.42276,177.5522,0.6111961,-0.04327235,0.787985,19
16.94,-1.73578,1.435265,-20.93696,0.3575388624537051,0.0834478457551894,0.0135287503660523,11.71646,75.2951,177.4792,0.6092432,-0.06743044,0.7860861,19
16.96,-1.619715,1.598775,-20.90792,0.3918739972981805,0.1141562393815308,0.0169670659280525,15.26729,75.16095,177.3969,0.6067055,-0.09151688,0.7834315,19
16.98,-1.52107,1.285327,-20.89969,0.4219859741879284,0.1409864176020947,0.0196543777774307,353.3179,79.0363,178.7095,0.6346945,0.05210852,0.7704807,19
17.0,-1.401033,1.448861,-20.86941,0.4366856388562945,0.0733751768092541,0.0171152389406503,356.8958,78.90773,178.872,0.634987,0.02716615,0.7719854,19
17.02,-1.28339,1.60865,-20.83958,0.4610916111892531,0.0984118896181699,0.0205297260204253,0.4729135,78.7896,179.0262,0.6346592,0.002204344,0.7727346,19
17.04,-1.16836,1.764855,-20.81027,0.4812911904935492,0.1219765722143571,0.0237647185659155,4.04934,78.68092,179.1732,0.6337121,-0.02275234,0.7727283,19
17.06,-1.12923,1.269763,-20.81457,0.4967658533862955,0.1413532837861431,0.026622757082523,354.1089,80.13837,179.991,0.6428586,0.03937556,0.7642592,19
17.08,-1.011146,1.432962,-20.78296,0.4863651163154089,0.1296544045035821,0.0229536857207848,357.662,80.00397,180.2716,0.6427156,0.01410482,0.7658294,19
17.1,-0.895454,1.592512,-20.75185,0.4716518933964121,0.11986871871056,0.0185326391043969,1.214722,79.88718,180.5436,0.6419512,-0.01117251,0.7666575,19
17.12,-0.8561179,1.246103,-20.75605,0.4521753997449975,0.1092258153282744,0.0131745341905467,1.384725,80.7512,181.586,0.6475588,-0.01816979,0.7617941,19
17.14,-0.7369616,1.411251,-20.7256,0.4249179693169915,0.1009487366780909,0.0088162985383055,5.000711,80.65328,181.873,0.6458983,-0.04382107,0.7620015,19
17.16,-0.6201195,1.5727,-20.69561,0.3942886608081104,0.0951096404040994,0.0038493695210282,8.616692,80.57299,182.1555,0.6435909,-0.06942362,0.7614444,19
17.18,-0.5058175,1.730612,-20.66612,0.3598423002891878,0.088842264151911,-0.0018890050017685,12.232,80.5101,182.436,0.6406398,-0.09494923,0.7601238,19
17.2,-0.6051552,1.226296,-20.68897,0.3211729195791726,0.0793404870181722,-0.0085499615029078,10.32601,80.77989,183.1619,0.6432206,-0.08631964,0.759882,19
17.22,-0.4864545,1.396669,-20.65972,0.2419465994209139,-0.0171373637080798,-0.0244230625194616,13.9555,80.72334,183.4323,0.6397532,-0.1117769,0.7583451,19
17.24,-0.3697591,1.563384,-20.63082,0.1948808698769629,-0.0069082513051193,-0.0312528274491468,17.58415,80.68381,183.7038,0.6356418,-0.137114,0.7560432,19
17.26,-0.2552873,1.726577,-20.60235,0.145641303472585,0.0045683338462567,-0.038677616472877,21.2121,80.66184,183.9784,0.6308908,-0.1623056,0.752979,19
17.28,-0.3803047,1.183127,-20.62895,0.0938116682076566,0.0144304337341446,-0.0468300219475605,17.41574,80.73442,183.9216,0.6358967,-0.1371883,0.7560409,19
17.3,-0.2652713,1.363733,-20.60235,0.0313232794010291,-0.0033233072596011,-0.0557596799047832,20.99624,80.69644,184.1495,0.6311495,-0.1618171,0.7531461,19
17.32,-0.151585,1.540915,-20.57595,-0.0308986723699912,-0.0168545165484346,-0.0647961817845623,24.5758,80.67317,184.3808,0.6257855,-0.1862799,0.7495133,19
17.34,-0.2066117,1.153108,-20.57918,-0.093194270342732,-0.029250249953871,-0.0740352621746147,23.06785,77.93573,184.0492,0.6103082,-0.1771311,0.7657651,19
17.36,-0.09508461,1.341976,-20.5539,-0.1545632280236751,-0.0427371185436447,-0.082076859595364,26.59148,77.83684,184.0819,0.6046142,-0.2005919,0.7618516,19
17.38,0.01561996,1.527621,-20.52869,-0.2140768424625674,-0.0516603838570402,-0.0898778067374714,30.1138,77.73703,184.1087,0.5983509,-0.2238535,0.7572185,19
17.4,0.1253137,1.710101,-20.5036,-0.2720295300513534,-0.0592451189439133,-0.0975170049805567,33.63506,77.63538,184.1292,0.5915242,-0.2468961,0.7518708,19
17.42,0.0001915041,1.128768,-20.52111,-0.3286983350849936,-0.0686660223991923,-0.1050736170095434,30.04017,74.32271,183.7087,0.5764353,-0.2253033,0.7743729,19
17.44,0.1084816,1.324516,-20.49608,-0.3645299555456809,-0.0802667887008386,-0.1086545419210169,33.50029,74.10399,183.5065,0.5696669,-0.2475533,0.7691818,19
17.46,0.216378,1.517212,-20.47104,-0.3965581564603917,-0.0874141514953695,-0.1117782012315542,36.9587,73.86063,183.2791,0.56238,-0.2695704,0.7632883,19
17.48,0.3237023,1.706886,-20.44604,-0.4250353639855253,-0.0934496442222564,-0.1145167289392601,40.41525,73.58739,183.0212,0.5545819,-0.2913348,0.7566985,19
17.5,0.2906021,1.11558,-20.45852,-0.4502051332589784,-0.1016652645278611,-0.1169455446363527,41.86166,72.26628,182.3717,0.5446641,-0.2998612,0.7585521,19
17.52,0.3965342,1.315521,-20.43446,-0.4644288397958183,-0.1101374478398539,-0.1194416708909291,45.25473,71.86399,181.9502,0.5362747,-0.3206992,0.7511217,19
17.54,0.5023277,1.512541,-20.41035,-0.4732703722521856,-0.1146986710095725,-0.1212207639915443,48.64445,71.39783,181.4653,0.5274138,-0.3412475,0.7430287,19
17.56,0.5653739,1.112943,-20.40067,-0.4769778393338671,-0.1187588691767331,-0.122359409552303,48.0684,71.08661,179.5472,0.5322248,-0.3292949,0.7421913,19
17.58,0.6692036,1.313378,-20.37702,-0.4613587046255925,-0.122195503131391,-0.1184529306691142,51.39209,70.53837,178.9749,0.5234619,-0.3493408,0.7334381,19
17.6,0.7729277,1.511005,-20.35331,-0.4409067635377535,-0.1225026969290126,-0.1138889011650836,54.71081,69.88909,178.302,0.5142561,-0.3690832,0.724062,19
17.62,0.9805318,1.102179,-20.31082,-0.4158694199369412,-0.1230663975309399,-0.1087360417900433,59.65551,67.51259,174.0792,0.5027643,-0.3880902,0.706031,19
17.64,1.082042,1.295883,-20.28836,-0.3899894728032288,-0.0371511901906718,-0.1031781393407662,62.88905,66.28224,172.8034,0.4929127,-0.4066764,0.6950539,19
17.66,1.183075,1.486931,-20.26591,-0.3365708532150473,-0.0588476826840108,-0.0923393909884997,66.10545,64.72057,171.1967,0.482658,-0.4249183,0.6835081,19
17.68,1.283484,1.675353,-20.24351,-0.2804991777751724,-0.0801717926221316,-0.0811496135298806,69.29779,62.67673,169.1083,0.4720084,-0.4428042,0.6714013,19
17.7,1.383123,1.754526,-20.2212,-0.2220236138618007,-0.1044097527402467,-0.0696837973308985,72.45346,59.89503,166.2825,0.4609736,-0.4603198,0.6587445,19
17.72,1.575582,1.144158,-20.17872,-0.1544281391873699,-0.0860536330620294,-0.0572716974687121,58.40921,58.82246,167.7682,0.471495,-0.3769568,0.7305281,19
17.74,1.677039,1.326133,-20.15449,-0.0859497042887476,-0.0663033379582744,-0.0445488994893308,61.46979,56.8852,165.6584,0.4622734,-0.3947614,0.7194945,19
17.76,1.77738,1.505443,-20.13042,-0.0168290249850813,-0.0483017433956199,-0.0316107601585535,64.48743,54.47623,163.0792,0.4526857,-0.4122452,0.7078894,19
17.78,1.967829,1.211841,-20.10273,0.0527124174664176,-0.0351425531476414,-0.0185494620241675,43.10633,66.40237,173.9468,0.524812,-0.2800742,0.7665381,19
17.8,2.074129,1.386057,-20.07561,0.1016218411741926,0.0556115828027922,-0.0100183898992569,46.34493,65.7217,173.1365,0.5177175,-0.3000842,0.7580587,19
17.82,2.178855,1.557324,-20.04878,0.147442318520873,0.0452650668262379,-0.0108065246807349,49.57497,64.92683,172.2148,0.5101986,-0.3198411,0.7489562,19
17.84,2.281849,1.725734,-20.02228,0.1943558753618199,0.0346239317532773,-0.0115430049535771,52.79495,63.98917,171.153,0.5022619,-0.3393331,0.7392368,19
17.86,2.416352,1.263652,-20.04185,0.2289585724453007,0.0902727713945238,-0.0098186874618715,13.9326,74.71059,177.1662,0.6044765,-0.08148617,0.7869593,19
17.88,2.533857,1.431522,-20.01369,0.2571501357519146,0.0762312930605114,-0.0128411890266817,17.45903,74.56,177.0153,0.6016361,-0.1051278,0.7838068,19
17.9,2.649284,1.595801,-19.98591,0.2837248118679443,0.0621729560731857,-0.0163555847266723,20.98599,74.39613,176.8507,0.598224,-0.1286737,0.7799085,19
17.92,2.768962,1.279272,-19.97486,0.308246245107561,0.0451620001803392,-0.0205056456493979,354.4768,79.28403,178.4043,0.6366696,0.04597078,0.7695049,19
17.94,2.888638,1.444197,-19.94681,0.3440841958905517,0.051132778011977,-0.0188524366391877,358.0406,79.16679,178.5237,0.6368849,0.02138424,0.7706618,19
17.96,3.006011,1.605429,-19.91916,0.3769602005624471,0.057495749717483,-0.0172406963675002,1.60349,79.05711,178.6358,0.6364838,-0.00321597,0.7710713,19
17.98,3.120864,1.763119,-19.89197,0.406356354048896,0.0614189717655601,-0.0158467871307781,5.165602,78.95412,178.7415,0.6354671,-0.02780602,0.7707339,19
18.0,3.157015,1.296019,-19.89587,0.4340549334353996,0.1311636548003991,-0.0117822818795771,353.4588,80.27505,179.489,0.6433737,0.04648571,0.7634107,19
18.02,3.277715,1.456955,-19.86461,0.4418789088545064,0.1023925874595118,-0.0146673119588265,357.0381,80.14427,179.7518,0.6434923,0.02117087,0.7650133,19
18.04,3.39586,1.614097,-19.83387,0.4456549389572192,0.0743503230674524,-0.0178903084446586,0.6170468,80.03017,180.006,0.6429799,-0.004157536,0.7658644,19
18.06,3.511229,1.767616,-19.80371,0.4449774001429262,0.0442265789397549,-0.0216013848635627,4.195372,79.93181,180.2536,0.6418375,-0.02947458,0.7659636,19
18.08,3.47389,1.25053,-19.83152,0.4504475548508353,0.1064628200110375,-0.0209846938398041,359.3781,81.18341,181.3706,0.6506577,-0.003661204,0.759258,19
18.1,3.592185,1.415416,-19.80213,0.4245998214570893,0.0724562832637014,-0.0280313919419334,2.953733,81.08068,181.6572,0.6494162,-0.02898108,0.759859,19
18.12,3.70817,1.576673,-19.77318,0.3957744315005624,0.0398752116785289,-0.0356960396174463,6.528794,80.99551,181.9389,0.6475391,-0.05426518,0.7597147,19
18.14,3.707655,1.232136,-19.77402,0.3746269528424382,0.0812372558783815,-0.0389112697641071,8.232764,81.52266,182.8768,0.6496553,-0.07070058,0.7564205,19
18.16,3.826976,1.400934,-19.74567,0.3490466291329475,0.1209350348510243,-0.0427994187160756,11.86218,81.46426,183.1623,0.6466228,-0.09618075,0.7552858,19
18.18,3.944192,1.566053,-19.71769,0.2866304714238534,0.0594105579030428,-0.0541752147765435,15.49082,81.42381,183.4484,0.642939,-0.1215568,0.7533884,19
18.2,4.059084,1.727632,-19.69013,0.221801131603412,2.198049352530873e-06,-0.0662885423286043,19.11909,81.40173,183.7372,0.6386071,-0.1468049,0.7507308,19
18.22,3.916984,1.199682,-19.72067,0.1859035939444882,0.0386016639925211,-0.0714616610111393,14.7607,81.80216,183.6634,0.6458955,-0.1177972,0.7518846,19
18.24,4.033751,1.37623,-19.69459,0.1236982883192852,-0.0013495135352838,-0.0811799900684868,18.35781,81.76997,183.9285,0.641648,-0.1426765,0.7494846,19
18.26,4.14891,1.549265,-19.66876,0.0601652316843877,-0.0375895024970596,-0.0915648535119957,21.95398,81.75503,184.1976,0.6367666,-0.167407,0.7463422,19
18.28,4.262249,1.718901,-19.64322,-0.0049749867910664,-0.0731362403518848,-0.1026878550183094,25.54897,81.75829,184.4727,0.6312565,-0.1919616,0.7424623,19
18.3,4.126177,1.160802,-19.66475,-0.0364084025010087,-0.0054557591969728,-0.1064274822648849,21.57845,79.43467,184.1053,0.6221443,-0.1663834,0.7594082,19
18.32,4.23913,1.347607,-19.64054,-0.1050138719490385,-0.046160862602803,-0.116065745634351,25.1236,79.36203,184.1929,0.6166877,-0.1900714,0.7557655,19
18.34,4.351131,1.531126,-19.61642,-0.1723698767725776,-0.0830860616618298,-0.1257355292888955,28.66779,79.29334,184.2782,0.6106425,-0.2135702,0.7513996,19
18.36,4.295049,1.132805,-19.61746,-0.2136592707195856,-0.0351527743011101,-0.1310899527952016,28.02487,76.07804,183.9417,0.5909499,-0.2111497,0.7688344,19
18.38,4.404409,1.327188,-19.59375,-0.2528921103802573,0.0124716810913166,-0.1362475987711193,31.50402,75.90625,183.8113,0.5844743,-0.2336267,0.7640346,19
18.4,4.513292,1.518479,-19.57004,-0.3170536723819082,-0.0525107166915797,-0.145147288854349,34.98163,75.71795,183.663,0.5774618,-0.2558803,0.7585309,19
18.42,4.621516,1.706712,-19.54638,-0.3781866764870811,-0.1148742207747152,-0.1538690650868051,38.45782,75.50957,183.4933,0.5699189,-0.2778915,0.7523285,19
18.44,4.603304,1.117149,-19.54736,-0.4014498649017397,-0.0638211450216802,-0.1560931252998081,39.62329,72.99787,182.689,0.5530555,-0.2855098,0.7608108,19
18.46,4.709982,1.316476,-19.5245,-0.4305566269971537,-0.0965577064276763,-0.1616534351857379,43.02862,72.62365,182.284,0.544921,-0.3064374,0.7538419,19
18.48,4.816485,1.512859,-19.50158,-0.4548716691495851,-0.1262108907638162,-0.1674092443474628,46.43076,72.19204,181.8223,0.5363041,-0.327086,0.7462034,19
18.5,4.922643,1.706312,-19.47865,-0.4746237288787154,-0.1561672609867886,-0.1733786231242877,49.82914,71.68861,181.2893,0.5272128,-0.3474372,0.7379025,19
18.52,4.898436,1.113758,-19.49263,-0.4690798065338926,-0.0730540906463377,-0.1739679610415212,46.37362,72.40136,180.3676,0.5418869,-0.319462,0.7425147,19
18.54,5.003059,1.314253,-19.47029,-0.4521152660621605,-0.1048833511280689,-0.1821553480269395,49.71423,71.9192,179.8623,0.5332231,-0.3396093,0.7341475,19
18.56,5.107581,1.511914,-19.44787,-0.4306023748644307,-0.1347807447223697,-0.1915860106820179,53.05065,71.35184,179.2722,0.5241043,-0.359459,0.7251518,19
18.58,5.246883,1.103747,-19.423,-0.3984130854643477,-0.0770570499942444,-0.2000114357488014,56.4856,69.86089,176.2136,0.5169573,-0.3710835,0.7128996,19
18.6,5.349233,1.299817,-19.40174,-0.3615913594111215,-0.0202485541246679,-0.2093206068143986,59.74906,68.93009,175.2426,0.5073271,-0.3899507,0.7025991,19
18.62,5.451235,1.493196,-19.38045,-0.3113892353837737,-0.0739533135497828,-0.2334952038857696,63.00135,67.77555,174.0482,0.4972789,-0.4084851,0.691719,19
18.64,5.552742,1.683906,-19.35919,-0.2731502245609447,-0.0379753948841281,-0.2618188432171422,66.23889,66.3071,172.5405,0.4868208,-0.4266745,0.6802668,19
18.66,5.819335,1.128741,-19.30477,-0.2321843669814816,-0.0011105932697562,-0.2912965374171818,60.96898,59.19724,166.6836,0.4739181,-0.3887785,0.7152057,19
18.68,5.920924,1.312937,-19.2828,-0.1887398451164017,0.033448291602168,-0.321772783214223,64.0241,56.9552,164.2758,0.4642467,-0.4062724,0.7037584,19
18.7,6.021513,1.494488,-19.26095,-0.127737336841605,-0.0295421288562114,-0.3720377957234899,67.02635,54.11142,161.2681,0.4542051,-0.4234339,0.6917474,19
18.72,6.249631,1.195322,-19.21831,-0.0647710478083807,-0.0795415882538946,-0.4231083099707886,48.34473,65.54321,173.1343,0.5135607,-0.3141199,0.7524602,19
18.74,6.352696,1.371758,-19.19373,-0.0141282615423243,-0.0157719142276674,-0.4777978585944331,51.47953,64.65223,172.1075,0.5057924,-0.3329587,0.7433854,19
18.76,6.45435,1.545442,-19.16938,0.0407250344954268,-0.0194096284274132,-0.5516133475105551,54.60175,63.5978,170.9198,0.4976314,-0.3515314,0.7337316,19
18.78,6.554446,1.71646,-19.1453,0.0976475206046691,-0.0236141200359128,-0.6265636900605109,57.70789,62.33477,169.526,0.4890867,-0.3698247,0.7235065,19
18.8,6.652845,1.778241,-19.12152,0.1425558904821906,0.039033878544644,-0.7029165212316726,60.79338,60.79772,167.8601,0.4801627,-0.3878237,0.712719,19
18.82,6.741445,1.257304,-19.15819,0.186704390512076,0.0990498491879695,-0.7803537124093989,20.08792,74.04661,176.5715,0.5968117,-0.1214431,0.7826614,19
18.84,6.858696,1.425718,-19.13174,0.2226908620889636,0.0648255076218864,-0.8727559846183559,23.60148,73.84875,176.321,0.5930081,-0.1445293,0.7781861,19
18.86,6.973904,1.590581,-19.10564,0.2588247000587014,0.0290942060793966,-0.9665861905972726,27.11489,73.62771,176.0491,0.5886436,-0.1674817,0.7729739,19
18.88,7.060685,1.275721,-19.10884,0.2897546567608147,0.0829810467908818,-1.054618236234734,358.4397,79.40338,178.1797,0.6384843,0.02062016,0.7693505,19
18.9,7.180511,1.441494,-19.08301,0.3171176375477389,0.134141214235383,-1.1433000541595288,2.000301,79.29932,178.2447,0.6381254,-0.003665791,0.7695824,19
18.92,7.298083,1.603591,-19.05754,0.3258875657684195,0.0918262854552387,-1.2370971428918298,5.560002,79.199,178.3034,0.6371506,-0.02794112,0.7690701,19
18.94,7.423241,1.293837,-19.04457,0.3316265216742686,0.1196895560769904,-1.329144143422834,352.82,81.23512,179.2537,0.6494061,0.05176075,0.7578318,19
18.96,7.54464,1.455388,-19.01634,0.3335003893008794,0.1463417586758937,-1.4215284044074696,356.4034,81.10898,179.4896,0.649738,0.02673769,0.7594972,19
18.98,7.663509,1.613146,-18.98857,0.3139636009275643,0.0977021394312729,-1.515376817803924,359.9861,80.99791,179.717,0.649432,0.001695728,0.7604157,19
19.0,7.779628,1.767281,-18.9613,0.2911644372590436,0.0486208405532382,-1.609523523736654,3.56828,80.90099,179.938,0.648489,-0.02334095,0.760587,19
19.02,7.791736,1.254731,-18.97886,0.2761544307186687,0.0894749848483076,-1.698995143657089,357.4091,82.11742,181.1393,0.6568012,0.01051818,0.7536594,19
19.04,7.910208,1.419138,-18.95164,0.2561797239675758,0.1282663144095922,-1.7884913125772255,0.9676653,82.00987,181.4204,0.6559713,-0.01450467,0.7546369,19
19.06,8.026347,1.579936,-18.92483,0.2096306136310533,0.0693275021103138,-1.8763192067315824,4.525748,81.91959,181.6957,0.6545053,-0.03950638,0.7548814,19
19.08,8.139939,1.737281,-18.89847,0.1598740301485783,0.0111739277865766,-1.96488882440152,8.083208,81.84605,181.9671,0.6524051,-0.06446272,0.7543928,19
19.1,8.070398,1.237788,-18.9198,0.1290774976112447,0.0510473950590592,-2.045218298810984,6.14323,82.75172,182.5835,0.6589721,-0.05507811,0.7499197,19
19.12,8.190762,1.404983,-18.89345,0.0744716041549509,0.0157562314481226,-2.1187235085552696,9.778586,82.68985,182.8814,0.6563701,-0.08051458,0.7491939,19
19.14,8.30891,1.568469,-18.86746,0.0172651644075765,-0.0169705561935213,-2.1926580088014,13.41318,82.64665,183.179,0.6531041,-0.1058621,0.7477087,19
19.16,8.424623,1.728388,-18.84189,-0.0257186137532288,0.025302714851462,-2.262274699482466,17.04763,82.62247,183.4788,0.6491771,-0.1310986,0.7454658,19
19.18,8.311932,1.199618,-18.86387,-0.0720972034682982,0.0666401192372462,-2.33141664794345,14.76622,83.24802,183.6757,0.655313,-0.1171356,0.7436785,19
19.2,8.42948,1.376082,-18.84036,-0.1222474677808729,0.0891934684613748,-2.399757978935498,18.36934,83.22468,183.954,0.6510658,-0.1418839,0.741287,19
19.22,8.545408,1.549021,-18.81705,-0.2166924095337712,-0.0028419066352458,-2.44949167275033,21.97147,83.21972,184.2372,0.646173,-0.1664836,0.7381588,19
19.24,8.491878,1.168291,-18.82194,-0.2743200926904556,0.010187440959708,-2.491040638897664,20.139,81.68068,184.0723,0.6387741,-0.155068,0.7484738,19
19.26,8.606036,1.353003,-18.8005,-0.3322469003626658,0.0251227570784131,-2.532162927597117,23.68937,81.63004,184.2111,0.6335628,-0.1787431,0.7451383,19
19.28,8.719109,1.534395,-18.77916,-0.3907737005298601,0.038962278637651,-2.5725820683118745,27.23878,81.58766,184.3504,0.6277444,-0.2022393,0.741087,19
19.3,8.830896,1.712544,-18.75797,-0.4802385092037682,-0.057868230027153,-2.596541728412669,30.78687,81.55375,184.4913,0.6213253,-0.22553,0.7363254,19
19.32,8.684053,1.13911,-18.77688,-0.531819169125864,-0.0433812365248308,-2.613452946947426,26.28879,78.65133,183.976,0.61065,-0.1972136,0.7578353,19
19.34,8.794781,1.331732,-18.75624,-0.5810947062455605,-0.0265861609578794,-2.629589379551274,29.78127,78.51788,183.9092,0.6044323,-0.2197176,0.753403,19
19.36,8.904919,1.521224,-18.73562,-0.6423307025465252,-0.093728679750023,-2.637299678565197,33.27218,78.3746,183.8302,0.5976559,-0.2420084,0.748272,19
19.38,9.014287,1.707628,-18.71505,-0.6760619876396379,-0.071168651902578,-2.6406493807541223,36.76191,78.21919,183.7368,0.5903268,-0.2640678,0.7424471,19
19.4,8.934367,1.118739,-18.72184,-0.7059553400817022,-0.0464802913189475,-2.642987709389965,37.38664,74.92474,183.0222,0.5692452,-0.269505,0.75676,19
19.42,9.042219,1.317415,-18.70209,-0.7322438520853995,-0.022960050174329,-2.644165205494819,40.80741,74.58537,182.6454,0.5613197,-0.2903894,0.750315,19
19.44,9.149858,1.513118,-18.68228,-0.7652700306027633,-0.1144022895153407,-2.6414770000666192,44.22527,74.19569,182.2192,0.5528928,-0.311007,0.7431976,19
19.46,9.183806,1.114353,-18.68898,-0.775804298192863,-0.0886829159217867,-2.6339195355822933,44.68631,78.29147,181.209,0.5807568,-0.3009686,0.7198099,19
19.48,9.290277,1.31472,-18.67452,-0.7817250037414469,-0.0611489076665905,-2.624758971896002,48.04832,77.93435,180.8557,0.5720183,-0.3208202,0.7120461,19
19.5,9.396646,1.512229,-18.65999,-0.7832481857284159,-0.0351608327882852,-2.61390263983219,51.40767,77.51858,180.4436,0.5627875,-0.3403883,0.7036679,19
19.52,9.502744,1.706892,-18.64541,-0.7852623685287929,-0.1263872181052878,-2.6000776659584326,54.76385,77.02743,179.956,0.5530729,-0.3596559,0.6946828,19
19.54,9.651532,1.103274,-18.68593,-0.7637800650728745,-0.1005388003394674,-2.578975431805824,56.49399,83.89722,176.5126,0.5992985,-0.3339133,0.6452464,19
19.56,9.755932,1.298877,-18.68457,-0.7372181420330735,-0.0735031553700596,-2.555652042642234,59.7779,83.26875,175.8916,0.5889882,-0.3515585,0.6357069,19
19.58,9.859968,1.491803,-18.68315,-0.7057835455751513,-0.048610274305826,-2.530042943182901,63.05609,82.4883,175.118,0.5781867,-0.3688937,0.6256497,19
19.6,9.96349,1.682072,-18.68167,-0.6566669594162664,-0.0437403732951623,-2.5133142957321843,66.3271,81.49501,174.1311,0.5669054,-0.385911,0.6150802,19
19.62,10.13021,1.117529,-18.77955,-0.6040416686176422,-0.0366862080271228,-2.4934600715890385,61.86106,80.02451,167.4862,0.5911381,-0.3312218,0.6170574,19
19.64,10.2331,1.303622,-18.78814,-0.5481124807531146,-0.0307064858401686,-2.4704191235764776,64.98388,78.14674,165.4997,0.5800296,-0.3466054,0.6068506,19
19.66,10.33511,1.487104,-18.79657,-0.4758745873750005,-0.0965975442778243,-2.4527727844137286,68.07051,75.73133,162.9769,0.5684588,-0.3617055,0.5961593,19
19.68,10.4361,1.668038,-18.80486,-0.425565814007673,-0.0543805593583156,-2.436439661666832,71.10272,72.5206,159.6593,0.5564274,-0.3764956,0.5850019,19
19.7,10.64425,1.19498,-18.94703,-0.3742042393008156,-0.0120412223406591,-2.416804836391036,48.37089,90.29576,173.3046,0.6624722,-0.2506891,0.6253145,19
19.72,10.74881,1.371111,-18.96391,-0.3160850298070661,-0.0385363625742729,-2.4047810183610285,51.52788,89.55878,172.4729,0.6532423,-0.2662311,0.6177871,19
19.74,10.85195,1.544494,-18.98048,-0.2746806270595487,0.004792120588151,-2.39331078567242,54.67616,88.68684,171.508,0.643505,-0.2815599,0.6097789,19
19.76,10.98233,1.249837,-19.12598,-0.2328681257637455,0.0472620193198855,-2.3797763277149184,26.27628,100.3897,176.1377,0.7525963,-0.1202191,0.6171836,19
19.78,11.09929,1.41838,-19.15305,-0.1910020253330473,0.0858829992648253,-2.364088617310523,29.80019,100.1872,175.9193,0.7467036,-0.1384635,0.6125487,19
19.8,11.21425,1.583388,-19.17954,-0.1494109413817046,0.1026479960957495,-2.3461572265129704,33.32354,99.96004,175.6759,0.7401001,-0.1565684,0.6073334,19
19.82,11.32701,1.744992,-19.20543,-0.1244420695373769,0.0309127644343752,-2.322314382776834,36.84647,99.70318,175.4025,0.7327906,-0.1745174,0.6015425,19
19.84,11.38793,1.275547,-19.3308,-0.0964485019339167,0.0592030557136452,-2.288510028040967,358.4397,110.5398,178.2737,0.8215585,0.02013571,0.5697628,19
19.86,11.50477,1.441159,-19.36766,-0.070211889294939,0.0866901088450017,-2.2536297153380738,1.995372,110.4409,178.4309,0.8212877,0.001313295,0.5700845,19
19.88,11.61947,1.603099,-19.40372,-0.0488310849095396,0.0443987025199021,-2.218338107079582,5.55029,110.3516,178.5826,0.8202249,-0.01750456,0.5698554,19
19.9,11.73181,1.761517,-19.43892,-0.0246726717238647,0.0721031829051208,-2.177881675942441,9.104427,110.2712,178.7297,0.8183715,-0.0363001,0.5690764,19
19.92,11.73857,1.293739,-19.50724,-0.0032261840711247,0.0985222646762336,-2.136351668572772,352.8131,114.249,179.3145,0.8379824,0.03903532,0.5420537,19
19.94,11.85639,1.4552,-19.54781,0.0150185885786084,0.120924832203118,-2.093694515650164,356.3909,114.1222,179.6097,0.8387715,0.01997989,0.5435619,19
19.96,11.97183,1.61287,-19.58743,0.0106786230571844,0.1131603775166451,-2.041769282578588,359.9682,114.0141,179.8963,0.8387374,0.0009100232,0.5445357,19
19.98,11.96409,1.262113,-19.63659,0.002913884961428,0.1073149375186179,-1.9900800356984585,355.7214,116.5077,180.61,0.8498874,0.01511672,0.5256138,19
20.0,12.07791,1.425905,-19.67965,-0.0087078059055527,0.1006203705462162,-1.9386376307497648,359.2667,116.3947,180.9366,0.8498501,-0.003573492,0.5269225,19
20.02,12.18953,1.586081,-19.72175,-0.0364582504246091,0.0197606561624391,-1.8816168926965031,2.811571,116.3018,181.2563,0.8489924,-0.02225494,0.5277216,19
20.04,12.29875,1.742798,-19.76281,-0.0518515886448036,0.0382869148705487,-1.819381962178905,6.355862,116.2286,181.5718,0.8473163,-0.04090929,0.5280106,19
20.06,12.25553,1.237832,-19.79317,-0.0707051430750738,0.0571347326620379,-1.7583530237624865,6.119839,118.7886,182.6233,0.8586173,-0.04684415,0.5093194,19
20.08,12.36851,1.405088,-19.84122,-0.093464179401332,0.0735296610754971,-1.6985720482348885,9.737896,118.7373,182.9635,0.8559533,-0.06540105,0.5093929,19
20.1,12.47949,1.568657,-19.8883,-0.1205336546812581,0.0696815933732355,-1.6400782759564565,13.35566,118.7072,183.3041,0.852429,-0.08388545,0.5089538,19
20.12,12.44667,1.208753,-19.88921,-0.1623377350036463,0.0535103730530344,-1.5547721117020905,13.4225,119.9653,183.5704,0.8577024,-0.08522439,0.4997453,19
20.14,12.55593,1.383169,-19.94005,-0.2060815440790349,0.0410525127895636,-1.4728046713829754,17.02624,119.9477,183.8763,0.8532625,-0.102993,0.4989338,19
20.16,12.66363,1.554025,-19.99006,-0.2521462658282152,0.0293872163056027,-1.3942834234843131,20.62898,119.9502,184.1875,0.8479747,-0.1206537,0.4976251,19
20.18,12.76958,1.721443,-20.03913,-0.3238781543226041,-0.0621353485722445,-1.3050214141880168,24.23062,119.974,184.506,0.8418441,-0.1381823,0.4958224,19
20.2,12.87358,1.77889,-20.0872,-0.3632045155138526,-0.048451047132393,-1.2134956228310156,27.83106,120.0211,184.8359,0.8348783,-0.1555684,0.4935267,19
20.22,12.69117,1.16822,-20.01053,-0.4032591055531211,-0.0328217192081655,-1.126336979782244,20.14035,119.2574,184.0997,0.8457699,-0.1187353,0.5028903,19
20.24,12.79523,1.352839,-20.06248,-0.4444034218694099,-0.0182465413876994,-1.0437195452803447,23.69405,119.2225,184.2676,0.8397869,-0.1352157,0.5013394,19
20.26,12.89835,1.534129,-20.11386,-0.4878407086592049,-0.0318126035907213,-0.9444937100754696,27.24681,119.1984,184.4381,0.8329964,-0.1515608,0.4993053,19
20.28,13.00035,1.712169,-20.16459,-0.5300879580557827,-0.0406139081643558,-0.8508420964846284,30.79823,119.1854,184.6118,0.8254061,-0.1677479,0.4967923,19
20.3,12.88837,1.132762,-20.10509,-0.5714510511612239,-0.0478760541962064,-0.7630262677858259,28.02704,115.8377,183.9649,0.817139,-0.1569727,0.5221022,19
20.32,12.98819,1.32705,-20.15635,-0.6231145928723558,-0.1398652183324943,-0.6738357148070309,31.516,115.6885,183.8601,0.8094567,-0.1718976,0.5196733,19
20.34,13.08763,1.518231,-20.20731,-0.6353327235946322,-0.1174350496731387,-0.5854394188667649,35.00322,115.5253,183.7396,0.8010267,-0.186655,0.5167634,19
20.36,13.08742,1.11875,-20.20519,-0.644876115883612,-0.0926515758089042,-0.5037503510450567,37.37031,113.0905,183.0242,0.7854116,-0.1974059,0.5290934,19
20.38,13.18427,1.317431,-20.25621,-0.6520404166655056,-0.0687913795094342,-0.429089211887165,40.7852,112.7571,182.649,0.7758568,-0.2109291,0.5255697,19
20.4,13.28099,1.513149,-20.30707,-0.6571091205376334,-0.0641583216862336,-0.3617771808553978,44.19723,112.3739,182.2253,0.7656109,-0.2242595,0.5215763,19
20.42,13.37741,1.70592,-20.35767,-0.6526272113529918,-0.0720247380822995,-0.288216306207075,47.60595,111.9293,181.741,0.7546834,-0.2373854,0.5171171,19
20.44,13.40179,1.113742,-20.38988,-0.64373714047843,-0.0757607954687339,-0.2229816008404834,46.37212,112.863,180.3824,0.7651959,-0.2202549,0.509366,19
20.46,13.49624,1.314205,-20.44064,-0.6307179655455286,-0.0787775393190198,-0.1664598627157745,49.72031,112.4,179.8898,0.7542073,-0.2331445,0.5044113,19
20.48,13.59064,1.511822,-20.49129,-0.5990236352044467,-0.080936378046981,-0.1178975555998489,53.06457,111.8543,179.3151,0.7425717,-0.2458293,0.4990225,19
20.5,13.68487,1.706603,-20.54175,-0.5635627493671818,-0.0797200788613801,-0.0775641984491568,56.40393,111.2014,178.6336,0.7302998,-0.2582984,0.4932047,19
20.52,13.74569,1.10374,-20.58362,-0.5246177537254306,-0.0785143487509624,-0.0458298682485613,56.47565,110.4924,176.2296,0.7323113,-0.2457523,0.4891506,19
20.54,13.83738,1.299798,-20.634,-0.4824638362777129,-0.0806557910505327,-0.0230657934401641,59.74186,109.5823,175.2713,0.7197527,-0.2576805,0.4827495,19
20.56,13.9288,1.49316,-20.68416,-0.4232612757589695,-0.0751847506283862,-0.0132827463176128,62.99716,108.452,174.0934,0.7066003,-0.2693872,0.47595,19
20.58,14.01983,1.68385,-20.73401,-0.3626497918236193,-0.0674274922069412,-0.0100625616492266,66.23817,107.0129,172.6073,0.6928643,-0.2808666,0.4687563,19
20.6,14.23955,1.128706,-20.86037,-0.300928837032548,-0.0606407424297361,-0.0136714882186397,60.97248,100.0565,166.6948,0.6937231,-0.2472121,0.5048279,19
20.62,14.33087,1.312884,-20.9101,-0.2228176989627188,-0.125631044829479,-0.034090357347122,64.03049,97.8362,164.3005,0.6807191,-0.257824,0.4973936,19
20.64,14.42134,1.494414,-20.95928,-0.1538620698190209,-0.0810638229445267,-0.0465119344562747,67.03639,95.01766,161.3101,0.667171,-0.2682251,0.4895606,19
20.66,14.60419,1.195243,-21.06899,-0.0854569503236275,-0.0365332774570822,-0.063731508783789,48.35994,106.524,173.1336,0.7444291,-0.2007879,0.5250402,19
20.68,14.69817,1.371671,-21.11798,-0.0178982298599503,0.004903160818386,-0.0859498845333903,51.49577,105.6474,172.1132,0.7340247,-0.2125254,0.5191817,19
20.7,14.79093,1.545345,-21.16623,0.0485366820492614,0.0251570804422158,-0.1133718745907526,54.61935,104.609,170.9336,0.7230496,-0.2240935,0.5129184,19
20.72,14.92413,1.250033,-21.29113,0.0909604969607378,0.0378899080082411,-0.1313532766715464,26.28598,113.4629,175.9978,0.8180664,-0.0962263,0.5272305,19
20.74,15.03014,1.418784,-21.34789,0.1330183720800439,0.051765161752919,-0.1538890056870503,29.80623,113.1959,175.6325,0.8115555,-0.1107396,0.523425,19
20.76,15.13438,1.583987,-21.40358,0.1742775719577549,0.0637208867657405,-0.1810310656954512,33.32512,112.8918,175.2332,0.8042715,-0.1251468,0.5191205,19
20.78,15.23666,1.745771,-21.45811,0.2046178215737994,0.0732362258210627,-0.193725456779322,36.84243,112.5436,174.7929,0.7962208,-0.139436,0.5143201,19
20.8,15.3368,1.797635,-21.51136,0.231915959725693,0.0840464535028814,-0.2091104547308644,40.35632,112.1427,174.3026,0.7874146,-0.1535881,0.5090309,19
20.82,15.32111,1.275676,-21.5379,0.255666538667072,0.0932731253134101,-0.2271505639959228,358.4539,120.4258,178.1802,0.8675825,0.020482,0.4968567,19
20.84,15.42856,1.441409,-21.59718,0.2753995136778511,0.0981012572128365,-0.2478203300016184,2.018026,120.3314,178.2466,0.8673659,0.004511083,0.4971242,19
20.86,15.53406,1.603457,-21.65525,0.2953551243159964,0.1021242361526494,-0.2569920552838174,5.581218,120.2409,178.3074,0.8663101,-0.0114598,0.4969099,19
20.88,15.61859,1.293816,-21.71727,0.3113641846737667,0.1068220586476342,-0.2666416344621711,352.8185,122.2833,179.2538,0.873881,0.03591941,0.4820456,19
20.9,15.7287,1.455354,-21.77579,0.3228764935288595,0.109386164144421,-0.2766775224027538,356.4027,122.1666,179.4911,0.8748164,0.01906203,0.4834167,19
20.92,15.83659,1.613096,-21.83299,0.3163367467500411,0.0345485369208171,-0.2819674009051329,359.9864,122.0651,179.7207,0.8748923,0.002190403,0.4843118,19
20.94,15.94207,1.767212,-21.88878,0.321172047241816,0.0519606366973281,-0.2831639911524002,3.569357,121.9778,179.9442,0.874109,-0.01467837,0.4847304,19
20.96,15.92166,1.254762,-21.89867,0.3208568949384518,0.0693636247973968,-0.2839711875202253,357.4018,123.1128,181.1363,0.8791243,0.002080786,0.4759502,19
20.98,16.02891,1.419163,-21.95595,0.314907918544514,0.0840711051399488,-0.284311942612288,0.9606823,123.0148,181.4176,0.8787311,-0.0148711,0.4770836,19
21.0,16.13413,1.579953,-22.01201,0.3209756749489214,0.1541076312654345,-0.2825453236317212,4.518979,122.9341,181.6936,0.8774852,-0.03180401,0.4777529,19
21.02,16.15307,1.237797,-22.02546,0.2917798607358417,0.1201468610022286,-0.2633715258978428,6.136406,123.6655,182.5803,0.8795179,-0.04508029,0.4723138,19
21.04,16.26126,1.404987,-22.0845,0.2596632810024708,0.0880676849521277,-0.2447788568079474,9.772199,123.6129,182.8775,0.8768668,-0.06227709,0.4724715,19
21.06,16.36753,1.568464,-22.14236,0.2242109724934677,0.0549908950915294,-0.2266863356769066,13.40718,123.579,183.175,0.8733281,-0.07940553,0.4721498,19
21.08,16.47168,1.728374,-22.19896,0.1846500161122732,0.0422336803637741,-0.1969229755602062,17.04195,123.5644,183.4751,0.8689052,-0.09645002,0.4713495,19
21.1,16.57351,1.778223,-22.25417,0.1427418955457695,0.0332287207872901,-0.1675704672082827,20.67572,123.5698,183.7808,0.8636042,-0.113392,0.4700716,19
21.12,16.41022,1.199686,-22.15891,0.0980890890315282,0.0250523721130164,-0.1385119205769109,14.75793,123.9348,183.6705,0.8729885,-0.08836254,0.4694732,19
21.14,16.51461,1.376147,-22.21789,0.0715655303364046,0.0928368903421094,-0.1164136784854252,18.36124,123.9198,183.9448,0.8682152,-0.1049457,0.4686397,19
21.16,16.61762,1.549081,-22.27598,0.0147863507051195,0.0552996904770643,-0.0763397547595068,21.96353,123.923,184.2244,0.8625804,-0.1214197,0.4673401,19
21.18,16.55636,1.168326,-22.23199,-0.0430459625090895,0.0215445142741205,-0.0371694448101544,20.13418,122.2313,184.0684,0.858575,-0.1149852,0.4807395,19
21.2,16.657,1.353038,-22.29006,-0.1022180716103626,-0.0115078767730946,0.0011843971417127,23.68475,122.189,184.2041,0.8525705,-0.130556,0.47935,19
21.22,16.75673,1.534428,-22.34751,-0.180292755435135,-0.1126719483772873,0.0508549244457472,27.23436,122.1549,184.3408,0.8457482,-0.1459964,0.4774995,19
21.24,16.85539,1.712574,-22.40423,-0.2165259001659394,-0.0951020448135447,0.0806077406754175,30.7826,122.1294,184.4795,0.8381163,-0.1612886,0.4751911,19
21.26,16.76877,1.132837,-22.33896,-0.2518263439739021,-0.074911560459568,0.1088041953865528,28.02135,118.1088,183.9412,0.8273681,-0.1530364,0.5057715,19
21.28,16.86613,1.327183,-22.39471,-0.2864837563171063,-0.0552578771586276,0.1355461171515517,31.5085,117.9519,183.8117,0.8196496,-0.1672885,0.5035011,19
21.3,16.96311,1.518422,-22.45016,-0.320773427145995,-0.0543253432998738,0.1609284652093419,34.99383,117.7791,183.6655,0.8111748,-0.1813805,0.5007643,19
21.32,16.98247,1.118798,-22.4524,-0.3493907711762412,-0.0662362598341312,0.1845058380808222,37.36219,114.9386,183.0081,0.7938896,-0.1931463,0.5163331,19
21.34,17.07742,1.317517,-22.5069,-0.3746281212961957,-0.073646502286134,0.2051146188332939,40.77565,114.5988,182.6155,0.7842891,-0.2061616,0.512965,19
21.36,17.17224,1.513271,-22.56123,-0.3967432959775956,-0.0799144600070915,0.2228462240897761,44.18606,114.2075,182.1729,0.7739902,-0.2189884,0.5091385,19
21.38,17.26677,1.706078,-22.6153,-0.4098704482131037,-0.0839633731222748,0.2337289282939436,47.59302,113.7525,181.6678,0.7630026,-0.2316156,0.5048574,19
21.4,17.36087,1.789303,-22.66904,-0.4189237524584488,-0.0838583095034075,0.2413901944205654,50.99586,113.2176,181.0838,0.7513364,-0.2440321,0.5001259,19
21.42,17.30917,1.113775,-22.65286,-0.4241446737510381,-0.0830102902069019,0.2459194848710306,46.36919,114.2906,180.3674,0.771519,-0.2160582,0.4997559,19
21.44,17.40215,1.314269,-22.70628,-0.4257711259451122,-0.0847810944432356,0.2473997516869919,49.71598,113.8196,179.8578,0.7604753,-0.2285615,0.4949396,19
21.46,17.49509,1.511916,-22.75958,-0.4049152608040773,-0.0877762384464988,0.2376271953337037,53.05864,113.2637,179.264,0.7487794,-0.2408639,0.4896975,19
21.48,17.61489,1.103766,-22.83279,-0.3808758614329663,-0.0877058364319982,0.2252722922248957,56.46558,111.7187,176.223,0.7375509,-0.2413164,0.4812877,19
21.5,17.70538,1.299849,-22.88532,-0.3538930460754756,-0.0879346808469948,0.210438123485372,59.73096,110.8024,175.2519,0.7249317,-0.2529463,0.4750158,19
21.52,17.79562,1.493234,-22.93762,-0.3048039010102261,-0.169046060003186,0.1820314986995446,62.98532,109.6639,174.0595,0.7117142,-0.2643597,0.4683515,19
21.54,17.88548,1.683946,-22.98962,-0.2491943037855128,-0.1333848989127768,0.1507881245048943,66.2251,108.2139,172.5561,0.6979089,-0.2755499,0.4612991,19
21.56,18.12038,1.128659,-23.12549,-0.1916902595490106,-0.0975161274268315,0.1180335423647918,60.97526,101.0061,166.6847,0.6978961,-0.243425,0.4990126,19
21.58,18.21076,1.312867,-23.17693,-0.1325250274918437,-0.0646338045571941,0.0838651729293302,64.03103,98.77775,164.2764,0.6848348,-0.2537962,0.4916818,19
21.6,18.30031,1.494428,-23.22781,-0.0719221231123379,-0.0529610485323064,0.0483679567314472,67.03421,95.94886,161.2697,0.6712264,-0.2639597,0.4839569,19
21.62,18.49903,1.195201,-23.34675,-0.0235408389530831,-0.0378556230268756,0.0172135754452305,48.37096,107.286,173.1211,0.747897,-0.1983594,0.5200114,19
21.64,18.59226,1.371647,-23.39718,0.0257297360198864,-0.0210277501196542,-0.0146207730381657,51.50571,106.4073,172.0922,0.7374628,-0.2098964,0.5142058,19
21.66,18.68428,1.545339,-23.44685,0.0756204820904726,-0.0055837784523551,-0.047045629744248,54.62804,105.3658,170.9034,0.7264556,-0.221266,0.5079994,19
21.68,18.77496,1.716362,-23.49569,0.1114054923447662,0.0108213581778136,-0.0773095747566725,57.73449,104.1164,169.5093,0.714886,-0.2324617,0.5013962,19
21.7,18.86416,1.778145,-23.54364,0.1476633882657028,0.0283119806552532,-0.1082354800256633,60.82048,102.5941,167.8445,0.7027618,-0.2434724,0.494403,19
21.72,18.9066,1.257269,-23.62777,0.184001467247767,0.0438213096863868,-0.1396740939041838,20.12497,115.7139,176.5667,0.8361084,-0.06794173,0.5191844,19
21.74,19.0117,1.42569,-23.68612,0.2137754320800033,0.1242991347961413,-0.159868607073403,23.63811,115.5296,176.3152,0.8310172,-0.08257607,0.5162477,19
21.76,19.11505,1.590559,-23.74339,0.2348443784948908,0.1118336538391355,-0.1791094309273146,27.15118,115.3225,176.0432,0.8251398,-0.09713335,0.5128223,19
21.78,19.17834,1.275703,-23.80144,0.2537347164150088,0.0996169867698018,-0.1971439122737837,358.4627,120.9976,178.177,0.8700517,0.02044958,0.4925212,19
21.8,19.28503,1.441483,-23.86184,0.2700239587030406,0.0847586916598789,-0.2137823836594505,2.02324,120.9076,178.2411,0.869854,0.004645684,0.4927544,19
21.82,19.38979,1.603586,-23.92102,0.284189340689529,0.014400857475546,-0.2310038351021486,5.582831,120.8214,178.2998,0.8688165,-0.01115822,0.4925112,19
21.84,19.49243,1.762162,-23.97888,0.3133221237565298,0.0432549374295147,-0.2505334031360613,9.14146,120.7382,178.3536,0.8669409,-0.02694683,0.4917921,19
21.86,19.57334,1.296059,-24.04171,0.3392320080059323,0.0707752339194725,-0.2673612729589725,353.4516,122.9367,179.4708,0.8769839,0.03133082,0.4770915,19
21.88,19.68286,1.457064,-24.10114,0.3614167370441956,0.0942375925768133,-0.2812816601433368,357.0291,122.8262,179.7185,0.8777644,0.01456037,0.4783845,19
21.9,19.79016,1.614278,-24.15923,0.3822398910328943,0.1661354931892633,-0.2913247335540436,0.6060224,122.7315,179.9589,0.8776853,-0.002219444,0.4792083,19
21.92,19.80275,1.254828,-24.1801,0.3674758969293101,0.1328219032351784,-0.284004474400755,357.3954,123.4974,181.1233,0.8807157,0.002124891,0.4729986,19
21.94,19.90933,1.419281,-24.23842,0.3496429899949764,0.1008099889083928,-0.2745732257362099,0.9521523,123.4039,181.3934,0.8803502,-0.0146446,0.474096,19
21.96,20.0139,1.580128,-24.29551,0.3283389338326317,0.0673048687790191,-0.2628795512287922,4.508312,123.327,181.6584,0.879132,-0.03139523,0.4747331,19
21.98,20.11625,1.737526,-24.35127,0.304547907385599,0.0580438479025159,-0.2458495766722479,8.063754,123.2663,181.9204,0.8770629,-0.04811063,0.4749096,19
22.0,20.2162,1.784978,-24.40561,0.2785921473321284,0.0514608632191238,-0.2273578245843888,11.61843,123.2216,182.1813,0.8741457,-0.06477468,0.474626,19
22.02,20.10633,1.232195,-24.3458,0.2500452880773767,0.0446909798915563,-0.2072202528603521,8.213486,124.0046,182.8755,0.8795787,-0.05570578,0.4696701,19
22.04,20.21343,1.40099,-24.40554,0.2311217472366977,0.109860497957014,-0.1914701581478533,11.84113,123.9657,183.1637,0.8764258,-0.0726746,0.4695663,19
22.06,20.31871,1.566108,-24.46416,0.1808361361512953,0.0735109148547848,-0.1567444045901611,15.46786,123.9451,183.4537,0.8723903,-0.08956487,0.4689886,19
22.08,20.26016,1.199753,-24.42573,0.128623465426767,0.0404551357474614,-0.1210395319898172,14.74993,124.2731,183.6631,0.8743854,-0.08798346,0.4668895,19
22.1,20.3639,1.376281,-24.48543,0.0741706226553233,0.0077428042915851,-0.0842089128913468,18.34688,124.2604,183.9303,0.8696373,-0.1044071,0.4660466,19
22.12,20.46628,1.549293,-24.54424,-0.0017531938839714,-0.0900262607645514,-0.0335583849601901,21.94281,124.2655,184.2027,0.8640294,-0.1207226,0.4647419,19
22.14,20.5671,1.718904,-24.60205,-0.0398073116886807,-0.0751561453121139,-0.0048747430380249,25.53746,124.2895,184.4827,0.8575684,-0.1369104,0.4629779,19
22.16,20.47074,1.160875,-24.53433,-0.0783262960828512,-0.0579562811223824,0.0239314014256986,21.56576,121.8136,184.1036,0.8545935,-0.1216434,0.4831938,19
22.18,20.5705,1.34766,-24.59268,-0.1176162941860607,-0.0414399744660164,0.0530202946096776,25.11096,121.7599,184.1916,0.8482717,-0.1369018,0.481631,19
22.2,20.66949,1.531156,-24.65047,-0.1335552150341796,0.0389043833849608,0.067371679776766,28.65519,121.7108,184.2786,0.8411394,-0.1520244,0.4796068,19
22.22,20.64514,1.132864,-24.62232,-0.183428458783474,-0.0012994416805844,0.1041052389121932,28.00929,118.3927,183.9404,0.8286436,-0.1525068,0.5037283,19
22.24,20.74201,1.327231,-24.67847,-0.231290105884804,-0.0375068712185143,0.1394860585476056,31.48854,118.2401,183.8107,0.8209581,-0.1666524,0.5014554,19
22.26,20.8385,1.518502,-24.73431,-0.2773575564334161,-0.0729643404662952,0.17362421850869,34.96626,118.0717,183.6643,0.8125181,-0.1806392,0.4987202,19
22.28,20.93447,1.706713,-24.78976,-0.307681492025178,-0.0809892533230873,0.1964330545036672,38.44255,117.8843,183.4982,0.8033313,-0.1944551,0.4955253,19
22.3,21.02975,1.785247,-24.84472,-0.3345114882743791,-0.0845124990514292,0.2167385505015691,41.9174,117.6736,183.3082,0.7934068,-0.2080879,0.491874,19
22.32,20.93782,1.117165,-24.78665,-0.3580869668959283,-0.0868920358057904,0.2346662024900676,39.60519,115.2354,182.6902,0.7900769,-0.2000408,0.5104723,19
22.34,21.0322,1.316488,-24.84148,-0.3670777746003617,-0.0032581326382023,0.2424102792964109,43.01035,114.8802,182.2853,0.7800653,-0.2128871,0.5067769,19
22.36,21.12649,1.512863,-24.89616,-0.381681952608127,-0.0327281361491182,0.2516534480450301,46.41242,114.4688,181.8253,0.7693624,-0.2255401,0.5026311,19
22.38,21.15864,1.113767,-24.92339,-0.3925077539204173,-0.0592529952883741,0.2581991568706363,46.35735,114.6258,180.3748,0.772998,-0.2150934,0.4975398,19
22.4,21.2512,1.314259,-24.97717,-0.3997618728217715,-0.0862524086791709,0.2621478327204931,49.6984,114.1638,179.8713,0.7619854,-0.2275151,0.4927302,19
22.42,21.34373,1.511915,-25.03084,-0.3912499042634048,-0.1864233923680615,0.2557349055911668,53.0354,113.6182,179.2852,0.7503218,-0.2397376,0.4874984,19
22.44,21.43607,1.706743,-25.08432,-0.3588188182079284,-0.1580663599200999,0.2369951918139663,56.36749,112.9645,178.5916,0.7380175,-0.2517506,0.4818492,19
22.46,21.58736,1.102163,-25.17696,-0.3231419883890356,-0.1287743262906921,0.2158943532892188,59.63513,110.4726,174.1057,0.7263879,-0.246502,0.4730508,19
22.48,21.67732,1.295848,-25.22979,-0.2844474573140263,-0.1018510709154689,0.1925515701245408,62.87863,109.2742,172.8389,0.713276,-0.2578329,0.46626,19
22.5,21.7669,1.486859,-25.28231,-0.2470146055194342,-0.0051754150003621,0.1700951203105476,66.10545,107.7488,171.246,0.6995776,-0.268944,0.4590856,19
22.52,21.99321,1.12863,-25.41361,-0.1953414430575795,-0.0239395176527748,0.1390781299764474,60.97466,101.2993,166.7119,0.699115,-0.2424292,0.4973346,19
22.54,22.08336,1.312847,-25.46507,-0.1413527480715637,-0.042136467473399,0.1065571839926469,64.02926,99.10449,164.3365,0.6861066,-0.2527936,0.4899827,19
22.56,22.17268,1.494424,-25.51598,-0.0852721774217264,-0.0630195360486749,0.0726358963756368,67.03275,96.31774,161.3713,0.6725518,-0.2629519,0.4822395,19
22.58,22.26104,1.673425,-25.56625,-0.0393321213944415,-0.0447718778162623,0.0419085052470036,69.96239,92.69254,157.5696,0.6584644,-0.2728966,0.4741118,19
22.6,22.34831,1.743254,-25.61582,0.0073957644152713,-0.0248253795399339,0.0107726972058883,72.78131,87.8402,152.5423,0.643854,-0.28262,0.4656061,19
22.62,22.47634,1.21179,-25.70663,0.0546368634537524,-0.0062889958901478,-0.0206670989724537,43.1493,109.1287,173.9286,0.7679111,-0.1727715,0.5225455,19
