t,pX,pY,pZ,aX,aY,aZ,reX,reY,reZ,rtX,rtY,rtZ,ID
7.18,-41.34165,1.103142,-38.91783,1.909355422985663,-0.09651924878405,0.8131876465844909,12.11248,357.6777,164.7896,-0.006013439,-0.1072219,0.9857519,20
7.2,-41.38166,1.302233,-39.00745,1.962368807133907,-0.1230340794504431,0.8690972969441733,9.489589,358.9583,166.0323,0.001065297,-0.08320202,0.9892294,20
7.22,-41.46065,1.493613,-39.14329,2.0120125433521734,-0.1226355170071057,0.9243963014305968,5.689781,359.2723,168.334,-0.001265277,-0.05001887,0.9936083,20
7.24,-41.60336,1.153835,-39.32499,2.0747257681298352,-0.1666623381643811,0.986688461257641,14.00718,5.27521,164.4411,0.06174208,-0.1144987,0.9816023,20
7.26,-41.62416,1.351586,-39.3344,2.1340152427654973,-0.1833628239182677,1.04866770744038,13.74649,4.969812,165.0235,0.05825897,-0.1129314,0.9827446,20
7.28,-41.6449,1.549225,-39.34393,2.189668028203913,-0.1744690348820259,1.1100489763497157,13.48472,4.662325,165.6062,0.054772,-0.111323,0.9838465,20
7.3,-41.66557,1.746749,-39.35355,2.2414825183336857,-0.1416677510414778,1.1705580129758042,13.22209,4.352867,166.1896,0.05128226,-0.1096756,0.9849082,20
7.32,-41.49402,1.164247,-39.18917,2.2900220541833267,-0.1834037711597687,1.22413412044377,18.30428,11.25862,167.414,0.1136103,-0.1467205,0.974878,20
7.34,-41.50544,1.356614,-39.15184,2.3361189217227327,-0.1984504495569067,1.2776776658320277,19.40662,10.98356,167.9346,0.1114436,-0.1569296,0.9740407,20
7.36,-41.51693,1.548601,-39.11471,2.37948180741163,-0.1885662111901803,1.3308637771330432,20.5139,10.7175,168.4526,0.1092677,-0.1671402,0.9730755,20
7.38,-41.29431,1.196159,-39.01807,2.421648204805232,-0.2278273438711251,1.3826058822401697,9.462352,22.18068,171.0164,0.1974512,-0.06567854,0.973735,20
7.4,-41.2761,1.383838,-38.95965,2.461609404808711,-0.2408878850765905,1.4342135418639463,11.33559,21.75053,171.0822,0.194721,-0.08209674,0.972833,20
7.42,-41.25822,1.570591,-38.90157,2.499030341933838,-0.2295155521265608,1.4853341436442715,13.21163,21.31962,171.1323,0.1919392,-0.09850914,0.9716519,20
7.44,-40.98405,1.228824,-38.78021,2.537345852525446,-0.2661060634335477,1.537234479023315,0.5834463,32.60658,175.4984,0.2806936,0.006141769,0.9589802,20
7.46,-40.93182,1.398165,-38.67804,2.5738608318360514,-0.2773946172460972,1.58951812714826,4.006426,32.17382,175.6987,0.2779911,-0.0231709,0.9592155,20
7.48,-40.91079,1.583785,-38.63189,2.608160795527426,-0.2651727179859255,1.641734830543328,5.449963,32.27077,175.927,0.2790413,-0.03577582,0.9584461,20
7.5,-40.91057,1.774902,-38.60154,2.6398400271285007,-0.2311635854050493,1.6934425829862318,6.227234,32.02137,176.321,0.2769435,-0.04334174,0.9588161,20
7.52,-40.69914,1.285695,-38.64485,2.6487244818218123,-0.2754482205790199,1.7279416776700636,352.4002,40.94498,179.941,0.3489567,0.06226633,0.9347926,20
7.54,-40.68016,1.475826,-38.6115,2.6573962382036083,-0.2938722905416996,1.7634361505896736,353.4077,40.92545,180.1539,0.3490917,0.05340037,0.9353222,20
7.56,-40.6626,1.664749,-38.57606,2.665377744806589,-0.2882943626746703,1.7994375200013015,354.4952,40.7836,180.4075,0.3481938,0.04377275,0.9361852,20
7.58,-40.55545,1.268029,-38.63736,2.656154641742429,-0.3320367749227511,1.8248189162220347,358.9292,47.11561,181.3129,0.3997285,0.003985865,0.9165143,20
7.6,-40.5351,1.461372,-38.61691,2.647674139494561,-0.3493810335633495,1.8513706753385504,359.7317,47.02934,181.3164,0.3989812,-0.002436754,0.9168843,20
7.62,-40.51549,1.654923,-38.59828,2.639445287197581,-0.3422414318818806,1.8786027991791432,0.490462,46.98011,181.3116,0.3985153,-0.008487269,0.9170805,20
7.64,-40.45874,1.245613,-38.64324,2.6092826087366845,-0.386153416169973,1.89236936487056,7.756841,51.44205,182.7888,0.4313846,-0.07145643,0.8993027,20
7.66,-40.4342,1.440922,-38.62993,2.580257846751598,-0.4021685934729707,1.9065737738894155,8.507247,51.37446,182.6242,0.4306204,-0.07672198,0.8991919,20
7.68,-40.41271,1.636375,-38.61732,2.5519215876545367,-0.3922226746092389,1.9208074002788853,9.20578,51.19979,182.4808,0.4290229,-0.08167785,0.8994647,20
7.7,-40.39136,1.831695,-38.60477,2.5238850115811786,-0.3581875491663704,1.9346833201381148,9.902637,51.0222,182.3362,0.4274017,-0.0866252,0.8997051,20
7.72,-40.39806,1.205133,-38.66898,2.462353208486519,-0.4029407532417767,1.926907472878956,13.44111,54.90314,183.2757,0.4546759,-0.1168932,0.8824854,20
7.74,-40.37038,1.402188,-38.65928,2.4031411907684657,-0.4181995257780824,1.919929349881027,14.22722,54.67527,182.9876,0.4526757,-0.1218486,0.8826612,20
7.76,-40.34471,1.59914,-38.65002,2.3459464310297573,-0.4059747698073406,1.9134191169045327,14.9863,54.36704,182.7149,0.4500657,-0.1267015,0.8831155,20
7.78,-40.35717,1.169167,-38.68708,2.2646182602344007,-0.4486826499899911,1.892027173883836,18.975,54.75421,183.6589,0.4486511,-0.1607761,0.8778264,20
7.8,-40.32819,1.368147,-38.68079,2.1863276361976407,-0.4603764664590184,1.8716140080669748,19.74862,54.37593,183.2415,0.4456482,-0.165211,0.8782012,20
7.82,-40.3005,1.567055,-38.6755,2.110871256464887,-0.4431202544586071,1.851915698430199,20.47992,53.96546,182.8154,0.4424684,-0.1693407,0.8786661,20
7.84,-40.31374,1.135727,-38.69151,2.0186807530056248,-0.4814491407167367,1.8223942085884337,25.45043,52.6001,183.6636,0.4256559,-0.2111882,0.8771393,20
7.86,-40.28424,1.336119,-38.68321,1.929946929309145,-0.4876025134497847,1.793852530891253,26.31249,52.10907,183.2567,0.4217149,-0.2165481,0.8772842,20
7.88,-40.25472,1.536284,-38.67477,1.8445578721281024,-0.4636804737015487,1.7660856699676053,27.17667,51.60941,182.842,0.4177448,-0.2219442,0.8773502,20
7.9,-40.22518,1.736219,-38.66619,1.7623986636315934,-0.4117200245441252,1.738883821570302,28.04292,51.10058,182.4189,0.4137454,-0.2273753,0.8773366,20
7.92,-40.22861,1.118024,-38.64903,1.6622274117833813,-0.4438559051510346,1.6971338807281136,35.1884,49.52605,183.192,0.3914726,-0.2854926,0.8687614,20
7.94,-40.19722,1.318732,-38.62826,1.566320689757676,-0.443118310003741,1.6564682244994549,36.35538,49.11116,183.0161,0.3872315,-0.2940433,0.8672785,20
7.96,-40.16583,1.519108,-38.6074,1.4694283220514306,-0.4679861267397279,1.613613875957772,37.52349,48.68521,182.8262,0.3829446,-0.3025752,0.8656924,20
7.98,-40.10772,1.113031,-38.58111,1.376787537127707,-0.4598524752820622,1.5717217687002192,42.93423,49.10762,181.3348,0.3828167,-0.3373554,0.8481866,20
8.0,-40.06691,1.314353,-38.55147,1.2883983067140423,-0.4208190672582212,1.5306666646175398,44.51392,48.66906,181.1505,0.3778785,-0.3489216,0.8447938,20
8.02,-40.02612,1.515066,-38.5217,1.2042569939534538,-0.3529275131113719,1.490321322544793,46.09559,48.21061,180.9429,0.3728614,-0.3604391,0.8412231,20
8.04,-39.91449,1.107021,-38.4461,1.1306579575791904,-0.3707306559042354,1.4565538958306543,51.99947,46.53207,177.9266,0.3622537,-0.3962299,0.8224386,20
8.06,-39.86429,1.307125,-38.40981,1.0607935262474264,-0.3561940568702597,1.422781685085888,53.93514,45.86469,177.4793,0.3563778,-0.4099054,0.8167377,20
8.08,-39.81416,1.5063,-38.37341,0.9946989676196444,-0.3113423530819479,1.3889134690238505,55.86941,45.13691,176.9686,0.3503925,-0.4234709,0.8107855,20
8.1,-39.76506,1.704828,-38.34007,0.9356017400784804,-0.3168357265483645,1.3588553726945038,57.69501,44.41038,176.3069,0.3452487,-0.4357991,0.80465,20
8.12,-39.59475,1.112648,-38.21464,0.8801649762421668,-0.2910484788344439,1.328507648887241,61.55893,37.45306,168.4014,0.323388,-0.4542933,0.7928966,20
8.14,-39.54081,1.306707,-38.17748,0.8284392836843235,-0.2359336867727112,1.29777847916848,63.48824,36.14074,166.9755,0.3188088,-0.4670317,0.7847356,20
8.16,-39.48777,1.499777,-38.14065,0.7913881528145312,-0.2227756629749008,1.2768138501527329,65.3868,34.60925,165.3628,0.3139807,-0.4796052,0.7764682,20
8.18,-39.30783,1.16883,-38.00532,0.757889224680711,-0.179920304509297,1.2553362409411966,54.59152,35.99429,169.3248,0.3139477,-0.4087138,0.8283261,20
8.2,-39.25332,1.357044,-37.96529,0.7279950096737906,-0.1092539889342796,1.2332342009256525,56.53376,35.1026,168.2072,0.3105797,-0.4218589,0.8206362,20
8.22,-39.19915,1.544146,-37.92554,0.7176667329854833,-0.1081073935208837,1.227990117693837,58.4652,34.08973,166.9707,0.3071119,-0.4348696,0.8126857,20
8.24,-39.02797,1.237513,-37.83077,0.7244175982490209,-0.1092199385275247,1.2443012128238582,36.62941,44.68921,174.9446,0.3733852,-0.2744412,0.8719394,20
8.26,-38.96579,1.419522,-37.7832,0.7584756608228282,-0.0365325071630283,1.29007180244707,38.89535,44.47789,174.5505,0.3711235,-0.2908656,0.8658266,20
8.28,-38.90419,1.600036,-37.73611,0.802804355257134,0.0304224718014602,1.340916218984673,41.16018,44.23868,174.132,0.3687134,-0.3071751,0.8593685,20
8.3,-38.8432,1.779065,-37.68951,0.8476878516021689,-0.0013309233267453,1.3869114121647377,43.42575,43.96763,173.6847,0.3661534,-0.3233779,0.8525614,20
8.32,-38.77752,1.271831,-37.68442,0.9054065166725636,-0.0390195997900522,1.4397080199237466,12.84767,51.4006,177.2068,0.4332702,-0.09028099,0.8939688,20
8.34,-38.70504,1.449425,-37.6317,0.9473083316398564,0.0306453379772849,1.4731685867114228,15.42605,51.40335,177.0954,0.4326887,-0.1100023,0.8911502,20
8.36,-38.63338,1.625031,-37.57961,0.9965034630318944,0.0277311176003635,1.503306208983079,18.00712,51.40076,176.9825,0.4318861,-0.1296878,0.8878762,20
8.38,-38.54974,1.286735,-37.53364,1.0570119504883184,0.02072722457828,1.5321914518762974,353.5903,56.09528,178.3787,0.4687251,0.05597734,0.8814605,20
8.4,-38.4715,1.460509,-37.47727,1.093801186522108,0.0876794246240988,1.5504126440697164,356.3539,56.11647,178.4774,0.4697162,0.03431829,0.8821443,20
8.42,-38.39432,1.631982,-37.42169,1.1311514229735362,0.0806380083179927,1.5604610361162423,359.1193,56.14237,178.5771,0.4704338,0.01262335,0.8823144,20
8.44,-38.29169,1.30118,-37.35556,1.1741755789013784,0.0699166340674886,1.5650390441740225,352.972,57.20383,179.4713,0.4775679,0.0560164,0.8764426,20
8.46,-38.20554,1.468167,-37.29008,1.1842716064938408,0.13123278284399,1.5539613718722585,356.0548,57.20969,179.7213,0.4784076,0.03138357,0.8774599,20
8.48,-38.12085,1.63226,-37.22575,1.1923213120925666,0.189058683538002,1.528854103863857,359.1395,57.22897,179.9711,0.4788986,0.006713001,0.8778382,20
8.5,-38.03775,1.793566,-37.16266,1.181037920475294,0.144611066446193,1.4800553213585763,2.225204,57.26167,180.2223,0.4790401,-0.01797263,0.8775764,20
8.52,-38.09628,1.255932,-37.21597,1.1772492329257886,0.0948067478647056,1.4282045063512694,357.3039,57.62562,181.1379,0.4819972,0.01582794,0.8758008,20
8.54,-38.00258,1.421995,-37.14583,1.1492667350757657,0.138043913014689,1.3839060376694547,0.7188082,57.65053,181.4125,0.4820262,-0.0114378,0.8760478,20
8.56,-37.91057,1.584689,-37.077,1.10760196951298,0.1038677965166872,1.325328559419073,4.134383,57.69188,181.6894,0.4816241,-0.03870004,0.8755116,20
8.58,-37.93391,1.238073,-37.0849,1.0706891797188334,0.0662689404860234,1.2635976741660755,6.15301,57.97049,182.5891,0.4827019,-0.05786697,0.8738486,20
8.6,-37.83585,1.405712,-37.0121,1.0249350446251455,0.1094372392405151,1.2127806193023591,9.747306,58.04153,182.8888,0.4813464,-0.08645236,0.8720445,20
8.62,-37.73951,1.569704,-36.94062,0.9628963638866654,0.0717941531157958,1.148443131298829,13.34029,58.13274,183.1968,0.4795144,-0.1149449,0.8693777,20
8.64,-37.79858,1.208828,-36.96723,0.9057017814929572,0.0314991639081358,1.0841802344209244,13.43388,58.05524,183.5326,0.4785194,-0.1170771,0.8697211,20
8.66,-37.70235,1.384218,-36.89948,0.8476765889108666,0.0752389296037245,1.029328256647461,16.93867,58.27537,183.7773,0.4770989,-0.1444446,0.8658212,20
8.68,-37.60782,1.55631,-36.83292,0.7932238952119874,0.1139228886049928,0.9755042594561684,20.42879,58.50617,184.0427,0.4751671,-0.1715834,0.8611644,20
8.7,-37.51478,1.725145,-36.76755,0.7121205584362915,0.0426436651086855,0.9023404559255904,23.91578,58.75841,184.3304,0.4727781,-0.1985499,0.8557146,20
8.72,-37.65975,1.175801,-36.85142,0.6370996591447406,-0.0316660816855275,0.8316267614835997,18.72596,57.2383,184.0501,0.4672625,-0.1594226,0.868341,20
8.74,-37.5647,1.358739,-36.78412,0.5723381204551865,0.0104437051355318,0.7748251232957877,22.25134,57.45039,184.2465,0.4649838,-0.1865701,0.8632993,20
8.76,-37.47055,1.53834,-36.71762,0.4911610338716112,-0.0321864684757761,0.7082485478769733,25.77491,57.68163,184.4628,0.4622633,-0.2135322,0.8574394,20
8.78,-37.56032,1.145392,-36.7583,0.4167844442994086,-0.074769173348207,0.6461084986350416,24.61617,54.12471,184.0539,0.4375107,-0.205432,0.8729299,20
8.8,-37.46796,1.33633,-36.69189,0.354952478407216,-0.0271211161667023,0.5954141750621522,28.11283,54.27071,184.0609,0.4345015,-0.2316841,0.8666673,20
8.82,-37.37608,1.524072,-36.62598,0.2859289501263049,-0.0646738011610741,0.5422959234882985,31.6083,54.42235,184.0788,0.4310878,-0.2577124,0.8595991,20
8.84,-37.42181,1.124791,-36.63336,0.2245199614261688,-0.1013153623760206,0.4953359882029327,32.11644,50.15673,183.5347,0.3993984,-0.2629804,0.8735904,20
8.86,-37.33226,1.321865,-36.56754,0.1769507913167025,-0.0464050139454017,0.4578950976260953,35.55724,50.15959,183.2841,0.3955464,-0.288005,0.865819,20
8.88,-37.24288,1.515881,-36.50199,0.1372491224061764,0.0069757980649839,0.4266756050314875,38.99713,50.14311,183.0221,0.3913363,-0.3127622,0.8572657,20
8.9,-37.15381,1.706863,-36.43684,0.0891761606268586,-0.0551628372148788,0.3886280549880974,42.43587,50.10438,182.7449,0.3867724,-0.3372288,0.8479389,20
8.92,-37.21463,1.115558,-36.47762,0.05008353463095,-0.1175962637100134,0.3577948797230892,41.89408,48.94332,182.3611,0.3800804,-0.3332903,0.8528855,20
8.94,-37.12659,1.315492,-36.41327,0.0250388779665327,-0.0615401119212185,0.3330815643024403,45.27776,48.80553,181.9556,0.3752777,-0.3569904,0.843088,20
8.96,-37.07541,1.113725,-36.37117,0.0068224492419757,-0.0909234184129198,0.3122610310783216,46.39852,48.0915,180.3558,0.3733997,-0.360906,0.8398722,20
8.98,-36.98922,1.314182,-36.30729,-0.0020563432632103,-0.1189010484431986,0.297187164753959,49.72767,47.87773,179.8783,0.3685594,-0.3839034,0.8290803,20
9.0,-36.90303,1.511786,-36.24355,-0.0054616144014225,-0.0583877013060848,0.2871657942559693,53.05449,47.60165,179.3442,0.3634054,-0.4065666,0.8175847,20
9.02,-36.81697,1.706548,-36.18005,0.0141948366805326,-0.0831392436504969,0.2931653422404467,56.37846,47.24604,178.7357,0.3579426,-0.4288771,0.8053957,20
9.04,-36.6866,1.102149,-36.07447,0.0409007933984559,-0.1076253035643131,0.3028974048242316,59.72482,43.60857,174.0332,0.3457435,-0.444905,0.7944639,20
9.06,-36.60205,1.295735,-36.01244,0.0640858003628714,-0.0443288070957045,0.3095410577674391,62.96621,42.65552,172.787,0.3401508,-0.4660072,0.7808694,20
9.08,-36.51782,1.486615,-35.95078,0.0923865339199547,0.0171114868480255,0.3186442276504042,66.19437,41.40808,171.2505,0.3342779,-0.4867149,0.766634,20
9.1,-36.41145,1.118121,-35.86131,0.1333552821368684,-0.0269555728562324,0.3369161919113352,61.80666,35.68484,167.2241,0.3156636,-0.4566029,0.7941867,20
9.12,-36.32815,1.304476,-35.79907,0.1793861704912327,-0.0737082269051893,0.3581109590179379,64.89147,33.80789,164.9676,0.3104166,-0.4768126,0.7800952,20
9.14,-36.24547,1.488178,-35.73745,0.2122443375186717,-0.0082660879739905,0.3684031224433362,67.93537,31.36525,162.1501,0.3049211,-0.4966334,0.765381,20
9.16,-36.08635,1.17839,-35.60414,0.2599299530247876,-0.0117383788067294,0.3875286592117017,52.03529,37.89195,171.22,0.3226748,-0.3913333,0.8365792,20
9.18,-36.00254,1.356432,-35.53939,0.311042101361255,-0.0170458259420773,0.4086583604171192,55.14329,36.95176,169.8781,0.3185469,-0.4125078,0.8245261,20
9.2,-35.9197,1.531721,-35.47556,0.3463822327472874,0.0508030324446215,0.4169065321788991,58.23542,35.79322,168.3248,0.3141696,-0.4333532,0.8118294,20
9.22,-35.76791,1.239977,-35.38343,0.3912070587478684,0.0487582597777471,0.4258316442789001,31.91627,45.16245,175.3623,0.3791637,-0.2387117,0.882755,20
9.24,-35.67504,1.410258,-35.31136,0.4391140487615734,0.0441350876946908,0.4363172285311973,35.35058,45.04193,174.8926,0.3770742,-0.2639291,0.8740766,20
9.26,-35.5836,1.577152,-35.24059,0.4722442544149148,0.1073949110213991,0.4398833584166022,38.78345,44.87972,174.3921,0.3746406,-0.288903,0.8646033,20
9.28,-35.49374,1.740767,-35.17123,0.5056066423384049,0.166033846673962,0.4429008908951291,42.21563,44.66828,173.8519,0.3718639,-0.3136185,0.8543409,20
9.3,-35.47575,1.268196,-35.17357,0.5284064388800438,0.1273990400750828,0.435961486503519,8.061579,51.16809,177.5622,0.4320177,-0.05422289,0.8988724,20
9.32,-35.37846,1.435295,-35.09937,0.5528190106340682,0.0848209456579863,0.4294742946661056,11.6135,51.29837,177.5099,0.4325187,-0.08182544,0.8956724,20
9.34,-35.2828,1.598728,-35.02662,0.5777241516336096,0.137683815497227,0.4293662675869614,15.16452,51.4271,177.4653,0.4326029,-0.1093416,0.891612,20
9.36,-35.209,1.285431,-34.96595,0.6007804901057927,0.11965509692006,0.4281241399475961,353.2995,54.44885,178.7157,0.4560841,0.05708126,0.8879457,20
9.38,-35.11065,1.448912,-34.88992,0.6233733893157671,0.0987252976865664,0.4270103046919962,356.8764,54.57222,178.8957,0.4580092,0.02863748,0.8884775,20
9.4,-35.01413,1.608617,-34.81551,0.6431802914793989,0.1485011872686726,0.4265565594316465,0.4519045,54.7065,179.0831,0.4594851,0.0001737126,0.8881409,20
9.42,-34.95085,1.282605,-34.75866,0.6509149047465375,0.121878064105412,0.4179958904007153,353.7862,55.1637,179.7541,0.4622307,0.04903108,0.8850995,20
9.44,-34.85443,1.444667,-34.68109,0.6567145446762668,0.0934777141617926,0.4088681955067255,357.3467,55.27928,180.0491,0.4637935,0.02031162,0.8856409,20
9.46,-34.75987,1.60299,-34.60523,0.6562280034464303,0.1351973614834656,0.3972049737876304,0.9055732,55.41291,180.3508,0.4649038,-0.008419805,0.8853208,20
9.48,-34.66735,1.757738,-34.53122,0.6511617064112434,0.1733934010188874,0.3826271062349944,4.462655,55.56558,180.6617,0.4655609,-0.03713484,0.8841405,20
9.5,-34.72896,1.250367,-34.57925,0.6195597449586812,0.1126086850544287,0.3496041360339221,359.4258,55.71643,181.3749,0.4672989,-0.001176461,0.8840039,20
9.52,-34.63285,1.415132,-34.50307,0.5852949581144244,0.0506117358163849,0.3149838933129301,3.009573,55.86069,181.6773,0.4678466,-0.03005247,0.8832985,20
9.54,-34.53848,1.576222,-34.42849,0.5690016214706723,0.088826113165031,0.2957746839853392,6.591786,56.02457,181.9901,0.4679319,-0.0588919,0.8817227,20
9.56,-34.56273,1.231993,-34.43019,0.5288063894974044,0.0522277076077393,0.26235189339104,8.276086,55.94352,182.886,0.4660603,-0.07549044,0.8814495,20
9.58,-34.46582,1.400757,-34.3541,0.4858326912138517,0.0170459612206504,0.2272571123538167,11.90662,56.1344,183.191,0.4652396,-0.1045146,0.8786559,20
9.6,-34.3705,1.565807,-34.27945,0.4567498020567795,0.056237070051694,0.2015572645277679,15.53502,56.34813,183.5131,0.4639477,-0.1334245,0.8749747,20
9.62,-34.41505,1.199484,-34.29536,0.4031387619122117,0.0173325852285676,0.1612502820876216,14.7873,56.24776,183.6729,0.4635831,-0.1284142,0.8760924,20
9.64,-34.31982,1.376014,-34.22199,0.3467267429262115,-0.0187626236641092,0.1191072368293575,18.38356,56.4672,183.9616,0.4618495,-0.156792,0.8718054,20
9.66,-34.2258,1.548997,-34.14973,0.3102307755110498,0.0231847286953413,0.0894422466295834,21.97758,56.71109,184.2717,0.4596577,-0.1850056,0.8666557,20
9.68,-34.13314,1.718545,-34.07871,0.2472198065100954,-0.0144195320733971,0.0439226070014431,25.56907,56.98302,184.6069,0.4570101,-0.2130251,0.8606495,20
9.7,-34.25798,1.168124,-34.15287,0.1828535432132731,-0.0491825380998727,-0.0019260238353711,20.16893,54.65041,184.0766,0.4461299,-0.1715375,0.8769956,20
9.72,-34.1652,1.352847,-34.08213,0.1168396996815515,-0.084223407463793,-0.048233972163044,23.71639,54.84584,184.2343,0.4436804,-0.1989261,0.8715919,20
9.74,-34.0732,1.534217,-34.01215,0.0636457886285253,-0.0971856109656971,-0.0841086016020513,27.26223,55.0579,184.4102,0.4408045,-0.226115,0.8653529,20
9.76,-34.13586,1.138959,-34.03659,0.0106870353003145,-0.1059072321283844,-0.1191670192085307,26.32588,51.52593,183.9799,0.4158528,-0.2196581,0.8798463,20
9.78,-34.04612,1.331568,-33.96747,-0.0423249035292521,-0.1135995593279816,-0.1535438332463004,29.81804,51.64032,183.9339,0.4126884,-0.2459086,0.873196,20
9.8,-33.95678,1.521007,-33.8988,-0.0682340381320045,-0.0380205561678129,-0.171424845219593,33.30887,51.75564,183.8945,0.4091412,-0.2719202,0.8657368,20
9.82,-33.96613,1.121739,-33.88611,-0.1174090789941932,-0.0745884127250272,-0.2030636687250275,34.75923,48.24775,183.2642,0.3821291,-0.2836127,0.8741218,20
9.84,-33.87862,1.319592,-33.81842,-0.1645305310023794,-0.1082450815044123,-0.2327510652202837,38.18763,48.20568,182.9654,0.3780533,-0.3084816,0.8657629,20
9.86,-33.79124,1.514414,-33.75098,-0.189300159021724,-0.0547313767644341,-0.2497042108489262,41.61477,48.1375,182.648,0.3736376,-0.3330652,0.856627,20
9.88,-33.70412,1.706227,-33.68391,-0.2207795622447643,-0.0856894727168077,-0.2720473492175754,45.04065,48.03839,182.3065,0.368886,-0.3573426,0.8467231,20
9.9,-33.73269,1.114989,-33.71045,-0.2492386640087556,-0.1142641168745417,-0.2919399681197334,43.30057,47.959,181.7501,0.3725465,-0.3428272,0.8514239,20
9.92,-33.64634,1.315183,-33.64463,-0.2749192968921163,-0.1438576636935304,-0.3095085505062296,46.6718,47.81086,181.3497,0.3677889,-0.3664972,0.8412638,20
9.94,-33.56001,1.512456,-33.57898,-0.2754167238478704,-0.1457689322618491,-0.3081788881282286,50.04118,47.61586,180.9083,0.362711,-0.3898404,0.8303729,20
9.96,-33.49081,1.109913,-33.52633,-0.2724692589129396,-0.1447083895142565,-0.3040450966794563,50.71979,46.56691,178.7306,0.3615252,-0.3894413,0.8281176,20
9.98,-33.40583,1.309262,-33.46216,-0.2608009618719316,-0.0842547408941094,-0.293926280685894,54.02616,46.20969,178.1098,0.3564467,-0.4119389,0.8163909,20
10.0,-33.3209,1.505803,-33.39817,-0.2456058404180137,-0.0250170907441708,-0.2810600191882613,57.32882,45.7547,177.3963,0.3510679,-0.4340824,0.8039783,20
10.02,-33.12938,1.104465,-33.25379,-0.221045787039801,-0.0798305731775094,-0.259928589083513,61.24482,40.70967,171.1828,0.3351498,-0.4531489,0.790801,20
10.04,-33.04534,1.295537,-33.19197,-0.1938245917620755,-0.135656985002017,-0.2367003921918664,64.43337,39.36025,169.5159,0.3295901,-0.4738508,0.7768837,20
10.06,-32.96172,1.483935,-33.13062,-0.1708641258125989,-0.0763737609628779,-0.2178613592308971,67.59884,37.58889,167.4312,0.3237611,-0.4941555,0.7623366,20
10.08,-32.87867,1.669698,-33.0698,-0.1338049630145223,-0.0897984476062987,-0.1865083207289113,70.73091,35.19518,164.7277,0.3176682,-0.5140503,0.7471696,20
10.1,-32.74258,1.144423,-32.96193,-0.0955025356844325,-0.1035244780620008,-0.1537838049877646,58.36305,35.29544,167.8262,0.3124619,-0.433946,0.8116264,20
10.12,-32.65856,1.326304,-32.89922,-0.0595860759630708,-0.0372545564381976,-0.124068944009974,61.42955,33.67154,165.7953,0.3075352,-0.4543343,0.7982672,20
10.14,-32.57537,1.505489,-32.8373,-0.0115705756694999,-0.0384697708208585,-0.0879684019169353,64.46107,31.61892,163.3413,0.3023646,-0.4743553,0.7842771,20
10.16,-32.41059,1.21211,-32.72449,0.037464244431562,-0.0406466331101726,-0.0505051059014571,43.01617,42.87019,173.975,0.3574648,-0.3229336,0.8577765,20
10.18,-32.32267,1.386238,-32.65777,0.0756543138668286,0.0267021713876409,-0.0227410645059178,46.25919,42.4618,173.2043,0.3541351,-0.3457701,0.8472654,20
10.2,-32.23595,1.55738,-32.59213,0.1132186476845373,0.0912447880707847,0.0046646012462985,49.49684,41.96003,172.3486,0.3505135,-0.3683153,0.8360587,20
10.22,-32.09592,1.257268,-32.52597,0.1427744653451395,0.0604392853046298,0.0216662126009858,19.9859,49.61503,176.5908,0.4177086,-0.1451532,0.8913902,20
10.24,-31.99831,1.425438,-32.45395,0.1629190820340746,0.0972101736727368,0.0353070578391516,23.51844,49.66488,176.3667,0.4168088,-0.1718288,0.8853333,20
10.26,-31.9023,1.589988,-32.38332,0.1813682893191286,0.1328386551388172,0.047943310613463,27.05208,49.70035,176.1388,0.4155087,-0.1983463,0.8784297,20
10.28,-31.80807,1.751071,-32.31419,0.1944454893864038,0.0970930021040668,0.0560906116371136,30.58488,49.72061,175.9057,0.4138113,-0.2246673,0.8706895,20
10.3,-31.78992,1.275737,-32.31161,0.2062526869536278,0.0596933080798386,0.0635820129759623,358.367,54.904,178.1911,0.4607015,0.01992017,0.8873004,20
10.32,-31.69003,1.441397,-32.23945,0.2269426977022441,0.1126567987464374,0.080691235034672,1.931696,55.03665,178.2789,0.4621391,-0.008009451,0.8865202,20
10.34,-31.59191,1.603343,-32.16875,0.2446160669809152,0.0962931687226699,0.0962626165588784,5.495156,55.17519,178.3753,0.4631276,-0.03592319,0.8848813,20
10.36,-31.50182,1.293856,-32.1027,0.2596163831175855,0.0788081069098083,0.1109283872478585,352.8333,56.62349,179.2637,0.4729781,0.05806462,0.8788314,20
10.38,-31.40158,1.455342,-32.02782,0.2745346202297143,0.128347445109762,0.1259473785815958,356.4164,56.73144,179.5205,0.4747463,0.02950012,0.8795573,20
10.4,-31.3033,1.613006,-31.95463,0.2851799957324141,0.1742798068496489,0.1385640188863921,-0.00198355,56.8551,179.7835,0.4760464,0.0009147006,0.8794184,20
10.42,-31.27409,1.262008,-31.93189,0.2683218042022659,0.120319349724551,0.1303370788308719,355.7621,57.25604,180.5822,0.4789523,0.03002157,0.8770474,20
10.44,-31.17644,1.425838,-31.85853,0.2533671094180549,0.1380457914149803,0.1232100965723579,359.311,57.37469,180.884,0.4800475,0.001570984,0.877188,20
10.46,-31.08061,1.586026,-31.78675,0.2349555660935287,0.1551495948564318,0.1136873644590705,2.858271,57.51204,181.1935,0.4806775,-0.02687266,0.8764809,20
10.48,-30.98679,1.742727,-31.71665,0.1979068923512117,0.0983357035015616,0.0916635781284238,6.403764,57.66923,181.513,0.4808421,-0.05528279,0.8749275,20
10.5,-31.04757,1.24057,-31.75609,0.1586176498917995,0.0416577514402219,0.0680051834482804,4.014612,57.83635,182.075,0.482629,-0.03940468,0.8749374,20
10.52,-30.94827,1.406855,-31.68277,0.1395485713677207,0.0810691570867839,0.0604823672031531,7.637285,57.99931,182.3887,0.4824089,-0.06831884,0.8731643,20
10.54,-30.85073,1.569412,-31.61095,0.0983251557651629,0.0448101203321649,0.0390060670888559,11.25861,58.18403,182.716,0.4817015,-0.09716001,0.8705119,20
10.56,-30.89425,1.217274,-31.62335,0.0557174418241341,0.0105982328384462,0.0162883555689701,11.91362,57.88971,183.3625,0.4784828,-0.1048989,0.8714598,20
10.58,-30.79568,1.389669,-31.55158,0.0289089343028896,0.0507938647374443,0.0032974762411459,15.53165,58.09028,183.6569,0.4770318,-0.1334195,0.8678717,20
10.6,-30.69856,1.558421,-31.48104,0.0001458872386015,0.0895043619150912,-0.011445671688695,19.14755,58.31435,183.9704,0.4751017,-0.1617979,0.8634139,20
10.62,-30.74864,1.183063,-31.49761,-0.0625508975741007,0.0236538025587541,-0.0486570710125353,17.42697,57.47942,183.9209,0.4704595,-0.1490128,0.8686779,20
10.64,-30.6525,1.363714,-31.42848,-0.1047860337090664,0.0391266539558287,-0.0732066610372315,20.99945,57.68907,184.1618,0.468248,-0.1767406,0.8638896,20
10.66,-30.55739,1.540918,-31.36026,-0.1468490689674908,0.0556227709575921,-0.0981075714595087,24.56991,57.92062,184.4234,0.4655792,-0.2042873,0.8582593,20
10.68,-30.6325,1.160741,-31.39658,-0.2124676328227757,-0.010165685358057,-0.1372590717038155,21.58512,55.37278,184.0998,0.4501899,-0.1820338,0.8723964,20
10.7,-30.53871,1.34765,-31.32908,-0.2772066615514585,-0.0734674818712339,-0.1762320755147768,25.11237,55.54095,184.1963,0.4474399,-0.2088788,0.8667887,20
10.72,-30.44561,1.531266,-31.26223,-0.3088864620272651,-0.0299143860705057,-0.193578932130737,28.63828,55.72107,184.3075,0.4442655,-0.2355175,0.8603606,20
10.74,-30.49992,1.132702,-31.27528,-0.355807378847663,-0.0695423021745093,-0.2191718246581908,28.04963,51.8661,183.9428,0.416536,-0.2324063,0.8756276,20
10.76,-30.40942,1.327086,-31.20863,-0.4002953547726227,-0.105752332343717,-0.2434855398674882,31.52385,51.93942,183.8297,0.413035,-0.2581574,0.8687127,20
10.78,-30.31923,1.518347,-31.14234,-0.4195080313230068,-0.0557849479696432,-0.2526242824110833,34.99714,52.00725,183.7175,0.409154,-0.2836632,0.8610003,20
10.8,-30.2295,1.706521,-31.07655,-0.4353248977041004,-0.0064519113250281,-0.2600743143931519,38.46953,52.06939,183.6053,0.404897,-0.3089004,0.8524984,20
10.82,-30.31169,1.118711,-31.11648,-0.4670209428083591,-0.0711082583989152,-0.2799048377082407,37.42342,48.64713,183.0079,0.3823119,-0.3024682,0.8662414,20
10.84,-30.22333,1.317405,-31.05095,-0.4800014924338422,-0.046188435891251,-0.2893113223315984,40.8341,48.54208,182.6372,0.3778106,-0.326797,0.857416,20
10.86,-30.13505,1.513101,-30.98563,-0.4882307156988714,-0.0199277200995094,-0.2962817526698731,44.24317,48.40031,182.237,0.3729725,-0.350827,0.8478275,20
10.88,-30.11502,1.11452,-30.97414,-0.4985493189469898,-0.0795799477151916,-0.3053576088562932,44.70831,48.37256,181.1119,0.3755315,-0.3506046,0.845138,20
10.9,-30.02838,1.315028,-30.90952,-0.5044256901363262,-0.1381847948361133,-0.3121276984866288,48.06459,48.19244,180.6856,0.3706488,-0.3739884,0.8347108,20
10.92,-29.94175,1.512641,-30.84503,-0.4887618664724455,-0.0821356307820709,-0.3027517060616032,51.4188,47.95932,180.212,0.3654461,-0.3970416,0.8235646,20
10.94,-29.85368,1.107137,-30.77455,-0.4575222336570839,-0.1123824533512503,-0.2826367128375584,53.34038,46.08046,177.6636,0.3580852,-0.405833,0.81857,20
10.96,-29.76867,1.305496,-30.71145,-0.4222492029274183,-0.1415765818446255,-0.2605140682487263,56.62692,45.58721,176.9051,0.3527487,-0.4278857,0.8063568,20
10.98,-29.68378,1.501084,-30.64857,-0.3806239835808545,-0.0835370884892353,-0.2346118046928498,59.90773,44.95945,176.0167,0.3471183,-0.4495709,0.7934735,20
11.0,-29.59911,1.693918,-30.58599,-0.3351279933764726,-0.0270373533072635,-0.2067320932494176,63.18152,44.14921,174.95,0.3411981,-0.4708735,0.7799301,20
11.02,-29.47164,1.109138,-30.48372,-0.2796422189281022,-0.0787499503522346,-0.1711787615027771,62.66328,37.21806,167.8202,0.3233164,-0.4611068,0.7873423,20
11.04,-29.38766,1.297767,-30.42216,-0.2369797919201177,-0.0428058253286522,-0.1460874511153131,65.78262,35.34154,165.5954,0.3177491,-0.4813854,0.7731028,20
11.06,-29.30422,1.483736,-30.36115,-0.1922411504374745,-0.0065375168587418,-0.1199858578034995,68.8622,32.8721,162.7818,0.3119249,-0.501265,0.7582406,20
11.08,-29.13539,1.161832,-30.22351,-0.1350487150317669,-0.0406356641948915,-0.0848921656816048,55.75566,35.36363,168.7721,0.3107748,-0.4170971,0.8242546,20
11.1,-29.05138,1.341571,-30.15988,-0.0763875085342014,-0.0766149167175168,-0.0488660605011359,58.82274,33.96073,166.9541,0.3061121,-0.4377271,0.8114546,20
11.12,-28.9683,1.518584,-30.09708,-0.0245396844028409,-0.0113870365622811,-0.0192068669975182,61.86095,32.21522,164.7999,0.3012082,-0.4580056,0.7980168,20
11.14,-28.80466,1.228916,-29.99438,0.0367643623353513,-0.0142108463847248,0.0108442100690622,37.7619,44.04435,174.7452,0.3681685,-0.2834132,0.8706733,20
11.16,-28.71406,1.40079,-29.92481,0.0996994662397554,-0.0181186457597503,0.0419542713892764,41.1063,43.78272,174.1337,0.365327,-0.3074697,0.8609928,20
11.18,-28.62479,1.569468,-29.85643,0.1515267894632335,0.0442500167489901,0.0661125604334524,44.44733,43.45665,173.4671,0.3621681,-0.3312522,0.8505667,20
11.2,-28.53699,1.735047,-29.78935,0.2025463971349976,0.1034478912480334,0.089405098425142,47.78554,43.0524,172.7307,0.3586934,-0.3547502,0.8394002,20
11.22,-28.50099,1.263634,-29.79321,0.2398183756178187,0.0672552961461494,0.1004154404644515,13.85075,50.68951,177.1821,0.4274917,-0.09848943,0.8956145,20
11.24,-28.40346,1.431333,-29.72043,0.2694807210642373,0.0994444471571948,0.1113269610853726,17.38918,50.78163,177.0547,0.4272325,-0.125627,0.8910616,20
11.26,-28.30754,1.595394,-29.64904,0.2968284001496646,0.130430780199409,0.1208167635779209,20.92806,50.86712,176.9303,0.4265636,-0.1526456,0.8856571,20
11.28,-28.23652,1.27928,-29.60176,0.3189610600175956,0.091138113611219,0.1270769101522257,354.4224,55.24633,178.4148,0.4624646,0.04951086,0.8851941,20
11.3,-28.13712,1.444116,-29.52847,0.3389520796792098,0.0499809612883347,0.1324479424010789,357.9882,55.36302,178.557,0.464252,0.02139378,0.8854395,20
11.32,-28.0395,1.605222,-29.4567,0.3675036150154982,0.0990437310433224,0.1463923174210766,1.552705,55.48837,178.7064,0.4655876,-0.006736278,0.884826,20
11.34,-27.94384,1.296024,-29.3853,0.3827161556870107,0.0742040908257299,0.1524331071082625,353.469,56.30151,179.5015,0.4708042,0.05227364,0.8803864,20
11.36,-27.84468,1.456896,-29.30898,0.3947208384511089,0.0489842349737831,0.1574129249072817,357.0477,56.40352,179.788,0.4723783,0.02357707,0.8810177,20
11.38,-27.74748,1.613946,-29.23438,0.4040221069560461,0.0907459434690187,0.1615059998344237,0.6247551,56.52316,180.0804,0.4734872,-0.00513445,0.8807837,20
11.4,-27.65245,1.767347,-29.16164,0.4084581867718775,0.1296897982771144,0.1629023096538655,4.200161,56.66128,180.381,0.4741304,-0.03383271,0.8796855,20
11.42,-27.7209,1.254622,-29.21891,0.3856068299628319,0.0705711702521208,0.1448529655989388,357.435,57.00131,181.1512,0.4772228,0.01487645,0.87844,20
11.44,-27.62372,1.41903,-29.14532,0.3698103334085609,0.0870156230640492,0.1327434959426776,0.9905623,57.12243,181.4487,0.4779454,-0.01363549,0.8782561,20
11.46,-27.52835,1.57981,-29.07329,0.3506733831629467,0.1028990155723471,0.1188728253233279,4.544439,57.26228,181.7545,0.4782034,-0.04212591,0.8772207,20
11.48,-27.53948,1.237728,-29.0722,0.3074943348183647,0.0441910292397317,0.0909565088487225,6.181844,57.57444,182.5978,0.479663,-0.05814486,0.8755031,20
11.5,-27.44043,1.404905,-28.9982,0.2621253938694092,-0.013985191780429,0.0619858799183044,9.815553,57.74348,182.9153,0.4790189,-0.08713192,0.8732609,20
11.52,-27.34309,1.568345,-28.92565,0.2370880323377076,0.0237983873770294,0.0478963338991769,13.44722,57.93529,183.248,0.4778887,-0.1160225,0.8701344,20
11.54,-27.3849,1.20859,-28.93949,0.1867443549088485,-0.0159798179706339,0.0186073981523393,13.46155,57.8833,183.5525,0.4771734,-0.1174138,0.8704221,20
11.56,-27.28709,1.383027,-28.86803,0.1346922584941792,-0.0531203670341079,-0.0114946540288873,17.07026,58.08628,183.8505,0.4754613,-0.1458089,0.8665048,20
11.58,-27.19063,1.553866,-28.79773,0.1014672863681758,-0.0138918682276285,-0.0302152488182407,20.67677,58.31355,184.1686,0.4732743,-0.1740498,0.8617237,20
11.6,-27.0957,1.721228,-28.72871,0.0663599181213254,0.0241261176372059,-0.04988673395653,24.28082,58.56844,184.5102,0.4706145,-0.2021062,0.8560849,20
11.62,-27.22587,1.175672,-28.8057,0.0013173253411813,-0.0453564624597559,-0.0861992144335448,18.75113,57.02563,184.0625,0.4656089,-0.1597504,0.869184,20
11.64,-27.13047,1.358352,-28.73706,-0.0426419560809763,-0.0310409335339331,-0.1098117298827219,22.31099,57.22311,184.2721,0.463164,-0.1872399,0.8641542,20
11.66,-27.03598,1.537634,-28.66924,-0.0866821839187181,-0.0151578728406551,-0.1331738547874006,25.86905,57.44042,184.501,0.4602704,-0.2145398,0.8582892,20
11.68,-27.10784,1.145413,-28.69901,-0.131158283727462,-0.0007850547193231,-0.1564948125256706,24.61552,53.94833,184.0573,0.4361612,-0.2055416,0.8736053,20
11.7,-27.01556,1.336291,-28.63203,-0.1801809646934682,-0.0152898583693049,-0.1818400295145692,28.1223,54.07632,184.0672,0.4330063,-0.2319147,0.8673909,20
11.72,-26.92376,1.52396,-28.56555,-0.2272330910940194,-0.0256415125524291,-0.2055069598855015,31.62766,54.20951,184.0867,0.4294464,-0.2580603,0.8603665,20
11.74,-26.95361,1.124815,-28.56386,-0.2726145704184413,-0.0350984218355899,-0.2276771063690135,32.10321,50.10035,183.5388,0.3989759,-0.2629389,0.8738174,20
11.76,-26.86415,1.321867,-28.49785,-0.3078757995682051,-0.0433383093594655,-0.2448184330088358,35.54717,50.08521,183.2903,0.3949824,-0.2880188,0.8661045,20
11.78,-26.77486,1.51586,-28.4321,-0.3399393026061141,-0.0477015682438934,-0.259823785914234,38.99002,50.0501,183.0292,0.3906312,-0.3128301,0.8576085,20
11.8,-26.68591,1.706818,-28.36673,-0.3690822834376082,-0.0515483876774052,-0.2728764978101905,42.43171,49.99181,182.7514,0.3859265,-0.3373505,0.8483375,20
11.82,-26.73172,1.115558,-28.39992,-0.4008336790226461,-0.1419387876254562,-0.2879186896364998,41.88118,49.05979,182.3676,0.3809466,-0.3330839,0.8525418,20
11.84,-26.64363,1.315481,-28.33569,-0.4043578107048473,-0.1159913863462075,-0.2853461765313656,45.26596,48.90528,181.9656,0.3759981,-0.3568108,0.8428089,20
11.86,-26.55559,1.512459,-28.27162,-0.4040246111941266,-0.0887138460850426,-0.2802689380822269,48.64882,48.70474,181.5237,0.3707198,-0.380217,0.832338,20
11.88,-26.51421,1.112918,-28.2386,-0.4001014096221515,-0.0634560227298897,-0.2728691392788325,48.08772,47.8875,179.5437,0.3721064,-0.3708948,0.8339798,20
11.9,-26.42784,1.3133,-28.1753,-0.3865601937073015,-0.0671536344670782,-0.2575150627518328,51.41059,47.59541,179.0009,0.3670226,-0.3936787,0.8228697,20
11.92,-26.34149,1.51084,-28.11213,-0.3690621432169472,-0.0680956155869484,-0.2396968737370777,54.73053,47.2254,178.3853,0.3616271,-0.4161218,0.8110628,20
11.94,-26.1808,1.10215,-27.99374,-0.3478621765612497,-0.0696669167490455,-0.2195882443703904,59.69673,44.40242,174.0619,0.3511639,-0.4432136,0.7922239,20
11.96,-26.09571,1.295764,-27.93287,-0.3089542634969815,-0.0650986313939552,-0.1860993572178615,62.93324,43.44207,172.8286,0.345375,-0.4642467,0.7787494,20
11.98,-26.01095,1.486683,-27.87236,-0.2675304891949297,-0.0588767921055126,-0.1512106390485068,66.15655,42.18879,171.3063,0.339302,-0.4848881,0.7646383,20
12.0,-25.92664,1.67494,-27.8123,-0.2238501739903609,-0.0542914669824812,-0.1150950474779333,69.36122,40.50904,169.3608,0.3329504,-0.5051237,0.7499014,20
12.02,-25.7978,1.128894,-27.71138,-0.1636731014573111,-0.1239903767649524,-0.0656690600476728,60.9542,35.376,166.7187,0.3159768,-0.4496931,0.7977595,20
12.04,-25.71326,1.31302,-27.65024,-0.1087015648976303,-0.0814207760584489,-0.0214624380719592,64.01237,33.42991,164.3883,0.3105741,-0.4697884,0.783932,20
12.06,-25.62947,1.494476,-27.58977,-0.0530997982675156,-0.0394325925456366,0.0230289570983894,67.02589,30.92749,161.5064,0.3049237,-0.4895016,0.7694809,20
12.08,-25.47143,1.195588,-27.47264,0.0028897532861282,-0.0011131505500368,0.0676338410590706,48.28523,41.71553,173.1759,0.3470773,-0.362191,0.8425508,20
12.1,-25.38599,1.371958,-27.40902,0.0485314028308585,0.01662322374416,0.0978428485389124,51.42259,41.08278,172.19,0.3430762,-0.3837797,0.8313798,20
12.12,-25.30162,1.545544,-27.34635,0.0949104921960972,0.0350468408345962,0.1283005279447771,54.55101,40.30964,171.0707,0.3388076,-0.4050625,0.8195632,20
12.14,-25.15294,1.250215,-27.28016,0.1416972488271919,0.0510715521006963,0.1587385880271643,26.17968,48.50179,176.0149,0.4069985,-0.1924583,0.8842936,20
12.16,-25.05535,1.418905,-27.20901,0.1763352534614752,0.0644796257178821,0.1791254536697732,29.7024,48.46183,175.672,0.4052478,-0.2185823,0.8768362,20
12.18,-24.95934,1.584014,-27.1392,0.2099619290930436,0.0785070664688109,0.198375351246582,33.2251,48.39487,175.3128,0.4031092,-0.2444993,0.8685429,20
12.2,-24.8651,1.745672,-27.07084,0.2421677519025999,0.0901883293980748,0.2161805024070573,36.74786,48.29729,174.9325,0.4005849,-0.270187,0.8594209,20
12.22,-24.86156,1.271914,-27.08289,0.2740813581689898,0.0297286676694771,0.2326430295849659,2.352683,54.39693,177.9527,0.4572311,-0.01009254,0.8889316,20
12.24,-24.76144,1.438409,-27.0116,0.3122623924345928,0.0612858685351968,0.2583477685339805,5.915743,54.51921,177.9801,0.4581502,-0.03780131,0.8872017,20
12.26,-24.66307,1.601208,-26.94172,0.3473162693242693,0.0911463435318684,0.2819280962983463,9.477688,54.64412,178.0155,0.4586251,-0.06546548,0.8846142,20
12.28,-24.58381,1.291564,-26.8841,0.3787788016425839,0.1165424156919131,0.3030550636495364,352.2129,56.77926,179.0397,0.4738504,0.06370961,0.877944,20
12.3,-24.48284,1.453688,-26.81033,0.3962452444604833,0.1165740581479907,0.3148460782735625,355.8005,56.87576,179.264,0.4756692,0.03527405,0.8788376,20
12.32,-24.38383,1.611992,-26.73817,0.4102171525022133,0.1170312235104448,0.3248075078831252,359.3866,56.98593,179.4937,0.4770186,0.006811943,0.8788659,20
12.34,-24.3548,1.269705,-26.71091,0.4202438373522645,0.1151167857788362,0.3326010108199115,354.1028,57.36113,180.0031,0.4792918,0.0451157,0.8761469,20
12.36,-24.25698,1.432972,-26.63741,0.4138808760989776,0.1063864221085462,0.3278014937465578,357.6452,57.45876,180.308,0.4806185,0.01672644,0.8766851,20
12.38,-24.16101,1.592582,-26.56549,0.4035207527080047,0.0991864232394397,0.3201506070130917,1.186085,57.57505,180.6186,0.481481,-0.01167071,0.8763788,20
12.4,-24.06707,1.748694,-26.49527,0.3887447676851385,0.0907457917405409,0.3093346136490371,4.725235,57.71082,180.9374,0.4818793,-0.04004874,0.8752294,20
12.42,-24.13083,1.246071,-26.54315,0.3438589667121254,0.0074250032939028,0.2781489836639692,1.401879,57.88803,181.5948,0.4837227,-0.017439,0.8750253,20
12.44,-24.03153,1.411213,-26.47,0.3205044702116346,0.0232235371735624,0.2641327847853785,5.013691,58.02439,181.9031,0.4838296,-0.04629147,0.8739115,20
12.46,-23.93405,1.572634,-26.39836,0.2945822549175507,0.0390378999062382,0.2482616911083113,8.624315,58.18126,182.222,0.483451,-0.07509322,0.8719231,20
12.48,-23.98178,1.226228,-26.41304,0.2656688809987759,0.052081995063896,0.2302387928733211,10.34756,57.75429,183.1692,0.4785981,-0.09223396,0.8729605,20
12.5,-23.88272,1.396583,-26.34062,0.1942558476337197,0.037605709685502,0.1859184028103122,13.97507,57.93411,183.459,0.4772783,-0.1208942,0.8697829,20
12.52,-23.78521,1.563251,-26.26951,0.1229380570882328,0.0262861458616154,0.1413401291634071,17.60059,58.13628,183.7659,0.4754768,-0.1494244,0.865729,20
12.54,-23.84722,1.190852,-26.29624,0.0512986038796281,0.0152037107763003,0.0962296706589387,16.09751,57.89759,183.7773,0.4749615,-0.1382498,0.8681958,20
12.56,-23.75049,1.369476,-26.22647,-0.0004644553503272,0.0794460669936484,0.0630563796005341,19.68191,58.09983,184.0502,0.4728481,-0.1662253,0.8637289,20
12.58,-23.6549,1.544605,-26.15767,-0.1090035002885532,0.0377747299855898,-0.0003423349139817,23.26426,58.32551,184.3435,0.4702694,-0.194029,0.8584138,20
12.6,-23.56061,1.716342,-26.08996,-0.2148721831020243,-0.0007147175599657,-0.0623815571114949,26.84416,58.57815,184.6609,0.4672283,-0.2216309,0.8522569,20
12.62,-23.66327,1.152982,-26.13263,-0.3184313853957894,-0.0391003572090269,-0.1232834711178725,23.09294,54.54364,184.0541,0.4423656,-0.1936813,0.8735542,20
12.64,-23.5701,1.341797,-26.06496,-0.4329032032228967,-0.0557402983304929,-0.1804984987314224,26.62216,54.68407,184.1077,0.4393454,-0.2204029,0.8676509,20
12.66,-23.47754,1.527342,-25.99787,-0.5418792844404128,-0.0679382773516967,-0.2345505761265087,30.15012,54.83297,184.173,0.4359086,-0.2469068,0.8609261,20
12.68,-23.38573,1.709674,-25.93147,-0.645726161703847,-0.07889551802151,-0.2856767475671997,33.67662,54.99239,184.252,0.432059,-0.273167,0.8533875,20
12.7,-23.50089,1.128712,-25.98896,-0.7200022300874003,-0.0065253356577563,-0.3196020995541522,30.0629,50.85588,183.7122,0.40688,-0.2475335,0.8753736,20
12.72,-23.411,1.324415,-25.92238,-0.8309179838558345,-0.046154628884052,-0.3689037792937939,33.52544,50.87833,183.532,0.4030781,-0.2729969,0.8680766,20
12.74,-23.32136,1.517022,-25.85612,-0.9340938922519246,-0.0826916650262734,-0.4137757310806664,36.98705,50.88806,183.3457,0.3989077,-0.2982033,0.8599872,20
12.76,-23.32583,1.117139,-25.84807,-1.0117130153864036,-0.0319085538196642,-0.4448267613692831,39.64449,48.52574,182.6805,0.3792394,-0.3181075,0.8606774,20
12.78,-23.23789,1.316458,-25.78279,-1.1008139157677186,-0.0654665350032768,-0.4827633594265976,43.04292,48.38396,182.2888,0.3744651,-0.3421794,0.8514141,20
12.8,-23.15001,1.512805,-25.71769,-1.1814076736015378,-0.0964596596726826,-0.5154804566646112,46.43955,48.19986,181.8613,0.3693595,-0.365941,0.8413988,20
12.82,-23.09952,1.113743,-25.67954,-1.2538072342315283,-0.1282908760895851,-0.543250807943052,46.39369,47.78911,180.3593,0.3711779,-0.3612975,0.8408746,20
12.84,-23.0134,1.314198,-25.61508,-1.3087091701704057,-0.1323250723989937,-0.5556844196651634,49.73363,47.54584,179.8756,0.366157,-0.3844329,0.8301202,20
12.86,-22.92729,1.511784,-25.55076,-1.3550906224218815,-0.1331926535317497,-0.5620321695172552,53.07105,47.23726,179.3318,0.3608227,-0.407232,0.8186567,20
12.88,-22.84132,1.706513,-25.48667,-1.3932512928578742,-0.1342937776932801,-0.5626106851072574,56.40536,46.84497,178.7089,0.3551799,-0.4296755,0.8064948,20
12.9,-22.78331,1.103708,-25.43861,-1.4165157041076917,-0.0499315094561761,-0.5531116349738152,56.52593,45.10604,176.1957,0.3521435,-0.4258527,0.8069493,20
12.92,-22.69877,1.299705,-25.37607,-1.439288881768102,-0.0783055061076974,-0.5337564330344291,59.7908,44.42067,175.2524,0.3465398,-0.4474675,0.79412,20
12.94,-22.61445,1.492974,-25.31382,-1.4544390372748532,-0.1061917916523008,-0.508908879461262,63.04726,43.54139,174.1193,0.3406493,-0.4687013,0.7806365,20
12.96,-22.42794,1.118042,-25.16571,-1.4734163564802103,-0.0464028046725038,-0.4872500588104955,61.81772,35.65239,167.1997,0.3155295,-0.456686,0.7941738,20
12.98,-22.34434,1.304417,-25.1036,-1.4886948060841825,-0.0592413281307899,-0.4478655195570464,64.90496,33.71585,164.9044,0.3100471,-0.4769474,0.7801372,20
13.0,-22.26138,1.488129,-25.04208,-1.4981955020133038,-0.0721514570648717,-0.4038661333248798,67.94936,31.19966,162.0339,0.3043156,-0.4968185,0.765475,20
13.02,-22.07664,1.178239,-24.89458,-1.502139607160537,-0.0883524730545337,-0.3556595116918672,52.06746,38.13666,171.2027,0.3244976,-0.3910821,0.8357345,20
13.04,-21.99263,1.356277,-24.83008,-1.5086965838176891,-0.0669950405094508,-0.3010065792370153,55.17722,37.16692,169.8553,0.3201551,-0.4122814,0.8237459,20
13.06,-21.90961,1.531564,-24.76649,-1.5102672588748995,-0.0449676859464676,-0.2422000817968541,58.2705,35.97532,168.2924,0.3155616,-0.4331506,0.8111137,20
13.08,-21.82772,1.704181,-24.70389,-1.5070864019542705,-0.0253889140201621,-0.1797620458744941,61.34204,34.49427,166.4462,0.3107236,-0.4536742,0.7978489,20
13.1,-21.7301,1.239867,-24.6619,-1.510645438040651,0.0603423147851913,-0.1228082285624574,31.96807,45.78226,175.3633,0.3838987,-0.2383487,0.8805713,20
13.12,-21.63674,1.410149,-24.5906,-1.5228027497170027,0.0519098259052319,-0.0760963980418867,35.40248,45.63897,174.8976,0.3815759,-0.2635323,0.8719728,20
13.14,-21.54483,1.577049,-24.52057,-1.530778938540922,0.0428118636247098,-0.0255244484997119,38.83516,45.4531,174.3993,0.3789053,-0.2884715,0.8625825,20
13.16,-21.45454,1.268142,-24.47779,-1.544626593723355,0.099904428535114,0.02761846002304,8.113029,52.09719,177.5653,0.4392846,-0.05423443,0.8953091,20
13.18,-21.35634,1.435233,-24.40489,-1.562361292664415,0.0867886690436888,0.0752148864275104,11.66519,52.20371,177.5173,0.4395649,-0.0817548,0.8921862,20
13.2,-21.25981,1.598661,-24.3334,-1.5786143737121043,0.0733250251064785,0.1246289249187064,15.21643,52.30862,177.4755,0.4394218,-0.1091888,0.8882067,20
13.22,-21.15441,1.285363,-24.2607,-1.5936911872187394,0.0566253883809549,0.1752300352867313,353.3081,55.73286,178.7207,0.4660102,0.05680262,0.8827824,20
13.24,-21.0547,1.448843,-24.18655,-1.5945553087536526,0.1286895201796324,0.2382411036694143,356.8848,55.83142,178.9062,0.4677486,0.02848498,0.8833922,20
13.26,-20.95687,1.608549,-24.11397,-1.5921038991352656,0.1061384286341537,0.2894590198642457,0.4601122,55.94129,179.0976,0.4690288,0.0001474274,0.8831388,20
13.28,-20.8611,1.764642,-24.04309,-1.588960360052631,0.082979256806063,0.3415239545130193,4.034022,56.06328,179.2962,0.4698499,-0.02818212,0.8820233,20
13.3,-20.86265,1.282712,-24.04457,-1.582914707514807,0.1267201963197745,0.3954508289251661,353.7828,56.70044,179.7581,0.4740593,0.04872566,0.878819,20
13.32,-20.76448,1.444757,-23.96928,-1.5756241300846892,0.0957920445954071,0.4314175989317168,357.3429,56.79124,180.0574,0.4754393,0.02015748,0.8794429,20
13.34,-20.66823,1.603065,-23.89564,-1.5681915781487854,0.0654583091944532,0.4666015545059858,0.9015472,56.90042,180.362,0.476356,-0.008422048,0.8792118,20
13.36,-20.65916,1.250396,-23.89398,-1.5508557374830754,0.1074692674861709,0.5069747166080556,359.4079,57.3611,181.376,0.4799392,-0.001230116,0.8772046,20
13.38,-20.56113,1.415154,-23.82037,-1.5340709667729753,0.1471099723047982,0.5452328351097591,2.991511,57.48109,181.68,0.4802931,-0.02993173,0.8765973,20
13.4,-20.4649,1.576237,-23.74828,-1.5293628423340584,0.0890600568049659,0.5532025161441068,6.573692,57.62069,181.9928,0.4801728,-0.05859683,0.8751267,20
13.42,-20.54972,1.232038,-23.79754,-1.5236363516381537,0.0314626131085672,0.5602728790913023,8.258101,57.71546,182.8862,0.4796428,-0.07516519,0.8741457,20
13.44,-20.4507,1.400787,-23.72428,-1.4940021397875125,0.0697453673977041,0.583481131098667,11.88858,57.88233,183.1924,0.4785981,-0.1040003,0.87147,20
13.46,-20.35333,1.565823,-23.65241,-1.4770115563773931,0.0316519792467802,0.5830531334159716,15.51706,58.07178,183.5142,0.4770691,-0.1327218,0.867914,20
13.48,-20.25778,1.727288,-23.58205,-1.458673761147267,-0.0038793164870196,0.5816293822458736,19.14387,58.28635,183.8549,0.4750571,-0.1613041,0.8634821,20
13.5,-20.55186,1.199573,-23.75572,-1.4179890784585685,0.0358764968727288,0.5915946149198916,14.77678,57.66258,183.6654,0.4743809,-0.1278911,0.8703088,20
13.52,-20.45485,1.376105,-23.68482,-1.3903332380601383,-0.003292107823263,0.5825948988431922,18.37354,57.85542,183.9457,0.4724079,-0.1560889,0.8661508,20
13.54,-20.35907,1.549092,-23.61497,-1.3610269062276674,-0.0391551173109658,0.5725961316906236,21.96826,58.07156,184.2455,0.4699666,-0.1841239,0.8611359,20
13.56,-20.26472,1.718648,-23.54631,-1.3068794660696028,0.0056082156471186,0.5758218877327925,25.56062,58.31435,184.5683,0.4670598,-0.2119661,0.8552701,20
13.58,-20.56986,1.160746,-23.68857,-1.251053711021223,0.0495887310030523,0.5781939907340936,21.5946,54.37293,184.0932,0.4425618,-0.1825605,0.8762756,20
13.6,-20.47674,1.347569,-23.61924,-1.2184672407808343,-0.0158308567581229,0.5552313058305081,25.13983,54.5206,184.1821,0.4396986,-0.2096429,0.8706876,20
13.62,-20.38433,1.531071,-23.55057,-1.1833296365007215,-0.078600048954329,0.53216796694378,28.68377,54.67911,184.2843,0.4364143,-0.2365163,0.8642674,20
13.64,-20.621,1.132819,-23.61666,-1.1167669719532802,-0.0321069271978364,0.5252249719589543,28.03985,49.53624,183.9132,0.3987196,-0.2337237,0.8839141,20
13.66,-20.53268,1.327252,-23.54696,-1.0603104376648087,-0.0690502446592222,0.506445849900536,31.51798,49.57606,183.7679,0.3951794,-0.2597003,0.877012,20
13.68,-20.44467,1.518555,-23.47763,-1.0003756337903646,-0.1028025429044672,0.4880738956291388,34.99502,49.60693,183.6202,0.3912759,-0.2854302,0.8693026,20
13.7,-20.35711,1.706764,-23.40878,-0.937458093035736,-0.1366616569712141,0.4699496091856279,38.47114,49.62772,183.468,0.387012,-0.3108897,0.8607935,20
13.72,-20.57096,1.118846,-23.47173,-0.8411307515637203,-0.05984266570601,0.470390176086394,37.4032,44.62411,182.9625,0.3518178,-0.3058296,0.8791382,20
13.74,-20.48663,1.317646,-23.40111,-0.7484462061245969,-0.0961052585272573,0.4616475236943653,40.81117,44.46934,182.5404,0.3474143,-0.3305199,0.8702675,20
13.76,-20.40238,1.51345,-23.33068,-0.6518620896889749,-0.1296579013700701,0.4537942991942993,44.21716,44.27085,182.0819,0.342701,-0.3549078,0.8606222,20
13.78,-20.45814,1.114689,-23.3404,-0.5378041196429963,-0.0754642229216977,0.4553652132816981,44.69321,41.68144,181.0363,0.3258265,-0.358294,0.8655754,20
13.8,-20.37838,1.315362,-23.26757,-0.4198689891796432,-0.0220039007329966,0.4580767905502174,48.04257,41.41965,180.5211,0.3212737,-0.382237,0.8550198,20
13.82,-20.2986,1.513143,-23.19485,-0.3058832670780362,-0.0844633443358385,0.4540001958547401,51.38911,41.09095,179.9447,0.3164439,-0.4058431,0.8437283,20
13.84,-20.29343,1.107421,-23.15104,-0.1830272393279002,-0.0572860714971905,0.4548662390552849,53.30491,35.04349,177.5244,0.2782554,-0.4218521,0.8491603,20
13.86,-20.21996,1.306058,-23.075,-0.0568489644473171,-0.0290296293766775,0.4567977254649076,56.57372,34.39179,176.5931,0.2736785,-0.4447642,0.8366869,20
13.88,-20.14656,1.501925,-22.99916,0.0876057443016957,-0.085690650732954,0.4701811000673368,59.83451,33.57479,175.5019,0.2688804,-0.4673017,0.8235163,20
13.9,-20.07334,1.695042,-22.92362,0.23346741299282,-0.1431745700843429,0.4834551205019473,63.08464,32.53106,174.1883,0.2638587,-0.4894423,0.8096617,20
13.92,-20.05507,1.109391,-22.81731,0.384376165489992,-0.0856019356649884,0.4988629865312504,62.62186,22.12306,167.6546,0.2178107,-0.4894449,0.8229048,20
13.94,-19.98769,1.298339,-22.73812,0.5521781775586971,-0.1009299531897569,0.5258971171287596,65.70399,20.02425,165.2009,0.2136358,-0.5109509,0.8082455,20
13.96,-19.92071,1.484632,-22.65954,0.7196129955693347,-0.1167659353031024,0.5524652922215414,68.73758,17.28114,162.1072,0.2092906,-0.5320362,0.7929361,20
13.98,-19.87437,1.162032,-22.48846,0.8707714035289311,-0.0515091587116778,0.5655025613967646,55.73753,16.42293,168.6164,0.1715245,-0.4478521,0.8640222,20
14.0,-19.81317,1.342102,-22.40291,1.0196043964798325,0.0120433453394138,0.5769637957554901,58.76622,14.85622,166.6234,0.1685495,-0.470098,0.8507779,20
14.02,-19.75259,1.519458,-22.31841,1.1693748409714373,-0.0190103817922954,0.5846749001040528,61.75987,12.91762,164.2649,0.1654424,-0.4919678,0.8368675,20
14.04,-19.70116,1.229101,-22.17252,1.3018541091724014,0.0216563116046298,0.5789723398423141,37.77591,22.45533,174.5997,0.1989774,-0.3084919,0.9240458,20
14.06,-19.63934,1.401341,-22.07667,1.4305553964912885,0.0616282384946361,0.5712632522573515,41.09549,22.07709,173.8316,0.1975632,-0.3343488,0.9141089,20
14.08,-19.57838,1.570394,-21.98237,1.5566836729397342,0.0313022305369,0.556802760519997,44.40964,21.61598,172.9911,0.1959779,-0.3599085,0.9033833,20
14.1,-19.51839,1.73635,-21.88975,1.6794645646782254,-0.0009284623781947,0.5411445724852899,47.71905,21.0563,172.0621,0.1942288,-0.3851661,0.891872,20
14.12,-19.54246,1.26378,-21.8815,1.7957309920062978,0.0569801743735462,0.5270168853019439,13.87848,26.90538,177.1053,0.2338325,-0.1116311,0.9644203,20
14.14,-19.48059,1.431666,-21.7768,1.905165982050124,0.1119958963912084,0.5098384430145293,17.41121,26.95958,176.9007,0.234313,-0.1409029,0.959943,20
14.16,-19.41969,1.595916,-21.67399,2.005857195660321,0.0726147875207552,0.4862894933165909,20.94441,27.00166,176.6962,0.2345701,-0.1700447,0.9545495,20
14.18,-19.39309,1.279255,-21.61979,2.0998468990281456,0.1024222397108626,0.4642197395107956,354.4503,32.78055,178.4158,0.2811788,0.05033624,0.9583344,20
14.2,-19.32945,1.444101,-21.51402,2.1850123670312653,0.130768670698909,0.4388988085027709,358.0154,32.88019,178.559,0.2827391,0.02016706,0.9589583,20
14.22,-19.2669,1.605221,-21.41032,2.258249901521411,0.0867313143076445,0.4078955345602959,1.579209,32.98862,178.7083,0.2840241,-0.01001275,0.958652,20
14.24,-19.20557,1.762768,-21.30889,2.3204039712973072,0.1121706087796378,0.3737137820046805,5.141727,33.10664,178.8649,0.2850327,-0.04017444,0.9574168,20
14.26,-19.12172,1.282578,-21.29176,2.3712622207430343,0.1363710047472767,0.3356383930837125,353.7789,38.60063,179.832,0.3299572,0.05169735,0.942434,20
14.28,-19.05386,1.444463,-21.18823,2.410081194873439,0.1566362561153594,0.2933895808238143,357.3358,38.68053,180.2026,0.3311263,0.02134958,0.9432985,20
14.3,-18.98727,1.602606,-21.08689,2.415609313647616,0.0771925411270699,0.2307511999097702,0.8912625,38.78324,180.5778,0.3319719,-0.009010479,0.9432438,20
14.32,-18.90722,1.250278,-21.10593,2.4244737017997267,0.0917400252015767,0.1757611646412447,359.3925,43.19272,181.467,0.3680933,0.0002169204,0.9296857,20
14.34,-18.83273,1.414917,-21.00873,2.421580321942028,0.1059211715286586,0.1170725673406161,2.964345,43.30914,181.8618,0.3684473,-0.03003041,0.9291471,20
14.36,-18.75956,1.575894,-20.91351,2.3905743646929603,0.0460933732434045,0.04484165150199,6.534747,43.45063,182.2637,0.3684376,-0.0602368,0.927695,20
14.38,-18.68787,1.733365,-20.82042,2.361121069563314,0.0629671683042362,-0.0198486227795671,10.10303,43.61871,182.6782,0.3680649,-0.09037523,0.9253312,20
14.4,-18.69605,1.231924,-20.92516,2.3196619299314643,0.0800134376084936,-0.0876288762475425,8.241418,46.76736,182.9702,0.3940181,-0.07619343,0.9159266,20
14.42,-18.615,1.400552,-20.83265,2.246325854176532,0.019852833055747,-0.1700317464603209,11.85964,46.94366,183.3621,0.3932165,-0.106343,0.9131624,20
14.44,-18.53528,1.565482,-20.74185,2.188130648590877,0.0367208929342637,-0.2371219720448727,15.47549,47.1482,183.7715,0.3920179,-0.1363763,0.9094784,20
14.46,-18.54689,1.199446,-20.80838,2.118176819969836,0.0546426025809585,-0.3066013334590201,14.76352,49.57352,183.7438,0.4117357,-0.1301624,0.9016291,20
14.48,-18.46274,1.375833,-20.72281,2.035784415680844,0.0707586302316955,-0.3786513617057281,18.35015,49.78404,184.105,0.4100775,-0.1594284,0.8973262,20
14.5,-18.37965,1.548684,-20.63849,1.9403032162188047,0.0671897968206561,-0.4534347369593048,21.93439,50.02363,184.4886,0.4080133,-0.1885282,0.8921373,20
14.52,-18.39566,1.168015,-20.6792,1.851096888104533,0.0497181312360522,-0.5173246516504033,20.14642,49.91447,184.1619,0.4094055,-0.1735547,0.8947386,20
14.54,-18.31104,1.352535,-20.59913,1.7531810599711588,0.0362821045380058,-0.5807919549769749,23.68705,50.11346,184.4076,0.4070433,-0.201726,0.8892909,20
14.56,-18.22714,1.533713,-20.51989,1.6459701806879112,0.0237957708960745,-0.6439517669604462,27.22576,50.33526,184.6743,0.4042908,-0.2296952,0.8829924,20
14.58,-18.14411,1.711631,-20.44162,1.506328894743191,-0.0725354481767184,-0.719009395510299,30.76227,50.58278,184.9641,0.4011482,-0.2574284,0.8758523,20
14.6,-18.23435,1.138887,-20.53551,1.4172365600385293,-0.0579423248438258,-0.7616496244104205,26.30624,48.40621,184.0378,0.3916574,-0.2214871,0.8909049,20
14.62,-18.14977,1.331346,-20.4604,1.32178312834471,-0.0414126905839983,-0.8019749573434845,29.79692,48.51933,184.0513,0.3885269,-0.2482907,0.884228,20
14.64,-18.06555,1.520648,-20.38576,1.2062818631981844,-0.1092049126103142,-0.8467399289863167,33.28617,48.63702,184.0723,0.3850348,-0.2748499,0.8767344,20
14.66,-18.07522,1.121666,-20.3968,1.1333221460385674,-0.0876777953640373,-0.8688864594588881,34.73761,46.18473,183.3066,0.3662523,-0.2852874,0.8809429,20
14.68,-17.99099,1.319422,-20.32525,1.0564809290784738,-0.0644081102858774,-0.8877561739574849,38.16737,46.13789,183.0486,0.3621711,-0.3105482,0.8725712,20
14.7,-17.90689,1.514154,-20.25395,0.975307425377437,-0.0426910071363844,-0.9034578612021616,41.59598,46.06797,182.7738,0.3577645,-0.3355228,0.863417,20
14.72,-17.82306,1.705884,-20.183,0.8725012966777439,-0.1361812999406523,-0.9284993590698418,45.02328,45.97069,182.4773,0.3530371,-0.3601886,0.8534896,20
14.74,-17.79254,1.11441,-20.18289,0.8105795428233002,-0.1131320221116687,-0.9301104430794648,44.70952,46.79374,181.1725,0.3636639,-0.3528065,0.8503032,20
14.76,-17.70837,1.314793,-20.11474,0.7470041747210872,-0.0885855285988111,-0.9273074123480892,48.0783,46.63399,180.8055,0.3588489,-0.376623,0.8397927,20
14.78,-17.62421,1.51227,-20.04672,0.6803116713759381,-0.1507399704564767,-0.9206662807877396,51.44529,46.4281,180.3972,0.3537227,-0.4001053,0.8285552,20
14.8,-17.5402,1.70685,-19.97894,0.632062201654539,-0.123298549386899,-0.8979738893327593,54.81019,46.16385,179.9348,0.3482901,-0.4232332,0.8166011,20
14.82,-17.508,1.107081,-19.96633,0.5827758858156391,-0.0948096682315073,-0.8710429126828383,53.32332,45.4304,177.7182,0.3532653,-0.406963,0.8207414,20
14.84,-17.42428,1.305369,-19.90155,0.5321140840557637,-0.0686254072297355,-0.8400091602499145,56.6157,44.95589,177.01,0.3479236,-0.4292505,0.8085176,20
14.86,-17.34066,1.50089,-19.83698,0.5099147707492042,-0.0662471559265924,-0.7867672366857801,59.90269,44.35332,176.1777,0.3422898,-0.4511667,0.7956225,20
14.88,-17.14775,1.109035,-19.69819,0.4861219837035024,-0.062071864211242,-0.7308220753507126,62.65727,37.219,167.8877,0.3230555,-0.4612519,0.7875142,20
14.9,-17.06425,1.297633,-19.63609,0.4604480710809424,-0.059393157191482,-0.6723442101455763,65.78364,35.36207,165.7094,0.3174078,-0.4816614,0.7733032,20
14.92,-16.9813,1.483574,-19.5745,0.4483529346683481,-0.130863185719179,-0.5997088149669891,68.87128,32.91967,162.9496,0.3115025,-0.5016705,0.75847,20
14.94,-16.7848,1.161619,-19.43079,0.4414794751921842,-0.0897546881189898,-0.5296426036057262,55.78423,35.91415,168.7885,0.3146562,-0.4162745,0.8226674,20
14.96,-16.7006,1.341335,-19.36751,0.432622469560151,-0.0490886266527623,-0.4585976167541026,58.85618,34.50861,166.9946,0.3098193,-0.4369438,0.8099215,20
14.98,-16.61735,1.518331,-19.30506,0.4215742519456793,-0.0119562271478191,-0.3867797930528645,61.89961,32.76188,164.8654,0.3047385,-0.457262,0.7965393,20
15.0,-16.53515,1.692682,-19.24352,0.4139380291572179,0.0048843273816477,-0.3310543424381085,64.90409,30.55685,162.2832,0.2994192,-0.4772123,0.7825329,20
15.02,-16.42744,1.228625,-19.19752,0.4064983294476496,0.0225505292673989,-0.2753996687468905,37.82664,45.01453,174.752,0.3754627,-0.2825553,0.8673566,20
15.04,-16.33607,1.400507,-19.12914,0.3990129886805327,0.0379518096295886,-0.2201381388817447,41.1715,44.73753,174.1524,0.3723876,-0.3065558,0.8577531,20
15.06,-16.24606,1.569199,-19.06192,0.3925211490339713,0.0510247073248417,-0.1784316578395723,44.51286,44.39606,173.4969,0.3689892,-0.3302833,0.8474076,20
15.08,-16.14489,1.263562,-19.02816,0.3865998161810824,0.0648493682318235,-0.139351454559403,13.90855,51.896,177.1834,0.4368808,-0.09816413,0.8910047,20
15.1,-16.04611,1.431254,-18.95716,0.3809814947829579,0.0764559882884592,-0.1032930751635161,17.44713,51.96713,177.0609,0.4363991,-0.1251861,0.8865244,20
15.12,-15.94899,1.595312,-18.88752,0.3768509135352247,0.0160407909720414,-0.0701415187171781,20.98608,52.03144,176.9399,0.4354991,-0.1520888,0.8811974,20
15.14,-15.85372,1.755887,-18.81935,0.3859315117720754,0.0479942169257153,-0.0275689773396998,24.52414,52.08915,176.8202,0.4341828,-0.1788387,0.8750306,20
15.16,-15.76898,1.285404,-18.77447,0.3956736727385845,0.0784111946314813,0.0100559853278849,353.3061,57.14943,178.7182,0.4768851,0.05660867,0.8769538,20
15.18,-15.6677,1.448969,-18.70291,0.4058214190951508,0.1045222080457886,0.0422708518745023,356.8763,57.23759,178.9014,0.4785505,0.02851505,0.8775846,20
15.2,-15.56833,1.608775,-18.63285,0.4211222664271699,0.1801642566595605,0.0756274936494327,0.4452835,57.33693,179.0898,0.479749,0.0004013823,0.8773614,20
15.22,-15.48761,1.282783,-18.57973,0.4167182492121861,0.1525638137768935,0.0894942515416952,353.7798,58.18906,179.7576,0.4854346,0.04843579,0.8725858,20
15.24,-15.38765,1.444842,-18.50696,0.4140232549840135,0.1250392602364445,0.0980380016905324,357.3385,58.26942,180.0569,0.4867435,0.02004417,0.8732364,20
15.26,-15.28965,1.603168,-18.43578,0.4128515033142605,0.0947717323414513,0.1008258878463501,0.8956664,58.36815,180.3607,0.4875785,-0.008358764,0.8730389,20
15.28,-15.19379,1.757927,-18.36632,0.3966819663148597,0.0831549002127775,0.100370030724378,4.451247,58.48597,180.6715,0.4879391,-0.03674522,0.871994,20
15.3,-15.24558,1.250412,-18.41165,0.3819701698924789,0.0733112152446233,0.0942361469190764,359.4015,58.95227,181.3772,0.4920734,-0.001366613,0.8704553,20
15.32,-15.14566,1.415174,-18.34069,0.3684867547319876,0.0624404915931618,0.0819793507083113,2.984144,59.06173,181.6823,0.4923396,-0.02988677,0.86989,20
15.34,-15.0476,1.576266,-18.27119,0.337045801955957,0.0525792200005514,0.0716657867990919,6.565458,59.19081,181.9954,0.4921201,-0.05837,0.8684686,20
15.36,-15.06219,1.232062,-18.27112,0.3065539412335891,0.0452515961473617,0.0564551994924928,8.249161,59.32174,182.8855,0.4918535,-0.07490878,0.8673406,20
15.38,-14.96124,1.400806,-18.2006,0.2767616010629488,0.0375842422903303,0.0359556863772589,11.87947,59.47806,183.1916,0.4906935,-0.1035584,0.8647268,20
15.4,-14.86197,1.565839,-18.13141,0.247447747918637,0.0267641578261448,0.009802670733038,15.50786,59.6568,183.5127,0.4890373,-0.1320952,0.8612401,20
15.42,-14.90001,1.199592,-18.14357,0.1977257777204524,0.0101187885776243,-0.0129747263670574,14.77102,59.66858,183.6725,0.4895395,-0.12726,0.8618786,20
15.44,-14.80076,1.3761,-18.07587,0.149601293370245,-0.0029712851070695,-0.0393297019560123,18.36739,59.85308,183.9599,0.4874215,-0.155253,0.8577968,20
15.46,-14.70279,1.549065,-18.00918,0.1028419266854137,-0.0154548636476787,-0.0695929504396342,21.96175,60.06119,184.2664,0.4848205,-0.183084,0.8528665,20
15.48,-14.60629,1.7186,-17.94361,0.0707160384826439,0.0488961652016388,-0.0807483760907272,25.55377,60.2961,184.5954,0.4817392,-0.2107227,0.8470938,20
15.5,-14.51142,1.778162,-17.8793,0.0078229113629306,0.0065749237970865,-0.1119760188435727,29.14342,60.56221,184.952,0.4781815,-0.2381451,0.8404846,20
15.52,-14.68836,1.160728,-17.97623,-0.0525478013222837,-0.0322595274093139,-0.1451278708648846,21.58835,57.31803,184.1134,0.4649089,-0.1811391,0.8646318,20
15.54,-14.59221,1.347497,-17.91126,-0.0958849856974972,0.0118024898717976,-0.1618999498432203,25.13288,57.46354,184.2231,0.461846,-0.2079421,0.8591461,20
15.56,-14.49679,1.530947,-17.8469,-0.15688649304414,-0.0268539906820273,-0.1900954767060119,28.67608,57.6213,184.3465,0.4583413,-0.2345381,0.8528395,20
15.58,-14.56195,1.132756,-17.86892,-0.214632973003396,-0.0618981570347001,-0.2189513137460477,28.03479,53.89302,183.9477,0.4319667,-0.2309344,0.8681526,20
15.6,-14.46918,1.327098,-17.80531,-0.2692781828127948,-0.0965749996190158,-0.2486874861068515,31.51433,53.94037,183.8383,0.4281337,-0.2565084,0.8613943,20
15.62,-14.37675,1.518311,-17.74205,-0.3050792175136618,-0.1052693838489877,-0.2594778552637258,34.99282,53.98146,183.728,0.4239064,-0.2818375,0.8538435,20
15.64,-14.37793,1.118738,-17.72628,-0.3365727869163009,-0.1096563272834789,-0.2696134316426168,37.39612,50.74597,183.0128,0.3981381,-0.300227,0.8591654,20
15.66,-14.28727,1.317419,-17.664,-0.3639305489632285,-0.1130744901163223,-0.2793075509689044,40.8087,50.61407,182.6431,0.3932719,-0.3243404,0.8505192,20
15.68,-14.19674,1.513103,-17.60189,-0.3733110204198688,-0.0310282281800206,-0.2760002847768379,44.21957,50.44404,182.2418,0.3880551,-0.3481572,0.8411157,20
15.7,-14.10646,1.70581,-17.54008,-0.3928631780913887,-0.0622443296302556,-0.2818448983644204,47.62841,50.22778,181.8001,0.3824928,-0.3716562,0.8309641,20
15.72,-14.13581,1.114514,-17.56643,-0.4073876613792431,-0.0908045493872405,-0.2862257896231626,44.69534,50.68005,181.123,0.392458,-0.3475047,0.8374587,20
15.74,-14.04675,1.315014,-17.50531,-0.4170414711348817,-0.1201170598501677,-0.2893330466652877,48.05211,50.47472,180.7,0.3871716,-0.3706613,0.8272247,20
15.76,-13.95772,1.512622,-17.44431,-0.414039762625958,-0.0364951445175701,-0.2807940411370881,51.40673,50.21498,180.2276,0.3815513,-0.3934909,0.8162783,20
15.78,-13.87643,1.107162,-17.38675,-0.3993882737763385,-0.0681566434201748,-0.2653347784775364,53.3119,48.45446,177.6792,0.3749527,-0.4016078,0.8111074,20
15.8,-13.78898,1.305532,-17.32722,-0.3806552238008904,-0.0984020858684745,-0.2487637076069053,56.59868,47.93513,176.9222,0.3691743,-0.4234393,0.7991018,20
15.82,-13.70166,1.501136,-17.26789,-0.3580262769541746,-0.1306003805123317,-0.2312569380835931,59.87953,47.27901,176.0326,0.3630883,-0.4449072,0.7864323,20
15.84,-13.61458,1.69399,-17.20882,-0.3072431971042459,-0.1265439309210558,-0.1921545195607585,63.15304,46.43737,174.9612,0.3566999,-0.4659967,0.7731089,20
15.86,-13.39349,1.11799,-17.05154,-0.25343822474522,-0.1210360000023217,-0.1521623552957924,61.82644,38.1363,167.1874,0.3327114,-0.4512452,0.7870814,20
15.88,-13.30705,1.304354,-16.99312,-0.1968236974158526,-0.1173470080877092,-0.1114597273516757,64.91808,36.16554,164.8716,0.3267807,-0.4712733,0.7731918,20
15.9,-13.22131,1.488048,-16.93526,-0.1540319838641557,-0.0309932769978669,-0.0813994711832908,67.96574,33.60661,161.9718,0.3205867,-0.4909139,0.7586801,20
15.92,-13.02505,1.17813,-16.79465,-0.1057122985546947,-0.0399475910472041,-0.048010755669833,52.09121,40.66924,171.1876,0.3429201,-0.3865192,0.8282408,20
15.94,-12.93827,1.356167,-16.73391,-0.0557870154495707,-0.0488405864860962,-0.0141979492035857,55.20221,39.6783,169.8336,0.3381886,-0.4074534,0.8163881,20
15.96,-12.85254,1.531453,-16.674,-0.0215774875864753,0.0149723337551008,0.0074647918849009,58.29634,38.4628,168.2614,0.3331921,-0.4280612,0.8038973,20
15.98,-12.76798,1.704067,-16.61503,0.0204943362720899,0.0112984785340579,0.0274930317163066,61.36818,36.95414,166.4017,0.3279372,-0.448327,0.7907786,20
16.0,-12.66508,1.239793,-16.57611,0.0639892704599545,0.0071213667623415,0.04776468480964,32.0081,48.28497,175.3576,0.4030223,-0.2354597,0.8718766,20
16.02,-12.56876,1.410084,-16.50893,0.108589055452718,-0.000676188121644,0.0680241996246311,35.4423,48.12386,174.8883,0.4003848,-0.2603397,0.8633782,20
16.04,-12.47395,1.576996,-16.44294,0.1499907136367884,0.0802332431698587,0.0902136604324865,38.87465,47.9191,174.3848,0.3973827,-0.2849784,0.8540959,20
16.06,-12.38081,1.26812,-16.40282,0.1872193336718233,0.0678652738486556,0.1064263942129848,8.148779,54.50808,177.5606,0.4580204,-0.0534263,0.8858448,20
16.08,-12.27966,1.435219,-16.3341,0.2242569681605823,0.0551111115963363,0.1217823744140953,11.701,54.59841,177.5087,0.4581097,-0.0806406,0.88277,20
16.1,-12.18026,1.598658,-16.26671,0.258842316929581,0.109687432649345,0.1408507058617349,15.25231,54.68667,177.4619,0.457758,-0.1077697,0.8788477,20
16.12,-12.07266,1.285334,-16.19732,0.2922381225581012,0.0952348032059321,0.1594664906269367,353.3147,58.0356,178.7158,0.4836543,0.0564116,0.8732436,20
16.14,-11.9701,1.448829,-16.12724,0.323194121042001,0.0800907409127804,0.1767454318277266,356.8915,58.11908,178.8971,0.4852889,0.02838085,0.8738802,20
16.16,-11.86949,1.608552,-16.05863,0.3513127964446541,0.0613969758480953,0.192387148198103,0.4670953,58.21367,179.0832,0.4864486,0.0003302936,0.8736633,20
16.18,-11.771,1.764664,-15.99162,0.3775054359256049,0.1305274673952527,0.2093730015521342,4.041307,58.32003,179.2757,0.4871323,-0.02771261,0.8725933,20
16.2,-11.67484,1.810678,-15.92634,0.377415527762887,0.1020262290646802,0.2098123381756751,7.614111,58.43905,179.476,0.4873399,-0.05572048,0.8706727,20
16.22,-11.71706,1.269736,-15.95187,0.3740261427935272,0.0739250104048352,0.2086899012603684,354.1086,59.09808,179.9969,0.4925154,0.04471925,0.8687851,20
16.24,-11.61687,1.432908,-15.88121,0.3694657038826785,0.1157542720003286,0.2080296579087883,357.6598,59.17506,180.2962,0.4936939,0.01648194,0.8693922,20
16.26,-11.5186,1.592407,-15.81205,0.3603335375820924,0.1552934404802839,0.2045075969648038,1.20954,59.27044,180.6,0.4943939,-0.01176333,0.8691581,20
16.28,-11.51285,1.246085,-15.8108,0.3264002351427646,0.0968442873410944,0.1866377123178424,1.388525,59.64397,181.5917,0.4970764,-0.01741843,0.867511,20
16.3,-11.4114,1.4112,-15.7406,0.2896541269225494,0.0389276346821108,0.1670588021138694,5.002999,59.7592,181.8973,0.4970095,-0.04607891,0.8664891,20
16.32,-11.31182,1.572592,-15.67184,0.2715968857900865,0.0775219086155004,0.1624710537901763,8.616344,59.89465,182.2122,0.4964437,-0.07468842,0.8645993,20
16.34,-11.33281,1.226268,-15.66992,0.2293879241457579,0.0407804150486682,0.1453210509543769,10.33065,59.66254,183.1687,0.4930787,-0.09176852,0.8648794,20
16.36,-11.23152,1.396601,-15.60067,0.1851237606648621,0.0064720673949403,0.1270441458795099,13.95891,59.82158,183.4593,0.4915513,-0.1202195,0.8618167,20
16.38,-11.13185,1.563248,-15.53266,0.1551065092823774,0.0469544488997975,0.1175906785453317,17.58526,60.00265,183.7655,0.4895279,-0.148541,0.8578857,20
16.4,-11.03398,1.726345,-15.46602,0.1223866261861096,0.0863419166585665,0.1065310054734978,21.20975,60.20839,184.0906,0.4870108,-0.1767053,0.8530911,20
16.42,-11.16752,1.190922,-15.54216,0.0530634006596508,0.0215167192616125,0.0741884385497393,16.08539,59.95515,183.7793,0.4904811,-0.1374418,0.8595397,20
16.44,-11.0685,1.369524,-15.47576,0.0030452712910264,0.0383913008945324,0.0534623745098461,19.66969,60.13697,184.0538,0.4881346,-0.1651905,0.8552024,20
16.46,-10.97066,1.544634,-15.41028,-0.0475889130583344,0.0566794590650051,0.0326696698824424,23.25202,60.34185,184.3474,0.485308,-0.1927685,0.8500254,20
16.48,-10.87418,1.716357,-15.34584,-0.0991778540483895,0.0733932723366812,0.0115581401115341,26.83199,60.57308,184.6637,0.4820044,-0.2201457,0.8440152,20
16.5,-11.00135,1.15305,-15.4039,-0.1843608480188381,-0.0200855850579123,-0.0271122523417679,23.07874,56.6664,184.0559,0.4584836,-0.1924215,0.865231,20
16.52,-10.90583,1.341846,-15.33967,-0.2692432645300705,-0.0953607509525729,-0.064949761678088,26.6081,56.7863,184.1101,0.4552006,-0.2189006,0.85947,20
16.54,-10.81095,1.527375,-15.27597,-0.3134510932227266,-0.0535809086336747,-0.0780969907356796,30.13619,56.91399,184.1746,0.4514861,-0.2451632,0.8528955,20
16.56,-10.8591,1.128742,-15.28592,-0.3736179611373946,-0.0948710486985103,-0.0988585143466409,30.04656,53.00485,183.7144,0.4232394,-0.2458181,0.8676226,20
16.58,-10.76683,1.324435,-15.22276,-0.4316380756560041,-0.1324895121439408,-0.1175718002954737,33.50957,53.00649,183.5338,0.4191467,-0.2710334,0.860477,20
16.6,-10.67483,1.517036,-15.15989,-0.4637362671998998,-0.0829456759784854,-0.1215656477099138,36.97157,52.99448,183.3454,0.4146709,-0.2959934,0.852546,20
16.62,-10.65368,1.117144,-15.13723,-0.5002278211240107,-0.1173532170466992,-0.1283461390086258,39.62659,50.8369,182.6866,0.396529,-0.3155268,0.8529071,20
16.64,-10.56326,1.316454,-15.07552,-0.5334212452922487,-0.1486947721616622,-0.1326311568879294,43.02542,50.67605,182.297,0.3914216,-0.3393438,0.8438135,20
16.66,-10.47292,1.512795,-15.01397,-0.5495121133453937,-0.0921780039799889,-0.1275445499976715,46.42235,50.47197,181.8701,0.3859681,-0.3628532,0.8339747,20
16.68,-10.38282,1.706183,-14.95267,-0.5617099368684585,-0.0361435241756392,-0.1199057312899813,49.81709,50.21476,181.3955,0.3801739,-0.3860348,0.8233998,20
16.7,-10.3966,1.113742,-14.96396,-0.5702410681083911,0.001037721104801,-0.1099446006823698,46.37883,50.25005,180.3703,0.389137,-0.3577742,0.8327718,20
16.72,-10.30789,1.314192,-14.90323,-0.5871923034660942,-0.0913857438287885,-0.1056577159687672,49.71883,49.98866,179.8898,0.3837443,-0.3806544,0.8221979,20
16.74,-10.21921,1.511779,-14.84262,-0.5825082067012168,-0.0667852068761777,-0.0856788380124424,53.05622,49.66093,179.3477,0.3780234,-0.4032018,0.810922,20
16.76,-10.13069,1.706511,-14.78223,-0.5731093396871682,-0.040902391809976,-0.0625876268353795,56.39043,49.24813,178.7248,0.3719797,-0.4253974,0.7989544,20
16.78,-9.994351,1.102146,-14.68591,-0.5470699816965445,-0.0997822333064045,-0.0233899594958419,59.67071,46.02562,174.0851,0.3622959,-0.4398097,0.7873259,20
16.8,-9.907413,1.295763,-14.62733,-0.5164848820672403,-0.0692338410028682,0.0182369210677082,62.91602,45.03439,172.8463,0.3561141,-0.4607688,0.773989,20
16.82,-9.820828,1.486676,-14.56907,-0.4824222469059726,-0.0383084779639932,0.0617920247219736,66.14755,43.74512,171.3129,0.3496387,-0.4813369,0.7600163,20
16.84,-9.616535,1.128762,-14.42205,-0.4450730023013305,-0.0102564859001391,0.1070721261187577,60.96531,36.85197,166.7157,0.3262311,-0.4465334,0.7935677,20
16.86,-9.530444,1.312908,-14.36309,-0.3930137995792501,-0.0829948270100939,0.1708935333879595,64.02479,34.86852,164.3728,0.3204491,-0.4665163,0.7798774,20
16.88,-9.445135,1.494383,-14.30476,-0.358753745532724,-0.0443771987995268,0.2213129516861478,67.03852,32.32202,161.4713,0.3144114,-0.4861194,0.7655658,20
16.9,-9.360734,1.673253,-14.24716,-0.3235027776318466,-0.0056761395445429,0.2720001206314777,69.98598,28.9757,157.7741,0.308125,-0.5053262,0.750646,20
16.92,-9.248016,1.195399,-14.1667,-0.2792027295516679,-0.0356385625429824,0.3305111484904031,48.32602,43.15681,173.1549,0.3576774,-0.3599349,0.8379398,20
16.94,-9.161092,1.37179,-14.10523,-0.2500597418662772,0.0060250346848149,0.3777194327111619,51.46304,42.49133,172.1609,0.3533312,-0.3813874,0.8268955,20
16.96,-9.07528,1.545401,-14.04466,-0.2209666441498911,0.0468831638443927,0.4244451132746367,54.59069,41.68214,171.0296,0.3487099,-0.402536,0.8152086,20
16.98,-8.933914,1.250117,-13.98908,-0.1921442200171468,0.0839382157516392,0.4703414576206655,26.23691,49.93777,176.0068,0.4180286,-0.1913043,0.8790053,20
17.0,-8.834714,1.418827,-13.92034,-0.1729637990909855,0.02471031049395,0.5058475205056299,29.75868,49.86949,175.6596,0.4159748,-0.2172526,0.8716547,20
17.02,-8.737145,1.583961,-13.85287,-0.1555954724239684,0.0577327002543439,0.5447900535367654,33.2803,49.77279,175.2936,0.4135233,-0.2429955,0.863474,20
17.04,-8.641392,1.745649,-13.78679,-0.1396262012535611,0.089898205268582,0.5825915866883724,36.80177,49.64364,174.9041,0.4106768,-0.2685105,0.8544698,20
17.06,-8.566859,1.275703,-13.75259,-0.1253585870849566,0.1183606051350671,0.6188443713043261,358.4157,56.78409,178.1855,0.4752045,0.01968907,0.8796245,20
17.08,-8.464862,1.441394,-13.68364,-0.1177111388735613,0.1230453167815596,0.6553834978040696,1.979726,56.8788,178.2674,0.4763332,-0.007989787,0.8789654,20
17.1,-8.364697,1.603375,-13.61606,-0.1125521884268498,0.1282501003667155,0.6906729539341401,5.542611,56.97891,178.3554,0.477,-0.03565288,0.8774558,20
17.12,-8.255242,1.293841,-13.53878,-0.1102186092951076,0.1311400547248012,0.7242638504309737,352.8243,58.22184,179.2535,0.485182,0.05783572,0.8721472,20
17.14,-8.15309,1.455357,-13.46669,-0.121315867336176,0.1296230124723163,0.74873556202247,356.4078,58.29277,179.5007,0.4866796,0.02949478,0.8730075,20
17.16,-8.052965,1.613056,-13.39618,-0.1362476429809099,0.1293506391184773,0.7711058461667928,359.9899,58.37893,179.7519,0.4876979,0.001132789,0.87301,20
17.18,-7.955063,1.767107,-13.32738,-0.1553061038527117,0.1275423655726762,0.7909402522230362,3.570596,58.48087,180.0089,0.4882365,-0.02722223,0.8721554,20
17.2,-8.010199,1.262141,-13.35647,-0.1787523451073482,0.1214798691174343,0.8078338707682098,355.7387,58.30595,180.5611,0.4869595,0.03008409,0.8726195,20
17.22,-7.911236,1.425995,-13.28503,-0.2251187381144498,0.03180123474914,0.8017672838125167,359.2884,58.38726,180.8483,0.48778,0.001810438,0.8729133,20
17.24,-7.814149,1.586209,-13.21507,-0.2536603693763873,0.0448600468839239,0.8078362507891579,2.836593,58.48636,181.1407,0.4881285,-0.02645703,0.872364,20
17.26,-7.719118,1.742942,-13.14674,-0.2850874987541008,0.0577790651706757,0.8117941802771291,6.383218,58.60405,181.4406,0.4880052,-0.05469088,0.8709732,20
17.28,-7.76663,1.237893,-13.15921,-0.3197040938231065,0.0678218839585527,0.8132136748250927,6.145233,58.28524,182.576,0.48511,-0.05773502,0.872521,20
17.3,-7.666895,1.405218,-13.0869,-0.3674517732169889,0.0532718516851922,0.8002869691904897,9.768187,58.42014,182.8757,0.4842233,-0.08649104,0.8704359,20
17.32,-7.568895,1.568828,-13.01599,-0.4169584855101559,0.0417579311326572,0.7862635850988,13.3898,58.57615,183.188,0.4828488,-0.1151556,0.8674751,20
17.34,-7.619431,1.208779,-13.02156,-0.4685128103886999,0.0303999320260642,0.7707737186078565,13.43862,57.63582,183.5266,0.4753357,-0.1171967,0.8714615,20
17.36,-7.521729,1.383272,-12.95023,-0.5241223831106873,0.015600420007471,0.7448332133065894,17.04596,57.80047,183.7985,0.4733862,-0.1455178,0.8676928,20
17.38,-7.42539,1.554175,-12.88002,-0.5806335560155408,0.0046771889636358,0.7181336369811606,20.65141,57.98685,184.0873,0.470965,-0.1736856,0.8630608,20
17.4,-7.330593,1.721608,-12.81106,-0.6383190448956821,-0.0053460124712991,0.6903688577619373,24.25479,58.19794,184.3966,0.4680752,-0.2016721,0.8575711,20
17.42,-7.474661,1.175833,-12.8807,-0.6974267238817503,-0.0173890564958614,0.6612529749000764,18.73646,55.52193,184.0291,0.454224,-0.1601091,0.8752221,20
17.44,-7.380642,1.358576,-12.81033,-0.7476719761340185,-0.0346370235826913,0.6301063913096692,22.29715,55.67588,184.2036,0.4515812,-0.1876655,0.8703127,20
17.46,-7.28754,1.537924,-12.74076,-0.7969078805068713,-0.0471974625791902,0.5995602691074715,25.85633,55.84609,184.3937,0.4485018,-0.2150324,0.864563,20
17.48,-7.195525,1.713962,-12.67211,-0.8453696437306102,-0.0582041928638688,0.5693886035400166,29.41359,56.03551,184.6024,0.4449898,-0.2421821,0.8579793,20
17.5,-7.333432,1.139153,-12.72479,-0.8932737885140286,-0.0707396245909375,0.5393794424297169,26.30413,50.09909,183.9403,0.4049655,-0.220187,0.8849694,20
17.52,-7.244647,1.331815,-12.65424,-0.9314204409005836,-0.0861670157880809,0.5049598627218659,29.80314,50.14861,183.8492,0.4014871,-0.2465471,0.8784638,20
17.54,-7.156269,1.521299,-12.58411,-0.9662965839403816,-0.097067807466336,0.4725567829506985,33.3008,50.19378,183.7592,0.3976365,-0.2726693,0.8711405,20
17.56,-7.193264,1.121888,-12.57887,-0.9981369736332693,-0.1067260392803787,0.4419714291269256,34.71303,45.63173,183.2296,0.3622188,-0.2852956,0.8826961,20
17.58,-7.1083,1.319826,-12.50809,-1.037864287826726,-0.1147879151995527,0.4133442709798995,38.14074,45.52011,182.8867,0.3579355,-0.3104021,0.8744321,20
17.6,-7.023473,1.514737,-12.43754,-1.0717602650600928,-0.1186617704034634,0.3872377927135739,41.56683,45.37535,182.5174,0.3533306,-0.3352218,0.8653831,20
17.62,-6.993434,1.11508,-12.40357,-1.1000833800672112,-0.1217244403483573,0.3634704293981208,43.27589,44.30841,181.7221,0.3453555,-0.3467459,0.8628998,20
17.64,-6.91089,1.315356,-12.33318,-1.1125212570645235,-0.0388789738770944,0.3478378933289601,46.64517,44.0849,181.2761,0.3405206,-0.3707839,0.8527707,20
17.66,-6.828372,1.512717,-12.26292,-1.1444028448520942,-0.0699052716525037,0.335184315064214,50.0121,43.80535,180.7792,0.3353896,-0.3944918,0.841901,20
17.68,-6.746009,1.707172,-12.1929,-1.1694645414558078,-0.0984318661166329,0.3246508067162295,53.37618,43.45535,180.2167,0.3299671,-0.4178489,0.8303006,20
17.7,-6.663935,1.792082,-12.12322,-1.1879694022503022,-0.1278726119045183,0.3160929681796445,56.73687,43.01455,179.5676,0.3242582,-0.4408354,0.8179801,20
17.72,-6.666194,1.10721,-12.109,-1.1856156147013577,-0.1282975653364692,0.3415797953889168,53.30721,41.26521,177.6626,0.3234265,-0.4133115,0.833012,20
17.74,-6.586423,1.305605,-12.03912,-1.1762263507892612,-0.1262734363958756,0.3678726130201875,56.60076,40.71577,176.8802,0.3182881,-0.4359785,0.8206826,20
17.76,-6.506755,1.50122,-11.96944,-1.1601124672992702,-0.125139616417649,0.3948339072649669,59.88835,40.02348,175.9591,0.3128829,-0.4582721,0.807666,20
17.78,-6.341567,1.109102,-11.80667,-1.1375796986597595,-0.1281853022826369,0.4223334394854596,62.63968,31.51234,167.8338,0.2836837,-0.4728838,0.8025928,20
17.8,-6.263822,1.297817,-11.73744,-1.1161436232132815,-0.0342765034358737,0.444812817348978,65.75559,29.55767,165.5624,0.2784902,-0.4938096,0.7882097,20
17.82,-6.186589,1.483873,-11.66875,-1.0790281962222832,-0.0519750463626974,0.4767478275261716,68.82938,26.99501,162.6869,0.273073,-0.5143267,0.7731904,20
17.84,-6.109979,1.667316,-11.60072,-1.03653027681299,-0.0694169894433573,0.5085613049903994,71.84028,23.53163,158.9139,0.267435,-0.5344195,0.7575472,20
17.86,-5.951982,1.178173,-11.41308,-1.0067019625995033,-0.0078871257488197,0.526763627507066,52.09945,30.5398,171.1012,0.2687648,-0.4040142,0.8551111,20
17.88,-5.876029,1.356333,-11.33911,-0.959268954364368,-0.0129996687849617,0.5453097935742561,55.19968,29.46704,169.6571,0.2648519,-0.4259211,0.8429567,20
17.9,-5.800976,1.531735,-11.26612,-0.9077610665396164,-0.0182464415776048,0.5632391977653932,58.2806,28.15451,167.9798,0.2607312,-0.4474861,0.8301418,20
17.92,-5.668875,1.239854,-11.13917,-0.8525651944110111,-0.026760438551259,0.5804016001849464,32.02027,37.05581,175.3099,0.315886,-0.2487951,0.9070431,20
17.94,-5.586544,1.410238,-11.05542,-0.7899414690459119,-0.01004234381203,0.5863275785337521,35.44999,36.85748,174.7901,0.3139344,-0.2748516,0.8983729,20
17.96,-5.505489,1.57724,-10.97311,-0.7238629505430123,0.0074045148944005,0.5912562464433779,38.87746,36.61024,174.2315,0.3116976,-0.3006549,0.8888863,20
17.98,-5.425846,1.74097,-10.89236,-0.6548256170266862,0.0225182064748688,0.5950057648275133,42.30347,36.30504,173.624,0.3091769,-0.326191,0.8785884,20
18.0,-5.412617,1.268156,-10.87864,-0.5918285046655501,0.1022355964605833,0.5980120281894167,8.173822,42.4544,177.5324,0.3624932,-0.05864253,0.9290106,20
18.02,-5.327466,1.435313,-10.79089,-0.5237116652546034,0.0890347286010952,0.5909991466042707,11.72561,42.53081,177.4533,0.3628179,-0.08715048,0.9259838,20
18.04,-5.243759,1.59881,-10.70479,-0.4556166669483865,0.0756298532763282,0.5817860058727282,15.27648,42.6032,177.3779,0.3627931,-0.1155666,0.9220679,20
18.06,-5.161654,1.75879,-10.62049,-0.3881189411621088,0.059140684599322,0.5702231060647279,18.82644,42.67195,177.3058,0.3624192,-0.1438637,0.9172674,20
18.08,-5.114149,1.291639,-10.54852,-0.3188769008244488,0.131009271886381,0.5607423475662557,352.2197,45.52314,179.0015,0.385446,0.06592113,0.9201921,20
18.1,-5.029115,1.453951,-10.4573,-0.2626428267031694,0.1084920555445273,0.5332085756853477,355.8004,45.59318,179.1902,0.3869522,0.0365133,0.9213445,20
18.12,-4.945713,1.612466,-10.368,-0.2081722539748593,0.0858666603950759,0.503988914484497,359.3799,45.67472,179.3827,0.3880785,0.00707819,0.9215947,20
18.14,-4.926212,1.269925,-10.32663,-0.1577615262658875,0.1305095955623793,0.4712712628506638,354.0972,45.74611,179.983,0.3881681,0.04749811,0.9201492,20
18.16,-4.845057,1.433242,-10.23522,-0.1113091546152578,0.172614569137978,0.4353874913210147,357.6385,45.81493,180.2694,0.3892049,0.01806615,0.9209178,20
18.18,-4.765429,1.59291,-10.1457,-0.0835715438753234,0.1158810205403995,0.3783615589447816,1.178522,45.90129,180.5598,0.3898666,-0.01137489,0.920801,20
18.2,-4.687476,1.749086,-10.05823,-0.0586391871045373,0.0595354665960839,0.3193542226885898,4.717,46.00584,180.8564,0.3901531,-0.0407966,0.9197998,20
18.22,-4.74088,1.24615,-10.11195,-0.0144643854439113,0.099096699104257,0.2727238595665943,1.376368,46.07309,181.5829,0.3911,-0.01645689,0.9201663,20
18.24,-4.658691,1.411317,-10.02011,0.0111103303371917,0.0654023813572344,0.2116391229375852,4.987929,46.1787,181.8801,0.3910853,-0.04645082,0.9191796,20
18.26,-4.577989,1.572767,-9.930104,0.0346314786827445,0.0336376675928806,0.1492469050750108,8.598516,46.30392,182.186,0.3906786,-0.0763948,0.9172736,20
18.28,-4.498934,1.730663,-9.842092,0.055525336001072,0.0009131924611863,0.0855155392770754,12.20735,46.4502,182.5035,0.389881,-0.1062539,0.9144512,20
18.3,-4.586044,1.217412,-9.907291,0.094299937561731,0.0631772859464934,0.0322959581813218,11.88979,46.02756,183.3581,0.3858897,-0.1066815,0.9162542,20
18.32,-4.504526,1.389771,-9.816662,0.0975668529739945,0.0238554624734533,-0.0448513131135117,15.50956,46.18507,183.6483,0.3844823,-0.1364299,0.9126829,20
18.34,-4.424206,1.558488,-9.727513,0.0992138231250238,-0.0124152466648511,-0.1224305738951115,19.12742,46.36498,183.9548,0.3826886,-0.1660325,0.9081964,20
18.36,-4.483375,1.183186,-9.770389,0.120686967526832,0.0294345776950841,-0.1891778358857394,17.40635,45.59903,183.9168,0.3780551,-0.1525014,0.9127232,20
18.38,-4.403679,1.363813,-9.682913,0.1402077646093879,0.0703961224503602,-0.2561743847696551,20.97966,45.76538,184.1535,0.3760175,-0.1814789,0.907876,20
18.4,-4.324829,1.540997,-9.596498,0.1270886766012002,0.0041904757006472,-0.3418028018946494,24.55121,45.95226,184.4079,0.3736128,-0.2102706,0.9021438,20
18.42,-4.246966,1.714832,-9.511302,0.1131065797907094,-0.0590485824998636,-0.4266592440494381,28.1206,46.16269,184.6831,0.3708437,-0.2388458,0.8955342,20
18.44,-4.339394,1.145496,-9.580357,0.1333721056579639,-0.0159372462662966,-0.4900709237668323,24.60287,42.15832,184.0594,0.3441383,-0.2111193,0.913803,20
18.46,-4.262688,1.336302,-9.495648,0.133952482427782,-0.0551288011156709,-0.5624211896043931,28.12015,42.25126,184.0703,0.3413485,-0.2388846,0.9073861,20
18.48,-4.186391,1.523886,-9.411513,0.1350543613763732,-0.0903054051838453,-0.6327040908242908,31.63596,42.34824,184.0882,0.3382381,-0.2664135,0.900117,20
18.5,-4.110633,1.708297,-9.328094,0.1362245506968332,-0.1246882897315825,-0.7008473839371578,35.15074,42.45048,184.1142,0.3348095,-0.2936838,0.8920029,20
18.52,-4.20479,1.124851,-9.405266,0.1713286818323834,-0.0492947745091262,-0.7487207607380171,32.07728,38.72827,183.5492,0.3104397,-0.2703995,0.9091101,20
18.54,-4.130301,1.321864,-9.322747,0.194172123760804,-0.0861309512735775,-0.8027961652516324,35.5244,38.6818,183.308,0.3069608,-0.2968343,0.9011278,20
18.56,-4.055958,1.515819,-9.240507,0.2187151470351346,-0.1195421167761942,-0.8537392555915263,38.97033,38.61446,183.052,0.3032036,-0.3229919,0.8923297,20
18.58,-4.208497,1.1156,-9.233814,0.2632600201632111,-0.0650068525416022,-0.8918431437644736,41.84917,37.22102,182.3635,0.291043,-0.3445397,0.887372,20
18.6,-4.135323,1.315537,-9.153092,0.3100920543117923,-0.010732958733032,-0.9264088690120504,45.23437,37.02306,181.9492,0.286833,-0.3696067,0.877284,20
18.62,-4.062175,1.512533,-9.072512,0.3438735439427557,-0.0708730242530067,-0.966725063452751,48.6174,36.77518,181.4904,0.2823715,-0.3943415,0.8664274,20
18.64,-3.98917,1.706601,-8.992202,0.3880425421732363,-0.0406666308552414,-0.9976481834632313,51.99794,36.4651,180.9742,0.2776625,-0.4187227,0.8548122,20
18.66,-4.094888,1.109985,-8.90807,0.4347569532859517,-0.0087556085137164,-1.0243435187591912,50.67931,35.42593,178.737,0.2794524,-0.4046386,0.8594532,20
18.68,-4.023678,1.309365,-8.828732,0.4835826076846218,0.0214889945016981,-1.0468216400436223,53.9927,35.00997,178.1017,0.2751478,-0.4284136,0.8473942,20
18.7,-3.952512,1.505931,-8.749554,0.5462824687900844,-0.0653462474748137,-1.0592339302732356,57.30191,34.48945,177.3661,0.2706107,-0.4518188,0.8346202,20
18.72,-3.888336,1.104404,-8.519472,0.6094409436781101,-0.1374312762518217,-1.0680437928129043,61.21703,29.49824,171.2335,0.2561058,-0.4742057,0.819966,20
18.74,-3.817986,1.295537,-8.442512,0.6852625119560033,-0.0821390877240025,-1.0649596768913334,64.40703,28.09347,169.5573,0.2515706,-0.4961575,0.8056813,20
18.76,-3.747997,1.484001,-8.366055,0.778429696107582,-0.1022761789031361,-1.048618249944528,67.57292,26.25872,167.4545,0.2468299,-0.5176932,0.7907429,20
18.78,-3.678472,1.669832,-8.290213,0.8710920824829942,-0.1224840237881407,-1.0285733081573931,70.70392,23.78969,164.7206,0.2418879,-0.538799,0.7751611,20
18.8,-3.609513,1.746417,-8.215092,0.9499721413161094,-0.0582709034469778,-1.0188482776874803,73.78032,20.3346,161.0031,0.236749,-0.5594578,0.7589494,20
18.82,-3.469477,1.161368,-8.074968,1.0269760124270793,0.0047692318629546,-1.0062989532519016,55.81811,27.01774,168.8154,0.2497952,-0.4328375,0.8444989,20
18.84,-3.396566,1.340982,-7.998712,1.1184737355583223,-0.025071266207412,-0.9855465519409584,58.9043,25.62232,167.0564,0.2458938,-0.4546377,0.8313902,20
18.86,-3.324467,1.517866,-7.923419,1.2079842958664857,-0.0567372079871977,-0.961282455714108,61.96266,23.88821,164.9641,0.2417978,-0.4760706,0.8176253,20
18.88,-3.154352,1.228357,-7.837127,1.2827560463993244,0.0071035874572822,-0.9515974180784276,37.87915,38.18451,174.7954,0.3229887,-0.2923542,0.8880907,20
18.9,-3.072823,1.400148,-7.757318,1.3538310939174876,0.0687535017919493,-0.9406479888122656,41.23042,37.92161,174.2475,0.3204412,-0.3173063,0.8783261,20
18.92,-2.992506,1.56875,-7.678827,1.413578194202889,0.0354264989031963,-0.9374463322388548,44.57854,37.59908,173.6475,0.3176153,-0.3419758,0.867801,20
18.94,-2.853319,1.26343,-7.649769,1.462639795880753,0.0702770404393593,-0.9399227596645868,13.95409,47.17387,177.2278,0.3997537,-0.101683,0.9082258,20
18.96,-2.761942,1.431043,-7.569627,1.5073246914236924,0.1045536688731936,-0.9423512338655254,17.49267,47.23973,177.1537,0.3993456,-0.129443,0.9037771,20
18.98,-2.672096,1.595031,-7.49098,1.544046529592365,0.0679654758163088,-0.9480401816580908,21.03156,47.30157,177.0809,0.3985538,-0.1570766,0.898466,20
19.0,-2.583964,1.755541,-7.413967,1.576682352145769,0.0302769280352019,-0.9532975213840852,24.56952,47.36001,177.0104,0.3973814,-0.1845526,0.8922994,20
19.02,-2.455282,1.285268,-7.38846,1.6144530360830829,0.0835589169993751,-0.9484538520085894,353.31,54.6843,178.7697,0.4579378,0.05674915,0.8870031,20
19.04,-2.358486,1.448767,-7.311138,1.646406873298029,0.1340567219483467,-0.9444176008106588,356.8755,54.74989,179.0036,0.4594128,0.0282059,0.8877621,20
19.06,-2.263522,1.608514,-7.235415,1.6667822087558946,0.0894349911573334,-0.944619997263908,0.4396756,54.82984,179.2411,0.4604402,-0.0003567082,0.887658,20
19.08,-2.170569,1.76467,-7.161433,1.6817695912374184,0.0436578983709558,-0.9447713456083549,4.002463,54.9247,179.4841,0.4610193,-0.02891073,0.8866916,20
19.1,-2.15033,1.282836,-7.194378,1.6958015222166278,0.0874357853544011,-0.9434869510067094,353.7727,57.17808,179.7968,0.4777322,0.04854164,0.8768231,20
19.12,-2.052663,1.444829,-7.118657,1.6919396948702607,0.0568365688079596,-0.9508391762063956,357.3273,57.23712,180.1346,0.4788697,0.01990958,0.8775754,20
19.14,-1.956923,1.603092,-7.044565,1.6820695602791158,0.027189287403635,-0.9594766221611624,0.8805135,57.31697,180.4758,0.4795415,-0.008733595,0.8774759,20
19.16,-1.863289,1.757792,-6.972239,1.675035894468493,0.0703100522214072,-0.9627117112611754,4.432166,57.41814,180.8227,0.4797473,-0.0373602,0.876525,20
19.18,-1.871833,1.246197,-7.027785,1.661405185355017,0.1114385418265091,-0.9681405230172966,1.35404,59.58919,181.6397,0.4966598,-0.01736239,0.867747,20
19.2,-1.772078,1.411445,-6.956405,1.6406850663119732,0.1328465533301147,-0.9760106354711496,4.943992,59.69357,181.9936,0.4964932,-0.04605421,0.8667945,20
19.22,-1.674158,1.573016,-6.886477,1.5800208370206708,0.0481050426285003,-1.0017736714835002,8.532668,59.8209,182.3554,0.4958336,-0.07469108,0.8649839,20
19.24,-1.685467,1.226289,-6.905014,1.5345522436944483,0.0619989120268629,-1.0077509719262934,10.30767,60.62119,183.1994,0.5002861,-0.09155239,0.8607426,20
19.26,-1.583897,1.39661,-6.836615,1.4844294716545183,0.076686267312933,-1.0150261946227603,13.92681,60.7737,183.5224,0.4986533,-0.1199635,0.8577471,20
19.28,-1.483959,1.56326,-6.769432,1.4291846753442068,0.089378201183648,-1.0238433781686536,17.544,60.95021,183.8612,0.4965193,-0.1482458,0.8538908,20
19.3,-1.385838,1.726374,-6.703596,1.335380487611597,-0.0020170449943124,-1.049291632074574,21.15943,61.15318,184.2185,0.4938855,-0.1763703,0.8491784,20
19.32,-1.513765,1.190921,-6.795975,1.2629894851832422,0.0087334629234128,-1.052899990540352,16.07196,62.10887,183.8105,0.5065228,-0.1366752,0.8501941,20
19.34,-1.412994,1.369458,-6.732484,1.1876121442689476,0.0211937845123963,-1.0571344885761127,19.65148,62.28736,184.1173,0.5040239,-0.1642685,0.8459448,20
19.36,-1.313435,1.544511,-6.669862,1.0848919289010244,-0.0469231212101599,-1.0717558102742617,23.22896,62.49097,184.4437,0.5010301,-0.1916923,0.8408661,20
19.38,-1.215269,1.716184,-6.608229,1.0007028801100666,-0.0306899379260974,-1.0672202145673546,26.80408,62.72284,184.7928,0.4975438,-0.2189148,0.8349651,20
19.4,-1.331289,1.153012,-6.677372,0.9149696033206338,-0.0123232582541316,-1.0623231245157028,23.06936,60.05152,184.0895,0.483794,-0.1905096,0.8513446,20
19.42,-1.232746,1.341723,-6.618031,0.8273595306957052,0.005101077811685,-1.057288630318142,26.59717,60.17285,184.1784,0.4802829,-0.2166872,0.8457116,20
19.44,-1.134872,1.527171,-6.559187,0.7125693012309966,-0.0894678580653436,-1.061590134511973,30.12367,60.30442,184.2787,0.4763168,-0.2426505,0.8392789,20
19.46,-1.176372,1.128708,-6.575019,0.6222050376461428,-0.0705448500306729,-1.0424330618658226,30.03194,57.1335,183.7411,0.4541805,-0.2425015,0.8518633,20
19.48,-1.080208,1.324332,-6.518063,0.5320483717308224,-0.0493444371852752,-1.0218673465564423,33.4956,57.13582,183.5865,0.4497722,-0.267282,0.844898,20
19.5,-0.9843421,1.516868,-6.46137,0.4418341910800151,-0.0291123200272443,-1.0001364679003424,36.95825,57.1265,183.4254,0.4449532,-0.291811,0.8371619,20
19.52,-0.8889335,1.706344,-6.405035,0.3302258645149047,-0.1231652915151425,-0.9884435582895704,40.41988,57.10387,183.2556,0.4397281,-0.3160662,0.8286626,20
19.54,-0.8901522,1.115515,-6.412627,0.2447195301987044,-0.1010702149029694,-0.9514627083770596,41.85477,55.76553,182.4051,0.4300919,-0.3248153,0.8289224,20
19.56,-0.7953896,1.315349,-6.358345,0.1612422932634002,-0.0769721905088662,-0.9120449407579228,45.25135,55.59398,182.0352,0.4243379,-0.3479066,0.8195819,20
19.58,-0.7007031,1.512229,-6.304189,0.0795657622519153,-0.0542033701373947,-0.8704413048089623,48.64603,55.37806,181.6259,0.4182101,-0.3706838,0.8095197,20
19.6,-0.606245,1.706167,-6.250247,0.0252997378644824,-0.058714073549253,-0.8194814208422694,52.03852,55.10673,181.1655,0.411714,-0.393127,0.7987453,20
19.62,-0.6173303,1.112892,-6.262208,-0.0251930954579877,-0.0593984771123992,-0.7658054254871829,48.06369,55.02306,179.5778,0.4232149,-0.3596354,0.8093408,20
19.64,-0.5240067,1.31324,-6.209761,-0.0720695394607657,-0.0596692439949127,-0.7096625502059446,51.3906,54.70686,179.0547,0.4172042,-0.3816771,0.7986879,20
19.66,-0.4307299,1.510748,-6.157422,-0.1015502208039005,-0.1470420626302886,-0.6438655929830956,54.7144,54.31279,178.458,0.4108394,-0.4033874,0.7873581,20
19.68,-0.3376444,1.705428,-6.105269,-0.1019218061609154,-0.117427915864384,-0.5773327452665789,58.03442,53.81758,177.764,0.4041265,-0.4247485,0.7753615,20
19.7,-0.1586302,1.104349,-6.011968,-0.0983247071743286,-0.0870751043125262,-0.5096673674780992,61.22213,48.87308,171.2618,0.3903178,-0.4351227,0.7652227,20
19.72,-0.06681038,1.295431,-5.962245,-0.0719781403117729,-0.1335888883008631,-0.4304139404792078,64.42053,47.4882,169.6127,0.383451,-0.4550663,0.7518703,20
19.74,0.02449711,1.483835,-5.912881,-0.0417785453600034,-0.0922892033923374,-0.3735285186132125,67.59544,45.67797,167.5417,0.3762702,-0.4746262,0.7379061,20
19.76,0.2333211,1.144065,-5.798424,-0.0087476619001715,-0.0505256611329131,-0.3177007958066719,58.41976,43.43661,167.8075,0.3693087,-0.4165037,0.7871156,20
19.78,0.3251604,1.325976,-5.748044,0.0270128136045346,-0.0114372373562106,-0.2631999407811367,61.4883,41.75327,165.7684,0.3630836,-0.4360258,0.7742834,20
19.8,0.416046,1.505197,-5.69827,0.0654151840634393,0.0068083618753287,-0.2102828727750899,64.52055,39.63252,163.2967,0.3565709,-0.4551951,0.7608386,20
19.82,0.5058443,1.681798,-5.649173,0.11266094549708,-0.0647099881892635,-0.1586335537026965,67.50195,36.90821,160.2259,0.3497774,-0.4739957,0.7467933,20
19.84,0.7129516,1.22873,-5.562736,0.1531217122227968,-0.0250317664264794,-0.1177879782542373,37.846,52.70687,174.7313,0.4328287,-0.2709866,0.8401325,20
19.86,0.8118524,1.400982,-5.508092,0.1959951784817458,0.0143029875514898,-0.0791649467620692,41.15639,52.39649,174.1144,0.4289551,-0.2937434,0.8309459,20
19.88,0.9092697,1.570105,-5.454367,0.2419945221879472,-0.0165235280241134,-0.0469141735122733,44.46296,52.01923,173.4388,0.4247169,-0.3162437,0.8210543,20
19.9,1.005051,1.736197,-5.401641,0.2770107867861223,0.0205941842325507,-0.0182726104981857,47.76585,51.56071,172.6892,0.4201165,-0.3384753,0.8104633,20
19.92,1.048065,1.263602,-5.413149,0.3130829407076712,0.0570309067740231,0.0071326741764768,13.9546,59.50058,177.1714,0.494999,-0.09327621,0.8600165,20
19.94,1.155089,1.431415,-5.356084,0.3499001814845587,0.0899014093011468,0.0289461413598517,17.48354,59.54678,177.0399,0.494046,-0.1191986,0.8556775,20
19.96,1.260291,1.595612,-5.300103,0.3760912689373792,0.0981765562618756,0.0518556905386347,21.013,59.58512,176.9083,0.4926222,-0.1450096,0.8505254,20
19.98,1.341949,1.279235,-5.267477,0.4015394223417966,0.107345509650645,0.0712060994515866,354.4946,64.18645,178.4117,0.5300706,0.04803807,0.8464797,20
20.0,1.451195,1.44412,-5.210269,0.4258492288841167,0.1145587511347035,0.0866357996460482,358.0579,64.259,178.551,0.5315344,0.0210747,0.846773,20
20.02,1.558417,1.605285,-5.154235,0.4458056510126092,0.0488633116592866,0.0963748408831139,1.619954,64.3401,178.6948,0.5324824,-0.005901406,0.8462465,20
20.04,1.663414,1.762885,-5.099475,0.4585353820076795,0.0752198196972991,0.1099115037441402,5.18082,64.43038,178.8441,0.5329146,-0.03286416,0.8449014,20
20.06,1.729286,1.282899,-5.068914,0.467875363530375,0.1007201300081701,0.1193275912123856,353.7819,65.58318,179.7467,0.5406857,0.0467888,0.8394719,20
20.08,1.837954,1.444897,-5.009608,0.473422092923178,0.1226648991281424,0.1242622332488267,357.3468,65.64201,180.0366,0.5418773,0.01928279,0.8401389,20
20.1,1.944453,1.603154,-4.951602,0.4748098782485228,0.123340017610866,0.1243841347879193,0.9102966,65.71873,180.3298,0.5425404,-0.008234203,0.8399874,20
20.12,1.971827,1.250457,-4.943248,0.4547906491825374,0.1117215058453532,0.1199949215090723,359.3788,66.25085,181.3699,0.5464809,-0.001993077,0.8373688,20
20.14,2.079942,1.415204,-4.885516,0.4326611928853779,0.1022514256562943,0.1120594147659224,2.963448,66.33798,181.6691,0.5465541,-0.02960854,0.8368981,20
20.16,2.18602,1.576281,-4.828985,0.4080426114729673,0.0921313954065544,0.1002532353472897,6.546824,66.4443,181.9749,0.5460883,-0.05718747,0.8356029,20
20.18,2.289859,1.733844,-4.773757,0.3604578354793598,0.0072404767030304,0.075654324828022,10.12856,66.57091,182.2903,0.5450843,-0.0847023,0.8334854,20
20.2,2.39127,1.781402,-4.71993,0.3269021383610953,0.0222224556262239,0.0664453786050027,13.70851,66.71937,182.6178,0.5435436,-0.1121258,0.8305483,20
20.22,2.260895,1.226308,-4.775386,0.291413922930452,0.0379999341165042,0.0541855908329563,10.31128,66.63708,183.1764,0.5447795,-0.0902247,0.8332973,20
20.24,2.369552,1.396628,-4.718578,0.2536041762141877,0.0517780721244814,0.0385857494667478,13.93706,66.78068,183.4761,0.5429509,-0.1178205,0.8304169,20
20.26,2.476447,1.563267,-4.662795,0.1987522028417931,0.0371436295540098,0.0191850469750141,17.561,66.94663,183.7906,0.5405752,-0.1452896,0.8267007,20
20.28,2.58138,1.726359,-4.608142,0.1432362184760608,0.0265681874295577,-0.0025095943623452,21.18337,67.13742,184.1231,0.5376546,-0.1726065,0.822153,20
20.3,2.450713,1.183158,-4.659942,0.0867276903493908,0.0170727924874365,-0.0267290826732619,17.40646,66.53514,183.9289,0.5375777,-0.1450314,0.8288501,20
20.32,2.556375,1.363706,-4.606251,0.0075309538353451,-0.0727156983547976,-0.0617653966701736,20.98538,66.69753,184.1784,0.5346365,-0.1717285,0.8244752,20
20.34,2.660862,1.540801,-4.553249,-0.0382157668495869,-0.0556323749167989,-0.0756323413315233,24.56252,66.88126,184.4457,0.5311718,-0.1982494,0.819294,20
20.36,2.594479,1.153137,-4.568453,-0.0832977966399635,-0.0362197733482461,-0.090675591059133,23.05895,63.71557,184.0559,0.5108313,-0.187958,0.8354345,20
20.38,2.696929,1.341945,-4.516497,-0.1280077688824918,-0.0175292177135849,-0.1070869942211643,26.5824,63.81797,184.1091,0.507086,-0.2134766,0.8299763,20
20.4,2.798676,1.5275,-4.464982,-0.1726174327966468,-0.0183701663429985,-0.1250422638772004,30.10437,63.92751,184.1713,0.5028624,-0.2387831,0.8237357,20
20.42,2.899549,1.709859,-4.413995,-0.2218945101574537,-0.0305478570132675,-0.1400857731110601,33.62514,64.04578,184.244,0.4981646,-0.2638563,0.8167191,20
20.44,2.822622,1.124889,-4.429188,-0.267794310202291,-0.0381369720926769,-0.1546094120826167,32.07373,59.17263,183.5419,0.4668692,-0.2547855,0.8395873,20
20.46,2.921532,1.321897,-4.377959,-0.3105634580220069,-0.0444196802035802,-0.1687803563615249,35.52806,59.11329,183.2921,0.4619474,-0.278779,0.8323753,20
20.48,3.020203,1.515836,-4.326933,-0.3420748425902322,-0.0478916931958582,-0.1780699306359185,38.98116,59.03178,183.0259,0.4566054,-0.3025115,0.8244066,20
20.5,3.118472,1.706729,-4.276195,-0.3690673038960574,-0.0471785467241571,-0.186277463753597,42.43292,58.92419,182.7391,0.4508483,-0.3259616,0.8156888,20
20.52,3.067064,1.115593,-4.303437,-0.3917741125166846,-0.0456524182403769,-0.1935584844313484,41.84278,58.04496,182.3707,0.4466108,-0.321555,0.8201886,20
20.54,3.16412,1.315513,-4.253855,-0.4104231006642331,-0.0466350493133086,-0.2000632829409024,45.23029,57.84301,181.9624,0.4405963,-0.3441762,0.8110476,20
20.56,3.261098,1.512491,-4.204389,-0.4165868203654531,-0.0465430716118253,-0.1989892307041655,48.61562,57.59142,181.5096,0.434195,-0.366488,0.8011953,20
20.58,3.357842,1.706538,-4.15512,-0.4181933381163364,-0.0428916640667315,-0.1965111583395429,51.99843,57.27786,180.9993,0.427413,-0.388471,0.7906408,20
20.6,3.396467,1.109986,-4.133413,-0.4154699999210183,-0.0390839232412492,-0.1927744913833022,50.67614,56.26548,178.7406,0.4302772,-0.3726921,0.7947556,20
20.62,3.491219,1.309363,-4.084562,-0.3923003733110306,-0.121348490417556,-0.1792044403747801,53.99027,55.8429,178.1071,0.4238094,-0.3941281,0.7837006,20
20.64,3.585869,1.505928,-4.035837,-0.3505851264828186,-0.0874632921604382,-0.1555037884135376,57.30013,55.31536,177.3727,0.4169837,-0.4152238,0.7719845,20
20.66,3.778844,1.104395,-3.934746,-0.3053166457681173,-0.0533419551266754,-0.1309212093103987,61.21124,50.24145,171.2421,0.3995169,-0.4317262,0.7605063,20
20.68,3.871882,1.295543,-3.887713,-0.2567349946992503,-0.0222574023538663,-0.1055914669986532,64.40102,48.82607,169.5629,0.392425,-0.4514163,0.747304,20
20.7,3.964401,1.484022,-3.841018,-0.2050718327385814,-0.0179110566113531,-0.0796437412723482,67.5665,46.97915,167.4555,0.3850137,-0.4707279,0.7334951,20
20.72,4.190069,1.144062,-3.718861,-0.1528826819203181,-0.0039861043788372,-0.0524451124146094,58.42139,44.55039,167.7911,0.3769998,-0.4138593,0.7834434,20
20.74,4.282945,1.326013,-3.670543,-0.0987474855403307,0.0115648888130017,-0.0247893476662417,61.4854,42.84814,165.7345,0.370595,-0.4331983,0.7707078,20
20.76,4.374854,1.505278,-3.622806,-0.0428944900294814,0.0255671153920268,0.0031956193912799,64.51247,40.70502,163.242,0.3638971,-0.4521871,0.7573631,20
20.78,4.465662,1.681924,-3.575716,0.0072049470929718,0.0492635349768749,0.0242029565041955,67.48783,37.95462,160.1466,0.3569135,-0.4708107,0.7434207,20
20.8,4.555244,1.749366,-3.52934,0.0581586238141385,0.0739215620302975,0.0452964568879219,70.38849,34.33936,156.19,0.3496481,-0.4890553,0.7288919,20
20.82,4.687854,1.228731,-3.479783,0.1096730706614395,0.0964564212843544,0.0662896217383801,37.85147,53.54963,174.7216,0.4390134,-0.2696385,0.8368961,20
20.84,4.787617,1.401011,-3.42681,0.1614759916188581,0.1137033107648497,0.0870088215852558,41.15987,53.22898,174.0948,0.4350271,-0.2922477,0.8277633,20
20.86,4.885881,1.570165,-3.374725,0.1956844034508931,0.1297017329086065,0.0980016434830881,44.46431,52.84011,173.4079,0.4306711,-0.3146018,0.8179285,20
20.88,4.988767,1.263599,-3.350766,0.2289005647271969,0.1463676527558744,0.1082266292312231,13.96835,60.14394,177.1643,0.4998207,-0.09288938,0.8572047,20
20.9,5.096496,1.431425,-3.295056,0.2419825437703171,0.165760497323028,0.1141813188749411,17.49712,60.18456,177.0265,0.4988082,-0.1186967,0.852886,20
20.92,5.202387,1.595636,-3.240401,0.2487861797878172,0.1099450413913684,0.1175523124848566,21.02639,60.21683,176.8882,0.4973207,-0.1443936,0.8477568,20
20.94,5.306235,1.756383,-3.186904,0.249682727352327,0.1501780684062345,0.1273225486175451,24.55473,60.24051,176.7484,0.4953609,-0.1699462,0.8418242,20
20.96,5.39333,1.28537,-3.150069,0.2361166389330751,0.1928009612780468,0.1336798590773111,353.3176,65.1086,178.7046,0.5365944,0.05519408,0.8417498,20
20.98,5.503458,1.449003,-3.093375,0.2087974248300406,0.2345026817642023,0.1366441971444625,356.8857,65.17163,178.8763,0.5381129,0.02817427,0.8423777,20
21.0,5.61148,1.608886,-3.037875,0.1716315626412898,0.3223429492004261,0.1395922630646958,0.4526731,65.24516,179.0516,0.5391077,0.001134824,0.842187,20
21.02,5.697011,1.282962,-2.993816,0.142618301949132,0.2932494870272553,0.1310289197657646,353.7758,65.96089,179.7478,0.5434484,0.04673737,0.8376824,20
21.04,5.805841,1.445029,-2.935242,0.0961493863253983,0.2691885313314546,0.1182458488430154,357.3346,66.01579,180.0387,0.5446138,0.01931985,0.8383644,20
21.06,5.912501,1.603367,-2.877946,0.0351000999290107,0.2470107203750311,0.1018385820940609,0.8921109,66.08862,180.3326,0.5452497,-0.008108611,0.8382326,20
21.08,6.016791,1.758141,-2.822033,-0.0212730238768215,0.2329033718332075,0.0750850783998763,4.448167,66.17986,180.6319,0.5453559,-0.03552143,0.8372877,20
21.1,6.11852,1.802865,-2.767603,-0.093572065888408,0.2254832014038275,0.0428098984975269,8.002672,66.29038,180.9388,0.5449328,-0.06289195,0.8355312,20
21.12,6.02294,1.246293,-2.821977,-0.1794677614259916,0.2217513388686313,0.0056422110006169,1.345912,66.79359,181.5962,0.5502062,-0.01747112,0.8348301,20
21.14,6.131515,1.411603,-2.764853,-0.2667594143205953,0.295293308371122,-0.0289752248806198,4.940421,66.88773,181.9073,0.5499328,-0.04512277,0.8339306,20
21.16,6.238069,1.573234,-2.708898,-0.3593383737014186,0.2545047644967461,-0.0808637437981957,8.533721,67.00218,182.2263,0.5491139,-0.07272343,0.8322049,20
21.18,6.199982,1.226367,-2.715227,-0.4654322257765351,0.2200001658644083,-0.1385677221514933,10.30362,66.79679,183.1671,0.5459527,-0.09008791,0.8325392,20
21.2,6.308795,1.396738,-2.65901,-0.5827491972795269,0.1887929023624993,-0.2012139605189135,13.92627,66.93464,183.4576,0.5440938,-0.1175988,0.8296878,20
21.22,6.415845,1.563436,-2.603803,-0.7158962322000468,0.0860643306475308,-0.2769453786036208,17.54713,67.09409,183.7623,0.541688,-0.1449834,0.8260035,20
21.24,6.52093,1.726596,-2.54971,-0.8232991131220888,0.0937742616920348,-0.3412505684544263,21.16636,67.2776,184.0844,0.5387375,-0.1722157,0.8214902,20
21.26,6.408458,1.183187,-2.590422,-0.9385483246223472,0.1062025932459218,-0.4098439581731891,17.40256,66.67252,183.9254,0.5385792,-0.1449215,0.8282069,20
21.28,6.514247,1.363746,-2.537073,-1.0611991679191453,0.1207342406710867,-0.4824302487982642,20.98061,66.83,184.1715,0.5356049,-0.1715809,0.8238577,20
21.3,6.618857,1.540854,-2.484407,-1.190788774766768,0.1132108119432891,-0.5586983789893615,24.55691,67.00843,184.4349,0.5321068,-0.1980645,0.8187035,20
21.32,6.570762,1.159642,-2.489686,-1.299147645519652,0.0845043367269509,-0.6284997675833983,23.05488,63.84693,184.0548,0.511795,-0.1878366,0.8348529,20
21.34,6.673324,1.348451,-2.437994,-1.4117459848510314,0.0618811481945051,-0.7017612929421122,26.57803,63.94502,184.1067,0.508016,-0.2133326,0.8294182,20
21.36,6.775182,1.534007,-2.386738,-1.5282324087932644,0.0425567206632292,-0.7781458682814346,30.09971,64.04997,184.1672,0.5037578,-0.2386169,0.823202,20
21.38,6.876162,1.716368,-2.336005,-1.6236730440618334,0.0196223910794982,-0.8468704399676232,33.6202,64.16341,184.2378,0.4990247,-0.2636679,0.8162102,20
21.4,6.97609,1.783753,-2.285879,-1.72016566985213,0.0021747834974944,-0.917798590732453,37.13955,64.28722,184.3202,0.4938214,-0.288463,0.8084502,20
21.42,6.817191,1.143833,-2.341413,-1.8173539367941989,-0.0126888852508775,-0.990584885032936,32.0714,59.28444,183.5413,0.4676929,-0.254658,0.8391352,20
21.44,6.916192,1.340844,-2.290406,-1.914971093198612,-0.0278467383862779,-1.0649051010408412,35.52535,59.22071,183.2903,0.4627358,-0.2786337,0.831946,20
21.46,7.014953,1.534786,-2.2396,-1.9787386186947464,-0.0466311086565442,-1.1315725910508447,38.97805,59.13451,183.0228,0.4573577,-0.3023486,0.8240004,20
21.48,7.025458,1.14293,-2.234529,-2.0408636985642605,-0.0606338916018857,-1.1996352216714223,41.83621,58.0402,182.3685,0.4465938,-0.3215064,0.8202214,20
21.5,7.122544,1.342855,-2.185011,-2.1011857431616523,-0.0728716559551334,-1.2687845284753263,45.22372,57.83206,181.9566,0.4405477,-0.344124,0.8110998,20
21.52,7.21955,1.539838,-2.135607,-2.1447076115106967,-0.1723466723317011,-1.336919940754426,48.609,57.57354,181.4993,0.4341149,-0.3664324,0.8012667,20
21.54,7.316321,1.733891,-2.086395,-2.1630882689653754,-0.1538633392468247,-1.3943249080415665,51.9917,57.25215,180.9836,0.4273015,-0.3884119,0.7907314,20
21.56,7.371984,1.148667,-2.055675,-2.177069472539767,-0.1327513962706865,-1.4514304460539726,50.66121,56.26178,178.7446,0.4302639,-0.3726097,0.7948266,20
21.58,7.466738,1.348053,-2.00684,-2.1866030428299954,-0.112064794657927,-1.5079299532577004,53.97535,55.83462,178.1098,0.4237694,-0.3940514,0.7837898,20
21.6,7.561389,1.544628,-1.95813,-2.191639954659391,-0.116857120692359,-1.5635199183764348,57.28517,55.30199,177.3736,0.4169171,-0.415153,0.7720916,20
21.62,7.771381,1.152141,-1.84796,-2.1507744105950044,-0.1281093831259123,-1.6055389951784658,61.20651,50.23727,171.251,0.3994619,-0.4317349,0.7605626,20
21.64,7.864405,1.343299,-1.800915,-2.1056812930879505,-0.1353760670473019,-1.6460596460499577,64.39638,48.81824,169.5718,0.3923448,-0.4514348,0.7473742,20
21.66,7.956907,1.531788,-1.754205,-2.0561708171402984,-0.1417829738716241,-1.6846920912362309,67.56191,46.9673,167.4639,0.3849085,-0.4707564,0.7335792,20
21.68,8.048756,1.717647,-1.707894,-1.989294442866684,-0.1364039645257999,-1.7258044383361664,70.6921,44.47917,164.7219,0.3771586,-0.489687,0.7191878,20
21.7,8.139817,1.756056,-1.662049,-1.9200462747032128,-0.1269198674010678,-1.764448672902406,73.7671,41.00108,160.9923,0.3691018,-0.5082115,0.7042118,20
21.72,8.304985,1.221109,-1.567447,-1.8484386576593907,-0.1163138935826699,-1.8003914149436036,55.82021,44.84301,168.7284,0.3779159,-0.3975083,0.7953978,20
21.74,8.398476,1.400876,-1.518591,-1.794535893425237,-0.0286810179878562,-1.844759469201921,58.89008,43.3548,166.8729,0.3717753,-0.4170605,0.7831815,20
21.76,8.490891,1.577915,-1.470373,-1.713380420910559,-0.0380893359470086,-1.8898050133794164,61.92886,41.51033,164.6667,0.3653411,-0.4362761,0.7703471,20
21.78,8.656147,1.296238,-1.404178,-1.6304713453371067,-0.0452157926817733,-1.9307398557214528,37.90295,53.42939,174.7198,0.4380912,-0.2702078,0.8372146,20
21.8,8.75669,1.468176,-1.350281,-1.5459563647414003,-0.052969141546071,-1.9674265010107712,41.246,53.10411,174.0925,0.4340452,-0.2930915,0.8279803,20
21.82,8.855701,1.636925,-1.297294,-1.4495387934868538,-0.1220423045733985,-2.006741534450157,44.58504,52.70942,173.4037,0.4296228,-0.3157145,0.8180292,20
21.84,8.953026,1.801646,-1.245298,-1.3577303156944782,-0.0882737996532305,-2.041376175647005,47.9205,52.23031,172.6378,0.4248269,-0.3380665,0.8073664,20
21.86,9.049551,1.347478,-1.219693,-1.266358924300642,-0.0528168927689387,-2.0718729490136694,8.206745,60.77164,177.5452,0.5057302,-0.05090558,0.8594549,20
21.88,9.157172,1.514783,-1.16286,-1.175680644450953,-0.0185831795917952,-2.098175627968036,11.74269,60.83467,177.4802,0.5054566,-0.07712019,0.8564906,20
21.9,9.130334,1.713983,-1.130222,-1.0868612544594314,0.0602056984964721,-2.116152718064256,11.52197,61.62117,178.859,0.5104477,-0.08113346,0.8539732,20
21.92,9.194132,1.381021,-1.086668,-0.994861077285806,0.0367881886701038,-2.137823491218104,350.6274,64.88184,179.5572,0.534366,0.07101597,0.8412868,20
21.94,9.204401,1.57197,-1.047071,-0.9039112267610732,0.0151482093380749,-2.153826795780432,351.3098,65.39838,180.6387,0.5390227,0.06075266,0.8388587,20
21.96,9.215451,1.762369,-1.007688,-0.8144680056828322,-0.0074100321228522,-2.1642296844302376,352.0005,65.92636,181.718,0.5435911,0.05037957,0.8363139,20
21.98,9.227044,1.947034,-0.9686812,-0.726396501216583,-0.015605980072872,-2.1762951662782566,352.6882,66.47325,182.7983,0.5481218,0.03996156,0.8336099,20
22.0,9.238779,1.975539,-0.9300079,-0.6400470886054224,-0.0208971770966283,-2.1827963258573813,353.3634,67.03153,183.884,0.5525595,0.02955063,0.830775,20
22.02,9.403263,1.34272,-0.9474581,-0.5560360877337867,-0.0259471380893015,-2.1838666653813417,353.2516,68.66592,180.2574,0.5631311,0.04733805,0.8242658,20
22.04,9.391562,1.540227,-0.9173059,-0.4719101973891946,0.0387422432131923,-2.178110955721289,353.1963,69.07316,181.3384,0.5664656,0.04226768,0.8218639,20
22.06,9.394192,1.733706,-0.8841529,-0.4015659507429476,0.0023408643260167,-2.1820804480331724,353.5567,69.48402,182.3543,0.5698102,0.03448138,0.8195968,20
22.08,9.488741,1.315866,-0.9239603,-0.3320096396863845,-0.0316177869645837,-2.181167513792865,0.3463989,73.62981,181.7486,0.5991225,-0.01156329,0.8005064,20
22.1,9.48338,1.514524,-0.9047242,-0.2639923409262479,-0.0659022389677524,-2.175514264841472,0.3026421,73.84719,182.3844,0.6005735,-0.0146102,0.7992946,20
22.12,9.489251,1.70999,-0.8825848,-0.214393318431205,-0.1609397933514052,-2.1746361815105844,0.6171331,74.06548,183.0121,0.6019415,-0.02012685,0.7980894,20
22.14,9.495195,1.905295,-0.8605126,-0.1361082952401444,-0.1486279490030641,-2.153079351218763,0.9333261,74.28698,183.6403,0.6032824,-0.02566697,0.7968535,20
22.16,9.552215,1.283873,-0.9293431,-0.0590884170958629,-0.1343772248444112,-2.126941621871872,10.61787,79.21945,183.4906,0.6323545,-0.09058356,0.7685412,20
22.18,9.549922,1.483993,-0.9238853,0.0158644704830064,-0.120953173729992,-2.0964058232891625,10.54173,79.09238,183.631,0.6314453,-0.09088811,0.7693187,20
22.2,9.558892,1.681478,-0.9145722,0.1093551112089794,-0.0579022656980098,-2.052498870440822,10.84242,78.98396,183.8268,0.6303383,-0.09400754,0.7698398,20
22.22,9.53079,1.254751,-0.9650763,0.1583243310607043,-0.0990930620763368,-2.021046373243645,14.28823,81.14497,183.6631,0.6420113,-0.1150439,0.755887,20
22.24,9.546645,1.453102,-0.9625061,0.2070404997649451,-0.1359722423415943,-1.9854519330514848,14.7306,80.82101,183.6195,0.6395074,-0.1178654,0.757385,20
22.26,9.562702,1.651291,-0.9598234,0.2548114068956224,-0.1715085617359546,-1.945872478749688,15.19693,80.49768,183.5787,0.6369716,-0.120872,0.7588425,20
22.28,9.57895,1.849323,-0.957054,0.3075371529139707,-0.1838826252131204,-1.897416518047966,15.68593,80.17418,183.5372,0.6344017,-0.1240382,0.7602611,20
22.3,9.595319,1.894669,-0.954191,0.3609427562098679,-0.1907931352247164,-1.8447735478229017,16.19032,79.85093,183.4968,0.6318049,-0.1273262,0.7616425,20
22.32,9.559862,1.209212,-0.9934141,0.4143452515136381,-0.1953560758991377,-1.7881338771396735,21.51742,80.07757,183.6985,0.6270569,-0.1632387,0.7556348,20
22.34,9.576237,1.409449,-1.000928,0.4897829212657547,-0.117383880164429,-1.7191115420735024,21.96683,79.45283,183.3332,0.6228881,-0.1647192,0.7582389,20
22.36,9.592812,1.609577,-1.008332,0.5413045541828898,-0.1502337206310583,-1.6547986396696102,22.43199,78.82469,182.9648,0.6186749,-0.1663373,0.760782,20
22.38,9.603449,1.184511,-1.013343,0.5935821746348238,-0.1784893694969158,-1.5867079382522384,29.22718,77.74792,183.3121,0.6013758,-0.2138906,0.7576041,20
22.4,9.625025,1.385767,-1.022405,0.6460151731031221,-0.2054164943338996,-1.51504484219963,29.80593,76.84397,182.8133,0.5954176,-0.2161726,0.7607971,20
22.42,9.64757,1.58686,-1.031101,0.6916329828566823,-0.301584586442941,-1.4459974005851075,30.43577,75.96222,182.3163,0.5895193,-0.2188585,0.7636843,20
22.44,9.670381,1.787797,-1.039605,0.7752330758471275,-0.2728356622929589,-1.3580391961181737,31.08608,75.07234,181.8115,0.583549,-0.221738,0.7664549,20
22.46,9.74636,1.17423,-1.054843,0.8597297403907802,-0.2412638180439986,-1.2665138687881825,40.63702,77.26379,181.3627,0.5822006,-0.2781965,0.7350922,20
22.48,9.772654,1.376562,-1.069551,0.944507966814214,-0.2101675543342453,-1.1716923567826114,41.37907,75.91602,180.544,0.5740874,-0.2812952,0.7386362,20
22.5,9.79919,1.578676,-1.084067,1.0421389324807295,-0.1171580548120479,-1.0670312757630298,42.12028,74.54276,179.6978,0.5658921,-0.2844687,0.7420446,20
22.52,9.930837,1.172119,-1.085725,1.128954424309745,-0.1441330600510071,-0.966785547112494,48.46788,75.62708,178.1967,0.5640998,-0.3154327,0.7163432,20
22.54,9.968466,1.374672,-1.102264,1.2157319360414895,-0.1678913126324048,-0.8634610489173841,49.49814,73.67883,176.9496,0.5532284,-0.3204381,0.7198715,20
22.56,10.00771,1.576756,-1.117626,1.3019100053903885,-0.1918119213694651,-0.7573455266998279,50.57027,71.7225,175.6629,0.5424177,-0.3258656,0.7228,20
22.58,10.04726,1.778405,-1.132649,1.4126162474880395,-0.1859683557450556,-0.6448526117944019,51.63153,69.6883,174.2944,0.5314758,-0.3313606,0.7255029,20
22.6,10.08704,1.823792,-1.147349,1.5208009046459137,-0.1770177036552887,-0.5300418066533497,52.67243,67.56892,172.8366,0.5204151,-0.3368698,0.7280024,20
22.62,10.35825,1.179241,-1.103261,1.6258749870398683,-0.1682444135050282,-0.4132612730574418,60.84156,66.24683,167.7966,0.513621,-0.3715735,0.6886961,20
22.64,10.40474,1.377177,-1.115414,1.7099194571921852,-0.0749354878094867,-0.3041133109139945,62.0004,63.05202,165.4802,0.5000859,-0.3788638,0.6907605,20
22.66,10.45273,1.574255,-1.126296,1.812183132674525,-0.0785468288407921,-0.1946919353869493,63.17006,59.7282,162.9787,0.4867303,-0.3864348,0.6920119,20
22.68,10.69707,1.237929,-1.113717,1.90805946813787,-0.081098140311174,-0.0841032778747083,54.04459,64.42,168.5928,0.5106869,-0.3353215,0.7259322,20
22.7,10.74767,1.430901,-1.119964,1.996975866945068,-0.0857502672600189,0.0272635150667235,55.33198,61.71777,166.7198,0.4973243,-0.3433813,0.7276493,20
22.72,10.79809,1.623286,-1.125777,2.0942017852536203,-0.1400640994142231,0.1317099882491649,56.56346,58.84368,164.6663,0.4837885,-0.3512956,0.7291419,20
22.74,10.84834,1.814985,-1.131009,2.1734568735551365,-0.0901014988994583,0.2298272779021761,57.74764,55.80246,162.4408,0.470111,-0.359204,0.7303342,20
22.76,11.08452,1.319289,-1.155771,2.244019649564307,-0.0403366563672329,0.3275372640778362,30.61357,74.66154,175.1305,0.5932929,-0.1848715,0.7594479,20
