t,pX,pY,pZ,aX,aY,aZ,reX,reY,reZ,rtX,rtY,rtZ,ID
5.38,-45.30571,1.101702,-36.82837,2.278866869276607,-0.1029823856174305,3.8755240312791246,14.6374,356.3564,163.6091,-0.01306041,-0.1305186,0.9818048,11
5.4,-45.30647,1.301531,-36.82785,2.2772637101028828,-0.0980111753896117,3.9864762504302185,14.65456,356.3621,163.632,-0.01301516,-0.1306559,0.9818146,11
5.42,-45.30723,1.501359,-36.82734,2.290910417149393,-0.130516484772636,4.087177353378843,14.67181,356.368,163.655,-0.0129696,-0.130794,0.9818245,11
5.44,-45.29266,1.155075,-36.80348,2.2993819476262374,-0.1367403515339564,4.176861288648459,14.81953,0.5862005,163.6743,0.02333251,-0.126936,0.9814957,11
5.46,-45.29375,1.354814,-36.8026,2.30260952852254,-0.1184231928335056,4.255130428240893,14.84594,0.5950943,163.709,0.02340244,-0.1271584,0.9815072,11
5.48,-45.29484,1.554553,-36.80172,2.306506843725187,-0.1462748742609304,4.317152542216983,14.87242,0.6040244,163.7439,0.02347253,-0.1273814,0.9815184,11
5.5,-45.23066,1.159249,-36.6865,2.305970727292321,-0.1486154665725902,4.369523903282237,18.58129,3.694065,166.4411,0.050634,-0.1564757,0.9788585,11
5.52,-45.24414,1.35269,-36.65429,2.300747710416063,-0.1272520875733535,4.412188903934244,19.53176,3.857756,166.9425,0.05223157,-0.1646556,0.9779142,11
5.54,-45.25758,1.545817,-36.62218,2.296381070154119,-0.1535239194681376,4.442353291589435,20.48294,4.031638,167.4507,0.05382788,-0.1728393,0.9768833,11
5.56,-45.0869,1.188173,-36.48949,2.2870421719581646,-0.1546948400153602,4.464194440867123,12.60059,12.83941,169.9751,0.1202385,-0.09892417,0.9828786,11
5.58,-45.07766,1.378597,-36.43885,2.2725133689922057,-0.1325786689465121,4.477605548111473,14.14573,12.85597,170.0467,0.121298,-0.1122581,0.9812381,11
5.6,-45.06845,1.568362,-36.38846,2.252595574814147,-0.0889194636199255,4.482478523701438,15.6932,12.87411,170.1172,0.1223346,-0.1255899,0.9794148,11
5.62,-44.9165,1.210028,-36.27588,2.231565526920739,-0.1172345849093265,4.468540086739523,3.818889,20.83784,173.0679,0.1823941,-0.02178336,0.9808035,11
5.64,-44.88554,1.387537,-36.18345,2.2057018663113723,-0.1213045442467806,4.449009264439688,6.724035,20.84871,173.1862,0.1837341,-0.04684084,0.9794365,11
5.66,-44.69427,1.244633,-36.0233,2.17477053103048,-0.1029607257130142,4.423635613996359,358.9131,26.61653,176.8495,0.2298391,0.01555461,0.9727942,11
5.68,-44.6423,1.404465,-35.89608,2.142465298222767,-0.1352355350328975,4.377090193891816,2.947306,26.62157,177.1596,0.2307063,-0.01931432,0.9723681,11
5.7,-44.59145,1.559683,-35.77164,2.105250445383982,-0.1428636877682172,4.326074707134672,6.983341,26.64862,177.472,0.2312862,-0.05417522,0.9707289,11
5.72,-44.42847,1.25615,-35.73353,2.067744061393212,-0.176340803498066,4.260638201176793,356.3386,32.15464,180.7459,0.2769869,0.02889426,0.9603206,11
5.74,-44.36675,1.412858,-35.60641,2.025726810267746,-0.1847731699500177,4.1915045613707855,0.4580626,32.142,181.1972,0.2767709,-0.006733035,0.960871,11
5.76,-44.30648,1.564687,-35.48228,1.9790283902829835,-0.1700240358989761,4.118464143679643,4.57907,32.16187,181.6491,0.2761928,-0.04236516,0.9601642,11
5.78,-44.27227,1.244503,-35.5495,1.9274982895287431,-0.1338725880014749,4.041304322614744,1.566301,35.14826,181.6901,0.3016863,-0.01748142,0.9531953,11
5.8,-44.20981,1.407822,-35.43774,1.8693986471830304,-0.1710703111147351,3.9292263329767794,5.322419,35.17194,182.0841,0.3009558,-0.04974177,0.9523345,11
5.82,-44.1486,1.567154,-35.32825,1.808013369591852,-0.1822162404135482,3.8155414830526064,9.076101,35.22176,182.4816,0.2998987,-0.08192628,0.9504409,11
5.84,-44.1652,1.196098,-35.23222,1.7432095414077784,-0.1692121445156669,3.700115702610476,12.66127,38.95353,187.0391,0.3243846,-0.1241037,0.9375175,11
5.86,-44.14373,1.32476,-34.99298,1.6733264537272108,-0.2087500342269703,3.55607127075438,18.61629,40.48804,191.4045,0.3246953,-0.1849292,0.9268528,11
5.88,-44.11814,1.440948,-34.76681,1.601324511671212,-0.2207074895099061,3.4116470816192885,24.43728,42.54176,195.9427,0.323783,-0.2444887,0.9126133,11
5.9,-44.09104,1.198793,-34.92308,1.5271168967349524,-0.207031668501192,3.266850233287938,14.83231,40.50631,183.8344,0.3390295,-0.1325114,0.9312986,11
5.92,-44.02205,1.374549,-34.8224,1.4480956670848544,-0.2476719511188323,3.098267898184056,18.46822,40.83532,184.2939,0.3384645,-0.1631815,0.9264776,11
5.94,-44.02987,1.174884,-34.82581,1.3680387779007708,-0.2591603053797293,2.9304890900348006,18.81387,40.56322,184.2605,0.3360381,-0.1659174,0.9268529,11
5.96,-43.9612,1.356752,-34.72788,1.286920850859646,-0.2434903197917948,2.7636640208916585,22.41994,40.90783,184.6797,0.3350645,-0.1959915,0.9210852,11
5.98,-43.8931,1.5351,-34.63114,1.2047284480099636,-0.202585621126611,2.59793428572511,26.02233,41.2913,185.1347,0.3337531,-0.225859,0.9143947,11
6.0,-43.82571,1.710033,-34.53576,1.1128811944667871,-0.2445448047948368,2.400044878566204,29.61928,41.71943,185.6307,0.3321048,-0.2554751,0.9067931,11
6.02,-43.91459,1.145092,-34.66465,1.021550535701314,-0.2557502245943845,2.2053359556464924,24.6416,39.21383,184.152,0.3203398,-0.2127564,0.9223106,11
6.04,-43.84407,1.335685,-34.57422,0.9307800197576288,-0.2382402941324625,2.0140890045664355,28.16193,39.4609,184.2665,0.3187003,-0.2410397,0.9154329,11
6.06,-43.84232,1.128489,-34.56724,0.8380084793254765,-0.2770915658672918,1.8085513511437408,30.0777,37.42013,183.7852,0.3015071,-0.255859,0.9169641,11
6.08,-43.772,1.324029,-34.48034,0.7467839336841058,-0.2841849767217983,1.607644845872941,33.534,37.56513,183.689,0.2993384,-0.2828995,0.9090171,11
6.1,-43.70179,1.516478,-34.39385,0.657198782993154,-0.2615855015258498,1.4117563458293407,36.98948,37.70898,183.5995,0.2968959,-0.3096737,0.9002434,11
6.12,-43.67371,1.116969,-34.37391,0.572755226415885,-0.29519119955996,1.21143411771848,39.66493,36.89869,182.7448,0.2899027,-0.3288713,0.8946564,11
6.14,-43.60197,1.316133,-34.291,0.4905334219967168,-0.2965395563259618,1.0170557272808622,43.06462,36.88697,182.4319,0.2868353,-0.3543406,0.884697,11
6.16,-43.53021,1.512318,-34.20833,0.4106662491001422,-0.2677033844449248,0.8290820898257176,46.4632,36.8475,182.0991,0.2835133,-0.3794881,0.8739562,11
6.18,-43.51302,1.114395,-34.20893,0.3325211747411138,-0.2949587720053833,0.6363754910676169,44.71202,37.83477,181.165,0.2961632,-0.3628457,0.8760934,11
6.2,-43.44075,1.314788,-34.12867,0.257382043752056,-0.2898004940131066,0.4513433513601743,48.06369,37.77038,180.8075,0.2928941,-0.3873955,0.8650618,11
6.22,-43.36842,1.512289,-34.04859,0.1854205372073529,-0.254291455844869,0.2744914431539103,51.41409,37.66776,180.4185,0.2893721,-0.4116047,0.8532872,11
6.24,-43.2789,1.097645,-33.83411,0.1291071305954094,-0.2760580015742563,0.1164412192280197,56.51221,37.76706,181.5045,0.2791748,-0.4516379,0.835372,11
6.26,-43.2021,1.285508,-33.68337,0.075629447018918,-0.2661748479247982,-0.0333519151396726,61.92584,37.38121,183.1233,0.2614092,-0.4946586,0.81647,11
6.28,-43.12772,1.466543,-33.53468,0.0252012908395329,-0.2266281168382099,-0.1743753678561916,67.35643,37.29311,185.0253,0.2427776,-0.5365795,0.7954986,11
6.3,-43.16309,1.08417,-33.19794,-0.0219538438630007,-0.1593454453957364,-0.3061231565700031,64.32766,32.37256,178.9528,0.2406415,-0.5090625,0.8115835,11
6.32,-43.14694,1.253422,-33.00768,-0.0540927844846548,-0.1700941769507888,-0.4218238088739592,69.73671,36.47705,185.4364,0.2307459,-0.5545387,0.7868577,11
6.34,-43.14177,1.409647,-32.80107,-0.0831649704011585,-0.1505612502429268,-0.5272235041833087,75.16495,46.38898,197.9342,0.2209249,-0.6024038,0.7569615,11
6.36,-43.01594,1.129568,-32.57048,-0.1089096213939901,-0.1026434799678978,-0.6218423161501976,60.17602,22.20371,172.2556,0.1994497,-0.4795737,0.8406072,11
6.38,-42.98991,1.303342,-32.45238,-0.1147782836457071,-0.0960215236831761,-0.6959367635732199,63.86182,23.84426,173.8172,0.2029758,-0.5072797,0.8232791,11
6.4,-42.96516,1.47176,-32.32542,-0.1175000895213163,-0.0606805012028588,-0.7579811390559112,67.85942,23.89071,175.1191,0.1948322,-0.5382805,0.8061002,11
6.42,-42.78575,1.214413,-32.2348,-0.1166773801801959,-0.0284341961040443,-0.8076161759462521,42.68354,24.80655,174.1445,0.2179554,-0.3447539,0.9045069,11
6.44,-42.7429,1.392203,-32.14962,-0.0923359991545806,-0.0690017293279553,-0.8431858405655013,45.53931,22.63117,173.3238,0.2027124,-0.3683254,0.8981887,11
6.46,-42.70102,1.568212,-32.06771,-0.0655718218802032,-0.0338769262708362,-0.8666255260532174,48.33649,20.29386,172.2717,0.1875251,-0.3912658,0.8911749,11
6.48,-42.6179,1.254225,-32.02074,-0.0339725257427172,-0.0038613766290638,-0.8743960101262127,25.69388,26.72023,175.8674,0.23294,-0.2080663,0.9461129,11
6.5,-42.56905,1.4279,-31.93006,0.0026811827463317,0.0174744249693708,-0.866208292439508,28.76137,24.87847,175.2634,0.2184989,-0.2337036,0.942909,11
6.52,-42.52232,1.599027,-31.84016,0.0426862512143602,0.0260836815546545,-0.8790277777004554,31.8108,22.94289,174.5263,0.2038715,-0.2591365,0.9388269,11
6.54,-42.43689,1.27537,-31.77057,0.0906415510275726,0.0320186073430629,-0.8785146150192698,1.945042,30.52488,177.8467,0.2634639,-0.01142576,0.9643371,11
6.56,-42.39094,1.446229,-31.6733,0.1468437057947174,0.0317367085935077,-0.8646437053697764,5.143352,28.9534,177.6714,0.2505658,-0.03836109,0.9668468,11
6.58,-42.34725,1.614298,-31.57708,0.1959577040021258,0.0377800254037729,-0.8596060731085777,8.337533,27.3632,177.4064,0.2374385,-0.06527491,0.9684173,11
6.6,-42.30588,1.779696,-31.4821,0.2492280336050116,0.0405965153337478,-0.8432353035359239,11.52485,25.74391,177.0483,0.2240947,-0.09213959,0.9690465,11
6.62,-42.23536,1.292851,-31.46046,0.3067541697137681,0.036737745933107,-0.8157007439692099,352.1047,31.08274,178.9382,0.2666723,0.06880169,0.9612812,11
6.64,-42.19057,1.456634,-31.35049,0.354655823956854,0.034458698068296,-0.8011069616326636,355.5964,29.526,178.9593,0.2542853,0.03946226,0.9663234,11
6.66,-42.14847,1.617057,-31.2422,0.4030035479354188,0.0310833935189953,-0.7811570842919862,359.0863,27.97649,178.8855,0.2416285,0.01008729,0.9702876,11
6.68,-42.08149,1.270041,-31.24249,0.4276812846981945,0.0712494102634463,-0.7665569612300134,354.0799,31.3615,179.9328,0.2698873,0.04987585,0.9615062,11
6.7,-42.03933,1.434009,-31.13142,0.4481255424306596,0.108992571044401,-0.7535306566007214,357.603,29.80212,180.0644,0.2571058,0.02006837,0.9661569,11
6.72,-41.96588,1.250403,-31.09085,0.4668152217926256,0.0488936582119419,-0.7721452539256566,359.4423,31.41537,181.3046,0.2707622,0.001603002,0.9625667,11
6.74,-41.92183,1.415402,-30.97889,0.4658415139135581,0.057382822005533,-0.7777693514582436,3.046618,29.87136,181.4308,0.2573026,-0.0289005,0.9658847,11
6.76,-41.88039,1.57694,-30.86865,0.4591234668947006,0.0661440092607537,-0.7838556536921271,6.652666,28.3286,181.4599,0.2435545,-0.05936639,0.9680669,11
6.78,-41.84163,1.735204,-30.76039,0.446798961742842,0.0011953986087079,-0.8151565005101129,10.25723,26.77475,181.3907,0.2295343,-0.08975486,0.9691121,11
6.8,-41.81699,1.232112,-30.87073,0.4336228425889867,0.0081954599512237,-0.8176263428684463,8.286055,30.9849,182.8154,0.2646226,-0.07614516,0.9613314,11
6.82,-41.77184,1.401233,-30.7594,0.4151982108625338,0.0154446653686227,-0.8172366945375278,11.92957,29.46603,182.9391,0.2502778,-0.1069542,0.9622467,11
6.84,-41.72915,1.56689,-30.64956,0.3887510038916684,-0.0556967421473438,-0.8402225122512905,15.57401,27.93305,182.9646,0.235648,-0.1376272,0.9620123,11
6.86,-41.69993,1.199601,-30.73062,0.3696606165547891,-0.0458107728251133,-0.8579360711571433,14.79181,31.53334,183.6181,0.2654148,-0.1323264,0.9549981,11
6.88,-41.65235,1.3765,-30.62427,0.3525307085325488,-0.0286284765829234,-0.892301080188044,18.39758,30.032,183.7393,0.2505832,-0.1626637,0.954276,11
6.9,-41.6069,1.55012,-30.51888,0.3367361473517096,-0.005316311642843,-0.9430851308946876,22.004,28.50527,183.7615,0.2354721,-0.192801,0.9524354,11
6.92,-41.5816,1.168259,-30.58031,0.3124279478281284,-0.0277640068692471,-0.9905150903383628,20.17323,29.6117,184.0152,0.2455087,-0.1780317,0.9528383,11
6.94,-41.53254,1.353399,-30.47913,0.2847767192558219,-0.0464865619631361,-1.0334234065840668,23.72413,28.07307,183.9957,0.2302647,-0.2075725,0.9505854,11
6.96,-41.48523,1.535464,-30.37839,0.2649173118416588,-0.0087406759810471,-1.0566051922098274,27.27221,26.48847,183.8685,0.2147721,-0.2368683,0.9472488,11
6.98,-41.43975,1.71454,-30.2783,0.2353343912423033,-0.0540861792920881,-1.099001768817823,30.81417,24.84085,183.6228,0.1990489,-0.2658822,0.9428353,11
7.0,-41.45687,1.139141,-30.41527,0.2032794290355886,-0.0961417287933555,-1.1356301863711349,26.32316,25.86305,183.9089,0.2102125,-0.2292259,0.9502221,11
7.02,-41.40775,1.332211,-30.3184,0.1685165058557594,-0.1380619592801395,-1.1665696889450805,29.80891,24.22589,183.6711,0.1946205,-0.2578476,0.946085,11
7.04,-41.36004,1.5224,-30.2215,0.1522606044233123,-0.1558227951010152,-1.1729434682419262,33.28562,22.51103,183.3059,0.1788279,-0.2861732,0.9409026,11
7.06,-41.33231,1.121886,-30.25226,0.1342745776652396,-0.1696365019999752,-1.1711322705602405,34.75755,22.7924,183.2038,0.1803137,-0.2979555,0.9368196,11
7.08,-41.2826,1.320189,-30.15902,0.1245505804225821,-0.1235875231729086,-1.1487626169757847,38.17157,20.98038,182.7137,0.1643974,-0.3255023,0.930384,11
7.1,-41.23407,1.515758,-30.06542,0.1130795064162262,-0.0783140675863438,-1.1172600920802775,41.56985,19.03885,182.055,0.148318,-0.3526908,0.922949,11
7.12,-41.16273,1.11515,-30.04115,0.0966835213008501,-0.1479147267099382,-1.0971956233261395,43.29887,22.11734,181.673,0.172978,-0.3646404,0.9131357,11
7.14,-41.1127,1.315791,-29.95021,0.0850247152146597,-0.1279055012585538,-1.057389335444352,46.6531,20.15869,181.0471,0.1571377,-0.3913121,0.9046865,11
7.16,-41.06375,1.513791,-29.85878,0.0716154336811136,-0.1067156188494093,-1.0067906967683935,49.98841,18.01216,180.2013,0.141146,-0.4175663,0.8952917,11
7.18,-41.02142,1.113091,-29.84899,0.0613314829559437,-0.1728131431649495,-0.9482054299036488,48.08051,20.51261,179.4497,0.1645308,-0.4000835,0.898308,11
7.2,-40.97261,1.313939,-29.75929,0.0568170320819447,-0.1497491887112515,-0.8667338350000264,51.37466,18.39322,178.6533,0.1490466,-0.426166,0.8887135,11
7.22,-40.92485,1.512231,-29.66909,0.0499746979341955,-0.1258780443152581,-0.7738215314909747,54.64531,16.02925,177.5846,0.1334233,-0.4518059,0.8782138,11
7.24,-40.79126,1.102291,-29.50691,0.0567108512753993,-0.1874489179645883,-0.653032296656598,59.70375,17.20261,173.9556,0.1554818,-0.4846375,0.8524429,11
7.26,-40.7456,1.296318,-29.41827,0.0568080380357889,-0.1587440113517108,-0.5420817070231436,62.90688,14.33864,172.4092,0.140501,-0.5095431,0.840228,11
7.28,-40.70116,1.487936,-29.32956,0.0517135200173646,-0.1284986689705273,-0.4326647110688157,66.06343,10.91113,170.2803,0.1253918,-0.5339304,0.8271806,11
7.3,-40.658,1.677179,-29.24093,0.0414343953031091,-0.0992247486030469,-0.3252081584461348,69.15121,6.674313,167.3257,0.1101703,-0.5577785,0.8133131,11
7.32,-40.53476,1.129106,-29.10817,0.0537353435589569,-0.0872827485492432,-0.2440383378661472,60.93292,7.904633,166.6182,0.1179402,-0.495461,0.8499481,11
7.34,-40.49429,1.313662,-29.01729,0.0693304601808639,-0.0705471649394846,-0.173729520291082,63.93545,4.062582,163.9783,0.1035134,-0.519755,0.8369251,11
7.36,-40.45533,1.49584,-28.92692,0.0900565927598187,-0.0504175444388843,-0.1179653030926535,66.839,359.4184,160.5206,0.08899799,-0.5435361,0.8230924,11
7.38,-40.3028,1.195768,-28.77167,0.1157403039064792,-0.0305394220749621,-0.0777935731840933,48.26104,15.03308,173.1327,0.1434418,-0.3974261,0.8999475,11
7.4,-40.26534,1.372502,-28.67663,0.1429308382083318,-0.0085897265343054,-0.0404471397971821,51.36966,12.63273,171.95,0.1291408,-0.4227675,0.890165,11
7.42,-40.22969,1.546735,-28.58256,0.1718615816538902,0.0128425069517514,-0.0080542103272138,54.44054,9.946959,170.4576,0.1147294,-0.4476989,0.8795383,11
7.44,-40.05676,1.250371,-28.48099,0.1939014703943202,0.0274253913110042,0.0184718671805668,26.14516,22.04989,175.9703,0.1939708,-0.215324,0.9539947,11
7.46,-40.01262,1.4194,-28.3722,0.2144504216343783,0.0418926335520747,0.0466778788154176,29.65252,20.3205,175.4632,0.1803646,-0.2449291,0.9490142,11
7.48,-39.97084,1.585111,-28.26486,0.2334646551536581,0.0530458144612574,0.0764449126290225,33.14458,18.48965,174.8103,0.1665675,-0.2742602,0.9429666,11
7.5,-39.93147,1.747655,-28.1592,0.244585489967001,0.1309926835342302,0.1124128957779708,36.61676,16.53162,173.9906,0.1525957,-0.3032862,0.9358583,11
7.52,-39.83904,1.272047,-28.19765,0.258279536127759,0.1135444507897694,0.1290079227849481,2.322702,27.73687,177.9023,0.2399641,-0.01528724,0.970398,11
7.54,-39.79344,1.438885,-28.08686,0.2699095514993272,0.0946665413254932,0.1467696629794925,5.883598,26.24185,177.7772,0.2276347,-0.04557505,0.972201,11
7.56,-39.75034,1.602279,-27.97763,0.2734211550868988,0.1451537599788263,0.1680469040673879,9.438984,24.7279,177.5571,0.2150596,-0.07580215,0.9728988,11
7.58,-39.62519,1.291666,-27.92047,0.2846678088784724,0.125582948528748,0.1800839030271346,352.2098,30.86722,179.0035,0.2649275,0.06778669,0.9618337,11
7.6,-39.58033,1.454067,-27.80649,0.2934509867393462,0.1041720630941184,0.1920532196046878,355.8033,29.37657,179.09,0.2531009,0.03742909,0.9667143,11
7.62,-39.53815,1.61288,-27.69436,0.2998993768667608,0.0779355507792658,0.2033192134227719,359.3969,27.89672,179.0828,0.2409954,0.007036543,0.970479,11
7.64,-39.44624,1.269723,-27.68734,0.3040916099107011,0.068733178400394,0.2043099541301987,354.1075,31.65936,179.962,0.2724017,0.04953983,0.9608099,11
7.66,-39.40319,1.433267,-27.57536,0.3058056105511957,0.0604580948383542,0.2028666418949241,357.6592,30.1704,180.1261,0.2602224,0.01943571,0.9653321,11
7.68,-39.36273,1.593374,-27.46517,0.3052398612292801,0.0502812262091728,0.198363393740276,1.212852,28.694,180.1978,0.2477619,-0.01068164,0.9687618,11
7.7,-39.32488,1.750226,-27.35704,0.2984941518210648,0.1110769508416033,0.2062013220219487,4.76614,27.21875,180.178,0.2350346,-0.04077806,0.9710961,11
7.72,-39.27163,1.246148,-27.4605,0.2870765417562602,0.0747810404681541,0.1796979840810748,1.415614,31.97224,181.544,0.2751985,-0.01558479,0.9612138,11
7.74,-39.22615,1.411597,-27.34864,0.269910437367395,0.0908826934090054,0.1615305394096915,5.0372,30.50969,181.6993,0.2622011,-0.04628859,0.9638988,11
7.76,-39.18321,1.573548,-27.23847,0.2509328020253383,0.1067549003327225,0.1407205252271959,8.661224,29.04737,181.7621,0.2489107,-0.07693503,0.9654575,11
7.78,-39.14071,1.226282,-27.30219,0.2268378782553757,0.0459396917416179,0.0897348846871057,10.35954,32.58757,183.1329,0.2769436,-0.09426082,0.9562514,11
7.8,-39.0922,1.396951,-27.19287,0.2030030347481695,-0.0137310333834373,0.0365184679569261,13.99499,31.15186,183.2806,0.2630467,-0.1249329,0.9566452,11
7.82,-39.04603,1.564177,-27.08489,0.1813949039179325,0.0235388621098257,0.0130857794567686,17.63185,29.70139,183.3355,0.2488544,-0.1554495,0.9559161,11
7.84,-39.02042,1.190915,-27.16158,0.1542511732684497,-0.0179822436558058,-0.0372868960175649,16.10562,32.95332,183.7345,0.2763019,-0.1434122,0.9502703,11
7.86,-38.96949,1.369889,-27.05779,0.1278710361113617,-0.056535512346469,-0.0893707149077469,19.6973,31.52859,183.8572,0.2619854,-0.1735278,0.9492317,11
7.88,-38.92053,1.545625,-26.95479,0.1041307645970572,-0.0156695653577079,-0.1151971707686332,23.28963,30.07805,183.8858,0.2473814,-0.2034347,0.947104,11
7.9,-38.87364,1.718237,-26.85281,0.0802519069797202,0.0242269357715602,-0.1418940383423201,26.88014,28.58763,183.813,0.2325068,-0.233097,0.9438913,11
7.92,-38.89674,1.160843,-27.00631,0.0444977299057907,-0.0449270928808777,-0.2045728367761596,21.59372,30.11528,184.0468,0.2486456,-0.189793,0.9496972,11
7.94,-38.84486,1.348104,-26.90743,0.0134249118872666,-0.0288290135698076,-0.2423967984984303,25.1288,28.63194,183.9794,0.2338836,-0.2190342,0.9470401,11
7.96,-38.7946,1.532325,-26.80883,-0.0207881133558816,-0.0673019997319305,-0.2928188238534726,28.65995,27.09818,183.8058,0.2188741,-0.2480223,0.9433279,11
7.98,-38.79082,1.132803,-26.88205,-0.0530386647959684,-0.1025984899463432,-0.3418913438981703,28.05054,27.27557,183.9016,0.2206043,-0.2431675,0.944234,11
8.0,-38.73818,1.327559,-26.7878,-0.083163017037056,-0.1379755153416295,-0.3899392032243876,31.52035,25.68926,183.6318,0.2054518,-0.2714615,0.9397665,11
8.02,-38.68682,1.519465,-26.69337,-0.1018678212695789,-0.0638990926793739,-0.4018456582902416,34.981,24.02039,183.2343,0.1900903,-0.2994526,0.9342829,11
8.04,-38.65018,1.118841,-26.70129,-0.1191475438164175,-0.102998072680174,-0.4281184623268244,37.41802,24.1901,182.9562,0.190306,-0.3186563,0.9275597,11
8.06,-38.59712,1.317944,-26.61037,-0.1335591971462175,-0.1392621647946978,-0.4515326803905157,40.81479,22.39422,182.4048,0.1747793,-0.3457994,0.9206152,11
8.08,-38.54515,1.514333,-26.51903,-0.1421840881904179,-0.0878723150444426,-0.4532550188151618,44.19489,20.45445,181.675,0.1590817,-0.3725709,0.9127028,11
8.1,-38.49435,1.708024,-26.42744,-0.1512641543923703,-0.1212672544241625,-0.4644864209388002,47.55286,18.33145,180.7308,0.1432296,-0.3989426,0.9038323,11
8.12,-38.46513,1.114657,-26.48064,-0.157226209764107,-0.1524395891048038,-0.4717556270142169,44.70568,23.76736,181.0453,0.1870494,-0.3738801,0.9057143,11
8.14,-38.41253,1.315571,-26.39145,-0.1635584123732849,-0.0957862446441436,-0.4649303959474196,48.04587,21.8639,180.4082,0.1717916,-0.4003291,0.8970768,11
8.16,-38.36093,1.513855,-26.30174,-0.1586485824411445,-0.1255420299028516,-0.4502744571953707,51.36778,19.76751,179.5488,0.1563704,-0.4263607,0.8875235,11
8.18,-38.27362,1.10724,-26.23125,-0.1514689355787277,-0.153951376634214,-0.432134377624878,53.33415,22.12639,177.607,0.1806401,-0.4367882,0.8750327,11
8.2,-38.22215,1.305967,-26.14402,-0.1410880645390015,-0.0949984510161221,-0.3985244409601653,56.60042,19.87969,176.6195,0.1656905,-0.4622889,0.864468,11
8.22,-38.17172,1.502187,-26.05642,-0.1112538495355686,-0.1176098744657197,-0.343837776120095,59.83869,17.30724,175.2835,0.1505881,-0.4873186,0.8530478,11
8.24,-38.00758,1.109258,-25.85225,-0.0802597598353225,-0.1403901443830619,-0.2864671372858063,62.65255,13.3514,167.7364,0.1538929,-0.5028245,0.8371192,11
8.26,-37.96024,1.298274,-25.76479,-0.0610181195091463,-0.0758016089732652,-0.237521109616229,65.72771,9.640728,165.2078,0.1396031,-0.5271404,0.8241579,11
8.28,-37.91423,1.484906,-25.67752,-0.0411287399372781,-0.0127600948275595,-0.1869280277495306,68.7146,5.064434,161.7988,0.1251894,-0.550935,0.8104031,11
8.3,-37.86963,1.669205,-25.59058,-0.0083324363206216,-0.0494964975654926,-0.1309775040849441,71.56984,359.2444,157.1336,0.1106659,-0.5741886,0.7958674,11
8.32,-37.74418,1.161991,-25.47137,0.024965560812018,-0.0882049844907143,-0.0734056412447596,55.73866,11.28851,168.6953,0.1323394,-0.454365,0.8709245,11
8.34,-37.70154,1.342137,-25.37994,0.0467502398510104,-0.0218653199417334,-0.0212394957324688,58.75891,8.123145,166.6299,0.1182666,-0.4788472,0.8592467,11
8.36,-37.66056,1.519838,-25.28922,0.0868583123372763,-0.0233567071444162,0.0332407472661415,61.70632,4.430855,164.0204,0.104094,-0.5028689,0.84676,11
8.38,-37.49658,1.229046,-25.17137,0.12773582898674,-0.0258899280564553,0.0892890813970668,37.7478,20.58476,174.6998,0.1836,-0.3101238,0.9273388,11
8.4,-37.45187,1.401257,-25.07022,0.1522765063554585,0.0393686491433542,0.1365818837784038,41.07098,18.66501,173.9184,0.1700071,-0.3376013,0.9197414,11
8.42,-37.40925,1.570529,-24.97025,0.1897773618093072,0.0346377100871414,0.177226462513814,44.37014,16.57846,172.9393,0.1562524,-0.3647252,0.9112043,11
8.44,-37.26617,1.263733,-24.91033,0.2279988307294846,0.028883625112683,0.2179926913354464,13.84798,27.26488,177.1359,0.2368283,-0.1112724,0.9637288,11
8.46,-37.21676,1.431752,-24.80246,0.2462482610408463,0.0892420788906695,0.2570608779941969,17.37868,25.77157,176.8607,0.2243999,-0.1411785,0.9623433,11
8.48,-37.16974,1.596375,-24.69599,0.2625493700209729,0.1466396882118557,0.2925673863834443,20.90131,24.22922,176.4811,0.2117345,-0.1709286,0.9598886,11
8.5,-37.1252,1.75777,-24.59118,0.2833270568701573,0.1089437519134847,0.3076421342922426,24.41173,22.62272,175.9878,0.1988466,-0.2004801,0.9563702,11
8.52,-37.04183,1.279397,-24.62061,0.3034961959999585,0.0695268658787925,0.3202633367322902,354.4205,31.49615,178.3613,0.2703889,0.05071585,0.9614144,11
8.54,-36.99212,1.444564,-24.51068,0.3149399211834485,0.1207440891430954,0.3511750869592593,357.9889,30.08302,178.3547,0.2592088,0.02067192,0.9655553,11
8.56,-36.94497,1.606238,-24.40234,0.3323431075329166,0.1001618147820219,0.3670525119376338,1.554989,28.67126,178.2601,0.2477498,-0.00938653,0.9686102,11
8.58,-36.82611,1.296097,-24.3529,0.3479613192683537,0.078789002229493,0.3801032293451651,353.472,33.03056,179.4603,0.2835497,0.05592423,0.9572545,11
8.6,-36.77845,1.457228,-24.23958,0.349312776230219,0.1243878012013374,0.397220449062563,357.0589,31.60887,179.6099,0.2721795,0.02561964,0.9618984,11
8.62,-36.7335,1.614746,-24.12814,0.3527335132210716,0.0949760871287312,0.3922135206141264,0.6473731,30.19974,179.6704,0.2605129,-0.004705058,0.9654498,11
8.64,-36.65853,1.254699,-24.15852,0.3543192900169032,0.0659853758074541,0.3831499749106188,357.4397,33.67184,181.1048,0.2897523,0.01859074,0.9567925,11
8.66,-36.61029,1.419372,-24.04908,0.3464406623483,0.1093913696906815,0.3848833267152076,1.004505,32.26461,181.2608,0.2777362,-0.01147706,0.9605545,11
8.68,-36.56457,1.580617,-23.94127,0.3358319895449728,0.1503387223071559,0.381660072350948,4.571119,30.86426,181.3295,0.2654212,-0.04152418,0.9632378,11
8.7,-36.52143,1.738612,-23.83536,0.3192203726436586,0.093116971776875,0.3425846333964171,8.137294,29.45989,181.3107,0.2528212,-0.07151607,0.9648409,11
8.72,-36.49396,1.237838,-23.94402,0.3023249352415744,0.0361439821021229,0.3000641020742747,6.185602,33.87766,182.5427,0.2897094,-0.05805476,0.9553366,11
8.74,-36.44336,1.405328,-23.83416,0.2826998288131426,0.075195005965216,0.2849795085206548,9.829023,32.50092,182.7061,0.2767881,-0.08880708,0.9568176,11
8.76,-36.39521,1.569302,-23.72579,0.2572440153848463,0.037512254023546,0.2398646129648578,13.47421,31.11808,182.7817,0.2635574,-0.1194472,0.9571844,11
8.78,-36.37427,1.208687,-23.80932,0.231750500299503,0.0022241238684388,0.1917469131308786,13.46395,34.62848,183.5096,0.2919946,-0.1209115,0.9487286,11
8.8,-36.32099,1.383444,-23.70419,0.2061310214469607,0.0422868008385921,0.1659496609327559,17.08078,33.27368,183.6633,0.2784371,-0.151267,0.9483895,11
8.82,-36.26984,1.554839,-23.60006,0.174469966420836,0.0030776504546776,0.1145087312886743,20.69911,31.90105,183.729,0.2645728,-0.1814406,0.9469615,11
8.84,-36.25392,1.175767,-23.67115,0.143140445404752,-0.032984192223021,0.0606945034924,18.75685,33.72601,184.0143,0.2805694,-0.1658761,0.945286,11
8.86,-36.199,1.358806,-23.57148,0.115084764908067,0.011658333508706,0.0315797899079268,22.32182,32.35485,184.0712,0.2665678,-0.1954925,0.943561,11
8.88,-36.14583,1.538693,-23.4723,0.0865453541422667,0.0554479598728288,0.0010607388594778,25.88602,30.95032,184.0349,0.2522812,-0.2248823,0.9407825,11
8.9,-36.09452,1.715524,-23.37383,0.0458891743038671,-0.0107525084035838,-0.0636422537127727,29.4469,29.49791,183.897,0.2377257,-0.2540094,0.9369557,11
8.92,-36.12918,1.145547,-23.52101,0.0066920981142342,-0.0745144702365466,-0.1290052377553405,24.61594,30.34841,184.0009,0.2484011,-0.2145359,0.944325,11
8.94,-36.07408,1.33682,-23.4259,-0.0206469818817103,-0.0299684536702975,-0.157195055309367,28.11966,28.89421,183.8464,0.2339809,-0.2432423,0.9408733,11
8.96,-36.05085,1.128816,-23.42978,-0.0514808571024847,-0.0690433049018531,-0.2017822510363727,30.05614,27.94669,183.6688,0.2250379,-0.2589557,0.9387433,11
8.98,-35.9956,1.32493,-23.33805,-0.0801948370099321,-0.1048646159592878,-0.2451685077088745,33.49784,26.38769,183.3343,0.2103082,-0.2868112,0.9338193,11
9.0,-35.94151,1.518236,-23.24606,-0.0999080950290522,-0.0535995130640734,-0.2619523103038736,36.9292,24.7376,182.8685,0.1953692,-0.3143559,0.9279115,11
9.02,-35.88868,1.708764,-23.15399,-0.1155894741321601,-0.0868065628952712,-0.2858644607993685,40.34676,22.97173,182.2507,0.1802369,-0.3415618,0.9210272,11
9.04,-35.84082,1.115666,-23.18261,-0.1288234899951952,-0.1173524062288916,-0.3074016784845921,41.8864,25.83505,182.3181,0.2016896,-0.3525484,0.9117303,11
9.06,-35.78506,1.315948,-23.09382,-0.1374768264881876,-0.0601579000849577,-0.311493093051538,45.26361,24.05625,181.7357,0.1866223,-0.3792298,0.903844,11
9.08,-35.73028,1.513534,-23.00455,-0.1439603197832832,-0.0037458788714129,-0.3123727044278719,48.62443,22.11158,180.9576,0.1713754,-0.405514,0.8950309,11
9.1,-35.69807,1.113857,-23.00961,-0.1491920111419977,-0.0632968556138627,-0.323135070213306,46.38372,24.85996,180.2997,0.196846,-0.3850965,0.897864,11
9.12,-35.64359,1.314696,-22.92226,-0.1516769081183318,-0.1221136360640391,-0.330973089309341,49.69868,22.97917,179.6173,0.1821225,-0.4112065,0.8889477,11
9.14,-35.59005,1.512933,-22.83439,-0.1482286141169897,-0.0659608563657363,-0.3144201933001844,52.99494,20.89385,178.7039,0.1672295,-0.436899,0.8791474,11
9.16,-35.47609,1.103809,-22.72195,-0.1283148817386328,-0.0952638602812057,-0.2823013389247291,56.52385,22.57762,176.1301,0.1879992,-0.4582557,0.8601295,11
9.18,-35.42354,1.300164,-22.63605,-0.1066066640865068,-0.1239638823679382,-0.2474080363449506,59.76411,20.20227,174.9458,0.1735483,-0.4833118,0.8489306,11
9.2,-35.37205,1.494049,-22.5499,-0.0885076385928975,-0.0650694060556572,-0.2071196374307922,62.97187,17.42346,173.3386,0.1589394,-0.5078872,0.8369103,11
9.22,-35.19982,1.118189,-22.34226,-0.0513680254311355,-0.0823119665195854,-0.1481941457953999,61.80273,13.15687,167.1201,0.1549039,-0.4959354,0.8404255,11
9.24,-35.15158,1.304936,-22.25499,-0.013805507043382,-0.1002029158943628,-0.0872873963540596,64.8443,9.491629,164.5466,0.1410419,-0.5200741,0.827625,11
9.26,-35.10472,1.489285,-22.16804,0.007085550366197,-0.0340112617489363,-0.0422057294209468,67.79573,5.007214,161.1401,0.1270575,-0.5437118,0.8140435,11
9.28,-35.0593,1.671299,-22.08153,0.0277926547716305,0.0305405527129221,0.003193453558465,70.61484,359.371,156.5699,0.1129647,-0.5668248,0.799696,11
9.3,-34.92977,1.178431,-21.96687,0.061346181169422,-0.0010840347886606,0.0481945099176339,52.0442,15.28275,171.1355,0.152738,-0.4242872,0.8834731,11
9.32,-34.8857,1.35686,-21.8752,0.0951204892112489,-0.0347422897346588,0.0943124146835461,55.11632,12.6608,169.567,0.1391538,-0.4490359,0.8728487,11
9.34,-34.8433,1.5328,-21.7843,0.1169551521178418,0.0297625927353144,0.1362478660813302,58.13837,9.661993,167.603,0.1254521,-0.4733612,0.8614192,11
9.36,-34.67443,1.239992,-21.67842,0.1544329784270637,0.0254421831386731,0.1734500871600772,31.94778,23.3338,175.3183,0.2052591,-0.2613481,0.9384663,11
9.38,-34.62558,1.410593,-21.57521,0.1926931385378294,0.0200740735692919,0.2115611010027516,35.36513,21.6328,174.695,0.1924118,-0.2897526,0.9321864,11
9.4,-34.57891,1.578054,-21.47324,0.2131727478922389,0.0804474720456332,0.2458843774194608,38.76432,19.8074,173.9132,0.1793735,-0.317847,0.9249279,11
9.42,-34.44185,1.268256,-21.41336,0.2434246103143325,0.0703825768924986,0.271578584475789,8.09493,29.57402,177.5201,0.2560072,-0.06272015,0.9638542,11
9.44,-34.38967,1.435656,-21.30594,0.2733461295936124,0.05953148892819,0.295794223629624,11.64253,28.19052,177.3325,0.244503,-0.09270576,0.9640542,11
9.46,-34.33989,1.59962,-21.19992,0.2876992804997975,0.1158938454094136,0.3237914736687259,15.18359,26.77581,177.0535,0.2327414,-0.1225809,0.9631923,11
9.48,-34.29258,1.760309,-21.09554,0.2994979637947157,0.1690763224235354,0.3479635090904329,18.71571,25.31744,176.6773,0.2207356,-0.1523122,0.9612703,11
9.5,-34.20366,1.285496,-21.10781,0.314665559080832,0.1279670490461676,0.352164260690412,353.3071,32.72844,178.6664,0.2805911,0.05927815,0.9579806,11
9.52,-34.15226,1.449286,-20.99754,0.328401380692636,0.0848569229564606,0.3537610457258324,356.888,31.37906,178.7066,0.2700126,0.02919189,0.9624078,11
9.54,-34.10342,1.609522,-20.88892,0.3346871788898227,0.1323603722734093,0.3720148753920815,0.4677828,30.03549,178.6625,0.2591444,-0.0009181001,0.9657595,11
9.56,-33.9987,1.282754,-20.86223,0.3420184291478989,0.1046889768357476,0.3679080789328623,353.7868,34.04836,179.7169,0.2922162,0.0525409,0.9548126,11
9.58,-33.94924,1.445051,-20.75118,0.3474112559805542,0.0768631663563574,0.3606818700183956,357.3557,32.69353,179.8843,0.2813526,0.02242548,0.9593267,11
9.6,-33.90237,1.603805,-20.6419,0.3399183947583779,0.116323680625944,0.3583104181387559,0.9264166,31.35173,179.9672,0.2701883,-0.007706328,0.9627737,11
9.62,-33.82155,1.250466,-20.65623,0.3328214326349759,0.0820857817646715,0.3344179349441041,359.4171,34.65269,181.3312,0.2978463,0.001395965,0.9545298,11
9.64,-33.77048,1.415484,-20.54728,0.3242045829431621,0.0487245250793206,0.3065146083464705,3.009796,33.31835,181.4988,0.2862256,-0.02890624,0.9577134,11
9.66,-33.72189,1.577026,-20.43993,0.3093718321066427,0.0905435039218108,0.2949967178366481,6.604586,31.98885,181.5829,0.2742952,-0.05916841,0.9598202,11
9.68,-33.67585,1.735266,-20.33442,0.2860270424592075,0.0589354968047053,0.2553042520166864,10.19933,30.65366,181.583,0.2620691,-0.08935569,0.9608492,11
9.7,-33.6572,1.23213,-20.44483,0.2617660424014332,0.0286659650828297,0.212633292744818,8.26853,34.61252,182.8336,0.2949126,-0.07614515,0.9524833,11
9.72,-33.60416,1.401192,-20.3367,0.2367824181109679,-0.0031723064085117,0.1664675408183913,11.90792,33.30763,182.9915,0.2823513,-0.1067846,0.9533371,11
9.74,-33.55345,1.566758,-20.22993,0.2082120353730783,-0.0169981796012,0.1230317509229999,15.54888,31.99406,183.0658,0.2694782,-0.1372931,0.9530969,11
9.76,-33.53349,1.199629,-20.30974,0.1791407721645201,-0.027448114686084,0.0771365700285531,14.78182,35.34938,183.6317,0.2970547,-0.1320451,0.9456427,11
9.78,-33.47814,1.376457,-20.20672,0.1497386140731649,-0.03746106926538,0.0283069380647624,18.38568,34.0636,183.7814,0.2839433,-0.1622078,0.944892,11
9.8,-33.42478,1.549969,-20.10457,0.1239174348678711,0.0282692115582484,0.0046171653181805,21.99072,32.75919,183.8475,0.2705242,-0.1921785,0.9430771,11
9.82,-33.40795,1.168285,-20.16446,0.0840951105451894,-0.0119971269259722,-0.0560671378351478,20.16164,33.64029,184.0281,0.2788366,-0.177458,0.9436383,11
9.84,-33.35141,1.353344,-20.06665,0.0451716373869075,-0.0492654312835357,-0.1175138941612927,23.71238,32.31894,184.0367,0.2652552,-0.2068091,0.941431,11
9.86,-33.29649,1.535292,-19.96921,0.0122731119546664,-0.0045303471526202,-0.153993340221259,27.26126,30.95993,183.9536,0.2513956,-0.235925,0.9381932,11
9.88,-33.24329,1.714212,-19.87235,-0.0289549300385738,-0.0428470756844131,-0.2135392694001447,30.80589,29.54864,183.7695,0.237273,-0.2647712,0.9339307,11
9.9,-33.27504,1.139145,-20.00464,-0.0685457926085257,-0.0779370001251726,-0.2722895921765675,26.31326,30.1153,183.9227,0.2453009,-0.2283279,0.9417906,11
9.92,-33.21874,1.332136,-19.91108,-0.1063551186582714,-0.1130271683081828,-0.3305543743944099,29.80054,28.69778,183.7138,0.2312946,-0.2567454,0.9378017,11
9.94,-33.16369,1.522208,-19.81745,-0.133065419042996,-0.1230338519005863,-0.3659004164229702,33.28065,27.21271,183.3944,0.2170556,-0.2848796,0.9328183,11
9.96,-33.14267,1.121882,-19.84733,-0.1572866252869458,-0.129014538004605,-0.3986252491575182,34.73886,27.1038,183.2164,0.2154077,-0.296382,0.9294253,11
9.98,-33.0861,1.320115,-19.75735,-0.1743461633367227,-0.0748410576925513,-0.414177600794765,38.15542,25.51366,182.754,0.200965,-0.3237051,0.9232162,11
10.0,-33.03056,1.515578,-19.66702,-0.1888801795595833,-0.0213559598966493,-0.4263529793834451,41.55889,23.80715,182.1417,0.1863269,-0.3506862,0.9160558,11
10.02,-32.96167,1.115129,-19.64528,-0.2057627581658514,-0.0826435036139002,-0.455488483453593,43.28952,26.53207,181.6895,0.2079762,-0.3621137,0.905835,11
10.04,-32.90491,1.315707,-19.55768,-0.2191367609001999,-0.1426659766493262,-0.4810900975841568,46.64666,24.7999,181.0943,0.1934859,-0.3885491,0.8976351,11
10.06,-32.84907,1.51361,-19.46959,-0.2283282477245261,-0.0876980610970615,-0.4853043479641155,49.98781,22.89755,180.3015,0.1788133,-0.4145867,0.8885364,11
10.08,-32.79423,1.708849,-19.38116,-0.2300960078814795,-0.1187451145745396,-0.4878630033156681,53.30746,20.77451,179.2636,0.163973,-0.440201,0.8785493,11
10.1,-32.74747,1.110081,-19.3827,-0.2288766309466519,-0.1481136248407591,-0.4864512593428809,50.69899,24.63492,178.655,0.1976836,-0.4159916,0.8817775,11
10.12,-32.69236,1.30983,-19.29653,-0.2213626194084241,-0.0900285898095554,-0.4671335380219055,53.98575,22.65308,177.8018,0.1835096,-0.441601,0.871838,11
10.14,-32.63816,1.507015,-19.20992,-0.1939239400750811,-0.1160111545708868,-0.4277259302137637,57.25016,20.40972,176.665,0.169168,-0.4667724,0.861052,11
10.16,-32.4866,1.104557,-19.0414,-0.1644420752695081,-0.1417947249039337,-0.3849940019666764,61.22562,19.07941,171.1253,0.1810594,-0.489651,0.8396528,11
10.18,-32.43457,1.29601,-18.95595,-0.1420396985384013,-0.0799953885168376,-0.342869002202302,64.38127,16.04918,169.1832,0.1673344,-0.5140378,0.8272536,11
10.2,-32.38371,1.485039,-18.87054,-0.1180942183250852,-0.0197881077944773,-0.2978510106830041,67.47839,12.34941,166.5569,0.1534608,-0.5379267,0.8140754,11
10.22,-32.20934,1.144444,-18.67307,-0.0814055754459404,-0.0617511479020289,-0.2461038191163482,58.36668,13.51344,167.7432,0.1538262,-0.470486,0.8559209,11
10.24,-32.16124,1.32671,-18.58466,-0.0616823295634314,-0.0206196509716374,-0.2097754212851237,61.38908,10.24293,165.4639,0.140466,-0.4946268,0.8438216,11
10.26,-32.11465,1.506535,-18.49679,-0.0414446444585174,0.0205884288312019,-0.1722123288822392,64.33363,6.350264,162.5481,0.126987,-0.518303,0.8309458,11
10.28,-32.06962,1.683997,-18.40962,-0.0036972417914125,-0.0070894444101473,-0.130600823357065,67.1694,1.619332,158.7818,0.1134033,-0.5414917,0.8173078,11
10.3,-31.93531,1.212139,-18.32594,0.0350404535087172,-0.0369892800533356,-0.0869704568938329,43.04062,20.72998,173.9061,0.1863195,-0.351438,0.9103051,11
10.32,-31.88802,1.386646,-18.23034,0.0620635870042285,0.0285998591004444,-0.0460349304457115,46.25725,18.76281,172.9473,0.1734574,-0.377589,0.9016696,11
10.34,-31.84258,1.558413,-18.13573,0.1023019969103047,0.0245860410995683,-0.0109701558357568,49.44626,16.5894,171.7586,0.1604415,-0.4033726,0.8921784,11
10.36,-31.68659,1.257318,-18.0703,0.1438617999494229,0.0195158326224113,0.025383980148933,20.01967,27.93466,176.5462,0.2426697,-0.1614385,0.9539633,11
10.38,-31.63262,1.425789,-17.96497,0.1676256857611795,0.0802303278583437,0.0601621001653778,23.54192,26.51055,176.183,0.2309567,-0.1909792,0.9508031,11
10.4,-31.58093,1.590863,-17.86095,0.1903444210841396,0.1379201411286494,0.092991700087107,27.05543,25.02049,175.7103,0.2190038,-0.2203198,0.9466116,11
10.42,-31.45487,1.275806,-17.80418,0.2151186172359169,0.0998563086745865,0.104959793241353,358.3894,33.22725,178.1469,0.2856328,0.01808897,0.9580997,11
10.44,-31.39931,1.44176,-17.69722,0.2265378448239943,0.1312035035311368,0.1222036749681674,1.955071,31.94172,178.1031,0.2753423,-0.01184589,0.9610524,11
10.46,-31.34621,1.604213,-17.5917,0.2363159417084905,0.1611581858069029,0.1371839896758153,5.517835,30.64952,177.979,0.2647612,-0.04175928,0.9629512,11
10.48,-31.29562,1.763332,-17.48785,0.2530715267472869,0.1207508806846148,0.1412372956346177,9.075877,29.34048,177.7726,0.2539015,-0.07161843,0.9637951,11
10.5,-31.20672,1.293941,-17.49561,0.2687356819691779,0.0782810605158465,0.1434589475541989,352.8325,34.67373,179.213,0.2969896,0.06170864,0.9528083,11
10.52,-31.15332,1.455705,-17.38496,0.2768291232379085,0.125731909312892,0.1604789967892947,356.4224,33.38228,179.3324,0.2868934,0.03157175,0.9574363,11
10.54,-31.10253,1.613845,-17.27606,0.2841432181539791,0.0969721894802576,0.1548758268206418,0.01308337,32.10209,179.3708,0.2764902,0.001408526,0.9610014,11
10.56,-31.02635,1.262116,-17.29932,0.2901156349273224,0.068347370744813,0.1465632197175452,355.7552,35.79671,180.5426,0.3072819,0.03378771,0.9508858,11
10.58,-30.97352,1.426179,-17.19159,0.2861371068631966,0.109582974744964,0.1469844405946212,359.3122,34.5126,180.7212,0.2966715,0.00386508,0.9549401,11
10.6,-30.92315,1.586782,-17.08547,0.2797860945489048,0.1483313020905485,0.143340447697323,2.871346,33.23934,180.8201,0.2857484,-0.02605351,0.9579504,11
10.62,-30.85118,1.240667,-17.09743,0.2655380243964025,0.089320366245391,0.1060978176661733,4.003558,36.42318,182.03,0.3116996,-0.03870846,0.9493737,11
10.64,-30.7955,1.407204,-16.98997,0.2459305308085939,0.1067002777373974,0.0846103114055276,7.635203,35.16904,182.2122,0.3001606,-0.06927645,0.9513683,11
10.66,-30.74222,1.570209,-16.88398,0.2248970936556964,0.1238431319428647,0.0606128871056805,11.26958,33.91459,182.3149,0.2882932,-0.09976227,0.9522849,11
10.68,-30.73287,1.226356,-16.94902,0.1956679608622917,0.064329625023925,0.0077847119409335,10.34656,36.03988,183.1167,0.3056421,-0.09409195,0.9474838,11
10.7,-30.67606,1.397025,-16.84344,0.1670054298461711,0.0059619547046353,-0.0472210136459172,13.98134,34.80183,183.2625,0.2934065,-0.1245408,0.9477942,11
10.72,-30.62148,1.564219,-16.73907,0.1428134409728234,0.0445354232450955,-0.0727523494751292,17.61731,33.55232,183.3287,0.2808504,-0.1548401,0.9470317,11
10.74,-30.60496,1.190954,-16.8141,0.1102927674320395,0.0043545856010786,-0.1239024693414885,16.0975,36.64873,183.7387,0.3067977,-0.1429997,0.9408767,11
10.76,-30.54651,1.369875,-16.71383,0.078723739027176,-0.0328467524367803,-0.1766636706472457,19.68839,35.42709,183.8797,0.2940937,-0.1729181,0.9397871,11
10.78,-30.48993,1.545522,-16.61427,0.052525227971031,0.0093419621514111,-0.2036786094341107,23.28028,34.1858,183.9409,0.2810759,-0.2026366,0.9376577,11
10.8,-30.4353,1.718006,-16.51565,0.0264660046872111,0.0505607625865666,-0.2313901550033044,26.87126,32.91295,183.9164,0.2677585,-0.2321196,0.9344926,11
10.82,-30.4733,1.160865,-16.66428,-0.0150534056776319,-0.01720633736729,-0.2932002980393211,21.58484,34.06732,184.0575,0.2812335,-0.1891117,0.9405739,11
10.84,-30.41431,1.348052,-16.56886,-0.0491923821109816,0.0002510596573925,-0.330756198118203,25.12029,32.79068,184.0154,0.2680304,-0.2181456,0.937954,11
10.86,-30.3568,1.532164,-16.47368,-0.0817537910217116,0.0191679592285595,-0.3667944921246606,28.65288,31.4718,183.8823,0.2545512,-0.2469365,0.9343272,11
10.88,-30.3621,1.132822,-16.54433,-0.1214606697621283,-0.046351375143485,-0.4213075799268846,28.0385,31.32195,183.9116,0.2537911,-0.2420572,0.9358838,11
10.9,-30.30279,1.327507,-16.45344,-0.158400403141572,-0.1095794891884716,-0.4743988630700646,31.50978,29.94417,183.6667,0.2401237,-0.2701255,0.9315277,11
10.92,-30.24463,1.519305,-16.36237,-0.1799517912900925,-0.0611296587970929,-0.4920789380450241,34.97372,28.49386,183.3104,0.2262176,-0.2979039,0.9262019,11
10.94,-30.21218,1.118827,-16.37019,-0.199725837512549,-0.0970810126417879,-0.5180282040167503,37.40693,28.36243,182.9684,0.2239216,-0.3168041,0.9200529,11
10.96,-30.15269,1.317864,-16.28263,-0.2161114518021234,-0.1302085826232304,-0.5409995454113317,40.80643,26.77969,182.4448,0.2097625,-0.3437012,0.9132997,11
10.98,-30.09413,1.514151,-16.19466,-0.2241088620514646,-0.0757412111002394,-0.5427585034316478,44.1919,25.06682,181.7616,0.1954024,-0.3702423,0.9056231,11
11.0,-30.0366,1.707706,-16.10644,-0.2288617947976297,-0.0220325581389964,-0.5405139123249039,47.55898,23.18841,180.8863,0.1808559,-0.3964011,0.8970321,11
11.02,-30.0151,1.114633,-16.15956,-0.2355768081036564,-0.0836901450855848,-0.5506983476730929,44.69697,28.09285,181.0625,0.2210479,-0.3709351,0.8980508,11
11.04,-29.95606,1.315486,-16.07383,-0.2404791115835816,-0.0554053560412899,-0.5466191767634327,48.04005,26.40689,180.4568,0.2070485,-0.3971239,0.8896213,11
11.06,-29.89787,1.513677,-15.98758,-0.2419545806610523,-0.025949414701866,-0.5378066752962722,51.36761,24.54602,179.6511,0.1928566,-0.4229141,0.8803188,11
11.08,-29.80908,1.107237,-15.92151,-0.2290536366546365,-0.0842500143506387,-0.517867395817226,53.31864,26.4732,177.626,0.2136346,-0.4324316,0.8676326,11
11.1,-29.75111,1.305917,-15.83777,-0.2132727104752074,-0.142821607575068,-0.494578882785468,56.58837,24.44895,176.6729,0.1998145,-0.4576432,0.8572838,11
11.12,-29.69404,1.502058,-15.75365,-0.1934769544861314,-0.0863386224119022,-0.4547053040512492,59.83364,22.12345,175.3991,0.1858138,-0.4824064,0.8461206,11
11.14,-29.51873,1.109197,-15.55997,-0.1537572615002607,-0.1087823202654117,-0.3960916037320634,62.64466,17.78895,167.7771,0.1860094,-0.4966203,0.83063,11
11.16,-29.46427,1.298175,-15.47606,-0.1123241513131998,-0.1316330488277043,-0.3344444047460397,65.72705,14.31417,165.2955,0.1726912,-0.5205929,0.8179169,11
11.18,-29.41104,1.484734,-15.39229,-0.0838518763301552,-0.0686159627958553,-0.2823527629719364,68.7283,10.00857,161.9705,0.1592223,-0.544071,0.8044484,11
11.2,-29.3591,1.668922,-15.3088,-0.0543340550448947,-0.0071874541540125,-0.2283963550524534,71.60863,4.503478,157.4354,0.1456158,-0.5670362,0.790236,11
11.22,-29.23001,1.161841,-15.19642,-0.0130142580166405,-0.0433104799060452,-0.1720793741253625,55.75908,15.80002,168.7019,0.1664947,-0.4489677,0.864965,11
11.24,-29.17934,1.341942,-15.10855,0.0106980512496677,-0.0023059433872872,-0.1304753359374357,58.78621,12.85437,166.6691,0.1534815,-0.473097,0.8535677,11
11.26,-29.13025,1.519562,-15.02129,0.0345916653398101,0.0384845339756986,-0.0886137979846786,61.7467,9.403746,164.1169,0.1403399,-0.4967898,0.8413999,11
11.28,-28.96374,1.228837,-14.91255,0.0752366475993242,0.0098859836295146,-0.0492966001312578,37.79513,25.0613,174.7022,0.2196596,-0.3063382,0.9193289,11
11.3,-28.91,1.401022,-14.81545,0.1174298617807987,-0.0210221833722221,-0.0082059585142859,41.12084,23.34711,173.9426,0.2073544,-0.3334408,0.911901,11
11.32,-28.85826,1.570234,-14.71939,0.1476148394447332,0.0396477574082643,0.0345794807949124,44.42566,21.47852,173.0027,0.1948558,-0.3602069,0.903577,11
11.34,-28.71712,1.263681,-14.66608,0.1866315043893123,0.030014525324348,0.068439891107765,13.887,31.7719,177.1388,0.2745341,-0.1094536,0.9536308,11
11.36,-28.65803,1.431658,-14.5628,0.2266249760380425,0.0194616189486154,0.1023378694264445,17.41899,30.47513,176.8824,0.2636694,-0.1389801,0.9522832,11
11.38,-28.60125,1.596205,-14.46076,0.2508046938384716,0.075480455126925,0.1399537506604544,20.94459,29.13449,176.5347,0.2525325,-0.1683585,0.9499142,11
11.4,-28.54689,1.757484,-14.36021,0.273302412770839,0.128408171627872,0.1748446295256001,24.46033,27.73674,176.0876,0.2411361,-0.197548,0.946529,11
11.42,-28.47396,1.279357,-14.39104,0.297166712678826,0.0868848639572986,0.1906090840407117,354.4466,36.08456,178.3674,0.3086675,0.05046387,0.9498295,11
11.44,-28.4142,1.444484,-14.28587,0.3090952090692989,0.1149621433585686,0.2116306108079007,358.015,34.86107,178.3799,0.2992409,0.02075893,0.953916,11
11.46,-28.35691,1.606083,-14.18212,0.3187192831271765,0.1413187821349548,0.229933006438656,1.581773,33.63984,178.3161,0.2895,-0.008959588,0.956966,11
11.48,-28.24181,1.296075,-14.13685,0.3279539076175646,0.0927849816389692,0.2284517817884728,353.4684,37.58288,179.4647,0.3213457,0.05543372,0.9452354,11
11.5,-28.18371,1.457173,-14.02828,0.3357537007322477,0.042946936840771,0.2244025847499822,357.0546,36.35007,179.6317,0.3117378,0.02542056,0.9498152,11
11.52,-28.12824,1.614626,-13.92139,0.3361152505936999,0.0827493161078241,0.2336753075676516,0.6425198,35.13046,179.7214,0.3017988,-0.004611859,0.9533523,11
11.54,-28.06307,1.254728,-13.9521,0.3357630991592089,0.0485537156511482,0.2220861663576805,357.43,38.24197,181.1078,0.3276711,0.01802181,0.9444762,11
11.56,-28.00484,1.419361,-13.84736,0.3341894854871641,0.0149175217347826,0.2071301247797778,0.9939145,37.02422,181.2818,0.3173813,-0.01177532,0.9481925,11
11.58,-27.94905,1.580537,-13.74409,0.3273125245186361,0.0549932212236349,0.2077534358258921,4.559755,35.81485,181.3802,0.3067584,-0.04155143,0.9508799,11
11.6,-27.8958,1.738427,-13.64251,0.3181480249732971,0.0926239863275602,0.2045689797446321,8.125843,34.60449,181.4034,0.2958142,-0.07127404,0.9525365,11
11.62,-27.88543,1.237843,-13.74733,0.3017928985982712,0.0304817079363843,0.1712189194387505,6.169901,38.51492,182.5463,0.3281256,-0.05811021,0.9428399,11
11.64,-27.82487,1.405284,-13.64228,0.2817501404675031,0.0446931772557881,0.1522913313629701,9.812389,37.32986,182.7293,0.3168405,-0.08859744,0.9443194,11
11.66,-27.76667,1.569176,-13.53856,0.2600283383615167,0.0593916127475396,0.1301279925276528,13.45681,36.14234,182.8373,0.3052097,-0.1189765,0.9447349,11
11.68,-27.75958,1.208733,-13.61821,0.2366987532613955,0.0717592625907637,0.1041501029054261,13.45298,39.21558,183.5139,0.3297301,-0.1205039,0.936293,11
11.7,-27.69703,1.383433,-13.51784,0.2039748663666709,0.054975441147511,0.065690532505207,17.06915,38.05394,183.6858,0.3177246,-0.1505937,0.9359693,11
11.72,-27.63653,1.554739,-13.41836,0.1711547573997482,0.0416802749375718,0.0254012622874817,20.6869,36.87976,183.7831,0.3053775,-0.1805077,0.934606,11
11.74,-27.63253,1.17581,-13.48588,0.1383210922513895,0.0288882665819669,-0.0172076870711952,18.74606,38.32911,184.0194,0.3183054,-0.1650999,0.9332703,11
11.76,-27.5691,1.358786,-13.39083,0.1008385213215263,0.0146202739917313,-0.0591484057004605,22.3109,37.1526,184.0957,0.3057954,-0.1944432,0.9315992,11
11.78,-27.50731,1.538578,-13.29619,0.0640279978934095,0.0043130854202192,-0.1015716388861585,25.87538,35.94939,184.0928,0.2929664,-0.223568,0.9289221,11
11.8,-27.44727,1.715276,-13.20218,0.0279547575024934,-0.005161861646161,-0.144895327051691,29.43764,34.70715,184.0037,0.2798322,-0.2524399,0.9252443,11
11.82,-27.49994,1.145575,-13.34181,-0.0149793174584083,-0.0992502293921336,-0.2069749211904357,24.60643,35.01419,184.0082,0.2866287,-0.2133692,0.9334489,11
11.84,-27.43694,1.336784,-13.2511,-0.0424190771396917,-0.0824422811501348,-0.233178907151589,28.11101,33.75655,183.8749,0.2736288,-0.2417894,0.9301276,11
11.86,-27.3752,1.525007,-13.16037,-0.0682294965597041,-0.0636512396245093,-0.2583905498749737,31.61058,32.44574,183.6469,0.2603543,-0.2699452,0.925834,11
11.88,-27.37689,1.12494,-13.20829,-0.0923519516378856,-0.0460792852845847,-0.2829840502587351,32.08797,31.59408,183.5004,0.2533828,-0.2738037,0.9266195,11
11.9,-27.3142,1.322319,-13.12124,-0.1147591098294449,-0.0558681325302474,-0.3039856180911322,35.52297,30.18348,183.1128,0.2398637,-0.3011599,0.9213069,11
11.92,-27.25247,1.516873,-13.03385,-0.1343772800988163,-0.0617842923072757,-0.3222354929644038,38.94771,28.67874,182.5989,0.2261122,-0.3282027,0.9150593,11
11.94,-27.19905,1.115678,-13.02698,-0.1511595859707433,-0.0671974804850316,-0.338060994846423,41.86391,30.51205,182.3192,0.2387417,-0.3495722,0.9028087,11
11.96,-27.13614,1.315936,-12.94267,-0.1610516240038015,-0.071000198506692,-0.3459113988759872,45.23643,28.92943,181.7514,0.2248539,-0.3758785,0.8951916,11
11.98,-27.07406,1.513474,-12.85788,-0.1680508184978082,-0.0712809834955269,-0.3504659666400358,48.59472,27.19512,181.0066,0.2107548,-0.401806,0.8866917,11
12.0,-27.01291,1.708305,-12.77274,-0.1721239956613227,-0.0714625636752454,-0.3520314616818367,51.93409,25.26527,180.0434,0.1964587,-0.4273292,0.8773186,11
12.02,-26.98984,1.113048,-12.80122,-0.1634368136935662,-0.1603485892852341,-0.3459891149571712,48.07293,29.04874,179.4852,0.230814,-0.3932675,0.8836309,11
12.04,-26.92841,1.313779,-12.7182,-0.1469951892341727,-0.1326244849501838,-0.317015859436313,51.38013,27.30078,178.7495,0.2172532,-0.4189122,0.8745296,11
12.06,-26.86777,1.51189,-12.63469,-0.1281912414493384,-0.1042816372730695,-0.2849636386231582,54.66928,25.34202,177.7818,0.2034949,-0.4441477,0.8645928,11
12.08,-26.73078,1.102251,-12.50335,-0.1069847327345048,-0.0786575112967939,-0.2501550519392537,59.67243,25.92036,174.0128,0.2196019,-0.4740269,0.8383732,11
12.1,-26.67179,1.296199,-12.42168,-0.076775139245198,-0.0756064415124884,-0.2033699644070954,62.88603,23.44896,172.5442,0.2062092,-0.498414,0.8266997,11
12.12,-26.6138,1.487678,-12.33988,-0.0452170291223708,-0.070911433405167,-0.1540414608542895,66.06129,20.4704,170.5538,0.1926337,-0.5223256,0.8142611,11
12.14,-26.43543,1.128933,-12.15338,-0.012257409631021,-0.0678721167950367,-0.1025071728738373,60.94772,16.83502,166.6503,0.1836215,-0.4836169,0.8381683,11
12.16,-26.38014,1.313405,-12.06949,0.0206281747583876,-0.0514155543198273,-0.0549730715767862,63.96465,13.37616,164.0804,0.1706814,-0.5073052,0.8257807,11
12.18,-26.32622,1.495437,-11.98595,0.0533563187891821,-0.0335716192695544,-0.0066993274405264,66.89491,9.1629,160.7444,0.1575968,-0.5305256,0.8126476,11
12.2,-26.27373,1.675098,-11.9029,0.0860301052997556,-0.0175045988896174,0.0419547379660021,69.70045,3.90494,156.3537,0.1443806,-0.5532566,0.798783,11
12.22,-26.14746,1.195598,-11.81462,0.1368817938381292,-0.0721802958425245,0.0940280552063252,48.30003,22.9149,173.1058,0.2050362,-0.3893506,0.8877897,11
12.24,-26.09488,1.372312,-11.72612,0.1766409550768886,-0.0275806403030098,0.143038964663918,51.41112,20.84751,171.9384,0.1926045,-0.4140738,0.8784565,11
12.26,-26.04398,1.546467,-11.63837,0.2162354013861667,0.0157111740012088,0.1918891437137795,54.49022,18.51967,170.4925,0.1800125,-0.4384223,0.8683476,11
12.28,-25.87882,1.250236,-11.56865,0.2557523787835167,0.0546678543637055,0.2400912837450306,26.20942,30.2298,175.9744,0.2614961,-0.2098325,0.9376066,11
12.3,-25.81746,1.419205,-11.46788,0.2821089170643738,0.0664032745933351,0.266944961031653,29.71962,28.8364,175.5007,0.2502344,-0.238739,0.9328858,11
12.32,-25.75832,1.5848,-11.36828,0.3078588884064546,0.0787525173988269,0.2926257650914843,33.21849,27.35611,174.9066,0.2387168,-0.2673935,0.9271768,11
12.34,-25.63975,1.271972,-11.32837,0.3330463574674511,0.0887378524257629,0.3165693643343259,2.386645,36.23382,177.9138,0.3111983,-0.01413056,0.9499425,11
12.36,-25.57613,1.43873,-11.22618,0.3523890184611122,0.097289212216223,0.3373093223678034,5.948635,35.05958,177.8235,0.3016813,-0.04375686,0.9518074,11
12.38,-25.51489,1.601985,-11.12525,0.3694287041544437,0.1061351594037482,0.355482456043243,9.506989,33.87087,177.6585,0.2918511,-0.07332753,0.952651,11
12.4,-25.45613,1.761896,-11.02579,0.3841763773797382,0.1124142796630048,0.3704538551819929,13.06013,32.65804,177.4159,0.2817186,-0.1028111,0.9524737,11
12.42,-25.37881,1.291612,-11.03962,0.4033601801118243,0.0450372406455645,0.3732267694808504,352.2216,38.46863,178.9951,0.3280993,0.06692097,0.9421647,11
12.44,-25.31629,1.453995,-10.93385,0.4176490670244832,0.0703449385484236,0.3924158748276947,355.8143,37.29501,179.0967,0.3192491,0.03711923,0.9469344,11
12.46,-25.25635,1.612742,-10.82962,0.4285855110400871,0.0940951284446278,0.4079462557355512,359.4073,36.13199,179.1246,0.3100615,0.00728586,0.9506719,11
12.48,-25.18585,1.269836,-10.84303,0.4362299919359267,0.1135619162713252,0.4191621824110378,354.1032,39.59267,179.9712,0.3382172,0.04848159,0.9396613,11
12.5,-25.12531,1.433303,-10.73897,0.426936789628809,0.1029407302806517,0.4059958604104416,357.6534,38.41909,180.1664,0.3289828,0.01885829,0.9441129,11
12.52,-25.06726,1.59328,-10.6364,0.4150674219381565,0.0938443998309293,0.3890110967427482,1.205839,37.2595,180.2889,0.3194076,-0.01077672,0.9475557,11
12.54,-24.99776,1.246159,-10.6525,0.4007068945090544,0.0834943733662635,0.3675903894806996,1.394243,40.25468,181.5585,0.343895,-0.01610218,0.9388307,11
12.56,-24.93456,1.411522,-10.54907,0.3821237583542083,0.1462622229667577,0.3615009472126239,5.014028,39.10935,181.7507,0.3337171,-0.04632235,0.9415343,11
12.58,-24.87379,1.573337,-10.44702,0.3547153664584641,0.1110160951272448,0.3234692945613551,8.636503,37.96871,181.8707,0.3231809,-0.07648675,0.9431971,11
12.6,-24.81554,1.731778,-10.34659,0.3260022972646248,0.0772496917878813,0.2824216073539983,12.2596,36.82362,181.9184,0.3122986,-0.1065582,0.9438185,11
12.62,-24.79525,1.217415,-10.42988,0.2960791287627033,0.0420583284196768,0.2378376050360047,11.90434,40.32726,183.3256,0.3398751,-0.1072501,0.9342954,11
12.64,-24.73036,1.390038,-10.32973,0.2646843739245716,0.0250329962748124,0.1954800733662038,15.53128,39.21707,183.4994,0.3284727,-0.1373789,0.9343178,11
12.66,-24.66759,1.559208,-10.23057,0.2327469991476438,0.0115141725192196,0.1502744854744516,19.15979,38.0975,183.6024,0.3167174,-0.1673474,0.9333062,11
12.68,-24.60704,1.725062,-10.13261,0.2003169026257159,-0.0014346022840167,0.1017708687506749,22.7886,36.95854,183.6309,0.3046224,-0.1971228,0.9312626,11
12.7,-24.64866,1.183244,-10.27316,0.1747794565338583,0.0614528970884226,0.0768148835462123,17.41609,39.62651,183.8738,0.3300428,-0.1536799,0.9311606,11
12.72,-24.58349,1.364179,-10.17797,0.1311360530729768,0.0185772174587788,0.0124049178208905,20.99455,38.51535,183.9821,0.3181256,-0.1831579,0.9297724,11
12.74,-24.52002,1.541869,-10.08332,0.0887635474043624,-0.0211677666341481,-0.053366607704023,24.57327,37.38323,184.0172,0.3058764,-0.21243,0.9273822,11
12.76,-24.5299,1.153155,-10.1538,0.055863052329161,0.0211870697346974,-0.0959405623582172,23.07323,37.16433,184.017,0.3053907,-0.2003942,0.9303812,11
12.78,-24.4646,1.342291,-10.06337,-0.0034849350110035,-0.0193210894193107,-0.1969146687922994,26.59421,35.99065,183.9449,0.2929497,-0.228968,0.9274812,11
12.8,-24.40062,1.528384,-9.973038,-0.0590798340211842,-0.0564913131806935,-0.2963846184143277,30.11169,34.7734,183.787,0.2802134,-0.2572912,0.923613,11
12.82,-24.39246,1.128838,-10.00644,-0.1109506110474867,-0.0935427915438351,-0.39460970243046,30.04778,33.54683,183.6725,0.270627,-0.2569967,0.926648,11
12.84,-24.32794,1.324864,-9.919659,-0.15931989657685,-0.105301890754728,-0.5056605454359674,33.50145,32.24116,183.358,0.2576514,-0.2845473,0.9218655,11
12.86,-24.2644,1.51802,-9.832616,-0.2018015670740207,-0.1129334453436554,-0.6122438310061138,36.94693,30.85632,182.9316,0.2444255,-0.3118017,0.9161494,11
12.88,-24.20197,1.708336,-9.745471,-0.2385068606759146,-0.1197570116808714,-0.7145898021823498,40.38166,29.37094,182.3754,0.2309625,-0.3387327,0.9095065,11
12.9,-24.20612,1.117262,-9.810265,-0.2602168603452379,-0.0412341543979968,-0.7921518599872384,39.62771,31.09634,182.6326,0.2446113,-0.3322681,0.9082189,11
12.92,-24.14215,1.316917,-9.726028,-0.2931872019253836,-0.0760542428031835,-0.9127163726920758,43.0132,29.59921,182.085,0.231166,-0.3587115,0.9010654,11
12.94,-24.07899,1.513822,-9.64135,-0.3188076240475745,-0.1084123492591748,-1.0263719024369569,46.38525,27.9666,181.3768,0.2175038,-0.3847942,0.8930262,11
12.96,-24.01448,1.113831,-9.619738,-0.3361192284233412,-0.0527693301314466,-1.121216056555411,46.37943,30.87646,180.3239,0.2436182,-0.3802588,0.8863321,11
12.98,-23.95113,1.314582,-9.537347,-0.3466464441946075,-0.0828496493284155,-1.2339861063473891,49.70728,29.26712,179.6823,0.2303648,-0.4060306,0.8776523,11
13.0,-23.88853,1.512678,-9.454464,-0.3503745560120781,-0.1110898672965294,-1.3386355447635374,53.02007,27.47625,178.8377,0.2169016,-0.431407,0.8681357,11
13.02,-23.75756,1.103817,-9.336354,-0.3474506633943783,-0.1409080181007605,-1.435375448137094,56.50169,28.28294,176.1496,0.2305128,-0.4514995,0.849822,11
13.04,-23.69631,1.300133,-9.255416,-0.3102783562150519,-0.1403738985551663,-1.515097097486512,59.74826,26.17789,175.0002,0.2173456,-0.4761287,0.8388699,11
13.06,-23.63596,1.493934,-9.174228,-0.2680827208891165,-0.1381688978723468,-1.5856697169986151,62.96672,23.7021,173.4645,0.2039863,-0.500305,0.827144,11
13.08,-23.57658,1.685242,-9.092916,-0.2210312713124271,-0.1376206428184003,-1.647363396389419,66.14574,20.70737,171.3963,0.1904479,-0.5240102,0.8146533,11
13.1,-23.4385,1.118092,-8.965896,-0.1808574672387126,-0.0512292386865514,-1.70757438199398,61.81164,18.67789,167.1299,0.1951592,-0.4880226,0.8319649,11
13.12,-23.38111,1.304806,-8.883466,-0.1266780124571398,-0.0651499143349292,-1.7623634902023584,64.86009,15.28547,164.5926,0.1824899,-0.5116608,0.8194381,11
13.14,-23.32496,1.489076,-8.801279,-0.0690250421344154,-0.0792252748121514,-1.8081904194115723,67.82635,11.1094,161.2606,0.1696654,-0.5348293,0.8061749,11
13.16,-23.15456,1.178218,-8.644974,-0.0262425517209119,-0.0145089584917693,-1.8610739933772007,52.08308,21.63693,171.1465,0.2014225,-0.4169169,0.8735145,11
13.18,-23.09955,1.356555,-8.558587,0.030964700129322,-0.0170784461943951,-1.9058399672333028,55.16564,19.29554,169.631,0.1891844,-0.4411911,0.8632197,11
13.2,-23.04613,1.532354,-8.472851,0.0908867034661518,-0.0201943541586913,-1.9424223589676293,58.20499,16.60369,167.7502,0.1767895,-0.4650689,0.8521669,11
13.22,-22.86629,1.239893,-8.363926,0.1533866807625425,-0.027006678709251,-1.971232009464384,31.99575,29.28839,175.3184,0.2537127,-0.2565002,0.9264227,11
13.24,-22.80532,1.410456,-8.266834,0.2070628305020014,0.0579222977120935,-1.9935513082989127,35.41539,27.83711,174.7169,0.2425085,-0.2843561,0.9202961,11
13.26,-22.74642,1.577835,-8.170803,0.2658869047997814,0.0492198435146452,-2.016537171591123,38.82011,26.27411,173.977,0.2310699,-0.3119206,0.9132444,11
13.28,-22.68967,1.74215,-8.076019,0.3274986099451622,0.0396831961605911,-2.0322837709798085,42.20736,24.57171,173.0734,0.2194077,-0.3391759,0.9052716,11
13.3,-22.60219,1.268215,-8.102151,0.3743597752164529,0.0964122450791907,-2.038725403406913,8.144128,35.27892,177.5191,0.3036554,-0.06111306,0.9498879,11
13.32,-22.53774,1.435578,-8.001111,0.4234063283583165,0.0831145769343062,-2.0427048077436982,11.69248,34.13655,177.3482,0.2941594,-0.09059059,0.9500373,11
13.34,-22.47559,1.599464,-7.901298,0.4723520887253394,0.0692029816914008,-2.0418849340373235,15.23569,32.96731,177.1017,0.2843624,-0.1199638,0.9491827,11
13.36,-22.3567,1.285395,-7.8535,0.5118010076320498,0.1230667713256489,-2.028150920830183,353.3164,39.2524,178.6844,0.3346588,0.05875191,0.9404653,11
13.38,-22.29162,1.449115,-7.750237,0.5489992037509346,0.1736553486299809,-2.0111806630391307,356.8969,38.13642,178.7592,0.3262776,0.0291252,0.9448244,11
13.4,-22.22903,1.609236,-7.648396,0.5735312023533825,0.1281890344942839,-2.005716129207117,0.4771754,37.02782,178.7643,0.3175562,-0.0005242093,0.9481691,11
13.42,-22.12183,1.282858,-7.607557,0.5969929051769904,0.0812254787155168,-1.9961919333552256,353.784,40.16196,179.7184,0.3427168,0.05176432,0.9378698,11
13.44,-22.05883,1.445106,-7.503249,0.6161653269879976,0.1239552043722658,-1.966547092286317,357.3522,39.04135,179.904,0.3340394,0.02205631,0.9422756,11
13.46,-21.99835,1.603773,-7.400478,0.6245176807841841,0.0917599302474793,-1.9488717517368448,0.9222846,37.93444,180.0197,0.3250153,-0.007667206,0.9456747,11
13.48,-21.94048,1.75904,-7.29947,0.6314917299880554,0.0601443013230783,-1.928275260134522,4.49292,36.8326,180.0666,0.3156546,-0.03737403,0.9480641,11
13.5,-21.91852,1.2505,-7.398291,0.635096150110225,0.1010311533435177,-1.888091098428816,359.4007,40.50523,181.3311,0.3461888,0.0008851127,0.9380785,11
13.52,-21.85473,1.415484,-7.295914,0.6278466199030648,0.0684688712443773,-1.858558685850047,2.99217,39.40722,181.5151,0.3366853,-0.02903388,0.9411627,11
13.54,-21.79334,1.576955,-7.194936,0.6197033155668992,0.0371884471996866,-1.8263545340242429,6.585681,38.3161,181.6306,0.3268282,-0.05891446,0.9432302,11
13.56,-21.73443,1.735082,-7.095576,0.6085923306820238,0.0798815535177435,-1.7746410249805955,10.1797,37.22332,181.6777,0.3166288,-0.08872309,0.9442799,11
13.58,-21.71552,1.226321,-7.190998,0.595004876562498,0.1208144735944463,-1.7212887468344606,10.33212,41.33683,183.1482,0.3490784,-0.09387197,0.9323596,11
13.6,-21.6489,1.396883,-7.090853,0.5581815183271708,0.0600103386121288,-1.6954039192883203,13.96469,40.27962,183.3394,0.3382879,-0.1240403,0.9327163,11
13.62,-21.58445,1.563939,-6.991795,0.5212109971745491,0.0009010120312681,-1.6673951384844905,17.59906,39.2171,183.4638,0.3271353,-0.1540634,0.9320459,11
13.64,-21.5678,1.190904,-7.066785,0.4894930221217288,0.0409795100581146,-1.610601969932924,16.0824,44.09919,183.7927,0.3672239,-0.1418835,0.9189813,11
13.66,-21.49732,1.369664,-6.97406,0.4419150327408272,0.0016965538355921,-1.5723573093446548,19.66901,43.06928,184.0019,0.3559018,-0.1714114,0.9181571,11
13.68,-21.42864,1.54512,-6.881906,0.3943689277591109,-0.0345284200038829,-1.53183911649168,23.25754,42.02902,184.1462,0.3442072,-0.2007462,0.9163455,11
13.7,-21.36187,1.717383,-6.790518,0.3469273929145844,-0.070745267245432,-1.4896744986307011,26.8467,40.96861,184.2207,0.3321518,-0.2298524,0.9135505,11
13.72,-21.41632,1.160769,-6.961324,0.3146726057567925,-0.0042696255350583,-1.4109045902006851,21.57263,43.74007,184.1207,0.3594404,-0.1867213,0.9135517,11
13.74,-21.34299,1.347765,-6.875866,0.2657201936680478,-0.0477284918671512,-1.3534946736522144,25.1067,42.66472,184.1571,0.3475042,-0.2152027,0.9114873,11
13.76,-21.27104,1.531659,-6.790508,0.2181197808569428,-0.0875314301564134,-1.2930742208416637,28.63976,41.55887,184.1192,0.3352158,-0.2434515,0.9084724,11
13.78,-21.39318,1.13253,-7.116878,0.1826999538942058,-0.0423843744171432,-1.2055460960703144,28.02546,46.48729,184.0457,0.3748064,-0.2358612,0.8943098,11
13.8,-21.3145,1.326854,-7.041682,0.1486519263044545,0.0023827699157944,-1.1142925984761318,31.49755,45.35618,183.9558,0.3622153,-0.2630936,0.8911318,11
13.82,-21.23679,1.518279,-6.966174,0.1008669864740827,-0.065975376464236,-1.041645893143127,34.96621,44.17245,183.7765,0.3492648,-0.2900451,0.8870566,11
13.84,-21.27936,1.118468,-7.235326,0.0639142743553398,-0.0447474463611177,-0.9470112692866802,37.3894,48.51461,183.127,0.3810411,-0.3027356,0.8668794,11
13.86,-21.19567,1.31711,-7.170129,0.0297021452611874,-0.0219059358822571,-0.8479239788043569,40.79609,47.21609,182.7858,0.3674912,-0.3283996,0.8619879,11
13.88,-21.11269,1.512988,-7.104367,-0.0046870366610227,-0.0846093735304213,-0.7557543612715046,44.19461,45.81786,182.3181,0.3535915,-0.3537341,0.8562523,11
13.9,-21.03054,1.70612,-7.038156,-0.035908519460349,-0.1458430920193453,-0.6600281618668831,47.58229,44.29166,181.6984,0.3393559,-0.3787149,0.8496792,11
13.92,-21.06857,1.114361,-7.314596,-0.0540618767720859,-0.0922204470878045,-0.5384946435807405,44.68986,51.33857,181.1976,0.3970467,-0.3468296,0.8353074,11
13.94,-20.98203,1.314924,-7.256231,-0.0645195630318959,-0.1243297338303008,-0.4131017309885052,48.04026,49.93583,180.7504,0.3831325,-0.3715324,0.8291473,11
13.96,-20.89605,1.512809,-7.197198,-0.0718450200207727,-0.1544904731480939,-0.2843850698306751,51.38065,48.39246,180.1403,0.3688639,-0.3958739,0.8221987,11
13.98,-20.80989,1.107103,-7.318898,-0.0763034752895186,-0.0969822375729639,-0.1433886037934446,53.30704,50.9465,177.7186,0.3923728,-0.3972519,0.8028514,11
14.0,-20.72305,1.305615,-7.26494,-0.0778058416883773,-0.0404565865498361,0.0007992732466832,56.58472,49.18649,176.8829,0.3780441,-0.4208481,0.7950014,11
14.02,-20.63682,1.50157,-7.21039,-0.0669714430000723,-0.0981216915526276,0.1532726700438103,59.84336,47.16127,175.765,0.3633723,-0.4440406,0.786421,11
14.04,-20.39449,1.109121,-7.210171,-0.0640920982409394,-0.066017233990937,0.302191197676125,62.64166,42.16367,167.8309,0.3569628,-0.4497331,0.7727819,11
14.06,-20.30994,1.298036,-7.155801,-0.0593769691038352,-0.0333407338452044,0.4522709627342968,65.73334,38.91685,165.4164,0.3424839,-0.4720381,0.7626116,11
14.08,-20.2265,1.484501,-7.101154,-0.0376419757872823,-0.0750319929482712,0.6140244493622212,68.7511,34.87536,162.1968,0.327706,-0.4939073,0.7517588,11
14.1,-20.14427,1.668566,-7.046321,-0.014728441144252,-0.1185346315330913,0.7757308583526266,71.65884,29.67978,157.8141,0.3126424,-0.5153243,0.7402322,11
14.12,-19.99165,1.161801,-7.011551,-0.0024993021823886,-0.0536978212958126,0.9299113885130054,55.76689,38.50558,168.6665,0.3336267,-0.4105822,0.8151619,11
14.14,-19.90974,1.341948,-6.951029,0.0103985395720749,0.0094824462740665,1.0822154780024809,58.7895,35.71083,166.615,0.3197674,-0.4328662,0.8061035,11
14.16,-19.82941,1.519585,-6.890536,0.0429035664882211,-0.0206276124759581,1.234750131125129,61.74842,32.42382,164.0595,0.3056378,-0.4547631,0.7963398,11
14.18,-19.66463,1.228773,-6.822851,0.059458266789778,0.0209088782662071,1.3746848331332937,37.83467,45.19574,174.6426,0.3770975,-0.2819972,0.8665824,11
14.2,-19.57881,1.401082,-6.752152,0.0762321611980532,0.0615162060749472,1.5110699416041629,41.15207,43.61751,173.8359,0.3648506,-0.3071242,0.8609243,11
14.22,-19.4951,1.570396,-6.681782,0.1031602617750802,0.030909956043888,1.6380044654106238,44.44927,41.88869,172.8577,0.3522651,-0.3319505,0.8544444,11
14.24,-19.41363,1.736819,-6.611871,0.1122278958371847,0.0681018576155427,1.7577732915222382,47.72262,39.97242,171.6735,0.3393544,-0.3564656,0.8471444,11
14.26,-19.30697,1.26847,-6.588978,0.1199657869877817,0.1042559461540387,1.8710499358914083,8.135208,50.50954,177.4684,0.4268827,-0.05473696,0.901253,11
14.28,-19.21727,1.436131,-6.510363,0.1264161853114425,0.1365183935009997,1.9769751797578925,11.66374,49.4114,177.251,0.4178889,-0.08230876,0.9024861,11
14.3,-19.13005,1.600337,-6.432301,0.1327467489788771,0.0726549612982693,2.0600502207571223,15.18724,48.28428,176.9606,0.4084703,-0.1097936,0.9027796,11
14.32,-19.02591,1.285575,-6.366874,0.1343070035194355,0.1013438404660274,2.154193337895783,353.3143,51.76311,178.621,0.4351066,0.05770202,0.8984088,11
14.34,-18.9384,1.449499,-6.282166,0.1340259605664702,0.1285859644214266,2.2403387899052905,356.8895,50.70405,178.6384,0.4276993,0.02961086,0.9034356,11
14.36,-18.85358,1.609838,-6.19828,0.1358858304483634,0.0833001103648617,2.3073963314104264,0.4634396,49.64867,178.5898,0.4198476,0.001496371,0.9075024,11
14.38,-18.77159,1.766761,-6.115404,0.1276649106979106,0.1076283443875789,2.373688175700504,4.034837,48.58871,178.4751,0.4115602,-0.02661172,0.9106055,11
14.4,-18.76514,1.283055,-6.133017,0.1166476624853718,0.1307285310196066,2.4302344346382063,353.7828,50.07224,179.6536,0.4224164,0.05041055,0.9047733,11
14.42,-18.68333,1.445476,-6.043031,0.1031678601932872,0.0780063690832516,2.4603461885320512,357.3491,49.00908,179.7805,0.4146133,0.02184179,0.9097018,11
14.44,-18.6042,1.604326,-5.954097,0.0811536787637119,0.0973174264311353,2.4891516039964783,0.9162189,47.95588,179.8412,0.4063816,-0.006742085,0.9136676,11
14.46,-18.58561,1.250611,-5.966816,0.0565517711143281,0.1162810980410142,2.506557310443763,359.3967,48.89032,181.2859,0.4138442,0.0001489776,0.9102635,11
14.48,-18.50616,1.415695,-5.876157,0.0294406813645702,0.1321812459655737,2.5116538017033863,2.988425,47.84311,181.4287,0.405019,-0.02888803,0.9138516,11
14.5,-18.42924,1.577265,-5.786514,-5.548327188753533e-05,0.1272820448233,2.50356248274852,6.581393,46.8005,181.507,0.39577,-0.05789035,0.9164605,11
14.52,-18.415,1.232264,-5.787588,-0.0391909068085503,0.1138764803376669,2.47669828736267,8.246384,47.49116,182.7996,0.3999062,-0.075606,0.9134081,11
14.54,-18.3365,1.401341,-5.69569,-0.0789647756860258,0.102965936142185,2.439003387033106,11.88579,46.46951,182.9449,0.3898048,-0.1051911,0.9147053,11
14.56,-18.26032,1.566878,-5.604701,-0.119315091985509,0.0916728238783596,2.389624686627361,15.52614,45.44252,183.0251,0.3792863,-0.1346528,0.9149998,11
14.58,-18.1866,1.729022,-5.514817,-0.1713281408061215,0.0013183210380109,2.3022397839451934,19.1667,44.4016,183.0387,0.3683627,-0.1639646,0.9142912,11
14.6,-18.26211,1.199823,-5.626565,-0.2163183157231105,0.0117114702615581,2.2318048376807123,14.76971,46.12129,183.588,0.3845633,-0.1303655,0.9135877,11
14.62,-18.18588,1.376689,-5.537138,-0.2613118310655256,0.0233537684434017,2.149741779804378,18.37409,45.11409,183.7129,0.373707,-0.1596342,0.9131573,11
14.64,-18.11154,1.550192,-5.448288,-0.3172576495194574,-0.0453488258308743,2.033944047746755,21.97898,44.09284,183.7726,0.3624588,-0.1887231,0.9117453,11
14.66,-18.14153,1.1684,-5.505302,-0.3648396835652481,-0.0307742725731485,1.9318330655177287,20.14956,43.66148,184.0073,0.3602305,-0.17509,0.9156882,11
14.68,-18.0672,1.353447,-5.419278,-0.4119284244210681,-0.0145054502311777,1.818932512098593,23.70023,42.62428,184.014,0.3487847,-0.203649,0.9138144,11
14.7,-17.99432,1.535332,-5.33346,-0.4585178423577445,0.0004110237977221,1.6945369062615778,27.24938,41.55754,183.9488,0.3369848,-0.2319873,0.9109869,11
14.72,-17.92302,1.714136,-5.248019,-0.5230691287256912,-0.0961600794576666,1.5287395718165244,30.79538,40.45006,183.805,0.3248444,-0.2600737,0.9072101,11
14.74,-17.97028,1.132938,-5.331921,-0.5673866067327757,-0.0819486977826629,1.3907765317946332,28.03337,38.58252,183.8802,0.3126106,-0.2393256,0.9179326,11
14.76,-17.89858,1.327619,-5.249181,-0.6097571161995068,-0.0657614404218604,1.2438048393940888,31.51382,37.41662,183.6179,0.3004243,-0.2668249,0.9138669,11
14.78,-17.82787,1.519356,-5.166216,-0.6579931693879306,-0.1340804486504973,1.0723010343590829,34.98743,36.18553,183.2595,0.2879467,-0.2940463,0.9088801,11
14.8,-17.75824,1.708186,-5.08318,-0.6745577298988266,-0.1129152967840826,0.9527239665723384,38.45253,34.87095,182.7896,0.2751885,-0.3209635,0.902978,11
14.82,-17.79676,1.118914,-5.153645,-0.6880531325515855,-0.0899246553727113,0.827887417126401,37.38448,34.65212,182.9448,0.2741464,-0.3130904,0.9064264,11
14.84,-17.72716,1.31796,-5.072875,-0.6985590369398811,-0.0684134157279018,0.6973025843712723,40.78556,33.28449,182.4118,0.2613599,-0.3394333,0.8999643,11
14.86,-17.65831,1.514211,-4.991691,-0.689773988817733,-0.0742185236230417,0.5998290161406488,44.17439,31.79774,181.7363,0.2483281,-0.3654376,0.8926252,11
14.88,-17.61106,1.114636,-4.986355,-0.6777947117923706,-0.0762521946657602,0.500597526286908,44.68595,34.49102,181.0685,0.2708125,-0.3656007,0.8843559,11
14.9,-17.54261,1.315446,-4.907035,-0.6627434779425625,-0.0779368079586143,0.3992696783107812,48.0318,33.03866,180.4828,0.2580783,-0.3912819,0.8762096,11
14.92,-17.47484,1.513555,-4.827227,-0.6354352097085476,-0.1680395181154115,0.3002893776536314,51.36471,31.42946,179.7201,0.2451095,-0.4165853,0.8672362,11
14.94,-17.37705,1.107291,-4.749647,-0.5879305871731986,-0.1415252874233532,0.2493284901028368,53.29367,32.00748,177.6202,0.255317,-0.4258978,0.8563952,11
14.96,-17.3107,1.305971,-4.671515,-0.5380724083227926,-0.1141603795733457,0.1989166283284171,56.56421,30.20567,176.6717,0.242637,-0.4505912,0.8462647,11
14.98,-17.24507,1.502074,-4.593012,-0.4860195691153937,-0.0892810311302192,0.1487959939919852,59.81319,28.12484,175.4288,0.2297443,-0.4748611,0.8353615,11
15.0,-17.18028,1.695616,-4.514266,-0.4212558148987533,-0.0868713279097534,0.1322475483992666,63.03288,25.66334,173.7916,0.2166502,-0.4986882,0.8236945,11
15.02,-17.05029,1.109175,-4.395187,-0.3555449262770591,-0.0826003808550261,0.1177695958924084,62.62956,22.71399,167.7908,0.22147,-0.4887823,0.8219628,11
15.04,-16.98779,1.298165,-4.316254,-0.2890532357031088,-0.0797673657145623,0.1051455269749416,65.71341,19.46855,165.3206,0.2091805,-0.5122024,0.8094329,11
15.06,-16.92638,1.484695,-4.23743,-0.2295390230025864,-0.0633723612226795,0.1127330006709048,68.72201,15.42459,162.0421,0.1967143,-0.5351564,0.7961852,11
15.08,-16.75921,1.16164,-4.080278,-0.1716088590552968,-0.0453884397294441,0.1224640228050905,55.78674,21.11171,168.7073,0.2063747,-0.4417489,0.8562151,11
15.1,-16.69954,1.341697,-3.997493,-0.115388388064753,-0.0289781517846013,0.1341128418160427,58.82148,18.41244,166.7103,0.194525,-0.4653583,0.8450332,11
15.12,-16.64132,1.519229,-3.915239,-0.0437095882601696,-0.083077797214594,0.1507041622787502,61.7963,15.23291,164.2219,0.1825153,-0.4885558,0.8331198,11
15.14,-16.58464,1.694319,-3.833652,0.0158752797069117,-0.0377551440754916,0.1733711887672228,64.68988,11.41777,161.0883,0.1703585,-0.5113214,0.8204865,11
15.16,-16.39656,1.240269,-3.733499,0.072966079306568,0.0064411891500641,0.1981150496495867,31.96942,31.43032,175.32,0.2709887,-0.2542348,0.9215836,11
15.18,-16.33222,1.411341,-3.640436,0.1274068986026491,0.0464841524698131,0.224571327233363,35.33842,30.09035,174.7321,0.2605436,-0.2814409,0.9155704,11
15.2,-16.26985,1.57931,-3.54835,0.1661475642169081,0.1342348283940592,0.2512817311806533,38.69365,28.64671,174.0172,0.249857,-0.3083685,0.9086781,11
15.22,-16.13998,1.268319,-3.493847,0.2038661144842402,0.1204899708414859,0.2574221970119243,8.155107,37.47348,177.5202,0.3217894,-0.06038933,0.9438921,11
15.24,-16.07128,1.435824,-3.396023,0.2383655604311267,0.1064594498567754,0.265157634264943,11.68901,36.43462,177.3585,0.3131437,-0.08953122,0.9439554,11
15.26,-16.00481,1.599861,-3.299358,0.2694720654276827,0.089149038575786,0.2740558976378122,15.2186,35.37103,177.1283,0.3041838,-0.1185741,0.9430441,11
15.28,-15.94068,1.760583,-3.204058,0.2998375751368569,0.0938862258296346,0.2839918278978753,18.74235,34.27333,176.8246,0.2949191,-0.1474862,0.9411602,11
15.3,-15.87129,1.285447,-3.214029,0.3250157048858466,0.0988859300833262,0.2946027787200141,353.3156,40.57702,178.6704,0.3455001,0.05869479,0.9365349,11
15.32,-15.80273,1.449237,-3.11308,0.3447797812363569,0.1012956319330084,0.3053493452203414,356.8918,39.56419,178.739,0.3380181,0.02924212,0.9406846,11
15.34,-15.73658,1.609423,-3.013514,0.3570529857127034,0.0992979095736785,0.3045176242998074,0.4675097,38.5581,178.7444,0.3301889,-0.0002330272,0.9438425,11
15.36,-15.64495,1.282927,-2.987469,0.3632853353896981,0.0983154803484608,0.3029396569266457,353.7812,41.6606,179.7191,0.3549525,0.05156794,0.9333064,11
15.38,-15.57843,1.445168,-2.885263,0.3633208352275066,0.0955529841673769,0.3000769657779627,357.3477,40.64166,179.9128,0.347167,0.02196756,0.9375176,11
15.4,-15.51435,1.603817,-2.784561,0.3570523654336148,0.0882750145942901,0.2954118348702852,0.9160436,39.63673,180.043,0.3390259,-0.007647594,0.9407431,11
15.42,-15.45086,1.250509,-2.79696,0.3479086126802588,0.0765391952956272,0.2767012616452182,359.3918,42.16846,181.3359,0.3597684,0.0007587136,0.932954,11
15.44,-15.38348,1.415468,-2.696743,0.3343325848890273,0.0665249472974394,0.2571435890495637,2.982322,41.17158,181.5319,0.3511334,-0.02905762,0.9358686,11
15.46,-15.31842,1.576898,-2.597891,0.3161960916280337,0.0554201385584279,0.2361989525714529,6.574984,40.1828,181.6658,0.3421343,-0.05883608,0.9377878,11
15.48,-15.25581,1.734967,-2.500614,0.3020767028187743,0.1168557714135464,0.2284113710416739,10.16839,39.19438,181.7381,0.332781,-0.08854368,0.9387105,11
15.5,-15.19573,1.783193,-2.405117,0.2715870567667782,0.0797087281826672,0.1893790197431933,13.76145,38.19838,181.7475,0.3230838,-0.1181488,0.9386365,11
15.52,-15.22603,1.226367,-2.555094,0.2382614597867329,0.0445672487862963,0.1497502214123506,10.32408,42.23693,183.1369,0.3564045,-0.09372032,0.9295933,11
15.54,-15.15689,1.396933,-2.456474,0.2110327346297791,0.0840083835336965,0.1225112334070246,13.95662,41.28043,183.3244,0.3464421,-0.1237966,0.9297315,11
15.56,-15.08984,1.563977,-2.358936,0.1685055473022572,0.0454724564401303,0.0706748966172501,17.59068,40.32008,183.4518,0.3361134,-0.1537302,0.9288613,11
15.58,-15.10411,1.19102,-2.443031,0.1240686750027917,0.0099268419414995,0.0180291629707136,16.08122,42.94459,183.7525,0.3579966,-0.1419642,0.9226286,11
15.6,-15.03395,1.369839,-2.349774,0.0776743725228323,-0.0256150519109364,-0.035798006158487,19.6708,42.0053,183.9273,0.3474717,-0.1714769,0.9214006,11
15.62,-14.96551,1.545337,-2.257142,0.0400367035589146,-0.040422531431019,-0.080406306550907,23.26157,41.05548,184.0424,0.336588,-0.2007992,0.9191962,11
15.64,-14.97666,1.160918,-2.316105,0.0018737481999631,-0.0508450727999475,-0.1246308216006542,21.56894,40.52055,184.0708,0.3337199,-0.1875092,0.9232799,11
15.66,-14.90664,1.348,-2.227522,-0.036871901921897,-0.0599858598655189,-0.168805685811991,25.105,39.52711,184.0621,0.3226007,-0.2161014,0.9206288,11
15.68,-14.83794,1.53196,-2.139138,-0.0608825431345234,0.0119160865255809,-0.1914868069401633,28.63932,38.50251,183.9834,0.3111593,-0.2444631,0.9170317,11
15.7,-14.77066,1.712868,-2.051125,-0.1030229684848849,-0.0265549690608445,-0.2393215146239091,32.17038,37.43534,183.827,0.2994078,-0.2725621,0.9124942,11
15.72,-14.83575,1.132897,-2.170313,-0.14400219119302,-0.0614924165748724,-0.2853692275606615,28.02104,36.95697,183.9059,0.299516,-0.2399645,0.9223083,11
15.74,-14.76709,1.327532,-2.085268,-0.1838421103648304,-0.0961504545945525,-0.3299001076809554,31.49293,35.8563,183.675,0.2878405,-0.2675709,0.9179453,11
15.76,-14.69938,1.519233,-2.000061,-0.2050106227043615,-0.0201755764099875,-0.3478568602204723,34.95912,34.6951,183.3536,0.2758878,-0.2949023,0.9126691,11
15.78,-14.68782,1.118837,-2.020237,-0.2318713604629101,-0.0571189562419758,-0.3806328246844931,37.37803,34.19923,182.9806,0.2704705,-0.3134071,0.9075418,11
15.8,-14.61956,1.317793,-1.938263,-0.2562618283503706,-0.0910877006892378,-0.4104603008021312,40.78056,32.90645,182.4895,0.258164,-0.3398344,0.9008899,11
15.82,-14.55203,1.51395,-1.855917,-0.2782158769819809,-0.1254641047773894,-0.4375919037263985,44.17223,31.50204,181.8644,0.2456172,-0.3659255,0.8933682,11
15.84,-14.48534,1.707327,-1.77334,-0.2813864915877222,-0.1313609818437383,-0.4451981619607453,47.54996,29.95589,181.0773,0.2328424,-0.3916554,0.884985,11
15.86,-14.43032,1.113831,-1.778244,-0.2814392161634289,-0.1335501235163289,-0.4489844295071571,46.38027,33.72454,180.3302,0.2655481,-0.3776196,0.8800073,11
15.88,-14.36272,1.31454,-1.698389,-0.2784143748443715,-0.1354486133081971,-0.4492006620293963,49.71759,32.28053,179.7054,0.2532704,-0.4031637,0.8712793,11
15.9,-14.29576,1.512554,-1.618082,-0.2692283797171781,-0.0514608673320003,-0.4346822343841844,53.04165,30.66825,178.8941,0.2407651,-0.4283231,0.8617385,11
15.92,-14.16379,1.103823,-1.503571,-0.2524571112139631,-0.0828718004869953,-0.4171369172629422,56.48495,31.0564,176.1643,0.2509686,-0.4477831,0.8440821,11
15.94,-14.09841,1.300115,-1.425247,-0.2329520407754657,-0.112926614906189,-0.3960605282371252,59.73608,29.12346,175.0379,0.2386887,-0.4721169,0.8331119,11
15.96,-14.03383,1.493861,-1.346697,-0.2153566527386792,-0.0547456693987295,-0.3713245792437827,62.96186,26.84079,173.5486,0.2262017,-0.4960125,0.8213923,11
15.98,-13.97014,1.685084,-1.268044,-0.1794421926462075,-0.0749363514023946,-0.3314589454577363,66.15231,24.06785,171.5575,0.213519,-0.5194524,0.8089329,11
16.0,-13.8311,1.11801,-1.144515,-0.1421099100176097,-0.0949648712161135,-0.2889387215615154,61.81936,21.43534,167.1402,0.2150773,-0.4836818,0.8270102,11
16.02,-13.76923,1.304698,-1.064792,-0.1033737748392544,-0.1181234683436726,-0.2440583936856196,64.87323,18.21843,164.6296,0.2032406,-0.5069762,0.8145003,11
16.04,-13.70851,1.488914,-0.9853055,-0.0731499063644935,-0.0310286906477402,-0.2031436678729597,67.85002,14.24096,161.3493,0.1912339,-0.5298176,0.8012779,11
16.06,-13.53642,1.178105,-0.8329538,-0.0224432903002647,-0.037161579264987,-0.1523305955641953,52.10734,24.26684,171.1363,0.2214466,-0.4135259,0.8685541,11
16.08,-13.47656,1.356417,-0.7493409,0.0289031161850292,-0.0437246773223643,-0.0996583757391992,55.19301,22.08902,169.6365,0.2101461,-0.4374706,0.8582481,11
16.1,-13.41821,1.532165,-0.6663502,0.064860364394139,0.0221921239808401,-0.0572552690823986,58.23893,19.5751,167.7883,0.1986741,-0.4610325,0.8472089,11
16.12,-13.23927,1.239822,-0.5611399,0.114400745331145,0.0196416173310893,-0.0172473236640519,32.03106,31.88747,175.3186,0.274646,-0.2542798,0.9203455,11
16.14,-13.17292,1.410361,-0.4672686,0.1646775750986249,0.016414659541078,0.0239613136762552,35.45197,30.59485,174.7317,0.2645355,-0.2818178,0.9141124,11
16.16,-13.10856,1.577692,-0.3744152,0.2156579592021199,0.0093795830180053,0.0659305516992483,38.85991,29.19863,174.0189,0.2541737,-0.3090738,0.9069828,11
16.18,-13.04627,1.74193,-0.2827537,0.2473815803363708,0.0894905795545547,0.1053232842499873,42.25296,27.67334,173.1569,0.2435699,-0.336031,0.89896,11
16.2,-12.98617,1.796569,-0.1924717,0.276540060690382,0.0753464349287832,0.125968472722625,45.62539,25.98716,172.116,0.2327359,-0.3626505,0.8900574,11
16.22,-12.90036,1.272063,-0.2446688,0.3051104519099683,0.0608696074059401,0.1458233589007243,2.418116,39.41793,177.9146,0.3374731,-0.01372544,0.9409229,11
16.24,-12.82992,1.438939,-0.1471749,0.3226150992907317,0.1144953047272437,0.169848966299541,5.96648,38.45085,177.8407,0.329707,-0.04293662,0.9424605,11
16.26,-12.76173,1.602304,-0.05087054,0.3372875719063524,0.1653045489583499,0.191184029666351,9.512081,37.47194,177.7056,0.3216094,-0.07209518,0.9430257,11
16.28,-12.64695,1.291559,-0.003125966,0.35627163407611,0.1225781100951586,0.1994208292171648,352.226,42.40469,179.0116,0.3602723,0.06631022,0.9303414,11
16.3,-12.57614,1.453929,0.09752712,0.3731824918380695,0.0781588383850058,0.2057350193249719,355.8141,41.43205,179.1444,0.3532356,0.0367983,0.9347917,11
16.32,-12.50779,1.612634,0.1967414,0.3868391185515536,0.1240774194778389,0.2251411675516023,359.4028,40.47122,179.216,0.3458352,0.00725589,0.938256,11
16.34,-12.43468,1.269947,0.2024989,0.3943602197764499,0.0941684001921294,0.2235670481422202,354.0991,43.21661,179.9732,0.36776,0.04794065,0.9284952,11
16.36,-12.3661,1.433383,0.3017384,0.3994180912117901,0.0647682315344858,0.219233751424016,357.6475,42.24542,180.1852,0.3603211,0.01856657,0.9326009,11
16.38,-12.29989,1.593298,0.3995757,0.3978130096013905,0.1055489171415978,0.222405196535905,1.197855,41.28893,180.337,0.3525185,-0.01081852,0.9357418,11
16.4,-12.23614,1.749861,0.4958051,0.3927137554440889,0.1442031422442908,0.2215222107416549,4.749268,40.33974,180.4297,0.3443603,-0.04018411,0.9379154,11
16.42,-12.2273,1.246198,0.4017367,0.3728184700274695,0.0855151400345884,0.1896725050967774,1.375393,43.68933,181.5589,0.3718788,-0.0162007,0.9281042,11
16.44,-12.15649,1.411532,0.5004621,0.3515630177832005,0.103576255769235,0.1718406503313349,4.993595,42.74874,181.7663,0.3634458,-0.04617447,0.9304692,11
16.46,-12.088,1.573287,0.597872,0.3279870583597251,0.1217657882861628,0.1513458958459929,8.614275,41.81519,181.9149,0.354632,-0.07609438,0.9318368,11
16.48,-12.02194,1.731633,0.6937562,0.302030888270963,0.1373077839191951,0.1276129255426122,12.23586,40.88129,182.0049,0.3454475,-0.1059245,0.9322065,11
16.5,-12.03829,1.217461,0.5822634,0.2580275476741906,0.0504147273948067,0.0692101546579145,11.88822,44.43174,183.3417,0.3731091,-0.1067952,0.9215387,11
16.52,-11.96556,1.389997,0.6773962,0.2140979651099814,-0.0194734284110643,0.0084018556499901,15.51342,43.53215,183.5473,0.3633695,-0.1366568,0.9213163,11
16.54,-11.89483,1.559045,0.7715998,0.1834947563310742,0.0159138702274241,-0.0186321197724071,19.14025,42.62933,183.6968,0.3532487,-0.1663632,0.9201044,11
16.56,-11.90996,1.183259,0.7005679,0.138491372640324,-0.0275425818141267,-0.0694130861622132,17.40391,44.3115,183.8936,0.3678091,-0.1527065,0.9169109,11
16.58,-11.83675,1.364094,0.7903725,0.0939109179928956,-0.0675072995880181,-0.1217657735652268,20.98142,43.41341,184.0377,0.3574882,-0.1818714,0.9153645,11
16.6,-11.76513,1.541649,0.8796878,0.061651366166769,-0.0265044517875314,-0.148991950907647,24.55958,42.50228,184.1239,0.3468025,-0.2108377,0.9128613,11
16.62,-11.77497,1.153213,0.8318192,0.0175116196107092,-0.0672275859513211,-0.194528912004513,23.0606,41.4348,184.0201,0.339849,-0.1990033,0.9183771,11
16.64,-11.70253,1.342291,0.9173414,-0.0254671222954743,-0.1041352712943848,-0.2402255424868209,26.58203,40.46914,183.9652,0.3289362,-0.2272248,0.9153568,11
16.66,-11.63126,1.52829,1.002773,-0.0555887266318169,-0.0568786789875245,-0.2637595374798784,30.10072,39.46799,183.84,0.3176996,-0.2552052,0.9114102,11
16.68,-11.56129,1.711268,1.087957,-0.0845788791022426,-0.009863263339733,-0.2863698005428033,33.61582,38.41966,183.6362,0.3061505,-0.2829189,0.9065418,11
16.7,-11.61863,1.128872,0.9886821,-0.1124980576848728,0.0187175536226052,-0.3084294948914067,30.02957,37.54886,183.6747,0.3028309,-0.2551247,0.9166718,11
16.72,-11.54782,1.32485,1.071189,-0.1580469021752786,-0.0781470775007035,-0.3572117438688594,33.48409,36.45262,183.3758,0.291324,-0.2823143,0.9118259,11
16.74,-11.47786,1.517923,1.153925,-0.181186175982738,-0.0597675996043128,-0.3738283379517479,36.93194,35.28727,182.9815,0.2795401,-0.3092189,0.9060857,11
16.76,-11.40886,1.708119,1.236743,-0.2009967437042878,-0.0394176421071361,-0.38741753348428,40.37127,34.03447,182.476,0.267491,-0.3358127,0.8994581,11
16.78,-11.39259,1.115646,1.195557,-0.2207178354879422,-0.1041677610653491,-0.4093250007559165,41.84935,35.83119,182.3464,0.2803106,-0.3456346,0.8908226,11
16.8,-11.32213,1.315787,1.275031,-0.2284700296394113,-0.078649989128247,-0.4127774138903903,45.23499,34.53753,181.8261,0.2681373,-0.3715616,0.8831899,11
16.82,-11.2523,1.513151,1.354929,-0.2324122885140817,-0.0514003639087282,-0.4124239919786547,48.60979,33.11426,181.1568,0.2557179,-0.3971276,0.8747189,11
16.84,-11.18095,1.113009,1.393152,-0.2325894196481114,-0.025784756745499,-0.4085521725879864,48.05901,34.74382,179.5194,0.2743251,-0.3874859,0.8711582,11
16.86,-11.11169,1.313646,1.470858,-0.2219595272185638,-0.117840928581987,-0.4011241060168051,51.37388,33.28975,178.8356,0.2623382,-0.4126471,0.8621092,11
16.88,-11.04303,1.511615,1.549004,-0.2063116720561371,-0.0928322122049245,-0.378035960722616,54.67472,31.6526,177.9525,0.250119,-0.4374219,0.8522705,11
16.9,-10.97508,1.706927,1.627463,-0.1875536172101028,-0.0667953841646104,-0.3514643174702988,57.95681,29.77358,176.813,0.2376789,-0.4617878,0.8416518,11
16.92,-10.87555,1.102256,1.698726,-0.1470380712523343,-0.12320721029868,-0.3072751367850785,59.63931,31.02134,174.0397,0.256608,-0.4664512,0.8279536,11
16.94,-10.80886,1.296184,1.775284,-0.1145274873555727,-0.0900716106164958,-0.2660190437180393,62.85725,28.83551,172.6062,0.2445811,-0.490264,0.8163261,11
16.96,-10.74301,1.487595,1.851955,-0.08073631774748,-0.0565470841489987,-0.2228223874832131,66.04207,26.18228,170.6943,0.2323445,-0.5136295,0.8039759,11
16.98,-10.56545,1.12878,2.011792,-0.0456753147596934,-0.0258552949815039,-0.1779767508939226,60.96024,22.29824,166.676,0.2232517,-0.4749737,0.8284526,11
17.0,-10.50146,1.313194,2.090239,0.000926613879762,-0.0961330071045157,-0.1286822437669744,63.98777,19.14171,164.1614,0.21165,-0.4980428,0.8161868,11
17.02,-10.4387,1.495122,2.168367,0.0371846886021209,-0.0562886842084908,-0.0844316941687384,66.93787,15.26921,160.9223,0.1998732,-0.520673,0.8032171,11
17.04,-10.37726,1.674628,2.246051,0.0738788903466639,-0.0163580263511568,-0.0393794819289635,69.77663,10.39861,156.6778,0.1879328,-0.5428437,0.7895568,11
17.06,-10.1787,1.212003,2.3832,0.1110531519190178,0.0205796918923985,0.0061496959338166,43.09541,30.39068,173.9113,0.262272,-0.3409872,0.8912141,11
17.08,-10.11394,1.386575,2.46847,0.1494445302630247,0.0369638068030349,0.0384044869542512,46.30399,28.82559,172.9975,0.251689,-0.3661102,0.8828887,11
17.1,-10.05087,1.558361,2.552983,0.1882723853500503,0.0543087197352178,0.0711372456396491,49.4916,27.08342,171.8913,0.2408925,-0.3909028,0.873787,11
17.12,-9.890967,1.257249,2.62103,0.2275060084839102,0.0695341351379822,0.1039015686489251,20.10378,37.06215,176.5404,0.3177933,-0.1559686,0.9314975,11
17.14,-9.818293,1.425705,2.715161,0.2553766152761565,0.0819380125331443,0.1253273450789245,23.62448,36.01713,176.2031,0.3088955,-0.1845449,0.9282639,11
17.16,-9.747744,1.590708,2.808231,0.2819466298732679,0.0953925283445214,0.1450713582978831,27.1397,34.91872,175.7834,0.2996904,-0.2129401,0.9240831,11
17.18,-9.679451,1.752417,2.900037,0.3071340511282326,0.1069668311774321,0.162612307186535,30.64587,33.75362,175.2712,0.2901888,-0.2411113,0.9189631,11
17.2,-9.616844,1.275758,2.873634,0.3308889627701613,0.1137919550661775,0.1774460661095935,358.445,42.05116,178.1468,0.3584999,0.01846601,0.9332911,11
17.22,-9.542711,1.441676,2.969409,0.352477379178884,0.0403237082129345,0.1746959679086124,2.009561,41.13543,178.1287,0.3514813,-0.01067989,0.9358884,11
17.24,-9.470864,1.604034,3.063994,0.3698780514277107,0.0664756857464982,0.1915817929140026,5.572371,40.21569,178.0533,0.3441077,-0.03980637,0.9375179,11
17.26,-9.401423,1.762989,3.157192,0.384816995236416,0.0911754795979564,0.2061776159547184,9.132492,39.28471,177.9195,0.3363869,-0.06888337,0.9381793,11
17.28,-9.283442,1.296099,3.179285,0.3971889849767731,0.1116673255843822,0.2178791005639914,353.4582,44.42459,179.4528,0.3771672,0.05462467,0.924374,11
17.3,-9.209967,1.457221,3.278403,0.396291816790509,0.1029125290024975,0.2120841106006731,357.0409,43.49791,179.6297,0.3703377,0.02517906,0.928533,11
17.32,-9.139,1.61466,3.376063,0.3926608559217064,0.095663533314805,0.2034953429289235,0.6249206,42.58439,179.7486,0.3631293,-0.004284419,0.9317205,11
17.34,-9.088865,1.254828,3.347784,0.3862360812911823,0.0871432723795187,0.1915411863653386,357.4054,45.1448,181.1052,0.383936,0.01720396,0.9230319,11
17.36,-9.016182,1.419414,3.443551,0.3715904259774919,0.0782282055444488,0.1728145681095556,0.9670935,44.2327,181.3035,0.376362,-0.01210047,0.9263645,11
17.38,-8.945816,1.5805,3.538034,0.3549529138824552,0.0713682903410503,0.1514451085507958,4.53049,43.33115,181.4456,0.3684072,-0.04138409,0.9287387,11
17.4,-8.877885,1.738249,3.631038,0.3362535272390471,0.0637241304653266,0.1268838883967866,8.09467,42.43319,181.532,0.3600802,-0.07061678,0.9301526,11
17.42,-8.892385,1.237858,3.536118,0.3154576882319425,0.0525166936451164,0.0986057170530846,6.14362,45.56328,182.5513,0.385468,-0.05800292,0.9208963,11
17.44,-8.817457,1.405226,3.632089,0.287677011106532,0.0379370112622555,0.0693796559089779,9.784014,44.68729,182.7653,0.3767624,-0.08799194,0.9220651,11
17.46,-8.744762,1.568998,3.726892,0.2587527002288265,0.02673846996324,0.037926013191753,13.42618,43.81463,182.9248,0.3676596,-0.1178778,0.9222407,11
17.48,-8.674424,1.729324,3.820328,0.2286363120622984,0.0160228701336958,0.0037764362323361,17.06999,42.93821,183.029,0.3581693,-0.1476339,0.9214231,11
17.5,-8.71728,1.199693,3.693735,0.1973146909510073,0.0029468378017346,-0.0335156701599304,14.76406,46.32951,183.6527,0.386153,-0.1304991,0.912905,11
17.52,-8.641349,1.376323,3.784189,0.1553355403803139,-0.0153649775031535,-0.0740347888993455,18.37157,45.48507,183.8546,0.3764658,-0.1599764,0.9119849,11
17.54,-8.5672,1.549551,3.873961,0.1135378318830035,-0.0296836914419384,-0.1154054561345535,21.98049,44.63544,184.0039,0.3663892,-0.189276,0.9101005,11
17.56,-8.58905,1.168357,3.809161,0.071869123264557,-0.0430258562980601,-0.1580332273554376,20.13822,44.80596,184.0478,0.3693056,-0.1747921,0.9120718,11
17.58,-8.513325,1.353254,3.894557,0.0270991486942675,-0.0575888216465635,-0.1989476186517991,23.69043,43.92876,184.1071,0.3590088,-0.2033645,0.9098362,11
17.6,-8.438963,1.534961,3.979684,-0.0163729636797366,-0.067702449228625,-0.2392418683651966,27.24202,43.03032,184.107,0.348353,-0.2317205,0.9066693,11
17.62,-8.450603,1.139195,3.93802,-0.0585986472418321,-0.0765283053722084,-0.2792557036979129,26.28654,41.5361,183.9449,0.3377747,-0.2243706,0.9127658,11
17.64,-8.376212,1.332028,4.019631,-0.0876425393523587,-0.0027491067213299,-0.2988403991263491,29.77711,40.56629,183.7892,0.3268704,-0.2519515,0.9089494,11
17.66,-8.302788,1.521866,4.101334,-0.1296959350117563,-0.0403960708751992,-0.336697578376549,33.26336,39.54925,183.5572,0.3156515,-0.2792717,0.9042333,11
17.68,-8.230451,1.708752,4.182983,-0.1692612305190534,-0.0744978780290739,-0.3729915731929463,36.74442,38.47131,183.2382,0.3041285,-0.3063075,0.8986224,11
17.7,-8.159321,1.786078,4.264431,-0.2063546616782833,-0.1083655804760752,-0.4079933682411124,40.21874,37.31569,182.8178,0.2923132,-0.3330324,0.8921233,11
17.72,-8.221523,1.118852,4.155188,-0.2240654119366461,-0.11463731598772,-0.4230041431906884,37.37486,37.30519,182.9808,0.2949697,-0.3113533,0.8998867,11
17.74,-8.148586,1.317771,4.233816,-0.2383912461477202,-0.1166906432793284,-0.435256806321093,40.78722,36.10735,182.4961,0.283198,-0.3375596,0.8933143,11
17.76,-8.076316,1.51386,4.312808,-0.2493656576665479,-0.1179115888176287,-0.4450175792573393,44.18959,34.8033,181.8852,0.2711635,-0.3634349,0.8858867,11
17.78,-8.027452,1.114586,4.313998,-0.2570098309074193,-0.1216390300654672,-0.4525556703023212,44.67984,37.58096,181.0987,0.2944689,-0.3626823,0.8767818,11
17.8,-7.955091,1.315316,4.390385,-0.2535803932178095,-0.029256986921116,-0.4395476047042211,48.03095,36.29693,180.5536,0.2826455,-0.3881071,0.868597,11
17.82,-7.8833,1.513318,4.467216,-0.2520628377786736,-0.0643069442298107,-0.4356126619523921,51.3713,34.87143,179.8499,0.2705686,-0.4131648,0.8596088,11
17.84,-7.812193,1.708601,4.544365,-0.2468514134380696,-0.0970809339074777,-0.4283418540320889,54.69753,33.26156,178.9464,0.2582496,-0.4378324,0.8498264,11
17.86,-7.691846,1.103803,4.624032,-0.2383103311745186,-0.0417767873591841,-0.4116947363506023,56.47765,34.62921,176.187,0.2770792,-0.4427344,0.835911,11
17.88,-7.621621,1.30005,4.698663,-0.2100523236204928,-0.0699128738404764,-0.3804703900724662,59.7375,32.81029,175.0885,0.2651574,-0.4668074,0.8250745,11
17.9,-7.552128,1.493726,4.773521,-0.1793949401494373,-0.0972358627355983,-0.3467484356383172,62.97394,30.65622,173.6431,0.2530065,-0.4904514,0.8135041,11
17.92,-7.351266,1.117948,4.950469,-0.1463714708978865,-0.1270842990069799,-0.3108109749305179,61.82653,25.27995,167.1584,0.2426205,-0.4771499,0.8193303,11
17.94,-7.283979,1.304589,5.026124,-0.0982361553103747,-0.1147802199697216,-0.2603386043353857,64.88773,22.17914,164.6784,0.2310541,-0.500118,0.8070123,11
17.96,-7.217814,1.488739,5.101579,-0.0489579865454795,-0.1010023035144545,-0.2079375905047162,67.87548,18.3337,161.4456,0.2192952,-0.5226448,0.7939975,11
17.98,-7.152862,1.670456,5.176713,0.0014445237512256,-0.0889624712331114,-0.1539154839822549,70.75543,13.42818,157.1459,0.2073552,-0.5447095,0.7802995,11
18.0,-7.016608,1.178041,5.273263,0.0360749611524611,0.0003446109314174,-0.1110529368766095,52.12321,27.51145,171.1185,0.2460059,-0.4089163,0.8618487,11
18.02,-6.951395,1.35636,5.353079,0.0908512090228129,-0.0017598532271627,-0.065069215603289,55.20875,25.42113,169.6163,0.235083,-0.4325101,0.8516795,11
18.04,-6.887654,1.532098,5.432331,0.146329202824469,-0.0042671823724144,-0.0179171704730358,58.2561,23.00155,167.7742,0.2239696,-0.4557311,0.8407934,11
18.06,-6.825475,1.705339,5.510891,0.2024773252037952,-0.0103257933448758,0.0300198650351883,61.25306,20.15313,165.4941,0.2126778,-0.4785603,0.8292007,11
18.08,-6.640715,1.250647,5.571299,0.2385108828142616,0.072943206941792,0.0693624283606162,26.21645,37.23742,175.9823,0.3182925,-0.2038897,0.919866,11
18.1,-6.567092,1.420264,5.661306,0.2738041759356731,0.0620661197756215,0.0915819882949,29.66177,36.15725,175.5472,0.3092102,-0.2314926,0.9151823,11
18.12,-6.495493,1.58659,5.750352,0.3094615915344482,0.0509656110953976,0.113652933310574,33.09868,35.00634,175.0182,0.2998334,-0.2588665,0.9096061,11
18.14,-6.379612,1.272079,5.785298,0.3306282634272118,0.1071325257880117,0.1374552272464131,2.440458,43.33414,177.9193,0.3694274,-0.01308546,0.9288383,11
18.16,-6.302299,1.43899,5.87741,0.3492093482061505,0.160896700834873,0.1586148248737859,5.983551,42.45597,177.8572,0.3624329,-0.04188172,0.9303604,11
18.18,-6.227212,1.602385,5.968448,0.3717166485649585,0.1210234655673122,0.1671301345429461,9.524261,41.56736,177.7397,0.3550779,-0.07062712,0.9309371,11
18.2,-6.15448,1.762417,6.058223,0.3926233615949049,0.0798093090003116,0.1736306071201734,13.0617,40.66117,177.5644,0.3473704,-0.09929246,0.9305683,11
18.22,-6.089353,1.291563,6.044716,0.4123543584809878,0.1296445233041528,0.1951282621398058,352.2295,45.74394,179.0033,0.3872223,0.06580178,0.9194525,11
18.24,-6.011935,1.453964,6.140442,0.427838728991128,0.1060186932739778,0.201394464573857,355.8156,44.8601,179.135,0.3810353,0.03662327,0.9238088,11
18.26,-5.936976,1.612692,6.234842,0.4407359758260138,0.082542863680738,0.2052705697457637,359.4022,43.98767,179.2111,0.3744596,0.007415008,0.9272032,11
18.28,-5.864604,1.76792,6.327715,0.4509852920197646,0.0563794569916953,0.2062327720482171,2.988591,43.11974,179.2327,0.3675025,-0.0217927,0.929633,11
18.3,-5.818254,1.262193,6.269608,0.4509076234019409,0.1181503382488691,0.2142116867586336,355.7286,47.07052,180.5486,0.399195,0.0322559,0.9160959,11
18.32,-5.742452,1.426143,6.363418,0.4355441055253023,0.0830741917992707,0.1924728778691748,359.2852,46.19434,180.7678,0.3923136,0.003108794,0.9197859,11
18.34,-5.668994,1.586567,6.455966,0.41805656388135,0.049206033909809,0.1677474218569659,2.843807,45.33162,180.9329,0.3850376,-0.02603335,0.9225312,11
18.36,-5.628485,1.240674,6.429386,0.4011264322330983,0.0908081888140507,0.1581639958672953,3.967866,47.85535,182.0383,0.4047131,-0.03884855,0.9136155,11
18.38,-5.550014,1.407102,6.522401,0.381112470899781,0.1304943644561722,0.1454426647107558,7.597538,47.01397,182.2633,0.3967071,-0.06860247,0.9153402,11
18.4,-5.473814,1.569931,6.614273,0.3428926790462171,0.0710068013937545,0.1020514174478062,11.22971,46.17902,182.4359,0.3882859,-0.09827884,0.9160886,11
18.42,-5.400026,1.729328,6.704803,0.3039568741578904,0.0128894086150694,0.0563325634664562,14.86294,45.34391,182.5564,0.3794594,-0.1278422,0.9158608,11
18.44,-5.418957,1.208802,6.616881,0.2762792816699037,0.0514595413565002,0.0358181298129149,13.43294,48.224,183.5261,0.4022416,-0.1191835,0.9075254,11
18.46,-5.339674,1.38335,6.705828,0.2320859840420134,0.0124696782925233,-0.0085407447096155,17.0516,47.41866,183.7362,0.3930171,-0.1486325,0.9069413,11
18.48,-5.262271,1.554437,6.794032,0.1877207103644262,-0.0231120705448399,-0.0549024509259366,20.67171,46.61077,183.8965,0.3833849,-0.1779159,0.9053972,11
18.5,-5.186883,1.722189,6.881309,0.143168138373926,-0.0582521403485089,-0.1036351054306929,24.29255,45.79329,184.0047,0.3733553,-0.2070015,0.9028962,11
18.52,-5.265442,1.175889,6.751629,0.1150558688088592,0.0071454497817214,-0.1223141442654831,18.72752,47.15335,184.0262,0.3891647,-0.1628916,0.9060413,11
18.54,-5.186812,1.358754,6.835786,0.0674994148482035,-0.0349539634719977,-0.1664427732620372,22.2928,46.33447,184.1353,0.3793313,-0.1915386,0.904175,11
18.56,-5.109627,1.538371,6.919598,0.0209957797045486,-0.0730618006977542,-0.2110455665225252,25.85815,45.50086,184.1909,0.3691171,-0.2199808,0.9013813,11
18.58,-5.145579,1.145627,6.852518,-0.0103460590767217,-0.0276287751564787,-0.2333605808052292,24.58461,44.46965,184.031,0.3625688,-0.2099495,0.9066937,11
18.6,-5.06799,1.336689,6.932475,-0.0406184033014506,0.0177291085473699,-0.2550037431797358,28.09129,43.57767,183.9467,0.3521158,-0.2376221,0.9033647,11
18.62,-4.991426,1.524703,7.012456,-0.0908459674056704,-0.04841015095254,-0.299728404138134,31.59489,42.64859,183.7953,0.3413217,-0.2650473,0.89914,11
18.64,-4.916017,1.70972,7.092318,-0.1258379031783636,-0.0254940297287656,-0.3244471069907249,35.09482,41.67098,183.5685,0.3301972,-0.2922015,0.8940234,11
18.66,-4.94287,1.121891,7.034329,-0.1579792060008382,-0.0004818654055373,-0.3468677579650325,34.69957,40.19735,183.2385,0.3199587,-0.2892011,0.8989128,11
18.68,-4.866737,1.319965,7.110833,-0.1873598402378883,0.0233503850953539,-0.3673066430871294,38.12873,39.10422,182.8311,0.3086084,-0.3155157,0.8930811,11
18.7,-4.791275,1.515173,7.187666,-0.2226792897727989,-0.0677252982011325,-0.4017671919689947,41.54974,37.9236,182.3157,0.2969702,-0.3415201,0.8863935,11
18.72,-4.730592,1.115103,7.203549,-0.2544506417224068,-0.1416971652050813,-0.434394531059284,43.26519,39.53759,181.7188,0.3091644,-0.3516034,0.8765548,11
18.74,-4.655228,1.315557,7.277797,-0.2628450458972716,-0.0897472615625175,-0.4368441216494223,46.62975,38.3097,181.1821,0.2974564,-0.37696,0.8687934,11
18.76,-4.58041,1.513253,7.352477,-0.2664467948785733,-0.1225929276539698,-0.4401756679965265,49.98394,36.95028,180.4972,0.2854802,-0.401959,0.8602269,11
18.78,-4.506259,1.708202,7.427462,-0.2660152496109812,-0.1528862410801143,-0.4405433469688879,53.32467,35.42067,179.6271,0.2732475,-0.4265778,0.8508641,11
18.8,-4.432893,1.793762,7.502629,-0.2581857565931679,-0.0951478235490409,-0.4264817755347718,56.64767,33.66769,178.5202,0.2607697,-0.4507937,0.8407145,11
18.82,-4.396829,1.107261,7.490749,-0.2464346292017388,-0.037942608253095,-0.4088130087437671,53.2849,37.13836,177.6557,0.2932733,-0.4191648,0.8441913,11
18.84,-4.323652,1.305854,7.563704,-0.2112624755757658,-0.0953567567496137,-0.3758158185907261,56.56931,35.5582,176.757,0.2815512,-0.4434322,0.8341174,11
18.86,-4.251083,1.501823,7.636994,-0.1735112063340576,-0.153270649252514,-0.3406138481938086,59.83604,33.72419,175.5921,0.2695846,-0.4672947,0.8232978,11
18.88,-4.064398,1.109049,7.788233,-0.1407135507232888,-0.0954097822977433,-0.3038168992813383,62.62819,28.79677,167.8679,0.264448,-0.4781365,0.8092064,11
18.9,-3.99373,1.297942,7.860844,-0.105936468594746,-0.0386056104756481,-0.2649385869783907,65.728,25.80689,165.4825,0.2528997,-0.5010049,0.7968777,11
18.92,-3.924067,1.484338,7.933369,-0.0595348449800883,-0.0833175578554233,-0.221320171167656,68.76054,22.05814,162.3305,0.2411391,-0.5234283,0.7838624,11
18.94,-3.73085,1.161471,8.087004,-0.0312750462760736,-0.0443976423059019,-0.1910063292466413,55.80975,27.07829,168.7162,0.250618,-0.4324556,0.8442339,11
18.96,-3.662041,1.341476,8.163104,-0.0024441081023092,-0.0048476358203856,-0.1599955008365641,58.85238,24.58611,166.7534,0.2395745,-0.4554439,0.833274,11
18.98,-3.594623,1.518923,8.23875,0.0417526977184639,-0.0335486032329471,-0.1274749595762792,61.8406,21.63486,164.3231,0.2283364,-0.4780403,0.8216131,11
19.0,-3.52869,1.693891,8.313824,0.0870402636483716,-0.0638692451772086,-0.0936261492526575,64.7551,18.07388,161.2757,0.2169155,-0.5002257,0.8092625,11
19.02,-3.322819,1.240161,8.410289,0.1224820104132671,0.0017815543402062,-0.0620837428132776,32.01723,37.44822,175.3239,0.3189612,-0.2483809,0.9059786,11
19.04,-3.247984,1.411195,8.495647,0.1578680301777138,0.065232273855335,-0.0309622660453918,35.38861,36.29771,174.7573,0.3096496,-0.2749433,0.9000186,11
19.06,-3.175067,1.579094,8.58016,0.2023209644462871,0.0343811182943192,-0.0106523516730361,38.74848,35.05326,174.0785,0.3000558,-0.3012405,0.893217,11
19.08,-3.104174,1.743966,8.663678,0.2482802722191407,0.0018419521275586,0.0101797808548826,42.09578,33.69252,173.2669,0.2901876,-0.3272596,0.8855762,11
19.1,-3.030298,1.268268,8.637705,0.277037197889135,0.0583240138117409,0.0337304916655198,8.205475,43.52392,177.5237,0.3711507,-0.05843985,0.9255628,11
19.12,-2.950503,1.435737,8.727158,0.3106238778737957,0.0451417567225232,0.0507969682732054,11.73994,42.6663,177.3795,0.3639664,-0.08696384,0.9255038,11
19.14,-2.872893,1.599709,8.815601,0.3429111736653304,0.0315939559972781,0.0662908305092204,15.27108,41.78752,177.1785,0.3564232,-0.1153939,0.9245125,11
19.16,-2.797602,1.760333,8.902853,0.3668071318593661,0.0864193467602274,0.0876627709014137,18.79774,40.87979,176.9166,0.3485288,-0.1436996,0.9225908,11
19.18,-2.677954,1.291633,8.92183,0.3872599866225598,0.138300228423496,0.1061328365259008,352.2232,47.92068,179.0004,0.4046133,0.06550115,0.9119288,11
19.2,-2.596724,1.454119,9.014107,0.404103228945353,0.1694768958903556,0.1211462110786576,355.8024,47.07763,179.1319,0.3988366,0.03659788,0.9162592,11
19.22,-2.517955,1.61294,9.10514,0.4085152272556783,0.0953911820648329,0.1092314248255983,359.3821,46.24584,179.2103,0.3926558,0.007665236,0.9196438,11
19.24,-2.448629,1.270054,9.108394,0.4119818516139878,0.1136820007526401,0.1105721241439463,354.0944,48.77657,179.9725,0.4123587,0.04701605,0.9095641,11
19.26,-2.369807,1.433493,9.199846,0.4122777084643642,0.1315338685208,0.1089860093645473,357.6398,47.9338,180.1934,0.4061539,0.01813424,0.9135712,11
19.28,-2.293353,1.593397,9.290071,0.4092854645714862,0.1462542712292598,0.1039154707001697,1.187037,47.10608,180.3619,0.3995444,-0.01075774,0.9166501,11
19.3,-2.219395,1.749933,9.378882,0.3941774533308899,0.0616499622261147,0.0717290110490511,4.73533,46.28698,180.4797,0.3925373,-0.03963064,0.9187986,11
19.32,-2.22456,1.246225,9.288846,0.3815238262465747,0.0752889491116683,0.059340448891858,1.361191,49.3349,181.5621,0.4171356,-0.01648207,0.9086645,11
19.34,-2.143565,1.411539,9.37963,0.3666807213309896,0.0891620970775199,0.0445793073864939,4.977646,48.52354,181.7823,0.4098532,-0.04596926,0.9109851,11
19.36,-2.064886,1.573256,9.469267,0.3373195903952107,0.0281252029826264,0.008333739254567,8.596444,47.7209,181.9521,0.4021466,-0.07540371,0.9123454,11
19.38,-1.988666,1.731545,9.557566,0.312025719580643,0.0439633240305978,-0.0125034416080236,12.21623,46.92068,182.0721,0.3940245,-0.1047507,0.9127449,11
19.4,-2.021282,1.2175,9.453596,0.2849582959653369,0.0608505770048952,-0.0354656250622336,11.87941,50.09497,183.3453,0.4181804,-0.1060017,0.9019884,11
19.42,-1.938841,1.39,9.5408,0.2559805890572857,0.0759731228974057,-0.0610282279244771,15.50365,49.32653,183.5641,0.4094593,-0.1353767,0.901786,11
19.44,-1.858377,1.55899,9.627207,0.2059968139781627,-0.0139831444312124,-0.1146293930381479,19.12937,48.55822,183.7358,0.4003136,-0.1646004,0.9006308,11
19.46,-1.883973,1.183305,9.561312,0.1697474315815985,-0.0003122734891795,-0.143903051757543,17.39372,50.01386,183.8975,0.4129659,-0.1511627,0.8974922,11
19.48,-1.801707,1.364093,9.64334,0.1329508874414478,0.0151997883680629,-0.1743385133505446,20.97077,49.24802,184.0556,0.4035937,-0.1798287,0.8960047,11
19.5,-1.720981,1.541579,9.724966,0.0954838400973476,0.0295852014953273,-0.206336318727895,24.54844,48.47349,184.1652,0.3938146,-0.2083013,0.8935961,11
19.52,-1.641935,1.715863,9.806026,0.032125040639721,-0.0649552910747762,-0.2668230675455645,28.12581,47.68299,184.223,0.3836385,-0.2365478,0.8902704,11
19.54,-1.69704,1.145617,9.714591,-0.00710640008261,-0.050527891310244,-0.2959110575553181,24.5906,46.64278,184.0337,0.3796862,-0.2090437,0.8996469,11
19.56,-1.616182,1.336621,9.791861,-0.0447432830938802,-0.0338497536792324,-0.3241987984938925,28.10725,45.79334,183.955,0.3694812,-0.2365875,0.8963633,11
19.58,-1.536329,1.524554,9.869168,-0.0808919536945397,-0.0180401504744797,-0.3520253545932599,31.62097,44.9086,183.8124,0.3589176,-0.2638848,0.8921903,11
19.6,-1.457616,1.709465,9.946373,-0.1171329305303832,-0.0295934834205663,-0.3769739221513406,35.13131,43.97755,183.5977,0.3480057,-0.2909124,0.8871325,11
19.62,-1.528178,1.124992,9.857878,-0.1500622849732682,-0.0365286801955286,-0.3996115838330007,32.05703,42.68861,183.5092,0.3417836,-0.2677674,0.8978584,11
19.64,-1.449209,1.322257,9.932302,-0.1797622633688957,-0.0421655320874544,-0.4202112907768689,35.49763,41.68198,183.1579,0.3308626,-0.2941275,0.8927384,11
19.66,-1.37092,1.516624,10.00702,-0.2113133823925747,-0.1335022571648774,-0.4491353154180588,38.93135,40.60225,182.7128,0.3196325,-0.3201979,0.8867633,11
19.68,-1.293439,1.708116,10.08191,-0.2240913563718848,-0.1079681125168302,-0.4557668628103954,42.35651,39.43045,182.1571,0.3081042,-0.3459541,0.8799397,11
19.7,-1.277911,1.115075,10.04587,-0.2328382808184791,-0.080466559848714,-0.4593186473720678,43.26951,41.90157,181.7344,0.3271272,-0.3493049,0.8699943,11
19.72,-1.199602,1.315482,10.11746,-0.235186223764988,-0.1388752691662491,-0.4624954617696786,46.64168,40.72773,181.2169,0.3155926,-0.3745101,0.8623245,11
19.74,-1.121805,1.513115,10.18947,-0.2317076373166939,-0.1069694510858671,-0.4541481161270662,50.00418,39.42737,180.5569,0.3037735,-0.3993608,0.8538574,11
19.76,-1.039714,1.110066,10.23154,-0.2246363696728098,-0.0734442701554383,-0.4426975552800058,50.65022,40.53906,178.7145,0.3176244,-0.3977266,0.8462042,11
19.78,-0.9628298,1.309673,10.30132,-0.2140611309322148,-0.0416659749358515,-0.4283992034574162,53.9487,39.13449,177.9577,0.3060471,-0.422009,0.8369009,11
19.8,-0.886475,1.506627,10.37149,-0.2000591066832601,-0.0300309869653252,-0.4115110940868021,57.23296,37.52772,176.986,0.2942039,-0.4459066,0.8268509,11
19.82,-0.8107673,1.700941,10.44193,-0.1715800089159828,-0.1322564494887332,-0.3888871179541882,60.49815,35.64971,175.7318,0.2821053,-0.4693983,0.8160635,11
19.84,-0.5973212,1.109024,10.59741,-0.1348965311476035,-0.105124904323939,-0.3514274094476661,62.6321,31.15444,167.8676,0.2810391,-0.4736201,0.8035761,11
19.86,-0.523409,1.297886,10.66718,-0.0954131289864392,-0.0774310970220204,-0.3113341513497172,65.73844,28.20212,165.4803,0.2695069,-0.4962908,0.7913632,11
19.88,-0.4504875,1.484235,10.73688,-0.0367455197723616,-0.1240656431722374,-0.260684706850748,68.77824,24.49367,162.3296,0.2577487,-0.5185211,0.77847,11
19.9,-0.3786585,1.668117,10.80641,0.0066550856396822,-0.0845866516123159,-0.2195962853015756,71.71919,19.68061,158.0681,0.2457749,-0.5402957,0.764906,11
19.92,-0.2394603,1.161439,10.89641,0.0510078598522699,-0.0447356705690376,-0.1772411968801222,55.81498,29.22408,168.709,0.2664072,-0.4287794,0.839359,11
19.94,-0.1675096,1.341437,10.96977,0.0962798395747877,-0.007622608177702,-0.1339053999080919,58.85877,26.76948,166.7433,0.2554457,-0.4515366,0.8285119,11
19.96,-0.09694219,1.518868,11.04271,0.1418566659127488,0.0112225555219916,-0.1024301839113397,61.84891,23.85873,164.3136,0.2442772,-0.4739072,0.8169713,11
19.98,0.07681984,1.228414,11.12299,0.1878525676219805,0.0313791312595212,-0.0703987119463389,37.90756,38.33424,174.7018,0.3243714,-0.2921197,0.887468,11
20.0,0.1541564,1.400539,11.20388,0.2341746058255044,0.0497606503366146,-0.0381929340298905,41.23863,37.08281,173.9884,0.3147179,-0.3178125,0.8802673,11
20.02,0.2296465,1.569617,11.28403,0.2886022991662159,-0.0038892121653427,-0.0125522354654787,44.5553,35.70494,173.1339,0.3047832,-0.3432062,0.8722609,11
20.04,0.3031805,1.73575,11.36329,0.3232414258689911,0.033437109615894,0.0103878247598523,47.85537,34.16882,172.1078,0.2945753,-0.3682872,0.8634524,11
20.06,0.4393859,1.268237,11.3709,0.3561660419402354,0.0700301327103235,0.0316119802422012,8.220486,46.59908,177.5363,0.3958448,-0.05733404,0.9152662,11
20.08,0.523808,1.435688,11.45607,0.3872138846945199,0.1030187465631422,0.0506452234294543,11.75402,45.78324,177.4082,0.388979,-0.08555396,0.9152651,11
20.1,0.6060336,1.599631,11.54033,0.4162580203647827,0.1145152720580691,0.0670259100989094,15.28514,44.94784,177.2261,0.3817308,-0.1136862,0.9143464,11
20.12,0.7337343,1.28533,11.59252,0.4403798075437711,0.1181906962252712,0.08021351735191,353.3286,50.17248,178.6856,0.4226314,0.05754864,0.9043599,11
20.14,0.8194033,1.449066,11.67995,0.4624232993403991,0.1225470873184062,0.0917825616064158,356.9039,49.37272,178.7858,0.4172149,0.02896893,0.9083447,11
20.16,0.9026563,1.609163,11.76629,0.4821769155732238,0.1247373727375814,0.1012044418298308,0.4791544,48.58113,178.8359,0.4113783,0.0003677937,0.9113987,11
20.18,0.9833469,1.765786,11.85136,0.4950721190915641,0.0515608635960896,0.0941041042403878,4.053771,47.79153,178.8367,0.405128,-0.02822559,0.9135196,11
20.2,1.061338,1.812453,11.93497,0.499437321434461,0.07047979706568,0.0951216530826342,7.627037,46.9977,178.7879,0.3984708,-0.05678187,0.914706,11
20.22,1.074961,1.269987,11.85466,0.5001756338153681,0.0889715288487951,0.093189914791725,354.1047,51.18364,179.9653,0.4313715,0.04650933,0.9007078,11
20.24,1.158288,1.43331,11.94256,0.4971292879160606,0.1043424548620141,0.0877732126988888,357.6608,50.38079,180.182,0.4255678,0.0177951,0.904695,11
20.26,1.239218,1.593074,12.02931,0.4831744044154167,0.0950669705174627,0.0709396270559086,1.218515,49.59267,180.3487,0.4193391,-0.01092893,0.9077625,11
20.28,1.317612,1.749445,12.11474,0.4668495193486544,0.0880584720948032,0.051540730912704,4.777192,48.81315,180.4668,0.412692,-0.03963378,0.9099079,11
20.3,1.331407,1.240749,12.03526,0.4479928365247329,0.0804795797966652,0.029084488172492,3.94954,52.42525,182.0428,0.44082,-0.03877966,0.8967572,11
20.32,1.417209,1.407246,12.12133,0.415384119785253,-0.002839611945469,-0.0127516691439895,7.569379,51.66489,182.2796,0.4335228,-0.06804852,0.8985038,11
20.34,1.500734,1.570151,12.2064,0.3933339941675959,0.0129885367460427,-0.0310299862104355,11.19158,50.91249,182.4695,0.4257769,-0.09724054,0.8993056,11
20.36,1.495532,1.217574,12.1588,0.3691708397684734,0.0299945891788135,-0.0519145902333786,11.87033,52.82957,183.3377,0.439597,-0.1054544,0.8917581,11
20.38,1.582331,1.390106,12.2416,0.3427467362276075,0.0453726427465923,-0.075856022868944,15.49131,52.09847,183.5519,0.4311752,-0.1345121,0.8916267,11
20.4,1.66715,1.559131,12.32368,0.3139528805173531,0.0412951784610411,-0.1032815221293386,19.11359,51.36792,183.7215,0.4223082,-0.1634203,0.8905591,11
20.42,1.749839,1.724781,12.40487,0.2688654777739221,0.0234221976449708,-0.1384928861555239,22.7367,50.63172,183.8447,0.4130054,-0.192148,0.8885574,11
20.44,1.695854,1.17586,12.30826,0.2237797444121649,0.0097453049414227,-0.1747604836177387,18.72734,52.23212,184.0409,0.428905,-0.1613113,0.8879145,11
20.46,1.781841,1.358618,12.38555,0.1785686365740666,-0.0027519844220093,-0.2124490871725683,22.29955,51.49927,184.1716,0.419618,-0.1895705,0.8861725,11
20.48,1.866402,1.538102,12.46258,0.1297776273963177,-0.016224810116914,-0.2478532353829481,25.87199,50.7555,184.2551,0.4099104,-0.2176279,0.8835264,11
20.5,1.94939,1.714402,12.53917,0.0822715003304271,-0.0250378015531234,-0.283037614614718,29.44374,49.99358,184.2878,0.3997926,-0.2454515,0.8799811,11
20.52,1.8529,1.145657,12.42742,0.0359373717864913,-0.0323511810064303,-0.31830273687223,24.58025,49.13105,184.029,0.3991496,-0.2077545,0.8912047,11
20.54,1.937052,1.336694,12.50086,-0.0093149010590274,-0.0412767527469286,-0.3539441293096113,28.08887,48.31973,183.9484,0.3891862,-0.2349645,0.8880296,11
20.56,2.020229,1.524667,12.57436,-0.050977296130361,-0.0524316826888091,-0.3814061362755896,31.59462,47.47443,183.8067,0.378848,-0.2619319,0.8839813,11
20.58,2.102289,1.709626,12.64779,-0.0898788739463506,-0.0589475754545571,-0.4073903392932796,35.09711,46.58464,183.5962,0.3681449,-0.2886339,0.879064,11
20.6,2.054112,1.121875,12.58087,-0.1261232215361754,-0.0641410518838678,-0.4321564835547682,34.69637,45.18299,183.2473,0.3587355,-0.2855769,0.8841601,11
20.62,2.136629,1.319912,12.65083,-0.1632108148183637,-0.15499528228121,-0.4641438176965327,38.12724,44.17752,182.8549,0.3477695,-0.3114048,0.8785722,11
20.64,2.218544,1.515068,12.72113,-0.1752183136861995,-0.12946620378798,-0.4705757885920896,41.55078,43.09009,182.3622,0.3364809,-0.3369293,0.8721508,11
20.66,2.264255,1.115081,12.72028,-0.183469756454418,-0.1018627752555207,-0.4746695917474079,43.26064,44.79643,181.7326,0.3490162,-0.3461238,0.8614776,11
20.68,2.346052,1.315496,12.78774,-0.1880638393718599,-0.0755255675770133,-0.4766745126849656,46.62684,43.66066,181.2152,0.3375835,-0.370981,0.8540106,11
20.7,2.427381,1.51314,12.85562,-0.1890869115360308,-0.0688247678282784,-0.4768446507724553,49.98372,42.40126,180.5592,0.3258483,-0.3954901,0.8457603,11
20.72,2.525546,1.110081,12.90659,-0.1846139625418298,-0.0755281364232767,-0.4701155689550913,50.64246,43.24958,178.7118,0.3375687,-0.3938206,0.8384784,11
20.74,2.605737,1.309695,12.97264,-0.1759358166458742,-0.0785322797845004,-0.4602915731346195,53.93913,41.88192,177.9539,0.3260489,-0.4178071,0.8293533,11
20.76,2.685436,1.506653,13.03908,-0.1631419382200678,-0.0812481944656308,-0.4476008137674228,57.22196,40.31528,176.985,0.3142466,-0.4414146,0.8194923,11
20.78,2.764522,1.700966,13.1058,-0.1292117800926147,-0.0801781540806665,-0.4197358219570177,60.48624,38.4819,175.7386,0.3021727,-0.4646226,0.808905,11
20.8,2.842872,1.785995,13.1727,-0.0925185187759227,-0.0766335018712997,-0.3894732237383147,63.72503,36.2822,174.1166,0.2898378,-0.4874108,0.7976015,11
20.82,2.998986,1.109024,13.26377,-0.0531596032096185,-0.0739354956057959,-0.3570530508243994,62.62902,33.77952,167.8697,0.2993656,-0.4683075,0.7969459,11
20.84,3.07618,1.297891,13.33003,-0.0112176955748337,-0.075357781409476,-0.3227168145166006,65.73488,30.86781,165.4847,0.2878237,-0.4906968,0.7849068,11
20.86,3.152402,1.484239,13.39625,0.0341497818042422,-0.0615240906446248,-0.2915439576535323,68.77527,27.20611,162.343,0.2760415,-0.5126534,0.7721962,11
20.88,3.343965,1.16137,13.52032,0.0800768750164053,-0.045693365910246,-0.2594141627208728,55.82361,32.4016,168.7227,0.2895221,-0.4231238,0.8316402,11
20.9,3.419882,1.341337,13.58975,0.1264961018565495,-0.0310253072996998,-0.226589862586708,58.87174,30.0022,166.7784,0.2785743,-0.4455927,0.820989,11
20.92,3.494418,1.518729,13.65881,0.1902036354599834,-0.086379228842626,-0.1943454308334331,61.86791,27.15325,164.3771,0.2674011,-0.4676819,0.8096541,11
20.94,3.567466,1.693625,13.7274,0.2450340545844096,-0.0419189338125509,-0.1637778737921875,64.7937,23.70603,161.3712,0.2560137,-0.4893725,0.7976467,11
20.96,3.76694,1.240087,13.79284,0.3001517358245341,0.0018362871978438,-0.1329448775856758,32.04485,43.09625,175.3315,0.3631783,-0.2421317,0.8891076,11
20.98,3.850148,1.411087,13.87033,0.3554222652498242,0.0418634232923785,-0.1022087948397638,35.41833,42.03177,174.7809,0.3542063,-0.2681027,0.8833573,11
