t,pX,pY,pZ,aX,aY,aZ,reX,reY,reZ,rtX,rtY,rtZ,ID
6.18,-43.2382,1.119297,-37.93441,2.07161850509085,-0.1350876237540465,0.1563147371346351,11.28515,358.2016,161.9552,-7.381197e-06,-0.09954304,0.9829627,14
6.2,-43.17895,1.332916,-38.04177,2.126714548104648,-0.1690363366150537,0.2886377378527767,7.951534,359.9859,160.3836,0.01168995,-0.0683421,0.9830137,14
6.22,-43.12547,1.542925,-38.15612,2.1761474425648446,-0.1787173201617248,0.429890130082291,4.421461,1.883291,158.841,0.02322409,-0.03489906,0.9820206,14
6.24,-43.08591,1.171885,-38.18463,2.2269666769725616,-0.2154625340320564,0.5674769413048066,11.47552,11.92056,162.2044,0.1174553,-0.08225784,0.9760964,14
6.26,-43.06269,1.382452,-38.27305,2.2663193352537983,-0.2232183043835063,0.6994661796347126,8.938604,13.1757,161.0646,0.125553,-0.05754182,0.9754156,14
6.28,-43.04145,1.591051,-38.36313,2.2958325789825142,-0.2040021255697372,0.8267135842723903,6.418709,14.30012,159.9005,0.1320599,-0.03301082,0.9742514,14
6.3,-42.92109,1.185561,-38.429,2.315812567272584,-0.1594333403931039,0.9491078836680408,13.95112,16.42429,164.394,0.1567879,-0.09983844,0.9709684,14
6.32,-42.92708,1.392271,-38.48923,2.342113334413852,-0.1960433035310526,1.0662813303102563,12.26366,15.51793,163.9871,0.1476669,-0.08611016,0.9735644,14
6.34,-42.93264,1.598086,-38.54974,2.358896881700601,-0.2038406962343444,1.176435081550597,10.56819,14.62952,163.6072,0.1385067,-0.07233714,0.9758865,14
6.36,-42.47161,1.215843,-38.47425,2.366238375130357,-0.1844134230101633,1.2794171655956994,11.47063,23.87414,160.4999,0.2193871,-0.06150709,0.9559165,14
6.38,-42.19789,1.412507,-38.59076,2.3763875573815234,-0.2189592029450973,1.3827305908845302,11.38078,21.10526,151.595,0.2005818,-0.04978492,0.9438873,14
6.4,-42.04339,1.602019,-38.65667,2.37736367955112,-0.2248868327440571,1.4798292853342163,10.92187,17.78742,146.3728,0.1745182,-0.04548635,0.9371935,14
6.42,-42.02439,1.227302,-38.42281,2.369152004014615,-0.203765736196938,1.5705346522729888,1.957643,31.99421,172.2336,0.2760281,0.00227739,0.95861,14
6.44,-41.97248,1.408978,-38.35968,2.3677136240258525,-0.2363053750266145,1.662356667141518,4.563553,29.14428,171.2039,0.253614,-0.01914117,0.9634485,14
6.46,-41.92332,1.589345,-38.29675,2.3577971081024103,-0.2405317845893294,1.748177130112989,7.098276,26.21679,170.0355,0.2307399,-0.0404051,0.9671829,14
6.48,-41.77896,1.264362,-38.18736,2.339153511018525,-0.2179565100430295,1.8295465169088976,357.161,32.2461,177.8778,0.2771276,0.0289351,0.9603353,14
6.5,-41.72129,1.417107,-38.0505,2.311747197571645,-0.170179898915326,1.9060702512355,1.671334,29.44479,177.6099,0.2543478,-0.008803082,0.9667779,14
6.52,-41.66924,1.564796,-37.91638,2.274677568849781,-0.2121756725360937,1.974799444257592,6.164905,26.61008,177.1207,0.2310445,-0.04653959,0.9711329,14
6.54,-41.80509,1.32525,-38.28422,2.2305806086111977,-0.2250251199308625,2.038294289173267,348.0534,32.06061,182.3354,0.2766277,0.09440098,0.9551134,14
6.56,-42.0001,1.554594,-38.458,2.180087980250716,-0.2104773568164589,2.096406930820092,341.58,28.65312,184.1589,0.2497243,0.146111,0.9543435,14
6.58,-42.18605,1.7654,-38.61182,2.1214603664899,-0.2527957068125114,2.145963093746487,335.9721,24.26964,186.6319,0.2170349,0.191265,0.9521103,14
6.6,-42.26153,1.973006,-38.76278,2.057510629140359,-0.2653276858813506,2.187636155969876,331.2694,25.66225,186.8411,0.2291848,0.2286411,0.939573,14
6.62,-41.97111,1.270394,-38.54102,1.988673717465168,-0.249791056690161,2.2216046584740825,2.122995,35.14912,182.0505,0.3015305,-0.02305984,0.9531088,14
6.64,-41.95752,1.467653,-38.5322,1.905872406208946,-0.2942402239655426,2.2504460980149377,2.479163,36.38604,182.1327,0.3117096,-0.02635729,0.9497491,14
6.66,-41.9444,1.664807,-38.52316,1.81875138942424,-0.3080960434424099,2.271623630959538,2.833292,37.63867,182.2475,0.3219656,-0.02972104,0.9462257,14
6.68,-41.89283,1.221315,-38.57193,1.7278185351450652,-0.2930799484005814,2.2852481227633623,11.13272,45.02469,184.0375,0.377684,-0.1029754,0.9201787,14
6.7,-41.87766,1.41385,-38.53579,1.633507476683434,-0.2508415108218139,2.291423323664365,12.14669,45.76077,184.5784,0.3824242,-0.1128422,0.9170595,14
6.72,-41.84138,1.192777,-38.59463,1.522047427194721,-0.2987150546010951,2.29205007965808,15.16075,50.53754,184.0522,0.4186524,-0.1341798,0.8978429,14
6.74,-41.81934,1.387237,-38.56309,1.408382255708986,-0.3151502022849098,2.285809029796421,16.21761,51.05233,184.4348,0.4213707,-0.143696,0.8950494,14
6.76,-41.7968,1.581259,-38.53149,1.2930232357978166,-0.3018550189401902,2.2727360123290152,17.2903,51.58057,184.8271,0.4240541,-0.1533358,0.892127,14
6.78,-41.77379,1.77484,-38.49981,1.165446012341608,-0.3492311909377465,2.254202007586451,18.37591,52.12083,185.2306,0.4266852,-0.1630793,0.8890828,14
6.8,-41.76887,1.156516,-38.59504,1.0372025500741824,-0.3644784099200684,2.229231286642271,21.56794,54.46515,184.1255,0.4432426,-0.1824394,0.8759695,14
6.82,-41.72023,1.35143,-38.55532,0.908837860949669,-0.3493099019499113,2.1979032375038665,23.43975,54.79205,184.2871,0.4434847,-0.1970712,0.8722255,14
6.84,-41.67253,1.545454,-38.51618,0.7757313912506838,-0.3933257024448667,2.16311229124758,25.28506,55.11422,184.4702,0.443505,-0.2114946,0.8683463,14
6.86,-41.69202,1.129565,-38.57621,0.6438438169992589,-0.4047388213981129,2.1224432166302574,28.63531,55.93602,183.7759,0.4469695,-0.2332677,0.8591332,14
6.88,-41.63516,1.328205,-38.54173,0.5136805439614811,-0.3852713683135679,2.0759370420264727,30.65458,56.13831,183.6711,0.446097,-0.2476577,0.8545429,14
6.9,-41.57827,1.525762,-38.50739,0.3857479417349703,-0.3366101455379496,2.02363398105222,32.67713,56.34037,183.5724,0.4450772,-0.2619913,0.8496775,14
6.92,-41.54824,1.116682,-38.52494,0.2617324873625568,-0.3748460618194709,1.966269101217562,38.50918,56.51445,182.7981,0.439723,-0.3012944,0.8351238,14
6.94,-41.48394,1.317234,-38.48978,0.142562818254003,-0.3800261639530429,1.903477870352595,40.75569,56.61124,182.5527,0.4375603,-0.3163993,0.8288038,14
6.96,-41.41957,1.516463,-38.45475,0.0286576201956352,-0.3539132663982941,1.8352869458917764,43.00499,56.6979,182.3033,0.4352194,-0.3313976,0.8221534,14
6.98,-41.35518,1.714367,-38.41986,-0.0735278105118997,-0.3837004784718739,1.7657629260997654,45.25691,56.77357,182.0488,0.4327013,-0.3462818,0.8151746,14
7.0,-41.33006,1.113311,-38.42794,-0.1682330991447633,-0.3802955770165653,1.691707120176514,45.82907,57.72333,180.4581,0.4432388,-0.3427691,0.8074213,14
7.02,-41.25048,1.314228,-38.38665,-0.2551129550344111,-0.3455097271580222,1.613096056043223,48.59628,57.71891,180.1082,0.4395664,-0.3607963,0.7984118,14
7.04,-41.17082,1.513156,-38.34552,-0.3129731234042019,-0.3671903933685602,1.5391919811697274,51.36538,57.68679,179.7371,0.435628,-0.3786233,0.788924,14
7.06,-41.03046,1.103773,-38.28736,-0.3625754714174496,-0.3560690484528005,1.460370891750661,56.33967,56.7095,176.2872,0.4319134,-0.401667,0.7681168,14
7.08,-40.95364,1.300918,-38.25147,-0.4036047833720468,-0.313954483512583,1.3766085095159015,58.97692,55.98377,175.524,0.4252073,-0.4183767,0.7590157,14
7.1,-40.87719,1.496284,-38.21565,-0.4357240686872377,-0.2426323670348002,1.2880563513303305,61.60896,55.1292,174.6398,0.4182568,-0.4348987,0.7495099,14
7.12,-40.65046,1.119328,-38.11563,-0.4402080941885637,-0.2503427627745461,1.204538037762787,61.50929,47.40445,167.3868,0.394794,-0.4274468,0.7595326,14
7.14,-40.56565,1.307373,-38.07544,-0.4352202238995835,-0.2263013935034085,1.1161903600481606,64.30062,45.50202,165.3474,0.3873304,-0.444979,0.7481633,14
7.16,-40.4815,1.493262,-38.0355,-0.4204450741972882,-0.1722953784244582,1.022941699088392,67.05497,43.13183,162.8417,0.3796138,-0.4622135,0.7363029,14
7.18,-40.30382,1.135655,-37.84666,-0.3784873355907567,-0.1604888408032496,0.9333652031749552,59.19658,48.61208,171.8711,0.3889043,-0.4236356,0.7760337,14
7.2,-40.15933,1.277354,-37.67399,-0.3265232348403053,-0.118193026298899,0.8385174414141874,66.06797,50.49009,174.2246,0.3819337,-0.4744325,0.7456031,14
7.22,-40.09977,1.441386,-37.56744,-0.2731549739708221,-0.0791956033698536,0.7544195576109427,69.33672,56.32095,179.2805,0.3912943,-0.4990462,0.7234036,14
7.24,-39.9905,1.251944,-37.54391,-0.2045263475445304,-0.1163871821222461,0.6845023091756568,34.55854,57.54895,175.7821,0.468908,-0.2432617,0.8311339,14
7.26,-39.9694,1.447271,-37.53308,-0.1305003544254921,-0.0723800724735292,0.6157079671486656,35.1749,58.39864,175.9156,0.4741498,-0.247025,0.826343,14
7.28,-39.93946,1.639885,-37.51602,-0.0488265554065181,-0.0329847844867081,0.5572061132510564,36.13092,59.16478,176.0643,0.4783217,-0.2534046,0.821031,14
7.3,-39.90952,1.832203,-37.49921,0.0407411366567673,-0.001484096268257,0.5099685542581573,37.08754,59.94264,176.2304,0.4824346,-0.2597738,0.8156295,14
7.32,-39.76963,1.281822,-37.4845,0.1159040721393447,0.0141671728278141,0.4694621778067107,11.6402,65.09559,177.1896,0.5371649,-0.07232773,0.8370077,14
7.34,-39.73742,1.475637,-37.48216,0.2040133562259214,0.0269537540844543,0.4377443381186419,12.43923,65.68513,177.0116,0.5413305,-0.07693355,0.8334026,14
7.36,-39.70695,1.669651,-37.4813,0.3051344463474406,0.0333973408189138,0.4153626105112922,13.19167,66.29039,176.8279,0.5455975,-0.08110509,0.829689,14
7.38,-39.59224,1.300478,-37.42786,0.3510837251703043,0.0471308171077198,0.3859046555781429,352.0541,70.25643,178.2621,0.5731,0.06536489,0.8164119,14
7.4,-39.55968,1.492741,-37.41807,0.3659781800640944,0.0582243794336848,0.3748844473322883,352.953,70.42282,178.2455,0.5746689,0.05901852,0.8159327,14
7.42,-39.52969,1.685218,-37.40957,0.3651944086544123,0.0642095472251635,0.3756647635135426,353.8015,70.58849,178.2267,0.5761787,0.05305058,0.8153878,14
7.44,-39.38945,1.317849,-37.34806,0.3599292325079846,0.0719815141420159,0.3434629271105782,351.3036,71.16343,179.3208,0.579813,0.06509899,0.8111929,14
7.46,-39.35318,1.507639,-37.33385,0.3548874947533544,0.0790658380798354,0.3032108479334772,352.3419,71.2504,179.3902,0.5808833,0.05737403,0.8112258,14
7.48,-39.32116,1.697883,-37.30853,0.34977786214532,0.0821990388927783,0.2542544168820884,353.1924,71.88436,179.8931,0.585888,0.04861517,0.8082138,14
7.5,-39.29218,1.88775,-37.28521,0.3296338845836688,0.1537875878390509,0.1889397426390813,354.0672,72.16367,180.333,0.5882701,0.04011394,0.8070019,14
7.52,-39.27258,1.274979,-37.28211,0.2817589049097817,0.1283118351809742,0.0945269344250849,355.1377,72.7465,181.24,0.5928441,0.02774114,0.8041269,14
7.54,-39.23794,1.465746,-37.2615,0.2340482691974132,0.1058385270563284,-0.0211129665153304,356.1006,73.16599,181.5637,0.5959589,0.01918919,0.8021783,14
7.56,-39.20156,1.655397,-37.24149,0.2138839423706482,0.1412073307556618,-0.0840502294021234,357.1486,73.53872,181.8962,0.598658,0.01002612,0.8004478,14
7.58,-39.18015,1.259925,-37.24355,0.2074029413293754,0.0925804772650566,-0.1250993303144749,3.523071,73.87517,182.1459,0.6000954,-0.03581341,0.7991189,14
7.6,-39.14245,1.453058,-37.24181,0.2407829463772755,0.0370811971828489,-0.1403415681305269,4.482069,74.27234,181.9564,0.6026296,-0.0414677,0.7968804,14
7.62,-39.10433,1.645457,-37.23954,0.298838469233984,-0.028694704736299,-0.1289277988266768,5.485137,74.70612,181.8074,0.6053546,-0.04758912,0.7943608,14
7.64,-39.1331,1.226095,-37.21974,0.30054179661981,-0.0477890457523541,-0.1515652904456432,10.71197,74.57206,183.1335,0.6008936,-0.09072927,0.7933975,14
7.66,-39.10038,1.421694,-37.21754,0.3134201441347262,-0.0679852605765785,-0.171533457450832,11.54974,74.99403,182.9842,0.6033468,-0.09557348,0.790686,14
7.68,-39.06708,1.616722,-37.21529,0.3372884938480398,-0.0930420853338682,-0.1889633303638849,12.44488,75.30608,182.8402,0.6049661,-0.100838,0.7884594,14
7.7,-39.03373,1.811416,-37.21304,0.366113549968702,-0.0305862270124563,-0.1952784178977564,13.35129,75.61688,182.7073,0.6065277,-0.1062019,0.7861727,14
7.72,-39.10085,1.187161,-37.19808,0.3659925338693934,-0.0762073432645736,-0.2115636189478476,15.95818,73.97309,183.7698,0.5918337,-0.1304165,0.7933626,14
7.74,-39.07138,1.384464,-37.19243,0.375021923101837,-0.0599810891143154,-0.2143131763136434,16.75896,74.28759,183.7007,0.5933092,-0.1353917,0.7910431,14
7.76,-39.04154,1.58144,-37.18708,0.3949769314524598,-0.0443977075894119,-0.2165235432669572,17.59878,74.51969,183.6302,0.5941483,-0.1406424,0.7890692,14
7.78,-39.08941,1.150408,-37.17261,0.3979402357783002,-0.1147887902727824,-0.222716093133056,21.86318,70.60184,183.997,0.5616425,-0.1744604,0.8046533,14
7.8,-39.06352,1.349427,-37.16508,0.4127852456933141,-0.1857028515532685,-0.2282327358881311,22.5984,70.83435,183.9467,0.5624574,-0.17915,0.8025942,14
7.82,-39.03725,1.54823,-37.15746,0.4420830084222027,-0.1392276825058088,-0.2142288089391986,23.36119,71.0451,183.9053,0.5630463,-0.1840677,0.8005777,14
7.84,-39.04715,1.124848,-37.12984,0.4621646847794594,-0.1770269700587802,-0.2017580207410239,29.50962,66.46043,183.7685,0.5226426,-0.2303455,0.8130441,14
7.86,-39.02057,1.324848,-37.11859,0.4908419979704757,-0.2127503356277757,-0.1889694586180921,30.35385,66.63383,183.7623,0.5226449,-0.2360564,0.8107855,14
7.88,-38.9939,1.524659,-37.10735,0.5379119042758029,-0.1587737028417102,-0.1612052912819015,31.20253,66.808,183.7582,0.5226083,-0.2417811,0.8084751,14
7.9,-38.96716,1.724277,-37.09614,0.5922132421765376,-0.1057457691231514,-0.131990525145091,32.05544,66.98306,183.7562,0.5225326,-0.2475185,0.8061124,14
7.92,-38.93203,1.114149,-37.08006,0.630618922835966,-0.1674879366865681,-0.1074859259130214,39.7274,64.87318,182.5644,0.4979108,-0.2979888,0.7976509,14
7.94,-38.8934,1.315232,-37.06661,0.6808088387436113,-0.1378739992220045,-0.0735176196021178,40.95741,64.93655,182.3908,0.4966388,-0.3055997,0.794116,14
7.96,-38.85471,1.515916,-37.0532,0.7353524487300049,-0.1637968194594824,-0.0370968044766515,42.1906,64.99609,182.2159,0.4953012,-0.313196,0.7904791,14
7.98,-38.7733,1.111596,-37.01127,0.7959808890725579,-0.1879272852187941,0.000967765544054,46.44909,63.07222,179.8206,0.4811782,-0.3353434,0.7829211,14
8.0,-38.72231,1.312778,-36.99052,0.8623312099984037,-0.2139561004361239,0.040558102933021,48.12848,63.09191,179.6089,0.4788953,-0.3458695,0.7774208,14
8.02,-38.67123,1.513228,-36.96981,0.9399198983361295,-0.1258785908290803,0.0879823342196397,49.81099,63.10204,179.3902,0.4764996,-0.3563395,0.771742,14
8.04,-38.47263,1.104034,-36.88348,1.0375374604920884,-0.1511470817844007,0.1437837707310896,58.36052,59.03652,174.4837,0.4500901,-0.4030819,0.7473226,14
8.06,-38.41452,1.3013,-36.86122,1.1366103866310766,-0.1760807277760702,0.1995222780484082,60.25433,58.65031,173.8315,0.446536,-0.4141763,0.7397602,14
8.08,-38.35647,1.497625,-36.83907,1.2275101665005108,-0.1132008807108359,0.2524679592527405,62.14709,58.19361,173.1113,0.4428508,-0.4251627,0.7319828,14
8.1,-38.2984,1.692877,-36.81582,1.32132641620088,-0.1256484056175256,0.3091301143317313,64.04704,57.87743,172.4077,0.4400669,-0.4358777,0.7233531,14
8.12,-38.1103,1.133691,-36.72301,1.4151686130990235,-0.1383594433118157,0.3660031540057495,59.90025,49.83435,167.4977,0.4121774,-0.4103341,0.7582331,14
8.14,-38.04539,1.323951,-36.69576,1.4859536670470428,-0.0691595474227386,0.4133080329802343,61.94337,49.21084,166.2852,0.4103132,-0.4219131,0.7484049,14
8.16,-37.98057,1.512967,-36.66885,1.5635023602372868,-0.0677648436462509,0.4640296282693894,63.98738,48.39843,164.917,0.4080669,-0.4334607,0.7383845,14
8.18,-37.7951,1.202584,-36.58118,1.6374732967370011,-0.0669273483604561,0.5135312906001124,47.2551,55.86355,173.5652,0.4483497,-0.3294559,0.7976294,14
8.2,-37.72638,1.387304,-36.55305,1.6931156967850836,0.0113216973607947,0.5392406242405041,49.39613,55.99372,173.054,0.4480479,-0.3424253,0.7888458,14
8.22,-37.65811,1.570686,-36.52547,1.7380453756467222,0.0272086833752144,0.5420876142507556,51.53704,56.09869,172.5268,0.4475746,-0.3552606,0.7797692,14
8.24,-37.49683,1.258619,-36.48776,1.781488206223341,0.0448958248192286,0.5310913844164435,25.13191,62.69363,176.1072,0.5137738,-0.1684534,0.8292516,14
8.26,-37.41377,1.4374,-36.45804,1.815317057697868,0.1140131624239226,0.5177936742913536,27.64365,63.10339,175.8804,0.5151047,-0.1851912,0.8224646,14
8.28,-37.3315,1.614272,-36.42905,1.8516381192728493,0.1766169118051443,0.503912602860412,30.15813,63.51124,175.6689,0.5161715,-0.2018468,0.8152628,14
8.3,-37.25008,1.789268,-36.40082,1.8722048992518303,0.140206176899556,0.4870914318798132,32.67654,63.91854,175.4728,0.5169717,-0.2184198,0.8076468,14
8.32,-37.22195,1.279553,-36.38513,1.8957308772065355,0.0977454372219331,0.4692578909585778,1.444839,68.92221,177.9498,0.5658972,-0.0002716025,0.8241856,14
8.34,-37.13224,1.455231,-36.35445,1.9052866357521312,0.1569541784272937,0.4505995288345419,4.138235,69.43269,177.9891,0.5695758,-0.01968597,0.8209584,14
8.36,-37.04351,1.628684,-36.32459,1.9111031500134648,0.1430192866514249,0.4362245610692969,6.834037,69.94688,178.0531,0.5729248,-0.03911183,0.8172626,14
8.38,-36.94401,1.297701,-36.27108,1.918922910287602,0.1234141803669508,0.4236888671801173,351.5865,71.50002,179.0231,0.5821471,0.06449907,0.8097236,14
8.4,-36.84507,1.46706,-36.23561,1.915643534377424,0.1789662243491926,0.4050921714168494,354.5577,71.97971,179.2498,0.5867154,0.04225492,0.808374,14
8.42,-36.74755,1.633706,-36.20121,1.897726908620025,0.1554712507513179,0.3869951532627125,357.5277,72.46899,179.5001,0.5908724,0.01997864,0.8064649,14
8.44,-36.70561,1.272125,-36.17039,1.8812514463964567,0.1269727958801303,0.3696163265736558,353.8432,72.72231,180.0095,0.5920212,0.04319732,0.8041313,14
8.46,-36.59818,1.438366,-36.13091,1.849281028052486,0.1738081881286646,0.34493913555358,357.1238,73.20187,180.3397,0.5961074,0.01838091,0.8025072,14
8.48,-36.49249,1.601393,-36.09269,1.8160425931296107,0.2137363729231583,0.3195336366941728,0.4019834,73.69922,180.697,0.5996848,-0.006454976,0.8002056,14
8.5,-36.38875,1.761348,-36.05579,1.7525462557745746,0.1506599644827713,0.2889860973599765,3.675984,74.21753,181.0835,0.6027509,-0.03127874,0.7972288,14
8.52,-36.45817,1.246677,-36.07349,1.6913497906111612,0.0816905752537253,0.2569644768655417,1.336526,73.96481,181.6171,0.6013376,-0.01780439,0.7987856,14
8.54,-36.34332,1.412569,-36.03352,1.633477698147744,0.1235386066302523,0.2263111516814726,4.869083,74.4875,181.97,0.6039903,-0.04420497,0.7956739,14
8.56,-36.23041,1.57484,-35.99488,1.5505421170397051,0.0868976028097088,0.1938136040969142,8.398742,75.03535,182.3574,0.6060478,-0.07056329,0.7917861,14
8.58,-36.28651,1.226304,-35.99121,1.4700097411293136,0.0473949459763497,0.1605809821482919,10.33433,74.50794,183.198,0.6006541,-0.08848064,0.7939381,14
8.6,-36.17011,1.39677,-35.95204,1.3937580128725262,0.0891070206675434,0.1297869744207913,13.93572,75.08201,183.5403,0.6015689,-0.1148281,0.7889692,14
8.62,-36.05545,1.563544,-35.91407,1.292463410825209,0.0488811211215629,0.0996102660018483,17.53267,75.68839,183.9266,0.6018703,-0.141054,0.7832023,14
8.64,-36.13081,1.190721,-35.92038,1.194248167827448,0.0069118975001708,0.0718483698807359,16.09818,75.53477,183.8237,0.6023933,-0.1308573,0.7851415,14
8.66,-36.01617,1.369097,-35.88289,1.108877521111113,0.0512005479528804,0.043928424259656,19.67828,76.27941,184.2057,0.603156,-0.1566375,0.7782894,14
8.68,-35.90269,1.543885,-35.84647,1.0274416350896018,0.0911616199595677,0.0184044735207713,23.25534,77.05723,184.6461,0.6032296,-0.1822739,0.7707022,14
8.7,-35.79066,1.715178,-35.81119,0.9104168883544856,0.0198401414096566,-0.0089154677822946,26.8285,77.8861,185.1538,0.6026692,-0.207741,0.762343,14
8.72,-35.95447,1.160561,-35.83913,0.7994728827603623,-0.0535911182211633,-0.0328369892891631,21.59597,74.04285,184.1563,0.5856396,-0.1709287,0.7878485,14
8.74,-35.84266,1.347213,-35.80435,0.7095743806313921,-0.0101463928805531,-0.0551748295837803,25.1302,74.73028,184.3447,0.5853774,-0.1952335,0.7801958,14
8.76,-35.73161,1.530481,-35.77045,0.6013430497884187,-0.0517513295307016,-0.0759392035653672,28.66104,75.45209,184.5872,0.5845376,-0.21934,0.7717818,14
8.78,-35.81675,1.132593,-35.76785,0.5017260686728173,-0.0926853319258011,-0.0929976321381458,28.05513,71.07925,183.9824,0.5567384,-0.2167104,0.7938671,14
8.8,-35.70822,1.326789,-35.73347,0.4224219378028238,-0.0426273963207036,-0.1076344210597453,31.53353,71.67166,183.9454,0.5555204,-0.2395491,0.7852098,14
8.82,-35.6,1.517777,-35.69977,0.3385374642612246,-0.0776592846608801,-0.1193946324892625,35.01097,72.28475,183.9506,0.5537724,-0.2621534,0.775812,14
8.84,-35.61337,1.11861,-35.67907,0.2653495906480305,-0.1114033021808512,-0.1273094471003242,37.43463,68.43616,183.0451,0.5253653,-0.2794106,0.7876896,14
8.86,-35.50698,1.317124,-35.64568,0.2084443564352733,-0.0544377886677626,-0.1342961580501533,40.85096,68.86075,182.7531,0.5227876,-0.3004967,0.7774727,14
8.88,-35.40063,1.512552,-35.61288,0.1628182104397266,0.0013242548124283,-0.1379863685903375,44.26795,69.28439,182.4801,0.5197265,-0.3213013,0.7665448,14
8.9,-35.29452,1.704914,-35.58072,0.1079591054544257,-0.0583900972624152,-0.1420039982230818,47.6853,69.71027,182.2273,0.5161853,-0.3418048,0.7549171,14
8.92,-35.34969,1.114427,-35.5918,0.0657388603002342,-0.1182442551796346,-0.1420459475922388,44.71343,68.9121,181.155,0.520059,-0.3188976,0.7647117,14
8.94,-35.245,1.314761,-35.55979,0.0351177116633296,-0.0607117283118697,-0.1387782695965382,48.07453,69.27578,180.8197,0.5166872,-0.3388406,0.7530486,14
8.96,-35.1559,1.1099,-35.52415,0.0179363307611524,-0.0893888650146891,-0.1282527296068156,50.71215,67.38615,178.737,0.5051985,-0.3507604,0.7492037,14
8.98,-35.05276,1.309171,-35.49363,0.0116638411478078,-0.1171331112839771,-0.1141080061681805,54.01261,67.54285,178.1708,0.5012283,-0.3695126,0.7364947,14
9.0,-34.94963,1.505572,-35.46367,0.0100279554004512,-0.0570499871234732,-0.1005595782243045,57.31243,67.65229,177.5712,0.4968228,-0.3879369,0.7231553,14
9.02,-34.84666,1.699118,-35.4343,0.0351176011439839,-0.0783309593097825,-0.0753362803376802,60.61184,67.70192,176.9243,0.4919859,-0.4060216,0.7091959,14
9.04,-34.62373,1.109066,-35.35102,0.068124570887206,-0.1001132715215882,-0.0481541652101196,62.67785,58.21357,167.8563,0.461206,-0.4079227,0.7152974,14
9.06,-34.52162,1.297515,-35.32367,0.0869199547088444,-0.0347102922459328,-0.028860492553302,65.81841,56.91434,165.7452,0.4562141,-0.424337,0.7002698,14
9.08,-34.42014,1.483218,-35.29703,0.1112710528683029,0.0285399318341585,-0.0084225412767571,68.93194,55.11237,163.1415,0.4508371,-0.4403878,0.6846606,14
9.1,-34.30085,1.144359,-35.24641,0.1445045538311946,-0.0083220889767165,0.0192055981790861,58.36775,56.37654,167.8783,0.4554806,-0.383837,0.7408938,14
9.12,-34.19846,1.326132,-35.21901,0.1836369402279998,-0.048165485395174,0.0480554997312427,61.44602,55.31945,165.9626,0.4513678,-0.4003499,0.7267212,14
9.14,-34.09703,1.505147,-35.19242,0.2090385315007705,0.0185010728083359,0.0676296567471448,64.50212,53.90707,163.7038,0.446884,-0.4165313,0.7119594,14
9.16,-33.92311,1.212066,-35.13326,0.24424688186178,0.0166879915002048,0.0898921339942981,43.02133,63.85487,173.997,0.5076306,-0.2850139,0.7783679,14
9.18,-33.81526,1.386098,-35.10465,0.2844354209898045,0.0127018849797873,0.1127377146688761,46.26974,63.95676,173.2895,0.5056809,-0.3041994,0.7665188,14
9.2,-33.70883,1.557081,-35.07706,0.3111605378190396,0.0778471145798472,0.1268840299285978,49.51791,64.00305,172.5452,0.5032992,-0.3231223,0.7540236,14
9.22,-33.57435,1.257235,-35.05016,0.3382220395145783,0.0719442114682916,0.1416620796924412,19.99125,70.56448,176.6061,0.5727835,-0.1247835,0.8006045,14
9.24,-33.45564,1.425319,-35.02059,0.3691935986921804,0.06349691925192,0.1564111673938866,23.52547,71.09655,176.4296,0.5740705,-0.1480534,0.7924612,14
9.26,-33.33881,1.589726,-34.99223,0.3896733254198263,0.1232491481013035,0.1694123010309596,27.06211,71.63137,176.2843,0.5747889,-0.1711844,0.7835425,14
9.28,-33.22413,1.750616,-34.96511,0.4101195519385263,0.1784071616182487,0.1815820448471257,30.59887,72.17368,176.1723,0.5749407,-0.1941419,0.77386,14
9.3,-33.22901,1.275709,-34.94884,0.4146800739530221,0.1369613713510433,0.1928177632219343,358.3648,75.86888,178.2062,0.6144453,0.02087528,0.7886751,14
9.32,-33.10811,1.441284,-34.92027,0.420682429471225,0.0916395441083507,0.2039478353953381,1.927927,76.46437,178.3376,0.6188888,-0.004237398,0.7851646,14
9.34,-32.9893,1.603091,-34.89295,0.4355047058165087,0.1416318498209348,0.216626351962029,5.488548,77.06986,178.5066,0.6227124,-0.02933922,0.7808765,14
9.36,-32.90477,1.293838,-34.84319,0.4397087378702031,0.1186023788555626,0.2304791150224439,352.8317,77.33265,179.2735,0.6232399,0.05276315,0.7795026,14
9.38,-32.7826,1.45526,-34.8123,0.4442097285175039,0.0930964800360972,0.2442385603559227,356.4117,77.89829,179.5692,0.6282263,0.02671096,0.7773916,14
9.4,-32.66277,1.612814,-34.78279,0.446728758832859,0.1373187033149654,0.2540960683796776,359.9875,78.48068,179.8996,0.6325746,0.000638644,0.7744992,14
9.42,-32.64919,1.261992,-34.75132,0.4309666166563044,0.1055591251012892,0.2609876367483759,355.7608,77.81722,180.5925,0.6277907,0.02553453,0.777486,14
9.44,-32.53015,1.425758,-34.72038,0.4138204708595348,0.0728862744924115,0.2666978502597299,359.3062,78.39414,180.9332,0.6319954,-0.0004545704,0.7749058,14
9.46,-32.41328,1.585839,-34.69074,0.4029066884476084,0.115112104299837,0.2714759951216088,2.846929,78.99223,181.3098,0.635569,-0.02643558,0.7715599,14
9.48,-32.29882,1.742394,-34.66246,0.3881582552947584,0.1543406191273346,0.2737734710142918,6.382401,79.61607,181.7253,0.6385084,-0.05238297,0.7674523,14
9.5,-32.39327,1.24055,-34.65425,0.3359621007848861,0.0951655630152117,0.2694108077347694,4.010842,78.37298,182.0873,0.6308608,-0.03862074,0.774893,14
9.52,-32.27285,1.406758,-34.62338,0.2822353563228827,0.0356462371248831,0.2635757407900794,7.62964,78.99835,182.4434,0.6334189,-0.06485798,0.7706512,14
9.54,-32.1545,1.56919,-34.59377,0.2521848712629739,0.073548859054695,0.2641448879389143,11.24393,79.65256,182.8431,0.6353187,-0.09102479,0.765617,14
9.56,-32.22119,1.217262,-34.56956,0.1863428801534552,0.0347861469753774,0.2585295051556029,11.91179,78.14154,183.3713,0.6242367,-0.09896345,0.773767,14
9.58,-32.1022,1.389577,-34.53866,0.1191057032661526,-0.0016999532908482,0.2515445436669017,15.52664,78.80814,183.7047,0.6252648,-0.1246521,0.7679782,14
9.6,-31.98491,1.558191,-34.50889,0.075066546352152,0.0372444781026079,0.2481386462524968,19.1363,79.50959,184.0891,0.6256465,-0.1502053,0.7614033,14
9.62,-32.058,1.183043,-34.48959,-0.0007427687312882,-0.0029157031353923,0.2388198291623116,17.42538,77.61404,183.9317,0.6150537,-0.1392229,0.7730721,14
9.64,-31.94246,1.363602,-34.45906,-0.0771208694196983,-0.0399285213218382,0.2284168842419029,20.99504,78.2928,184.2144,0.6151228,-0.1640255,0.7662688,14
9.66,-31.8281,1.540648,-34.42949,-0.1262438419682721,0.0035936829545586,0.2233101302769551,24.56016,79.00826,184.5508,0.6145731,-0.1886568,0.7587022,14
9.68,-31.71513,1.714279,-34.40089,-0.2068921372375474,-0.0338760147005308,0.2103122856609509,28.11972,79.76906,184.948,0.613406,-0.2130904,0.7503814,14
9.7,-31.88117,1.152947,-34.40342,-0.2864481613722618,-0.0681079038803113,0.1969394600859741,23.08818,74.88926,184.0693,0.5896788,-0.1799344,0.7817101,14
9.72,-31.76922,1.341693,-34.37263,-0.3652933799889415,-0.1022383718671444,0.1831331956788204,26.60812,75.51531,184.1709,0.5888746,-0.2034973,0.774008,14
9.74,-31.65794,1.527111,-34.34261,-0.4282087540506389,-0.1134189302142412,0.1745841337480884,30.12539,76.16905,184.3202,0.5874977,-0.2268537,0.7655604,14
9.76,-31.72904,1.128672,-34.32325,-0.4878189198073657,-0.1203637753269649,0.1665059938381361,30.06812,70.95123,183.7227,0.5533348,-0.2293341,0.7909633,14
9.78,-31.62057,1.324275,-34.29107,-0.5445012622278123,-0.1263317996850842,0.1588368260075832,33.53002,71.46178,183.588,0.5515531,-0.2515424,0.7821578,14
9.8,-31.51234,1.516705,-34.25951,-0.5693361600523033,-0.0478454184084627,0.1560819320144766,36.99186,71.98393,183.486,0.5492514,-0.2735093,0.772622,14
9.82,-31.50742,1.117094,-34.23281,-0.6189699332525933,-0.0823088600695918,0.1453815855663371,39.65395,68.63581,182.6957,0.5236276,-0.2925346,0.7812456,14
9.84,-31.4013,1.316296,-34.20062,-0.6634220632171615,-0.1140840377872487,0.1356374206872299,43.0551,68.99353,182.3596,0.5205126,-0.3132076,0.7707827,14
9.86,-31.2952,1.512444,-34.16899,-0.6848783644726324,-0.0584819752394741,0.1286277756907434,46.45685,69.34348,182.0341,0.5169213,-0.3335903,0.7596222,14
9.88,-31.18929,1.705557,-34.13794,-0.7162117442412916,-0.0876109687784633,0.1194003940719801,49.85895,69.68694,181.7185,0.5128578,-0.3536642,0.7477754,14
9.9,-31.22977,1.1137,-34.13356,-0.7416585773311972,-0.1145468914683923,0.1113471055906014,46.39854,67.94148,180.3776,0.5125083,-0.328386,0.7629855,14
9.92,-31.12571,1.314034,-34.10142,-0.7615682153538406,-0.1427002007170788,0.1044020073115161,49.74191,68.20677,179.9581,0.5088156,-0.3480621,0.7511475,14
9.94,-31.0216,1.511422,-34.0698,-0.7478521484302161,-0.1436834961054403,0.1093269518333635,53.0855,68.4509,179.5325,0.5046724,-0.367426,0.7386523,14
9.96,-30.90182,1.103682,-34.01377,-0.728283538799408,-0.1423891303467621,0.1151161404038232,56.53708,64.81964,176.2009,0.4850443,-0.3839671,0.7347277,14
9.98,-30.79987,1.299575,-33.98297,-0.7009012551684672,-0.0818339589244228,0.1210844868101617,59.80706,64.64822,175.3218,0.4803283,-0.4020165,0.7210435,14
10.0,-30.69811,1.492663,-33.95274,-0.6680699177799876,-0.0228439012093409,0.1278282471370833,63.07373,64.34691,174.3242,0.4752013,-0.4197152,0.70675,14
10.02,-30.47095,1.118058,-33.85747,-0.6305778875946833,-0.0719878440730741,0.1395332802902764,61.81667,55.19499,167.2139,0.445687,-0.4081345,0.7291465,14
10.04,-30.36972,1.304323,-33.82767,-0.5881541035258699,-0.1227337016971003,0.1520638226077872,64.91521,53.78568,164.9959,0.4408899,-0.4247084,0.7144011,14
10.06,-30.26922,1.48785,-33.79861,-0.5592241294319362,-0.0612505937632351,0.1571950707411522,67.98309,51.87264,162.2845,0.4357251,-0.4409262,0.6990675,14
10.08,-30.16961,1.6687,-33.77032,-0.5229261107094758,-0.0685724008725572,0.1688818030923293,71.00475,49.22523,158.8476,0.4301994,-0.4567733,0.6831606,14
10.1,-30.04687,1.178282,-33.70003,-0.4835453222594297,-0.0762075816093631,0.1812566742173169,52.05468,57.53698,171.2253,0.4606206,-0.3504295,0.7692106,14
10.12,-29.94422,1.356218,-33.66894,-0.4442524198109718,-0.0090179055886465,0.190561222319177,55.17305,57.0727,169.9388,0.4574487,-0.3681346,0.7562404,14
10.14,-29.84273,1.531333,-33.63878,-0.4019289898666422,-0.0098520039899213,0.1996036117094624,58.2831,56.43518,168.4937,0.453905,-0.385538,0.7426636,14
10.16,-29.69776,1.239894,-33.58977,-0.3559021084806559,-0.0117653325015264,0.2098689840491028,31.94954,64.55201,175.3684,0.5223601,-0.2117552,0.8062333,14
10.18,-29.5843,1.410099,-33.55511,-0.3177362145069247,0.0525265807560469,0.2162206980325764,35.38767,64.88438,174.9398,0.5218961,-0.2336861,0.7960292,14
10.2,-29.47254,1.576859,-33.52164,-0.2788655961486688,0.1136265995529045,0.2227103007335609,38.82724,65.1988,174.5172,0.5209415,-0.2553971,0.7850848,14
10.22,-29.37895,1.268148,-33.48164,-0.2622403425325124,0.0793972392096738,0.2228195606601213,8.093184,70.44986,177.5703,0.5764427,-0.04543528,0.8138115,14
10.24,-29.26074,1.43517,-33.44645,-0.2476907079574131,0.1134896395405109,0.2240707157585006,11.64576,71.01565,177.5552,0.5794476,-0.07024156,0.8083947,14
10.26,-29.14447,1.598474,-33.41256,-0.2339102973635687,0.1463630354466367,0.2257975297877035,15.19733,71.58833,177.5762,0.5818779,-0.09497217,0.8021852,14
10.28,-29.03036,1.758208,-33.38001,-0.2317651094010311,0.1089909223358377,0.2283022911147645,18.7475,72.17276,177.6351,0.5837318,-0.1196026,0.7951895,14
10.3,-29.02732,1.285369,-33.34888,-0.230011435746964,0.0697644580274993,0.2321114213139017,353.3047,73.82886,178.7282,0.5990417,0.05333975,0.7985094,14
10.32,-28.90745,1.448781,-33.31275,-0.2116575920816403,0.1206709750355684,0.2385450189854623,356.8792,74.3761,178.9488,0.6039844,0.02723548,0.7964782,14
10.34,-28.78973,1.608372,-33.27803,-0.2132862889319273,0.0976959566885031,0.24249187683517,0.4503188,74.93571,179.203,0.6083186,0.001111701,0.7936529,14
10.36,-28.74546,1.282665,-33.23073,-0.2162094173384181,0.0743404760519196,0.2479347457936498,353.7836,74.27032,179.7613,0.6027179,0.04448218,0.7961074,14
10.38,-28.62698,1.444663,-33.19228,-0.2162217646611308,0.1179064156555876,0.2512012474866614,357.341,74.8092,180.0912,0.6072907,0.01794769,0.7941408,14
10.4,-28.51071,1.602882,-33.15529,-0.219621576658338,0.1586328890453615,0.2546243413665872,0.8940424,75.36745,180.4541,0.6112545,-0.008596947,0.7913859,14
10.42,-28.50735,1.250367,-33.12906,-0.2590935538389569,0.1013389438598649,0.2473531656482146,359.4141,74.77975,181.3848,0.6072323,-0.003276189,0.7944161,14
10.44,-28.38981,1.415062,-33.09133,-0.2842403269400622,0.1195597458087068,0.2410884834975366,2.994672,75.34962,181.725,0.6105899,-0.02987668,0.7913728,14
10.46,-28.27434,1.57604,-33.05499,-0.3109359985060442,0.1372002649719879,0.2355730247557623,6.570813,75.94328,182.1025,0.6133279,-0.0564402,0.7875342,14
10.48,-28.16117,1.733462,-33.02008,-0.368992646261074,0.0802776920750635,0.2232843518564689,10.14178,76.56573,182.5209,0.6154439,-0.08293953,0.7829049,14
10.5,-28.28435,1.23202,-33.01529,-0.4272917640083813,0.0238855795913973,0.2126542588643039,8.26674,74.31888,182.8851,0.600827,-0.07259181,0.795729,14
10.52,-28.16654,1.400726,-32.9763,-0.4554120983148224,0.0633778569459178,0.2064070293440911,11.89472,74.93762,183.2178,0.6025077,-0.09919293,0.7908712,14
10.54,-28.05058,1.565668,-32.93862,-0.5159135793595797,0.0253348948256038,0.1918128777530396,15.51785,75.58724,183.5962,0.6035622,-0.1256844,0.785199,14
10.56,-28.16709,1.199537,-32.93137,-0.575981427949134,-0.0100787860627592,0.1789483254497081,14.78075,73.94497,183.6692,0.5928396,-0.1218066,0.7943583,14
10.58,-28.05235,1.376003,-32.89234,-0.608719501585179,0.0308121292994785,0.1683788047625976,18.37519,74.59325,183.9826,0.5933931,-0.1477252,0.7881911,14
10.6,-27.93897,1.548864,-32.85442,-0.6412365142801737,0.0704635604048982,0.1589051775026853,21.96483,75.27719,184.347,0.5933419,-0.1734865,0.7812288,14
10.62,-28.03799,1.168164,-32.84723,-0.7172307453423503,0.0037871197168546,0.1366652950335236,20.16139,71.88857,184.0764,0.5725307,-0.1621715,0.80024,14
10.64,-27.92693,1.352808,-32.80808,-0.7629895967843585,0.0205058513558652,0.1181455198693059,23.70807,72.51533,184.2628,0.5722441,-0.1870547,0.7931414,14
10.66,-27.81673,1.534035,-32.76983,-0.8059157400554455,0.0384380374642553,0.1015492600148713,27.25155,73.17326,184.4983,0.5713924,-0.2117473,0.7852669,14
10.68,-27.92866,1.145409,-32.78025,-0.8786603369023678,-0.0272114703477508,0.0776585648345422,24.60694,69.61945,184.0673,0.5511822,-0.1946396,0.8060065,14
10.7,-27.82072,1.336221,-32.74074,-0.9479365783472088,-0.0903482598690789,0.0565387975180264,28.10584,70.19724,184.1176,0.5502803,-0.2185749,0.798181,14
10.72,-27.71326,1.523768,-32.70197,-0.9725545018757332,-0.0444178670011218,0.0426949685319835,31.60271,70.79876,184.2112,0.5488509,-0.2422928,0.7895975,14
10.74,-27.78722,1.124799,-32.68927,-1.0145234569094517,-0.0821326443612121,0.0252914471975689,32.10101,65.44394,183.546,0.5120454,-0.2485692,0.8127456,14
10.76,-27.68245,1.321761,-32.64862,-1.0511422635645349,-0.1166927038223272,0.0107717016764503,35.54448,65.88154,183.3374,0.5101425,-0.2711329,0.8036773,14
10.78,-27.57779,1.515591,-32.60855,-1.0556328731052431,-0.064303391076089,0.0005886859448258,38.9882,66.32297,183.1529,0.5077639,-0.2934392,0.7938676,14
10.8,-27.47343,1.706316,-32.56913,-1.053933049781964,-0.0126893926973807,-0.0072355910573893,42.43197,66.77231,182.9945,0.5049123,-0.3154674,0.783326,14
10.82,-27.5732,1.115546,-32.58826,-1.0735573183196347,-0.0753710925635433,-0.0238860122388757,41.87928,64.03472,182.3736,0.4887795,-0.3132127,0.7956456,14
10.84,-27.47054,1.315381,-32.54802,-1.0711167378823827,-0.0483293170267653,-0.0368128965892342,45.26595,64.3385,182.0143,0.485618,-0.3343351,0.7847716,14
10.86,-27.36784,1.512198,-32.50829,-1.061416018238745,-0.0200562867254472,-0.0469425768902294,48.65294,64.62954,181.6588,0.4820172,-0.3551509,0.7731951,14
10.88,-27.37512,1.112917,-32.49027,-1.0540454522273124,-0.0786688684005217,-0.0563565125727434,48.08607,62.30096,179.5452,0.4737879,-0.3467991,0.7807185,14
10.9,-27.27472,1.313224,-32.44956,-1.0401480599181032,-0.1366753807307952,-0.0629394210063809,51.4114,62.46773,179.0434,0.4702953,-0.366967,0.7685317,14
10.92,-27.17424,1.510617,-32.40933,-0.9982743194315472,-0.0801749537320696,-0.0628183329409894,54.73656,62.59705,178.5182,0.4663907,-0.3868093,0.7556795,14
10.94,-27.04341,1.102148,-32.33827,-0.9384800156151414,-0.1075145535972521,-0.0523268911640242,59.6972,58.34704,174.0633,0.4447289,-0.4120972,0.7437395,14
10.96,-26.94484,1.295685,-32.29961,-0.8728770247049646,-0.1346002205591526,-0.0397678742686524,62.93849,57.8612,172.8851,0.4401553,-0.4304114,0.7293733,14
10.98,-26.84656,1.486458,-32.26157,-0.8043424519444446,-0.0744152408390202,-0.028931074997617,66.1724,57.14913,171.4906,0.4352087,-0.4483542,0.714397,14
11.0,-26.74871,1.674497,-32.22419,-0.7308827795923176,-0.0159068923456885,-0.0163755141874011,69.39595,56.10813,169.7757,0.4298929,-0.4659137,0.6988219,14
11.02,-26.65421,1.128883,-32.1576,-0.6552451233081351,-0.0591326276548012,0.0018931610524743,60.95514,48.93303,166.7235,0.4079104,-0.4172993,0.7548962,14
11.04,-26.55592,1.312932,-32.11899,-0.5939321390685306,-0.0195171510585967,0.0124378791450414,64.02241,47.46184,164.4499,0.4037596,-0.4346377,0.7402509,14
11.06,-26.4584,1.494243,-32.08121,-0.5297377581798468,0.0201318509346932,0.0243486024846975,67.05615,45.49749,161.6936,0.3992758,-0.4516143,0.7250028,14
11.08,-26.3318,1.195581,-32.00062,-0.4624156681753089,-0.0088116348759094,0.0407074248317549,48.28777,54.58731,173.1715,0.4393427,-0.3379263,0.7983189,14
11.1,-26.23211,1.371894,-31.95971,-0.3918032788381893,-0.0398535611130809,0.0594021049794406,51.42909,54.40348,172.2192,0.4370881,-0.3570681,0.7860187,14
11.12,-26.13356,1.545361,-31.91985,-0.3220754665366736,0.0241487363182635,0.0738982884640702,54.567,54.11553,171.178,0.434481,-0.3759191,0.7730929,14
11.14,-26.02745,1.250202,-31.88326,-0.2583471148322855,0.0187354239990234,0.088279433317576,26.18765,60.7973,176.0136,0.4993553,-0.1781418,0.835605,14
11.16,-25.91474,1.418836,-31.83715,-0.1920147974201085,0.0123354431385728,0.1048332229055781,29.71242,61.19312,175.7001,0.4999085,-0.2020855,0.8265178,14
11.18,-25.80372,1.583834,-31.79243,-0.1304286205271458,0.0714342762943071,0.1204149538370962,33.23931,61.58053,175.4037,0.4999703,-0.2258352,0.8166268,14
11.2,-25.69462,1.745329,-31.74916,-0.0700852832236904,0.1274426151921605,0.1366996245657086,36.7683,61.96171,175.1239,0.4995404,-0.2493692,0.8059413,14
11.22,-25.74594,1.271907,-31.75275,-0.0348377250584133,0.0880339848659625,0.1482573225970602,2.355923,66.29999,177.9547,0.5469375,-0.007451398,0.8367312,14
11.24,-25.63109,1.438343,-31.70642,0.0028495722264256,0.1178235249564677,0.1605902100834089,5.918673,66.8447,178.0108,0.550737,-0.03353512,0.8329011,14
11.26,-25.5181,1.601032,-31.66154,0.0384633674722958,0.1461853822158652,0.1739851883590768,9.479719,67.397,178.1017,0.5539883,-0.05957844,0.8282505,14
11.28,-25.47941,1.291557,-31.61532,0.0583032009701853,0.104402026067571,0.1887520611057365,352.2137,68.20657,179.0408,0.5589024,0.06089981,0.8264072,14
11.3,-25.36347,1.453633,-31.56622,0.0760828007462737,0.0606600995048405,0.205638270571896,355.7992,68.71924,179.2931,0.5638088,0.03373385,0.8250688,14
11.32,-25.24962,1.611845,-31.51875,0.1074351161605382,0.1064837443193496,0.2244188353788185,359.3813,69.2458,179.5767,0.5681442,0.006541526,0.8229032,14
11.34,-25.26408,1.269706,-31.49464,0.1116853058853593,0.0762291123170302,0.2364269965032925,354.1018,68.61819,180.0095,0.5629143,0.04245058,0.8249127,14
11.36,-25.15155,1.432918,-31.44461,0.1129597814197431,0.0461581668729688,0.2501693456097027,357.6411,69.1313,180.3468,0.5672787,0.01523313,0.8232632,14
11.38,-25.04099,1.592433,-31.39619,0.1212615242153782,0.0857185084582419,0.2633289622567072,1.176308,69.66437,180.7155,0.5710809,-0.01199175,0.820806,14
11.4,-24.93263,1.748415,-31.34946,0.1250752593867048,0.1227297116059702,0.2766948508158431,4.706747,70.22138,181.1181,0.5743178,-0.03919663,0.8175442,14
11.42,-25.05337,1.246052,-31.3804,0.0897753998747457,0.0622443399106055,0.2763974784172665,1.39935,69.22668,181.6075,0.5677962,-0.01801634,0.8229591,14
11.44,-24.93963,1.411127,-31.3307,0.0680784714725666,0.0782070063942723,0.2786414329669053,5.007491,69.78138,181.9548,0.5707722,-0.04557504,0.8197689,14
11.46,-24.82782,1.572439,-31.28256,0.0428597117325004,0.0942941591129701,0.28076162642546,8.611658,70.36178,182.3397,0.5731608,-0.0730831,0.8157435,14
11.48,-24.92441,1.226204,-31.28834,-0.0172331339312892,0.0335760020888153,0.2701610823618834,10.3466,69.00951,183.1809,0.5618874,-0.0899359,0.8218239,14
11.5,-24.81126,1.396483,-31.23858,-0.0797747830134105,-0.0255288505152363,0.2598484805705761,13.97085,69.61247,183.5097,0.5632423,-0.1171614,0.816736,14
11.52,-24.69975,1.563024,-31.19022,-0.1102042722787377,0.0124063599675492,0.2541328139153664,17.59044,70.24754,183.8844,0.5640142,-0.1442592,0.8108106,14
11.54,-24.81105,1.190817,-31.2086,-0.1729521238771516,-0.0292595483994163,0.2352637419710261,16.09591,69.37412,183.7945,0.5593688,-0.1337121,0.8163658,14
11.56,-24.7009,1.369342,-31.16041,-0.2371366548373847,-0.0675822801871592,0.2164162392881743,19.6769,70.00394,184.1126,0.5597827,-0.1601548,0.8100829,14
11.58,-24.5919,1.544317,-31.11335,-0.268764377575406,-0.0263810584944578,0.2019227176915707,23.25319,70.67046,184.4813,0.5596316,-0.1864291,0.80299,14
11.6,-24.48428,1.715847,-31.0675,-0.3013557303714909,0.0141791360743992,0.1870860138612546,26.82381,71.38168,184.9069,0.5589159,-0.2125051,0.7950956,14
11.62,-24.68295,1.160702,-31.12042,-0.3737148452093137,-0.0563288234594193,0.1605872371988552,21.5841,67.19313,184.1239,0.5375912,-0.1754228,0.8214204,14
11.64,-24.57604,1.34744,-31.07335,-0.414805103863987,-0.0413374619589057,0.1396559019180254,25.11719,67.78233,184.2734,0.5371678,-0.2006619,0.8141947,14
11.66,-24.4698,1.530812,-31.02715,-0.4550182528202429,-0.0243838279033242,0.1194391606550726,28.64756,68.40016,184.4688,0.5362193,-0.2256983,0.806181,14
11.68,-24.59127,1.132686,-31.04664,-0.4949611914316207,-0.0085575472455598,0.0998748064469148,28.04194,63.8644,183.9633,0.5057404,-0.2232361,0.8273289,14
11.7,-24.48795,1.326933,-30.99944,-0.535849843974801,-0.0217207883269517,0.0763318462114455,31.51938,64.36161,183.9007,0.5044519,-0.2471886,0.8190072,14
11.72,-24.38486,1.517987,-30.95289,-0.5734257583338169,-0.030703839287672,0.0544138919945265,34.99606,64.87383,183.8722,0.5026858,-0.2709008,0.8099182,14
11.74,-24.43836,1.11867,-30.94912,-0.6082645029164375,-0.0387587314987666,0.0339303921882452,37.41212,60.94279,183.0326,0.4728383,-0.2890302,0.8203725,14
11.76,-24.33729,1.317228,-30.90262,-0.6312931670050062,-0.0457133065964823,0.0100394793961937,40.8272,61.27169,182.7191,0.4703227,-0.3113578,0.8103783,14
11.78,-24.23621,1.512715,-30.85664,-0.6498092873206862,-0.0488723027930761,-0.0124252199578074,44.24261,61.59249,182.4154,0.4673755,-0.333395,0.7996488,14
11.8,-24.1353,1.70515,-30.81125,-0.6643863486818518,-0.0515812472169296,-0.0335218518939681,47.65827,61.90636,182.1208,0.4639998,-0.3551223,0.7881936,14
11.82,-24.22554,1.114461,-30.84511,-0.6837757036653458,-0.1419839684427945,-0.0558198461137431,44.70385,61.08545,181.1439,0.4667062,-0.332204,0.7984304,14
11.84,-24.12621,1.31484,-30.79963,-0.6690488500548009,-0.1156947557122691,-0.0675469617150845,48.06389,61.35009,180.7849,0.4635364,-0.353445,0.7869269,14
11.86,-24.02678,1.512254,-30.75462,-0.6494420101589671,-0.0882474838006112,-0.0776359589072166,51.424,61.59952,180.4251,0.4599548,-0.3743676,0.7747319,14
11.88,-23.99157,1.107125,-30.72438,-0.6255817334973619,-0.0629571543964542,-0.0862446781457952,53.32576,58.54565,177.6873,0.4447836,-0.3825383,0.7749559,14
11.9,-23.89411,1.305394,-30.68018,-0.5845053403069684,-0.0655842116195954,-0.0897183710318989,56.61678,58.49731,176.9897,0.4408875,-0.4023163,0.7618116,14
11.92,-23.79666,1.500825,-30.63647,-0.5389570890226478,-0.0660474289007754,-0.0918089127531458,59.90584,58.36421,176.2191,0.4366132,-0.4217421,0.7480205,14
11.94,-23.62248,1.109089,-30.53866,-0.4895131631909253,-0.0676255515045828,-0.0929212547126785,62.6582,49.45288,167.853,0.4052621,-0.4318266,0.748512,14
11.96,-23.52599,1.297643,-30.4965,-0.4349211397396133,-0.0574860558017288,-0.0939297350581309,65.78744,48.03495,165.7001,0.4008482,-0.4496674,0.7335047,14
11.98,-23.43003,1.483471,-30.45506,-0.3783083371115556,-0.0454673764923367,-0.0947902651431493,68.88696,46.09509,163.0344,0.3961005,-0.4671279,0.7178936,14
12.0,-23.33474,1.666621,-30.4144,-0.3202244947467347,-0.0347461095912304,-0.0954732437779526,71.94179,43.37675,159.598,0.3910222,-0.4841959,0.7016914,14
12.02,-23.25606,1.161741,-30.34604,-0.2553232716146927,-0.0961466508446717,-0.0924098594840705,55.76849,47.00143,168.7686,0.3927404,-0.3923457,0.78844,14
12.04,-23.15902,1.341427,-30.30205,-0.1883095922342259,-0.0515500650867245,-0.0931561434214462,58.84222,46.02444,166.9911,0.3895366,-0.4106504,0.7748034,14
12.06,-23.06292,1.518328,-30.25902,-0.1208067414351754,-0.0074177039636876,-0.0942897522135148,61.89569,44.7494,164.9281,0.3860161,-0.4286181,0.7605449,14
12.08,-22.96263,1.228831,-30.19484,-0.0533946861234198,0.0332707324413473,-0.0959651164946557,37.78913,54.31697,174.7251,0.4446588,-0.2679472,0.8341109,14
12.1,-22.8587,1.400702,-30.14508,-0.0058578681926375,0.0479653800328902,-0.1097589701804278,41.13377,54.45315,174.1248,0.4437959,-0.2900152,0.823198,14
12.12,-22.75616,1.569322,-30.09659,0.0425371126532394,0.0638326183843673,-0.1251061473881685,44.47845,54.54744,173.5025,0.4425365,-0.3118207,0.8115584,14
12.14,-22.70617,1.26364,-30.05791,0.0907892939536214,0.0779636319426047,-0.1421175084329062,13.88218,59.66227,177.1609,0.4962452,-0.09257078,0.8593839,14
12.16,-22.59598,1.431326,-30.00414,0.1229520887596522,0.0877603249471431,-0.1584357256344173,17.42089,60.14594,177.0399,0.4985428,-0.118218,0.8531615,14
12.18,-22.48747,1.595325,-29.95188,0.1525410990598414,0.0992004940639974,-0.177587984949445,20.96068,60.63164,176.9484,0.5003504,-0.1437526,0.8461092,14
12.2,-22.38084,1.755791,-29.90121,0.1784655744314038,0.1095903699447893,-0.1995613890288674,24.50007,61.12335,176.8874,0.5016672,-0.1691403,0.838236,14
12.22,-22.44001,1.279302,-29.88942,0.1919592618926615,0.0466556370083313,-0.2179479052932875,354.4423,63.02729,178.3957,0.5214573,0.04863575,0.8517848,14
12.24,-22.32898,1.444133,-29.83341,0.2249251073064302,0.0768643632207589,-0.2312635315446867,358.0074,63.53175,178.5446,0.5261397,0.02146669,0.8501256,14
12.26,-22.21977,1.605187,-29.77902,0.2526995546540731,0.1066380042056455,-0.2470246593421903,1.570133,64.04483,178.7248,0.5302977,-0.005716026,0.8476278,14
12.28,-22.20415,1.296061,-29.72278,0.2746865911646723,0.1333248756055228,-0.2651950194964474,353.4662,62.78601,179.4801,0.5198328,0.0510036,0.8523532,14
12.3,-22.09415,1.456942,-29.66163,0.2696670515179638,0.1252361186430189,-0.2830925468277181,357.0434,63.27462,179.7715,0.524321,0.02300996,0.8511274,14
12.32,-21.98612,1.613965,-29.60235,0.2599313743522762,0.1194668304063693,-0.3031091315815866,0.6168422,63.78027,180.0929,0.5282807,-0.004998918,0.8490525,14
12.34,-22.04358,1.254684,-29.59808,0.2445734819097009,0.1134782217796595,-0.3255558753993193,357.4277,62.51933,181.1337,0.5189512,0.01405394,0.8544521,14
12.36,-21.93715,1.419074,-29.53716,0.2158553965088829,0.1038133319897093,-0.3410698108591057,0.9823505,63.02626,181.4411,0.5225415,-0.01388079,0.8524781,14
12.38,-21.83249,1.579796,-29.47796,0.1829163087680356,0.0969624919656717,-0.3579332576263803,4.53308,63.5533,181.7809,0.5256114,-0.04179365,0.8496636,14
12.4,-21.7298,1.73701,-29.4206,0.1447574494782912,0.0903731453953794,-0.3765733420803183,8.079455,64.10466,182.1558,0.5281581,-0.06965739,0.8460117,14
12.42,-21.86922,1.237737,-29.46161,0.0720172699777554,0.005117423792377,-0.394857060800573,6.168542,63.13187,182.6001,0.5215465,-0.05769145,0.8512242,14
12.44,-21.76501,1.406524,-29.40413,0.0302348835723522,0.0189466634553476,-0.4017420245682426,9.654634,63.51051,182.8261,0.5225011,-0.08446594,0.8481224,14
12.46,-21.66236,1.572829,-29.35269,-0.0146334990397622,0.0341961611064278,-0.4091505655365512,13.07152,63.93845,182.9656,0.523348,-0.1101394,0.8440967,14
12.48,-21.77837,1.211055,-29.39091,-0.0635802557942954,0.0483818331573568,-0.4180982415720158,13.2025,63.02005,183.2292,0.5162152,-0.1125977,0.8482533,14
12.5,-21.67535,1.388395,-29.34318,-0.1289276112037165,0.0308559470450446,-0.4257025559726015,16.55587,63.49056,183.2138,0.5170241,-0.1369881,0.843329,14
12.52,-21.57329,1.562503,-29.29633,-0.1955354293241802,0.017342282229106,-0.432433781351015,19.91511,63.97919,183.2325,0.5174409,-0.1613185,0.8376194,14
12.54,-21.6807,1.177776,-29.3401,-0.2639508262608139,0.0049473672664507,-0.4385783341272606,18.47556,62.93257,183.6855,0.5105573,-0.1534225,0.8441445,14
12.56,-21.57884,1.362853,-29.29676,-0.3015479517643573,0.0711035872002652,-0.4346036562482829,21.77439,63.56418,183.5552,0.5119808,-0.176522,0.8374412,14
12.58,-21.47772,1.544926,-29.25452,-0.3827047567652584,0.0273152728462707,-0.4358805991910346,25.07133,64.19944,183.4608,0.5129378,-0.1994462,0.8300358,14
12.6,-21.37737,1.724034,-29.21321,-0.4635142774660696,-0.0128638082257441,-0.4346176716418592,28.37014,64.84984,183.4059,0.5134683,-0.2222067,0.8219011,14
12.62,-21.54789,1.139494,-29.25269,-0.5444405794052618,-0.0525249183401833,-0.4311418737479413,26.1717,60.38091,183.8792,0.482913,-0.2121663,0.8452842,14
12.64,-21.45254,1.333331,-29.20736,-0.6050169934144392,-0.0694640627971763,-0.414491300923669,29.38486,60.77427,183.6575,0.4820684,-0.2342917,0.8380899,14
12.66,-21.35745,1.524535,-29.16364,-0.6632193741893837,-0.0818989261293115,-0.3942396603969813,32.58112,61.16735,183.4236,0.4809372,-0.2559669,0.8302184,14
12.68,-21.26291,1.713055,-29.12066,-0.7195210383363908,-0.0930629513839219,-0.3707743507021037,35.77307,61.5479,183.2074,0.4793465,-0.2774102,0.8217427,14
12.7,-21.40811,1.122158,-29.16154,-0.7403602973051364,-0.019401687656177,-0.3347529121790553,34.53399,57.7499,183.1378,0.4538469,-0.2724505,0.8398218,14
12.72,-21.3135,1.320881,-29.11732,-0.7837097664610608,-0.0587396638295807,-0.3058940020161893,37.71827,57.94098,182.6524,0.4516888,-0.2933278,0.831305,14
12.74,-21.21896,1.516997,-29.0745,-0.8231031952385885,-0.0951683882839802,-0.2730092298153996,40.88515,58.10285,182.1291,0.4492618,-0.3137259,0.8221402,14
12.76,-21.24827,1.115406,-29.093,-0.835573140405582,-0.0439696769222651,-0.2302011897309803,43.05041,58.9457,181.5347,0.4533775,-0.3255294,0.8122161,14
12.78,-21.15378,1.316298,-29.05236,-0.8569418709394063,-0.0772631223718944,-0.1857237979598416,46.19224,59.0121,180.9278,0.4502605,-0.3450552,0.8020855,14
12.8,-21.05918,1.51456,-29.01213,-0.8740219030431327,-0.1081508599177802,-0.1375038223357689,49.33349,59.03117,180.2888,0.4467888,-0.3643053,0.7913303,14
12.82,-21.02251,1.109996,-28.99021,-0.8872636638268925,-0.1400576031049499,-0.0859622018687469,50.63261,58.87519,178.7108,0.4484359,-0.367385,0.7848379,14
12.84,-20.92627,1.309566,-28.94773,-0.8652138437677803,-0.1444894976650495,-0.0086843170272143,53.85607,58.88612,178.0401,0.4449425,-0.3868273,0.7725034,14
12.86,-20.8303,1.506663,-28.90842,-0.838910732588598,-0.1464298401002081,0.0709743641464912,57.02026,58.79229,177.1976,0.4413619,-0.4051869,0.7596352,14
12.88,-20.73461,1.701172,-28.87031,-0.8088498792731369,-0.1492502193682894,0.1526075648737386,60.16602,58.57518,176.2389,0.4374178,-0.423055,0.7462403,14
12.9,-20.65983,1.104589,-28.82903,-0.7659055200171014,-0.0663224243043718,0.2379583969300687,61.18565,53.86136,171.1884,0.4235741,-0.4224516,0.7474809,14
12.92,-20.56494,1.296143,-28.79102,-0.7199145685518831,-0.0897828792019465,0.3349925438056256,64.26365,52.90964,169.515,0.419185,-0.4397127,0.733331,14
12.94,-20.47022,1.485418,-28.756,-0.6707086722341109,-0.1131798659308894,0.4328018878468582,67.27839,51.57574,167.3716,0.41485,-0.4559332,0.7185783,14
12.96,-20.33061,1.146222,-28.69427,-0.6303349746702103,-0.0521456230148766,0.5228000295799395,58.06339,49.11342,167.6964,0.4085843,-0.3999164,0.769074,14
12.98,-20.23894,1.330465,-28.6629,-0.5849455473779579,-0.0596040412724647,0.626574916777396,60.81124,47.76159,165.5981,0.4044123,-0.4153728,0.7567247,14
13.0,-20.14795,1.512386,-28.6321,-0.5383235382324716,-0.0671451991860857,0.7296408138867752,63.53104,46.05924,163.1577,0.3999745,-0.4305545,0.7438534,14
13.02,-20.01613,1.213173,-28.57694,-0.4909620742162879,-0.0779340902111113,0.8316173733359817,42.92006,56.79007,173.8603,0.4591801,-0.2976727,0.8082113,14
13.04,-19.91525,1.389173,-28.54299,-0.4379502399089228,-0.0580146943594748,0.935037274149654,45.97445,56.69024,172.9208,0.4574659,-0.316063,0.7972236,14
13.06,-19.81804,1.563448,-28.51275,-0.3838551747770786,-0.0376644654473779,1.0371463214335233,48.91738,56.43,171.8598,0.4551641,-0.3333756,0.7861862,14
13.08,-19.72195,1.735369,-28.48464,-0.3292916978697229,-0.0199890448784781,1.137444818730427,51.83861,56.08094,170.6767,0.452764,-0.3501573,0.7745083,14
13.1,-19.73127,1.259748,-28.49332,-0.2756603667183057,0.061529559980295,1.2321290829878009,19.78478,63.078,176.3801,0.5196693,-0.1300727,0.8363556,14
13.12,-19.6233,1.432879,-28.46922,-0.241965191375554,0.049254110248003,1.315838428793879,22.87163,63.79671,175.8046,0.5237379,-0.1492582,0.8277399,14
13.14,-19.51892,1.603729,-28.44727,-0.2090453819760291,0.0365910551646515,1.3965360148288917,25.89806,64.4225,175.2412,0.5269105,-0.1678643,0.8189024,14
13.16,-19.51492,1.279894,-28.41254,-0.1699042337092593,0.0912343371399082,1.4750108694531,357.9883,68.13394,177.9725,0.5597304,0.02444846,0.8283002,14
13.18,-19.40946,1.452603,-28.3925,-0.1395529938451383,0.0768073282197142,1.5399288555406998,0.9603935,69.31345,177.7246,0.5686633,0.004397934,0.8222882,14
13.2,-19.30804,1.623251,-28.37397,-0.1120261123734689,0.0616484228374554,1.6010149847132935,3.868406,70.37833,177.5336,0.5764097,-0.01518204,0.8161805,14
13.22,-19.26554,1.299408,-28.31192,-0.0880337068507941,0.0428901790804702,1.6577617110706724,352.3264,70.04606,179.0208,0.5721303,0.05968904,0.8173844,14
13.24,-19.16611,1.469988,-28.28682,-0.0437006893114788,0.1127781027100693,1.7152796139174913,355.1749,71.06911,179.0525,0.5803757,0.03905525,0.8132184,14
13.26,-19.06984,1.638837,-28.2648,-0.020411406928074,0.0849620311257557,1.745904162951475,357.9575,72.08523,179.1063,0.5881631,0.01899919,0.8085085,14
13.28,-18.97479,1.805232,-28.24405,-0.001037050874546,0.0572377013826714,1.7723895830525982,0.7458303,73.10433,179.2117,0.5955638,-0.001131541,0.8032523,14
13.3,-19.10389,1.266289,-28.20303,0.0274891369812304,0.0967721148754205,1.7937310984148525,355.3389,68.43785,180.4253,0.5620124,0.03153951,0.8261206,14
13.32,-19.00659,1.438271,-28.17467,0.0375903401341153,0.0630445300381246,1.7940178703815914,358.1946,69.53631,180.4927,0.5702368,0.01049017,0.8213183,14
13.34,-18.91257,1.60866,-28.14961,0.0435023550934325,0.0304185592457284,1.7891449127831476,0.9729517,70.6398,180.5872,0.5780772,-0.00989026,0.8159221,14
13.36,-19.00441,1.243734,-28.08275,0.0690698307444797,0.0729759911739573,1.7866098143275368,3.656257,65.92796,181.9628,0.5432965,-0.03607655,0.8387602,14
13.38,-18.91093,1.417756,-28.04554,0.0901591401322665,0.1134015534903293,1.7776508344775048,6.530498,66.99609,182.1402,0.5500294,-0.05778018,0.8329928,14
13.4,-18.82156,1.590459,-28.01184,0.0751734716625125,0.0549773109804103,1.7398393305972673,9.292834,68.07422,182.3526,0.5563946,-0.07856663,0.8267087,14
13.42,-18.93753,1.221412,-27.96392,0.0569510817478935,-0.002369456534721,1.697286644146439,11.36969,63.42026,183.1933,0.520486,-0.09880994,0.8476564,14
13.44,-18.84073,1.398738,-27.91862,0.0709006708815631,0.0364031885767359,1.6640624936331618,14.45802,64.50072,183.3641,0.5260263,-0.1219155,0.8406115,14
13.46,-18.74492,1.573392,-27.8754,0.0546103653804053,-0.002769847173443,1.6120800732323386,17.53235,65.6239,183.5868,0.5312828,-0.1447848,0.8328137,14
13.48,-18.65286,1.747079,-27.83952,0.0361139714805789,-0.0393095716770183,1.5567150707126165,20.43284,66.98132,183.8174,0.5378242,-0.1659251,0.8235576,14
13.5,-18.86413,1.185642,-27.8395,0.0473956804624249,0.0024607052364543,1.5108583779616986,16.92496,60.67382,183.838,0.4950513,-0.1436692,0.855684,14
13.52,-18.77191,1.369536,-27.7884,0.0318583200444781,-0.0364103210152309,1.4520393421460769,20.00457,61.99233,184.0564,0.5015666,-0.1667407,0.84681,14
13.54,-18.68005,1.550707,-27.73882,0.0148905541645136,-0.0722648762880056,1.39106968064534,23.07794,63.35055,184.3563,0.5076497,-0.189668,0.8372272,14
13.56,-18.58869,1.729211,-27.69082,0.0272006241206823,-0.0249288049881271,1.3410954950485667,26.1441,64.75976,184.746,0.5132967,-0.2124448,0.8269415,14
13.58,-18.79724,1.146223,-27.68336,0.0385003126274767,0.0214316117502913,1.289399710392995,24.27353,53.88924,184.03,0.4361371,-0.2028834,0.8743309,14
13.6,-18.70959,1.338264,-27.62279,0.0142791278019647,-0.0435111767604276,1.2219212098302237,27.44854,55.15581,184.081,0.4419636,-0.2261738,0.8644399,14
13.62,-18.62178,1.527497,-27.56346,-0.0104771068163702,-0.106356856731054,1.1539944951141945,30.6216,56.46434,184.2157,0.4473907,-0.2492664,0.8537874,14
13.64,-18.70937,1.124957,-27.52921,0.0042335955502568,-0.0563186067609967,1.0973989694850887,31.88457,48.04277,183.5417,0.3834814,-0.2628567,0.8812993,14
13.66,-18.6246,1.322261,-27.46207,0.0027940169835933,-0.0902701939813966,1.034331109586574,35.13337,49.19117,183.3747,0.3885486,-0.2859963,0.8701888,14
13.68,-18.53937,1.516658,-27.39598,0.0027468877703853,-0.1215329949045522,0.9709462245532589,38.38364,50.37593,183.2834,0.3932491,-0.3088679,0.8582817,14
13.7,-18.45384,1.708171,-27.33104,0.0036587168173527,-0.1535633946606897,0.9070416082206458,41.63382,51.61034,183.2776,0.3975793,-0.3314496,0.8455902,14
13.72,-18.5495,1.115554,-27.33654,0.0409566604894968,-0.0732415290360894,0.8548830645535737,41.80677,45.60951,182.3728,0.3551944,-0.3363296,0.8638381,14
13.74,-18.46491,1.315361,-27.26547,0.0721697532436604,-0.1064226192467677,0.7967534174940822,45.13997,46.63494,182.0674,0.3590918,-0.3590006,0.8505954,14
13.76,-18.37971,1.51213,-27.19535,0.1053913840874876,-0.1373940834120329,0.7380237601194115,48.47572,47.69793,181.8323,0.3626348,-0.3813196,0.8365379,14
13.78,-18.38929,1.112915,-27.1383,0.1587018519132326,-0.080381708331005,0.687665347636238,48.05897,43.11639,179.552,0.3370797,-0.3774056,0.8488522,14
13.8,-18.30718,1.313125,-27.06536,0.2140944996874318,-0.0243545683811443,0.6371185425273942,51.37172,44.01587,179.1163,0.340794,-0.399237,0.8342392,14
13.82,-18.22441,1.510333,-26.99334,0.2763999004159614,-0.0846707234975124,0.5784278153735833,54.68761,44.94247,178.7358,0.3441747,-0.4206814,0.8188349,14
13.84,-18.11791,1.102134,-26.8443,0.3484371983775927,-0.055181473944344,0.52139153607461,59.67043,38.88134,174.1005,0.3124766,-0.4536639,0.8083984,14
13.86,-18.03621,1.295564,-26.77408,0.4212099939324301,-0.0250575046656343,0.4629662823556026,62.91557,39.17191,173.0318,0.3153027,-0.4733883,0.7915519,14
13.88,-17.95421,1.486126,-26.70503,0.5088295437229073,-0.0745470641013032,0.4062697943172786,66.16155,39.34901,171.8694,0.317828,-0.4926639,0.7739729,14
13.9,-17.87206,1.673854,-26.63725,0.5955696757601028,-0.125580877534048,0.3482297613020053,69.40754,39.36453,170.5626,0.3200495,-0.5114753,0.755677,14
13.92,-17.79367,1.12874,-26.49726,0.6839145168118623,-0.0632230118217193,0.2882880786699835,60.96679,29.79919,166.7694,0.2765857,-0.4614415,0.8122302,14
13.94,-17.71073,1.312641,-26.42875,0.7823871002209817,-0.069744358416687,0.2347826341792007,64.05337,29.12393,164.6299,0.2798848,-0.4801629,0.795366,14
13.96,-17.62792,1.493702,-26.3618,0.8782073858474757,-0.0768748040426321,0.1803521814252051,67.12397,28.06753,162.1286,0.2829217,-0.4984426,0.7777829,14
13.98,-17.52113,1.195422,-26.19617,0.9639460593721654,-0.0089314803270492,0.1209032685155899,48.3137,35.44175,173.1906,0.3003855,-0.3726365,0.860203,14
14.0,-17.4365,1.371591,-26.12627,1.0456866908881868,0.056665954630611,0.0606745106312551,51.46569,36.00254,172.3294,0.3053866,-0.3933767,0.8458389,14
14.02,-17.35228,1.544823,-26.05832,1.1172349450853714,0.0274376660678881,0.0001848371636037,54.62183,36.52306,171.4563,0.3101073,-0.413761,0.8307264,14
14.04,-17.24721,1.250078,-25.94169,1.1800423006353191,0.0675314249297826,-0.0627906422804263,26.21987,42.37614,176.0468,0.3590954,-0.1992197,0.9047297,14
14.06,-17.151,1.418565,-25.86442,1.2375453313495506,0.1063002817983383,-0.1254533117455594,29.7491,43.48549,175.8193,0.3664854,-0.225223,0.8936648,14
14.08,-17.05559,1.583346,-25.78966,1.280595407059586,0.0737302800523027,-0.1829577132422502,33.2819,44.61942,175.6645,0.373475,-0.2509897,0.8816522,14
14.1,-16.9612,1.744567,-25.71757,1.318517531367963,0.0388866398915992,-0.2385374222696934,36.8171,45.79035,175.5901,0.3800577,-0.2764944,0.8687045,14
14.12,-16.99274,1.271788,-25.69579,1.366202275570524,0.0953929985228959,-0.2868515560817273,2.385889,49.33256,178.0033,0.4175083,-0.01164692,0.9082679,14
14.14,-16.89289,1.438057,-25.62004,1.4060451033712618,0.1481780598388496,-0.3326609851114464,5.94545,50.55457,178.1513,0.4271259,-0.04000975,0.9025605,14
14.16,-16.79403,1.600519,-25.54694,1.4246480481888828,0.1064417556259044,-0.3635721124891935,9.50002,51.79502,178.3774,0.4362738,-0.06832182,0.8958853,14
14.18,-16.73553,1.291416,-25.53663,1.4506996199365685,0.135580916600825,-0.3924187130259011,352.2183,52.46157,179.0906,0.4404723,0.06436579,0.8951634,14
14.2,-16.63339,1.453342,-25.46062,1.4688574340046534,0.1619884760032544,-0.4172758646462786,355.7964,53.63324,179.4351,0.4506661,0.03495358,0.8919254,14
14.22,-16.53247,1.611357,-25.38748,1.4600861331166972,0.1112687400090925,-0.4347701574793317,359.3655,54.82209,179.8515,0.4603571,0.00551168,0.8877157,14
14.24,-16.43299,1.765646,-25.31734,1.4521251531237644,0.1318472771889108,-0.4535904321395843,2.924172,56.03712,180.3423,0.4695353,-0.02392756,0.88254,14
14.26,-16.45046,1.261951,-25.3965,1.4360365222732272,0.150433023056474,-0.4686970190404111,355.7423,54.50741,180.638,0.4577922,0.03047459,0.8882656,14
14.28,-16.35009,1.425537,-25.32321,1.4113855046300687,0.1639422377986233,-0.4797952505083569,359.2815,55.69159,181.067,0.4671157,0.001194868,0.8841249,14
14.3,-16.25089,1.585394,-25.25265,1.3454275830240563,0.0768954385156088,-0.4911623352465364,2.809894,56.90236,181.5694,0.4759267,-0.02807768,0.8790366,14
14.32,-16.2468,1.240491,-25.28709,1.305845059951647,0.0923302165165383,-0.4994240049315253,3.983821,55.98174,182.1268,0.468397,-0.03939231,0.8826398,14
14.34,-16.1442,1.406543,-25.21474,1.2597872922673783,0.1063057670698801,-0.5030018652875294,7.594119,57.22538,182.5671,0.4764131,-0.06882433,0.8764406,14
14.36,-16.04273,1.568772,-25.14499,1.1775184254606277,0.0435271709635539,-0.504224402732607,11.19359,58.50893,183.0908,0.483888,-0.098174,0.8692685,14
14.38,-15.94264,1.727353,-25.07797,1.117366708118686,0.0598684657155295,-0.5052090297504033,14.77931,59.84387,183.7051,0.4908145,-0.1274062,0.8611323,14
14.4,-16.06257,1.217251,-25.16901,1.052406908883471,0.0756391058006707,-0.5020384040070862,11.89,57.16395,183.4228,0.4729142,-0.1051222,0.8745012,14
14.42,-15.96022,1.389369,-25.09861,0.9531328872494308,0.0112686425978659,-0.4991744471374035,15.49489,58.45972,183.8507,0.4796317,-0.1338315,0.8664256,14
14.44,-15.85876,1.557726,-25.03049,0.8804500167350597,0.0282355687022421,-0.492653593167367,19.08823,59.80827,184.373,0.485808,-0.1623844,0.8573935,14
14.46,-15.94987,1.183049,-25.06025,0.8036503430497968,0.0457244185866599,-0.4824051996815561,17.40858,56.87608,183.9644,0.4658388,-0.1492762,0.8711777,14
14.48,-15.85057,1.363425,-24.99122,0.7222236515514082,0.0606023022630905,-0.4684171112667665,20.97201,58.18496,184.3234,0.4717616,-0.1769548,0.8619689,14
14.5,-15.75174,1.540212,-24.92406,0.6360616769872864,0.0544720749342478,-0.4498633569764614,24.52548,59.55161,184.7809,0.4771653,-0.2044337,0.8518328,14
14.52,-15.8292,1.152963,-24.92829,0.541397204257885,0.0372610098243091,-0.437186595011291,23.0707,54.39102,184.0988,0.44115,-0.193766,0.8741978,14
14.54,-15.7336,1.341519,-24.85966,0.4458332832169773,0.0237756717131127,-0.4194824362459206,26.58859,55.65149,184.273,0.4463779,-0.2201581,0.8640754,14
14.56,-15.63804,1.526655,-24.79251,0.3489706623460791,0.0106984970053507,-0.3968237017831084,30.10072,56.9654,184.5422,0.4511289,-0.2463087,0.8530518,14
14.58,-15.54271,1.708438,-24.72696,0.2241525446119705,-0.0875845978375443,-0.377279282178363,33.60523,58.34877,184.9181,0.4553985,-0.2721931,0.8411391,14
14.6,-15.68754,1.128609,-24.76092,0.1428691512811777,-0.0708603616503616,-0.345532504416671,30.04784,51.31588,183.7662,0.4102925,-0.2472777,0.8738016,14
14.62,-15.59539,1.323989,-24.69233,0.0629560297576974,-0.0524816282601764,-0.3094446334936411,33.51135,52.47389,183.7198,0.4146991,-0.2721921,0.8625746,14
14.64,-15.50294,1.516095,-24.6249,-0.0304925392568311,-0.1192335133001943,-0.273404213060993,36.97395,53.67775,183.7588,0.4186754,-0.2968225,0.8504742,14
14.66,-15.53389,1.117053,-24.59731,-0.0967045670844253,-0.0958281930708557,-0.2289694757551652,39.63599,48.72253,182.7221,0.3806133,-0.3179772,0.8600905,14
14.68,-15.44425,1.316086,-24.52901,-0.160252236814284,-0.0709047725163485,-0.1811752617249937,43.0409,49.72897,182.4611,0.3839231,-0.3411531,0.8471714,14
14.7,-15.35412,1.51196,-24.46169,-0.2214384605194599,-0.0478423008208638,-0.1302575031872925,46.44782,50.77283,182.2709,0.3868453,-0.3639854,0.8334195,14
14.72,-15.26365,1.704695,-24.39549,-0.2998506386876212,-0.1406582261598301,-0.0855655642618469,49.85566,51.86969,182.1639,0.3893773,-0.3864517,0.8188488,14
14.74,-15.22993,1.112597,-24.36854,-0.3487686407105717,-0.1162854202898656,-0.0266418794890332,48.08988,52.44968,179.7166,0.4044526,-0.3645136,0.8187773,14
14.76,-15.13855,1.312461,-24.30648,-0.3938477965416291,-0.0905957000614164,0.035285456876823,51.43465,53.42659,179.4583,0.4068268,-0.3856978,0.8038541,14
14.78,-15.04669,1.509288,-24.24539,-0.433604934162902,-0.1520979893537399,0.1097972912698193,54.78089,54.4553,179.2778,0.4088046,-0.4065078,0.7881678,14
14.8,-14.95452,1.703095,-24.18536,-0.4562667683074846,-0.1245881920290613,0.1880226592092411,58.12759,55.55764,179.1944,0.4103844,-0.426924,0.771734,14
14.82,-14.82415,1.101755,-24.18178,-0.4749700047076706,-0.0965818136927684,0.2672960245811868,59.68748,54.05213,174.3534,0.4154929,-0.4233429,0.7605916,14
14.84,-14.7291,1.29482,-24.13149,-0.4900090617258947,-0.0713795119948661,0.3473284615770255,62.95351,54.54382,173.5811,0.4161596,-0.4415045,0.7434669,14
14.86,-14.63404,1.485032,-24.08238,-0.4973284470053802,-0.0629066283844035,0.4375876165616077,66.22105,54.98515,172.7765,0.4164302,-0.4592466,0.7256656,14
14.88,-14.43536,1.128587,-24.01487,-0.5018823841238389,-0.0527061918073355,0.5266997042409765,60.98237,45.48691,166.8604,0.3844933,-0.4267639,0.7670428,14
14.9,-14.33794,1.312365,-23.96976,-0.5039585985985233,-0.0439931803577054,0.614386496049792,64.08427,44.84392,164.8224,0.385254,-0.44344,0.7499877,14
14.92,-14.24107,1.493315,-23.92608,-0.4986077776797752,-0.10623363838409,0.7154869618930384,67.17159,43.83509,162.437,0.3856611,-0.459713,0.7322633,14
14.94,-14.05984,1.195341,-23.82763,-0.4904745648725184,-0.0626534991879879,0.8039937943009923,48.32791,50.75127,173.1954,0.4122609,-0.3459976,0.8124855,14
14.96,-13.96018,1.371502,-23.78209,-0.4805168312350667,-0.0198014373684418,0.8894878628397809,51.4809,51.2592,172.34,0.4149146,-0.3646641,0.7977812,14
14.98,-13.86143,1.544734,-23.73826,-0.4690502619625041,0.0192943511938533,0.9716827536595312,54.63758,51.72347,171.4682,0.4171959,-0.3830054,0.78238,14
15.0,-13.76377,1.715134,-23.69621,-0.4689255490343387,0.0337673582604094,1.033237946585992,57.79706,52.13731,170.5706,0.4191051,-0.4010058,0.7662967,14
15.02,-13.70691,1.250106,-23.65262,-0.4663566685026867,0.0488973964212773,1.0914051222413257,26.2396,55.82303,176.0117,0.4625924,-0.1845975,0.8563871,14
15.04,-13.59521,1.418669,-23.6004,-0.4617419885881038,0.0616285578869401,1.145809400761665,29.76621,56.85583,175.7453,0.4681496,-0.208642,0.8447893,14
15.06,-13.48491,1.583528,-23.55035,-0.4679020646185559,0.0716820525853535,1.1904467028699366,33.29684,57.9078,175.545,0.4732056,-0.2324719,0.8323056,14
15.08,-13.43809,1.271904,-23.47087,-0.473784132265648,0.0825817781375767,1.2293240192138013,2.410156,59.73195,177.9371,0.4981103,-0.009273085,0.866672,14
15.1,-13.32541,1.438298,-23.41592,-0.4798751902578182,0.0914576925137092,1.2620575598436905,5.972162,60.8923,178.0177,0.5067415,-0.03614973,0.8603499,14
15.12,-13.21423,1.600879,-23.36329,-0.4925414794452918,0.0294726240182824,1.2951597124347307,9.530758,62.06643,178.1719,0.514823,-0.06298015,0.8531148,14
15.14,-13.10478,1.75981,-23.31308,-0.4868218212430324,0.0594394203266946,1.3297304861882728,13.08442,63.26385,178.4027,0.5223469,-0.08973614,0.8449755,14
15.16,-13.08851,1.293927,-23.17918,-0.481932718397875,0.0876653148179164,1.3573594172709478,352.8217,60.48873,179.2324,0.5023275,0.05744677,0.8623825,14
15.18,-12.97623,1.455418,-23.11935,-0.4783941386689858,0.1114244338194803,1.377666714134275,356.3972,61.61105,179.5256,0.5117564,0.02911875,0.8585454,14
15.2,-12.86562,1.612998,-23.06212,-0.4708318533142328,0.1831755730681869,1.3993253899961564,359.9653,62.74826,179.8879,0.5206236,0.0007673567,0.8537857,14
15.22,-12.88866,1.262136,-22.98436,-0.4976435220311104,0.1500009947594123,1.3983546378667082,355.7388,59.95163,180.5678,0.4994425,0.02973024,0.865535,14
15.24,-12.78098,1.425889,-22.92252,-0.5254065939408143,0.1175603785961381,1.3912307278743032,359.2804,61.08245,180.9264,0.5081754,0.001300287,0.861193,14
15.26,-12.67478,1.585913,-22.86319,-0.554558849486203,0.0830664816621841,1.3776860387394536,2.813172,62.23556,181.3552,0.5163587,-0.02712317,0.855939,14
15.28,-12.57029,1.742382,-22.80645,-0.5889123208984628,0.0714769390700034,1.3726450309265137,6.335463,63.41974,181.8572,0.5239844,-0.05550956,0.8497801,14
15.3,-12.69432,1.240609,-22.78311,-0.623359264593407,0.0619118181661371,1.362596551492607,3.985264,59.44221,182.0697,0.4948527,-0.03914034,0.8680937,14
15.32,-12.58682,1.406774,-22.71831,-0.6583715524584166,0.0515245348632774,1.347250606275542,7.600894,60.6224,182.4493,0.5022486,-0.06797066,0.8619168,14
15.34,-12.48067,1.569111,-22.65595,-0.7043470943587111,0.0393838220769797,1.3310419908394715,11.20745,61.83826,182.909,0.509081,-0.09672447,0.8547921,14
15.36,-12.58381,1.217424,-22.6147,-0.7504044301608384,0.0303428336263352,1.3105458292872867,11.89301,57.54712,183.3471,0.4759029,-0.1047517,0.872897,14
15.38,-12.4798,1.38969,-22.54672,-0.7969952252197949,0.021501216997509,1.285537443525802,15.5062,58.7678,183.6942,0.4821321,-0.1331589,0.8650714,14
15.4,-12.37676,1.55819,-22.48095,-0.8445495958482001,0.0100175410456776,1.2558329576574274,19.1102,60.03463,184.1294,0.4878227,-0.1614118,0.8562992,14
15.42,-12.4827,1.183202,-22.45091,-0.895131866353962,-0.0072042079424719,1.2229825801010836,17.40994,55.298,183.9031,0.4538767,-0.149607,0.8774871,14
15.44,-12.3844,1.363719,-22.38058,-0.9443797871768824,-0.0206038480778162,1.1876363915701875,20.97855,56.529,184.1949,0.4594487,-0.1772799,0.8686274,14
15.46,-12.28656,1.540649,-22.31206,-0.9927147233832632,-0.0331901610209332,1.1496289351991984,24.5392,57.81132,184.5785,0.46452,-0.2047549,0.8588415,14
15.48,-12.18941,1.714094,-22.24549,-1.0118227598865177,0.0330054735339569,1.1231493400666004,28.08941,59.15971,185.0647,0.4690871,-0.2320027,0.8481405,14
15.5,-12.09314,1.777508,-22.18097,-1.0632463404798729,-0.009347589385127,1.0748202947120196,31.62698,60.59092,185.6662,0.4731443,-0.2589948,0.8365372,14
15.52,-12.34184,1.145502,-22.22909,-1.1119562105245808,-0.0480827898612023,1.0256300107493086,24.60839,50.05781,184.0445,0.4062862,-0.2075567,0.8879117,14
15.54,-12.25075,1.336188,-22.15561,-1.131939183607742,-0.0022882344205068,0.9858865920898888,28.12379,51.21701,184.1118,0.4111377,-0.2340025,0.8779502,14
15.56,-12.15955,1.523485,-22.08346,-1.1671744809810063,-0.039634927056646,0.93487331914638,31.63576,52.42188,184.2656,0.4155566,-0.2601976,0.8670833,14
15.58,-12.25415,1.124902,-22.06947,-1.198426717284028,-0.0735429347906025,0.8835422688511363,32.07986,44.45174,183.5249,0.3554943,-0.2668373,0.8924556,14
15.6,-12.16917,1.321792,-21.99317,-1.2260038336478885,-0.1073097113254804,0.8317829664217284,35.52806,45.47234,183.3357,0.3597152,-0.291983,0.8813804,14
15.62,-12.08373,1.515443,-21.91789,-1.223904462117356,-0.113834617842402,0.7894111093045328,38.97756,46.52503,183.2166,0.3635679,-0.3168294,0.8694265,14
15.64,-12.101,1.115587,-21.87357,-1.2161564010462704,-0.1162953979581063,0.7468730910823713,41.85504,42.22092,182.3668,0.3294545,-0.3400917,0.8738191,14
15.66,-12.01957,1.315334,-21.7967,-1.2030703094845452,-0.1180596895214721,0.7040296239829247,45.24498,43.12148,182.0448,0.3327755,-0.3637381,0.8608571,14
15.68,-11.93754,1.511962,-21.72069,-1.166430496531246,-0.0342472387732548,0.666544892357309,48.63719,44.05108,181.7823,0.3357655,-0.3870238,0.8470621,14
15.7,-11.85506,1.705485,-21.64566,-1.136802384491029,-0.0643118987515325,0.6203855017180508,52.03099,45.02316,181.5899,0.3384214,-0.4099273,0.8324484,14
15.72,-11.90866,1.1129,-21.63632,-1.1009046377489191,-0.0920205597661208,0.5740504804374811,48.0705,40.44875,179.5662,0.3171683,-0.380989,0.8564478,14
15.74,-11.83002,1.313084,-21.55937,-1.059042820841925,-0.1207743729829653,0.527427676238136,51.39989,41.23589,179.1327,0.3203635,-0.403469,0.842183,14
15.76,-11.75077,1.510255,-21.48322,-1.0029880940671596,-0.036652845324773,0.4861255854350976,54.73188,42.0417,178.7437,0.3232493,-0.4255625,0.8271289,14
15.78,-11.65849,1.10215,-21.3383,-0.934914028893651,-0.0655489799410898,0.461284310902164,59.66259,35.76021,174.0941,0.2903784,-0.4590722,0.8166308,14
15.8,-11.58079,1.295615,-21.26394,-0.8619573118627448,-0.0937127157892625,0.4354767564174002,62.91,35.90938,172.9937,0.2928069,-0.4794203,0.8001617,14
15.82,-11.5028,1.486219,-21.19065,-0.7845051841256976,-0.124460355601787,0.4086382253341041,66.15699,35.92309,171.7759,0.2949619,-0.4993224,0.7829655,14
15.84,-11.42464,1.674001,-21.11855,-0.7017854058086455,-0.1135057427218799,0.4069072398426372,69.40229,35.74199,170.3792,0.2968403,-0.5187619,0.7650582,14
15.86,-11.291,1.144177,-20.89604,-0.6163219134285771,-0.101202685774267,0.4052167429802638,58.40382,26.26194,167.7972,0.2476826,-0.451363,0.8334861,14
15.88,-11.2123,1.325905,-20.8221,-0.5285463887316391,-0.0907449724415407,0.4035919357251227,61.49151,25.68991,165.8544,0.2509849,-0.471117,0.8175665,14
15.9,-11.13377,1.504774,-20.74976,-0.4544553361369408,-0.0036882838200772,0.3991361089316787,64.5659,24.81032,163.6238,0.2540569,-0.4904472,0.8009244,14
15.92,-11.01851,1.211821,-20.57236,-0.3840849197977776,-0.0094396026412811,0.3979487431933726,43.09749,33.46033,173.9796,0.2858467,-0.3371999,0.8839537,14
15.94,-10.93632,1.385793,-20.49465,-0.3126974139997909,-0.0154369953274363,0.3987501951261234,46.35145,34.09149,173.3038,0.2909945,-0.3598836,0.8706805,14
15.96,-10.85456,1.556645,-20.41897,-0.253525548983488,0.0466295387674347,0.3931356022561942,49.60951,34.70356,172.6395,0.2958682,-0.3822322,0.8566149,14
15.98,-10.7734,1.724481,-20.34543,-0.2007751655499712,0.0398857252370251,0.3889964459076558,52.87169,35.29772,171.985,0.300465,-0.4042309,0.8417682,14
16.0,-10.75597,1.257101,-20.28853,-0.1484713252001945,0.0326785899032736,0.387324817865315,20.08934,40.15141,176.6075,0.3427011,-0.1537414,0.9226659,14
16.02,-10.66513,1.4251,-20.20472,-0.0971510424866211,0.0219359022992775,0.388124708819582,23.62598,41.20433,176.4742,0.3501566,-0.1809392,0.9135721,14
16.04,-10.57501,1.589367,-20.1234,-0.0414095684534319,0.0995633927753399,0.3909225142996972,27.16535,42.27811,176.4098,0.3572361,-0.2079563,0.9035242,14
16.06,-10.551,1.275644,-20.03095,-0.0001445800185599,0.0841843859140609,0.397194405909175,358.4254,44.78672,178.2047,0.3806815,0.01867118,0.9244716,14
16.08,-10.45842,1.44116,-19.94629,0.0377110309280075,0.0684434565955409,0.4054618363072562,1.987697,45.88655,178.3688,0.3899489,-0.01042311,0.9205632,14
16.1,-10.36669,1.602858,-19.86427,0.0808188849458451,0.1204118540635031,0.410977206804902,5.54522,47.00002,178.6021,0.398794,-0.03949834,0.9156831,14
16.12,-10.31773,1.293782,-19.7366,0.1101526330265278,0.1011780356788072,0.4187975453778478,352.822,46.33112,179.2836,0.3922504,0.0600057,0.9177049,14
16.14,-10.22511,1.455138,-19.64956,0.1345851611451214,0.081569202665293,0.4281546389969706,356.3982,47.39514,179.6233,0.4016137,0.03009693,0.915264,14
16.16,-10.13346,1.612588,-19.56541,0.1535047239751861,0.0587595412022887,0.439052881876651,359.9665,48.47712,180.0286,0.410537,0.0001640944,0.9118441,14
16.18,-10.04301,1.766319,-19.48431,0.1800084427365361,0.1231970198159423,0.4386095023016754,3.525424,49.58531,180.5018,0.419011,-0.02976039,0.9074495,14
16.2,-9.953968,1.809869,-19.4064,0.1752316621458508,0.0900435349357575,0.4216709220929839,7.073337,50.72834,181.0468,0.4270273,-0.0596444,0.9020863,14
16.22,-10.08943,1.254651,-19.43044,0.1649629540928501,0.0577699314760391,0.4058686142779533,357.4124,47.0449,181.173,0.3991977,0.01661719,0.91653,14
16.24,-9.999726,1.41889,-19.3451,0.1683636343950264,0.099297856370187,0.3877479783993851,0.9611744,48.12989,181.5596,0.4076156,-0.0132076,0.9130139,14
16.26,-9.910897,1.579417,-19.26246,0.1660891501219181,0.1386192450481749,0.3691495897198389,4.500847,49.24096,182.0146,0.4155927,-0.04301008,0.9085335,14
16.28,-9.969522,1.237731,-19.23067,0.1289834235583877,0.0796761739849285,0.3372875711364789,6.150329,46.92136,182.6083,0.3963234,-0.05824658,0.9162616,14
16.3,-9.879475,1.404748,-19.14305,0.0871281607905157,0.0216554520383749,0.3074959069329024,9.776676,48.06368,183.0058,0.4035822,-0.08844294,0.9105945,14
16.32,-9.790195,1.567933,-19.05802,0.0739787667534497,0.059881940678101,0.2844433201208178,13.39326,49.24558,183.4824,0.4103878,-0.1185331,0.9039279,14
16.34,-9.871696,1.208668,-19.05103,0.0314971141621431,0.0210218441030516,0.2473062377660806,13.43749,46.90807,183.571,0.3917438,-0.1195934,0.9120882,14
16.36,-9.784147,1.382901,-18.96418,-0.0150944921429977,-0.0148187887323633,0.2122993478709176,17.03901,48.09275,183.9541,0.3980725,-0.1491113,0.9046842,14
16.38,-9.697062,1.553418,-18.87951,-0.0351713389767484,0.0259780240442893,0.182284570836368,20.63086,49.32764,184.4247,0.4039606,-0.1784584,0.8963015,14
16.4,-9.610634,1.72035,-18.79718,-0.0587612945171489,0.0659033305383888,0.1531314059482005,24.21088,50.62587,184.9919,0.4094021,-0.2076021,0.8869508,14
16.42,-9.768555,1.1757,-18.87009,-0.1200638004959104,-6.482001974367213e-06,0.1008934759872888,18.73235,46.04733,184.0891,0.3803079,-0.1634519,0.9097667,14
16.44,-9.684368,1.358146,-18.78475,-0.1530519860649013,0.0178289910370484,0.0569347634398074,22.28655,47.23334,184.3926,0.385988,-0.19201,0.9012791,14
16.46,-9.600295,1.537058,-18.70112,-0.1872118437982657,0.0372475839528787,0.0152607990702091,25.83291,48.47239,184.7861,0.3912527,-0.2203572,0.8918446,14
16.48,-9.516515,1.712531,-18.61937,-0.223115835139717,0.055193750328512,-0.0241649253411837,29.36906,49.77874,185.2799,0.3960969,-0.2484604,0.881475,14
16.5,-9.67427,1.139013,-18.67352,-0.292968952461756,-0.0384996017879692,-0.0815588897519339,26.3047,41.37479,183.9973,0.3363691,-0.2247375,0.913231,14
16.52,-9.59579,1.331364,-18.58793,-0.3643148102057265,-0.1140528554000252,-0.1345918144036391,29.80513,42.46828,184.0359,0.3413399,-0.2518916,0.9034777,14
16.54,-9.516981,1.520376,-18.50351,-0.3859583264134503,-0.069921208797329,-0.1665557480899762,33.30277,43.60549,184.1562,0.345956,-0.2787789,0.892808,14
16.56,-9.573198,1.121748,-18.4912,-0.4215115415579229,-0.1092421926661346,-0.204843868735304,34.715,37.55828,183.2867,0.2990349,-0.291147,0.9060351,14
16.58,-9.498442,1.319368,-18.40575,-0.4558924966437367,-0.1451755052149778,-0.2387122081677952,38.15019,38.50742,183.0798,0.3032418,-0.3167915,0.8948038,14
16.6,-9.423125,1.513784,-18.32118,-0.4616714207097785,-0.093652111870504,-0.259637712482933,41.58673,39.48768,182.9383,0.307142,-0.3421165,0.8826938,14
16.62,-9.415706,1.114943,-18.27135,-0.4727895492559276,-0.1261906856022354,-0.2810214762162499,43.27872,36.96928,181.7864,0.2892181,-0.3542897,0.8832837,14
16.64,-9.342788,1.314913,-18.18717,-0.4814267385316838,-0.1559839640734293,-0.2981908764800989,46.65668,37.83192,181.4948,0.2927677,-0.3784649,0.8702614,14
16.66,-9.269224,1.511797,-18.10374,-0.472537443776976,-0.0978667989303004,-0.3066956964081497,50.03646,38.72596,181.2623,0.29603,-0.4022712,0.8564104,14
16.68,-9.195149,1.70561,-18.02119,-0.4604103336930648,-0.0403926332099023,-0.3113525852837988,53.41729,39.66539,181.1003,0.2990019,-0.4256861,0.841745,14
16.7,-9.214367,1.109887,-17.99594,-0.4454956573596407,-0.0019354294655397,-0.3122610824727803,50.67646,35.69505,178.7879,0.2812936,-0.404413,0.858867,14
16.72,-9.142353,1.309017,-17.9138,-0.4354420357781943,-0.0935672398767372,-0.3105038422142141,53.99166,36.37918,178.3075,0.2844878,-0.4270874,0.8443283,14
16.74,-9.069744,1.505181,-17.83243,-0.402695804358941,-0.0686497762286008,-0.2953939440170838,57.30917,37.07137,177.858,0.287411,-0.4493594,0.8290111,14
16.76,-8.996673,1.698396,-17.75196,-0.3662867934692851,-0.0430276478250108,-0.2766802048533439,60.62859,37.77953,177.4447,0.290061,-0.4712089,0.8129302,14
16.78,-8.878807,1.108948,-17.55687,-0.3199666660824711,-0.0970269598635847,-0.2403441974662126,62.65575,25.70577,167.9246,0.2422806,-0.4841091,0.8160186,14
16.8,-8.805696,1.297349,-17.47853,-0.2730531298116653,-0.0620294366104027,-0.2116371245887642,65.80836,24.93036,165.887,0.2450097,-0.5041501,0.7991751,14
16.82,-8.732462,1.482923,-17.40144,-0.2238750646607843,-0.026701433735871,-0.1807911727748565,68.94427,23.73436,163.4448,0.2475127,-0.5237301,0.7816193,14
16.84,-8.610644,1.161449,-17.19918,-0.1728845979385133,0.0057912549390506,-0.1478542740021746,55.80733,23.72413,168.7982,0.2254898,-0.4380766,0.8513461,14
16.86,-8.536257,1.340983,-17.12054,-0.1154384606063375,-0.0575497347281632,-0.098857483689245,58.90072,23.36759,167.1199,0.2292342,-0.4586647,0.8361908,14
16.88,-8.462048,1.517648,-17.04358,-0.064884742813097,-0.0171334819949516,-0.0701024822610758,61.98576,22.78231,165.2338,0.2327716,-0.4788464,0.8203093,14
16.9,-8.388156,1.69153,-16.9684,-0.013949279078267,0.0229806360701987,-0.0408954182080147,65.05759,21.89078,163.06,0.2361016,-0.4986037,0.803717,14
16.92,-8.341883,1.228454,-16.87365,0.03804591907089,-0.0063638556034128,-0.0077489362268807,37.86436,32.53735,174.7706,0.2789197,-0.2990447,0.9029364,14
16.94,-8.261151,1.400169,-16.78951,0.0853778470952096,0.0327678337505604,0.0112693745133845,41.21875,33.27094,174.2693,0.2844846,-0.3234454,0.8906675,14
16.96,-8.180881,1.568572,-16.70753,0.1320749305671187,0.0709225549051427,0.029785820389812,44.57687,34.0034,173.8002,0.2897712,-0.3475325,0.877556,14
16.98,-8.137305,1.263495,-16.62346,0.1775330159815891,0.1051744223820111,0.0476334101173745,13.94564,38.64955,177.1938,0.3311815,-0.1064812,0.935414,14
17.0,-8.050718,1.431039,-16.53493,0.2050592053795007,0.043306642143107,0.0565752774622849,17.48625,39.68649,177.1464,0.3389596,-0.1345813,0.9281216,14
17.02,-7.964785,1.594842,-16.44889,0.241592459361658,0.073690200344732,0.068706622235809,21.02736,40.74184,177.1665,0.346377,-0.1625439,0.919868,14
17.04,-7.879707,1.755069,-16.36551,0.275981186783793,0.103114679228941,0.0796807584843679,24.56647,41.82526,177.2586,0.3534267,-0.1903303,0.9106641,14
17.06,-7.86849,1.285335,-16.26359,0.3075382198143335,0.1288027963273451,0.08932912537702,353.312,43.38615,178.7321,0.3683829,0.05827931,0.9277771,14
17.08,-7.779887,1.448768,-16.17389,0.3331799413251323,0.1316342867293839,0.0965631014873493,356.8777,44.40973,178.9896,0.3775421,0.0285538,0.9255499,14
17.1,-7.692117,1.608349,-16.08693,0.3560407621873389,0.1349115493214335,0.1026230084489097,0.4371191,45.44677,179.3102,0.386294,-0.001193165,0.9223484,14
17.12,-7.667775,1.282828,-15.98899,0.375428547881944,0.135836304675325,0.107299052295426,353.7754,44.47961,179.7824,0.3778297,0.05097192,0.9242802,14
17.14,-7.580728,1.444743,-15.89859,0.3789757974669776,0.1293385040957229,0.0946082338132261,357.3261,45.49231,180.166,0.3865747,0.02095757,0.9219621,14
17.16,-7.494539,1.602847,-15.81102,0.3788671286046459,0.1245986088611979,0.079705711008112,0.8684086,46.52671,180.6117,0.394904,-0.009070427,0.9186758,14
17.18,-7.409409,1.75732,-15.72643,0.3744527515301524,0.1188553890509237,0.0624300391233672,4.400963,47.59059,181.1226,0.4028092,-0.03908015,0.9144263,14
17.2,-7.497999,1.250394,-15.75256,0.3651056108194945,0.1094095307586407,0.0426666987116337,359.3825,45.37358,181.4062,0.3857197,0.0002385485,0.9225188,14
17.22,-7.411122,1.415008,-15.66359,0.3218812655694213,0.0173657645887623,0.0042539473850913,2.956211,46.41994,181.8004,0.3935496,-0.02989397,0.9188073,14
17.24,-7.325051,1.57587,-15.57729,0.3085616266951946,0.0305288792154718,-0.0191895831472812,6.52129,47.49534,182.2617,0.4009517,-0.05998715,0.9141201,14
17.26,-7.239988,1.733153,-15.4938,0.2925491556593848,0.0438143765259109,-0.0437062683966458,10.07594,48.60857,182.7949,0.4079187,-0.090008,0.9084631,14
17.28,-7.357665,1.22624,-15.50353,0.2731869566467809,0.0544529540615625,-0.0694712746517234,10.31852,45.18073,183.1992,0.3801171,-0.09367239,0.9201403,14
17.3,-7.271505,1.396408,-15.41342,0.2364008698998965,0.0378642621255519,-0.1088731705809045,13.93647,46.29556,183.583,0.3865224,-0.1236962,0.9137471,14
17.32,-7.185941,1.562787,-15.3257,0.1981115858886712,0.0247947861602484,-0.148384719679854,17.54523,47.4547,184.0472,0.3924993,-0.1535768,0.9063637,14
17.34,-7.27427,1.190899,-15.34353,0.1577288651494238,0.0123254664984138,-0.1881538782062204,16.07603,45.49701,183.81,0.3783896,-0.1416097,0.9144437,14
17.36,-7.190874,1.369291,-15.25531,0.1138340131570689,-0.0022248149146509,-0.2321925793350567,19.65243,46.64131,184.179,0.3840957,-0.1708358,0.9066939,14
17.38,-7.107748,1.54407,-15.169,0.0694895698891966,-0.0126682302156329,-0.2754735547769975,23.21988,47.83788,184.6344,0.3893857,-0.1998718,0.8979843,14
17.4,-7.025073,1.715348,-15.08476,0.0241607639075204,-0.022048771153793,-0.3181303504394455,26.77618,49.10009,185.186,0.3942544,-0.2286843,0.8883259,14
17.42,-7.18054,1.160747,-15.17199,-0.022678533271787,-0.0333541246760111,-0.3602634832273232,21.56681,43.45911,184.1428,0.3571686,-0.1868338,0.9144454,14
17.44,-7.10021,1.347337,-15.08544,-0.0661009597520304,-0.0497187982935725,-0.3967552954582618,25.09762,44.56695,184.347,0.36224,-0.214938,0.9056893,14
17.46,-7.019815,1.530486,-15.00033,-0.1084660673935851,-0.0612780659564897,-0.4306820722021931,28.62304,45.72313,184.6352,0.3669303,-0.2428126,0.8960034,14
17.48,-6.939522,1.710272,-14.91683,-0.1502280491885771,-0.0712303280302133,-0.4621560599779213,32.14101,46.94141,185.0174,0.3712351,-0.2704254,0.8853999,14
17.5,-7.083358,1.128663,-14.97807,-0.1918380969723456,-0.0827213566876192,-0.491261836917688,30.04296,39.16978,183.7525,0.3155803,-0.2546556,0.9123084,14
17.52,-7.007577,1.324079,-14.89201,-0.2240379636466287,-0.0959488443707112,-0.5162350475454538,33.51423,40.15399,183.6793,0.3198428,-0.2812075,0.9020621,14
17.54,-6.931359,1.516232,-14.80691,-0.2530151402906385,-0.1048172692200485,-0.5373200835190826,36.98507,41.17467,183.6773,0.3237794,-0.307472,0.8909214,14
17.56,-6.961662,1.117059,-14.79328,-0.2791873761036055,-0.1126557059763456,-0.5546710781845141,39.61936,37.11293,182.7278,0.2916749,-0.3283135,0.8942252,14
17.58,-6.887848,1.316105,-14.70865,-0.2954955036610845,-0.1184858663767404,-0.5667530182460636,43.02626,37.95375,182.457,0.2950276,-0.3531899,0.8821245,14
17.6,-6.813457,1.512016,-14.62479,-0.3077300604691494,-0.1203010897037551,-0.5744635203071147,46.43483,38.82126,182.2422,0.2980889,-0.3777188,0.8691773,14
17.62,-6.796427,1.113645,-14.57264,-0.3162732459413391,-0.1214949233075607,-0.5779776889712691,46.37368,36.91845,180.4242,0.2896698,-0.3745479,0.8723865,14
17.64,-6.723857,1.313834,-14.48965,-0.3112661764736857,-0.0368877323200415,-0.572396586886214,49.72205,37.68132,180.083,0.2927225,-0.3981051,0.8588139,14
17.66,-6.650676,1.511,-14.40735,-0.3069063280102686,-0.0670757816503882,-0.559799762098107,53.07228,38.46802,179.7902,0.2954949,-0.421284,0.8444433,14
17.68,-6.577016,1.705155,-14.32588,-0.2991094341004376,-0.0952857621287357,-0.5435453188354076,56.42373,39.29071,179.5552,0.2979847,-0.444063,0.829289,14
17.7,-6.503008,1.789661,-14.24539,-0.2882526054707008,-0.1248991582199161,-0.5237873253318828,59.77592,40.16625,179.3926,0.3001901,-0.4664216,0.8133656,14
17.72,-6.479665,1.102016,-14.17308,-0.2583613487836541,-0.1210828486335025,-0.4789984532408173,59.66372,33.69061,174.1839,0.2752193,-0.4627441,0.8218829,14
17.74,-6.405854,1.295358,-14.09492,-0.2252372907467784,-0.1153987797126182,-0.4312799560912648,62.9264,33.8098,173.1669,0.2773522,-0.4837276,0.805622,14
17.76,-6.331759,1.485847,-14.01776,-0.1892876348731519,-0.111133659682625,-0.3808148384772882,66.18817,33.79904,172.0363,0.2792266,-0.504264,0.78864,14
17.78,-6.210131,1.128613,-13.84199,-0.1509228796083752,-0.1115202505690123,-0.3277667075648511,60.97904,24.44999,166.7776,0.238348,-0.4715697,0.8242115,14
17.8,-6.135009,1.31253,-13.76571,-0.1172242319023774,-0.0178439090056704,-0.2896241014710059,64.06725,23.54112,164.6172,0.2408734,-0.4914469,0.8079634,14
17.82,-6.059986,1.493633,-13.69085,-0.120409943448984,-0.0292400412231186,-0.2574153211983578,67.13475,22.21881,162.0599,0.2431814,-0.5108877,0.7910116,14
17.84,-5.985197,1.671993,-13.61751,-0.1202480602132692,-0.0403519167738952,-0.2220644437348444,70.1704,20.30207,158.9225,0.2452717,-0.5298741,0.7733732,14
17.86,-5.874717,1.211844,-13.44682,-0.1244500229852232,0.0213222360782849,-0.2027331019770257,43.10738,32.50179,173.9846,0.2784231,-0.3385521,0.8862889,14
17.88,-5.794966,1.385965,-13.36775,-0.1552459151958122,0.0157700869741673,-0.1879432874730351,46.34627,33.03071,173.309,0.2829085,-0.3613823,0.8733621,14
17.9,-5.71566,1.557007,-13.29062,-0.1816650827265087,0.0099365153817156,-0.1695183935844582,49.58844,33.53412,172.6359,0.2871346,-0.3838845,0.8596611,14
17.92,-5.628729,1.257113,-13.1904,-0.204235333954962,0.0007124215845569,-0.1477856259045133,20.10273,39.41553,176.6086,0.3367637,-0.1544102,0.9248281,14
17.94,-5.539849,1.425164,-13.1051,-0.2506754884215789,0.0133055666786195,-0.1306991584913588,23.63509,40.3659,176.4712,0.3434644,-0.1817315,0.9160909,14
17.96,-5.451711,1.589503,-13.02217,-0.2930926331057927,0.0268030578897637,-0.1112434376765816,27.17011,41.33381,176.3951,0.3498031,-0.208874,0.9064135,14
17.98,-5.364525,1.750295,-12.9418,-0.3320842754453654,0.0382458392038737,-0.0898005527827257,30.70491,42.32886,176.3858,0.3557746,-0.2357958,0.8958091,14
18.0,-5.392375,1.275607,-12.92148,-0.3628288823161157,0.1152900930296006,-0.0673726519115536,358.4409,45.10548,178.221,0.383257,0.01851684,0.9234114,14
18.02,-5.300548,1.441125,-12.83651,-0.420332501610092,0.1000240020572826,-0.0402394582095586,2.001177,46.10373,178.3954,0.3916912,-0.01058463,0.9198247,14
18.04,-5.209629,1.60284,-12.75408,-0.4750672659203446,0.0842802591221671,-0.0121285186461652,5.556818,47.11595,178.6326,0.3997088,-0.03966677,0.9152824,14
18.06,-5.119822,1.760915,-12.67434,-0.5276526337946621,0.0652065329602853,0.0165749082070711,9.106672,48.15015,178.9352,0.4073019,-0.0686996,0.90979,14
18.08,-5.117584,1.296007,-12.58966,-0.5677695396028977,0.1340072532379128,0.0423292243297044,353.4541,46.80889,179.5047,0.3963411,0.05410903,0.9163164,14
18.1,-5.025385,1.456829,-12.50265,-0.6327719565493439,0.1054210134603077,0.0497154417635481,357.0242,47.77362,179.8523,0.4047637,0.02426345,0.9140518,14
18.12,-4.934259,1.613761,-12.41844,-0.6960746427003228,0.0774311450845483,0.0571898341770611,0.5869018,48.75773,180.2593,0.4127515,-0.00559913,0.9108265,14
18.14,-4.971401,1.254727,-12.3977,-0.7489129707364477,0.1194567698914634,0.0623323988047284,357.4028,47.36662,181.1597,0.4017674,0.01668911,0.9154056,14
18.16,-4.881773,1.419015,-12.31268,-0.8009054571353013,0.1593582533007982,0.0654040447185948,0.9508309,48.35192,181.5297,0.4093887,-0.01303558,0.9122249,14
18.18,-4.793092,1.579602,-12.23023,-0.8753606385472265,0.1015648826444855,0.052792148606076,4.49088,49.36205,181.9617,0.416575,-0.04273816,0.9080959,14
18.2,-4.705555,1.736655,-12.15052,-0.9483745435927926,0.04450619148125,0.0400600804534956,8.021642,50.40493,182.4593,0.4233195,-0.07238782,0.9030241,14
18.22,-4.819841,1.237734,-12.18757,-0.9946263837396982,0.0840214143627621,0.0430614615167823,6.138112,48.13635,182.6166,0.4060162,-0.05817008,0.9120122,14
18.24,-4.728946,1.404751,-12.10124,-1.0604107629200552,0.0484636859171583,0.0300580797965308,9.762846,49.17863,183.0184,0.4124203,-0.08826966,0.906634,14
18.26,-4.638924,1.567948,-12.01739,-1.1242842788553251,0.0155215294228107,0.0171736359837706,13.37858,50.25953,183.4929,0.4183689,-0.118265,0.900275,14
18.28,-4.549974,1.727478,-11.93617,-1.1868015119892743,-0.0177229400269901,0.0041378642169793,16.98439,51.38928,184.0465,0.4238556,-0.1481288,0.8929426,14
18.3,-4.712681,1.199583,-11.9954,-1.218267678166157,0.0449982813812739,0.0042619957620446,14.76282,47.93332,183.6972,0.398842,-0.130331,0.9074214,14
18.32,-4.624912,1.375849,-11.91014,-1.2776318389397507,0.0045109049166132,-0.0242285350443265,18.35803,49.02225,184.0697,0.4041455,-0.1595947,0.9000131,14
18.34,-4.537617,1.548447,-11.82686,-1.3343260888330528,-0.032602554573255,-0.052191234084105,21.94459,50.16065,184.5242,0.4090108,-0.1886798,0.8916491,14
18.36,-4.637151,1.168226,-11.85324,-1.362919173784046,0.0108560094156395,-0.064413662809001,20.13931,45.98705,184.0967,0.3786112,-0.1745977,0.908231,14
18.38,-4.553049,1.352716,-11.76922,-1.3883169885512483,0.0535821909144304,-0.076505941654241,23.68522,47.05543,184.334,0.3833016,-0.2028017,0.8998078,14
18.4,-4.469056,1.533724,-11.68672,-1.4411652539032094,-0.0127801590555764,-0.1137815833817865,27.22525,48.17122,184.6526,0.3875889,-0.230788,0.8904592,14
18.42,-4.385347,1.711334,-11.6059,-1.4906993480893325,-0.0760513473680124,-0.1492235118978793,30.75742,49.34758,185.0621,0.3914695,-0.2585249,0.8801968,14
18.44,-4.522007,1.132732,-11.65235,-1.5017516412969645,-0.0310192555523197,-0.1576162701914425,28.02665,41.88914,183.9763,0.3387717,-0.2380444,0.90859,14
18.46,-4.442822,1.326812,-11.56868,-1.5255050622130204,-0.0687174265687363,-0.1775758986785747,31.51549,42.85706,183.9604,0.3426652,-0.2647965,0.8987837,14
18.48,-4.363324,1.517602,-11.48602,-1.544631121934937,-0.1025488704498481,-0.1947145642869996,35.00261,43.86234,184.0158,0.3462106,-0.291274,0.8880854,14
18.5,-4.283664,1.705143,-11.40452,-1.5595875463038231,-0.1357891947392729,-0.2092358069595479,38.48733,44.91766,184.1519,0.3494042,-0.3174537,0.8765059,14
18.52,-4.391169,1.118677,-11.45351,-1.5372481214704248,-0.05793534002199,-0.1998731427376721,37.3773,38.91529,183.0507,0.3073923,-0.3104177,0.8956979,14
18.54,-4.31439,1.3171,-11.371,-1.5218535706218534,-0.0926160157423335,-0.1985010341676122,40.79794,39.72241,182.7894,0.3103636,-0.335476,0.884158,14
18.56,-4.237115,1.512367,-11.28928,-1.5008507288185575,-0.1241512201765397,-0.1939009332951607,44.22011,40.55225,182.5806,0.313029,-0.3602037,0.8717698,14
18.58,-4.25004,1.114476,-11.2718,-1.458655718055345,-0.0676943760055438,-0.1757444039072372,44.68383,38.1716,181.1496,0.2988184,-0.3622531,0.8752915,14
18.6,-4.175622,1.314778,-11.18998,-1.4103671878888042,-0.0116015847446912,-0.1544611043894009,48.04675,38.90653,180.8264,0.3014139,-0.3860525,0.8621932,14
18.62,-4.100633,1.512037,-11.10884,-1.367477648363756,-0.0708540440568705,-0.139391620456448,51.41131,39.66288,180.549,0.3037212,-0.4094844,0.8482935,14
18.64,-4.025207,1.706266,-11.02851,-1.310435732921503,-0.0402029468226461,-0.1165488673633247,54.77707,40.45166,180.3262,0.3057387,-0.4325278,0.8336061,14
18.66,-3.982169,1.103693,-10.92725,-1.2474606056829147,-0.0080872784882509,-0.0906461871752671,56.48792,34.49935,176.2486,0.2758836,-0.4431492,0.8362735,14
18.68,-3.908953,1.299516,-10.84799,-1.1790333700695836,0.0221482317846526,-0.0619470245691394,59.7705,34.77396,175.4358,0.2778166,-0.4648042,0.8208241,14
18.7,-3.835375,1.492455,-10.76959,-1.0997655032486375,-0.060864230255387,-0.013441146482772,63.05353,34.97588,174.5681,0.2794937,-0.4860309,0.8046396,14
18.72,-3.745255,1.117872,-10.59865,-1.016367982085906,-0.1298695363828038,0.0364252642588045,61.83398,23.88796,167.212,0.2324253,-0.4797727,0.8222764,14
18.74,-3.672389,1.304122,-10.52064,-0.921693877553814,-0.0718554934879363,0.088515311984299,64.94007,22.8977,165.029,0.2345839,-0.4998756,0.8059559,14
18.76,-3.599534,1.48757,-10.4439,-0.8193551400821244,-0.0842321898954398,0.1569108787539845,68.02407,21.46101,162.4148,0.2365315,-0.5195354,0.7889346,14
18.78,-3.526819,1.668278,-10.36855,-0.7139467481007284,-0.0966892962285753,0.2259912055759346,71.07388,19.37233,159.162,0.2382696,-0.5387348,0.7712291,14
18.8,-3.454366,1.739651,-10.29469,-0.613084740997685,-0.0306761694447366,0.2805799519148615,74.06912,16.27474,154.9115,0.2397939,-0.5574581,0.7528545,14
18.82,-3.652246,1.195318,-10.2736,-0.5107147639086,0.0338785280295801,0.3343467743709338,48.35283,26.86152,173.0978,0.2354924,-0.384869,0.8800035,14
18.84,-3.579277,1.371619,-10.19228,-0.4040958715796243,0.0060769480143557,0.3957199993576196,51.49857,27.07595,172.1272,0.239343,-0.4068926,0.8666304,14
18.86,-3.506598,1.545001,-10.11272,-0.2957919382736738,-0.0234755953610573,0.4576671919352262,54.64532,27.2139,171.1037,0.2429835,-0.4285637,0.8525237,14
18.88,-3.635791,1.250076,-10.07449,-0.1917740198342074,0.0374556513330036,0.5050742823586987,26.28565,32.00043,175.9734,0.275934,-0.2090057,0.9333022,14
18.9,-3.55538,1.418724,-9.981588,-0.0883824643165819,0.0958503575083617,0.5503167456684069,29.81024,32.80603,175.6566,0.2820447,-0.2362321,0.9236037,14
18.92,-3.475522,1.583682,-9.891052,0.0002117463037918,0.0591097183673486,0.5829807501042558,33.33878,33.61891,175.3879,0.2878613,-0.2632227,0.912963,14
18.94,-3.617601,1.271885,-9.834451,0.0874529221061161,0.0912820513345115,0.6114068915761863,2.453548,36.37354,177.9293,0.3123606,-0.01469838,0.9495507,14
18.96,-3.537387,1.438313,-9.738749,0.1722449756975376,0.1228242996198771,0.6370273625324668,6.016331,37.32989,177.9917,0.3204147,-0.04410969,0.9456614,14
18.98,-3.457764,1.600946,-9.64558,0.2472771842867513,0.0846382713368657,0.6612525881675184,9.576562,38.29739,178.1147,0.3281291,-0.07346721,0.9407958,14
19.0,-3.378911,1.759943,-9.555121,0.3192866428568178,0.0451831611199607,0.6834288440569432,13.13318,39.28392,178.3009,0.3354963,-0.1027406,0.9349602,14
19.02,-3.500322,1.293873,-9.431496,0.404683165061859,0.096397010203328,0.7118766281271699,352.8167,38.2537,179.245,0.3266202,0.06134066,0.9430548,14
19.04,-3.421193,1.455354,-9.332506,0.4856602460081016,0.1445117284998304,0.7367403417686537,356.3931,39.174,179.539,0.3349498,0.03099757,0.9417019,14
19.06,-3.342757,1.612943,-9.236364,0.5445658521312368,0.0942834388233464,0.7493787641488525,359.9633,40.10985,179.8897,0.3429204,0.0006306178,0.9393642,14
19.08,-3.265196,1.76682,-9.143253,0.5987427312126365,0.0435609047195653,0.7598146755298255,3.526268,41.06838,180.2993,0.3505238,-0.02972833,0.9360449,14
19.1,-3.369901,1.262157,-9.168877,0.660479751059674,0.0824344931349462,0.7666629036992811,355.7227,39.01482,180.586,0.3338718,0.03346874,0.9418659,14
19.12,-3.293756,1.425883,-9.071417,0.7028846381817333,0.0483145521574086,0.7619447469321381,359.2637,39.94285,180.9546,0.341583,0.003193238,0.939793,14
19.14,-3.218218,1.585898,-8.976639,0.7398595307680707,0.0156224071862007,0.7540189971612625,2.797267,40.89373,181.3808,0.3489337,-0.02707709,0.9367524,14
19.16,-3.143458,1.742369,-8.88472,0.7897742775425722,0.0583919477324877,0.7517296656866875,6.322107,41.87474,181.8679,0.3559168,-0.05731073,0.9327481,14
19.18,-3.229968,1.237853,-8.889442,0.8338484541949533,0.0993593890797079,0.7453144179940066,6.126407,39.31157,182.6056,0.3346571,-0.05794756,0.9405507,14
19.2,-3.153693,1.405016,-8.790549,0.8713445889055046,0.1207715224403898,0.7344839972306184,9.740784,40.30552,182.9933,0.3410815,-0.08864306,0.9358329,14
19.22,-3.07793,1.56838,-8.69418,0.8672863007522976,0.034282967274191,0.6924745013066926,13.34726,41.33646,183.4503,0.3471324,-0.1192385,0.9301142,14
19.24,-3.149592,1.208738,-8.704439,0.8878880361542715,0.0466183109456229,0.6661172908283673,13.42306,39.75296,183.5749,0.334071,-0.1203874,0.9347683,14
19.26,-3.074652,1.382998,-8.607089,0.9033275455392402,0.0601885711698169,0.6373612805042937,17.02125,40.79,183.9536,0.3396628,-0.1505217,0.9282187,14
19.28,-3.000001,1.553566,-8.51184,0.9128955704113956,0.0721669624127121,0.6059624752611086,20.61102,41.87384,184.4098,0.3448868,-0.1804875,0.9206867,14
19.3,-2.925801,1.720571,-8.418875,0.8850084108387777,-0.0213551990267345,0.5482139781098399,24.19069,43.01611,184.9515,0.3497372,-0.2102518,0.9121817,14
19.32,-3.060328,1.17573,-8.518966,0.889109311065857,-0.0098457509088785,0.5105320912175436,18.72156,39.53711,184.0986,0.3280307,-0.1649006,0.9299086,14
19.34,-2.987314,1.35817,-8.424406,0.8890828791508166,0.0035662302092782,0.4719962168990773,22.27438,40.57773,184.4034,0.3330117,-0.1941115,0.9221861,14
19.36,-2.914318,1.537097,-8.331451,0.8625872429766819,-0.0649878421025816,0.415951215054507,25.82026,41.66752,184.7883,0.3376418,-0.2231135,0.9135151,14
19.38,-2.841494,1.712606,-8.240282,0.8593577893174288,-0.0477574259998618,0.3763134528773526,29.35731,42.81907,185.2622,0.3419161,-0.2518731,0.9039063,14
19.4,-2.981455,1.139012,-8.327731,0.852835218596612,-0.0282704689089499,0.3370693655331457,26.29567,35.56763,184.0113,0.2896574,-0.2268717,0.9291182,14
19.42,-2.912745,1.331345,-8.234619,0.8424120584821932,-0.0096680980208043,0.2980267013009731,29.79596,36.5181,184.0547,0.2939551,-0.2547122,0.9200026,14
19.44,-2.843695,1.520364,-8.142545,0.807472744433706,-0.1039272821345347,0.2454067426745962,33.29365,37.50712,184.169,0.2979533,-0.2822871,0.9099737,14
19.46,-2.897031,1.121751,-8.147449,0.801104382691757,-0.0830352950774613,0.2128776831152837,34.69553,32.08799,183.2965,0.2554524,-0.2940262,0.919325,14
19.48,-2.831158,1.319372,-8.055513,0.7922998611744891,-0.0600306015184436,0.1817099874193761,38.13071,32.891,183.0872,0.2590379,-0.3203773,0.9086424,14
19.5,-2.764755,1.513816,-7.964306,0.7804934467951803,-0.0381998276072402,0.151704113616676,41.56695,33.71756,182.9315,0.2623669,-0.3464119,0.897087,14
19.52,-2.697945,1.705107,-7.873992,0.74932170783087,-0.1309143189878485,0.1061095892584573,45.0036,34.57807,182.8369,0.2654365,-0.3721052,0.8846704,14
19.54,-2.721066,1.114437,-7.859674,0.7426472661805308,-0.1069511210689712,0.0819611550260944,44.69085,31.52808,181.1719,0.2475209,-0.3684407,0.8911315,14
19.56,-2.656894,1.314689,-7.769394,0.7339690542359709,-0.0811085502899052,0.0603827993035909,48.06401,32.2313,180.8676,0.2505468,-0.3931517,0.8782587,14
19.58,-2.59211,1.511891,-7.67969,0.7227390919564679,-0.0567300405086018,0.0411905194816376,51.43856,32.95562,180.6078,0.2533327,-0.417489,0.8645705,14
19.6,-2.52683,1.706054,-7.590717,0.7177851982061502,-0.0608006952611103,0.0358254008738265,54.81403,33.71171,180.4009,0.2558762,-0.4414302,0.8500804,14
19.62,-2.539008,1.107105,-7.566638,0.7104061979845888,-0.0615469393601079,0.0326743074092363,53.28744,29.58651,177.7424,0.2367158,-0.428997,0.8617622,14
19.64,-2.475124,1.305255,-7.479213,0.7000692747005903,-0.0623483815260269,0.0315721736664423,56.5869,30.00496,177.1301,0.2393287,-0.45198,0.8471791,14
19.66,-2.410728,1.500495,-7.392457,0.6934745688593518,-0.146376666678929,0.049767258194865,59.88736,30.39291,176.5058,0.2417197,-0.4745457,0.8318389,14
19.68,-2.345931,1.692845,-7.306509,0.6873058910475325,-0.1133455703939718,0.065483133037621,63.18895,30.74392,175.8611,0.2438873,-0.4966781,0.8157547,14
19.7,-2.239279,1.117802,-7.099419,0.6768143018720449,-0.079783543517383,0.081557925839561,61.84407,18.8312,167.2302,0.1958481,-0.4881967,0.8317117,14
19.72,-2.173952,1.304003,-7.014954,0.6679851010793135,-0.1182017317953773,0.1158876170896525,64.95827,17.80747,165.0615,0.1984227,-0.5090472,0.8155459,14
19.74,-2.108552,1.4874,-6.931731,0.6510900897729215,-0.0735983035199386,0.1359122292310379,68.04986,16.33339,162.4572,0.2008188,-0.5294479,0.7986735,14
19.76,-2.015012,1.177891,-6.741941,0.6280450088016527,-0.0287688008380885,0.1544466889020072,52.13676,21.13763,171.1927,0.1974401,-0.4180628,0.874236,14
19.78,-1.948754,1.355764,-6.656225,0.5983117232212304,0.013227321732478,0.1713577566506852,55.26375,21.04516,169.9451,0.2011314,-0.4400567,0.8602735,14
19.8,-1.882651,1.530763,-6.572174,0.5613572879553079,0.0343031461338814,0.1865399451150879,58.38776,20.8143,168.5796,0.2046462,-0.4616714,0.8455856,14
19.82,-1.816826,1.702977,-6.489911,0.5130716794572707,-0.0329765667317528,0.2001525913026003,61.50653,20.40532,167.0544,0.2079842,-0.4828883,0.8301864,14
19.84,-1.728323,1.250516,-6.348647,0.4987549905205204,0.0042946773543925,0.2220987155266588,26.22961,30.5125,176.0348,0.263693,-0.2099096,0.9369671,14
19.86,-1.653446,1.419774,-6.254414,0.4795139424339807,0.0407960062422795,0.2433711276907663,29.68953,31.30291,175.7802,0.269686,-0.2369331,0.927606,14
19.88,-1.579022,1.585495,-6.162457,0.4476718810787766,0.0062900214062157,0.2618692605994145,33.15197,32.1037,175.5729,0.2754077,-0.2637232,0.9173403,14
19.9,-1.505208,1.747806,-6.072936,0.4411192672057322,0.0400682106471851,0.2866254654032034,36.617,32.92242,175.4169,0.2808525,-0.2902598,0.9061782,14
19.92,-1.527912,1.271957,-6.057664,0.4295382132865107,0.0732014733166855,0.3092817839476717,2.442529,36.81033,177.9766,0.3159707,-0.01464649,0.9483653,14
19.94,-1.44903,1.438517,-5.961998,0.4123046533936741,0.1028991387714112,0.3295602965219202,5.984479,37.72434,178.0828,0.3236332,-0.04398933,0.9445943,14
19.96,-1.37075,1.601334,-5.868805,0.4136246387005935,0.1094053861123063,0.3547659258798253,9.523258,38.65182,178.2471,0.3309586,-0.07327919,0.9398643,14
19.98,-1.339795,1.291448,-5.765995,0.4108170619560458,0.1165412492417379,0.3776105992677613,352.2276,39.15085,179.0586,0.3337413,0.06660163,0.9401898,14
20.0,-1.259886,1.453533,-5.667952,0.4032838556719581,0.1214938122022036,0.3977631183460425,355.8041,40.02332,179.3563,0.3417834,0.03631832,0.9390491,14
20.02,-1.180718,1.611736,-5.572671,0.3780476450406063,0.0501536360086839,0.4090378516731564,359.3746,40.91114,179.7074,0.3494616,0.006005788,0.9369316,14
20.04,-1.102475,1.766234,-5.480333,0.3776101404557596,0.0706116802996918,0.4130675008402336,2.938155,41.82104,180.1141,0.3567683,-0.02430428,0.9338408,14
20.06,-1.144745,1.262132,-5.449882,0.3729967689889625,0.0908410923899586,0.4126202505183819,355.7204,40.01631,180.5936,0.3420924,0.03331308,0.9389098,14
20.08,-1.067461,1.425808,-5.353328,0.3636676732564238,0.1081661061877407,0.4074065678137207,359.2641,40.89979,180.9686,0.3494193,0.003064229,0.9369063,14
20.1,-0.9908583,1.585771,-5.259413,0.3490997204479985,0.104895398934263,0.3971891392747316,2.800473,41.80652,181.3985,0.3563795,-0.02717911,0.9339421,14
20.12,-1.009201,1.240583,-5.21742,0.328459843761862,0.093613551846069,0.3783499863702797,3.957325,40.74999,182.0893,0.3473076,-0.03870549,0.9369388,14
20.14,-0.9306853,1.406703,-5.120202,0.3055567284069117,0.0847188269938018,0.357015331174302,7.573178,41.68644,182.4796,0.3536168,-0.06938595,0.9328077,14
20.16,-0.8528088,1.569018,-5.025517,0.2798793603177243,0.075365549290246,0.3328936424491646,11.18172,42.65677,182.9337,0.3595409,-0.09998823,0.9276835,14
20.18,-0.7757547,1.727699,-4.933547,0.2284276463667654,-0.0106445331571777,0.2890718945404901,14.78095,43.66987,183.4574,0.3650743,-0.1304751,0.9215723,14
20.2,-0.6996965,1.776261,-4.844461,0.198694637629561,0.0029846904162353,0.2580150721820532,18.36929,44.73571,184.0576,0.3702116,-0.1608142,0.9144818,14
20.22,-0.8671543,1.208678,-4.946064,0.1671157277596948,0.0178530181970425,0.2244359125813337,13.42722,41.36457,183.5865,0.3471694,-0.1202952,0.9299752,14
20.24,-0.7899302,1.382856,-4.85036,0.1331949594515582,0.0311304122985325,0.1880645921939967,17.03189,42.35928,183.9745,0.3523067,-0.1503891,0.9234723,14
20.26,-0.7130827,1.553333,-4.756721,0.0901535699630867,0.0167274872544578,0.1424980083825402,20.62829,43.40062,184.4375,0.3570638,-0.180315,0.9159943,14
20.28,-0.6367788,1.720238,-4.665326,0.0465092819688836,0.0066138112666412,0.0959706263610574,24.21491,44.49993,184.9835,0.3614355,-0.2100404,0.90755,14
20.3,-0.7797068,1.168219,-4.74261,0.0018379182425529,-0.0022569775826608,0.0482628603731308,20.14069,39.27921,184.1009,0.3248204,-0.1764197,0.9288245,14
20.32,-0.7063261,1.352662,-4.649069,-0.0637097824412896,-0.0937664747059906,-0.0153301152322637,23.69418,40.25655,184.337,0.3292578,-0.2053674,0.9209397,14
20.34,-0.632943,1.533621,-4.556991,-0.0992147952846733,-0.0762768129756813,-0.0504932340741475,27.24227,41.27869,184.6482,0.3333515,-0.2340963,0.9121153,14
20.36,-0.7130845,1.139073,-4.582891,-0.134382819212719,-0.0562795808424174,-0.0851618478344554,26.28388,35.85493,184.0006,0.2920176,-0.2266559,0.9284068,14
20.38,-0.643859,1.331451,-4.490506,-0.1695998258608499,-0.0368936848570441,-0.1195292547065128,29.77928,36.75495,184.0294,0.2959285,-0.2544142,0.9194164,14
20.4,-0.5743339,1.520531,-4.399128,-0.2052494768390965,-0.0362622183408899,-0.1537609425783444,33.27235,37.69058,184.1251,0.2995412,-0.2819097,0.909521,14
20.42,-0.5046406,1.706359,-4.30892,-0.237393835692465,-0.0476985237361353,-0.1856362143059847,36.76259,38.6734,184.296,0.3028516,-0.309119,0.8987308,14
20.44,-0.5764819,1.118697,-4.316337,-0.2671473210301597,-0.054629221860203,-0.2147712536123255,37.37036,31.76383,183.0497,0.2509408,-0.3149278,0.9131432,14
20.46,-0.5105315,1.317123,-4.224987,-0.2948357799999942,-0.0603842207181706,-0.2413571557148349,40.79789,32.47636,182.7795,0.2539014,-0.3409083,0.901997,14
20.48,-0.44406,1.512395,-4.1343,-0.3119867408259548,-0.0625034824730153,-0.2601505637335569,44.22681,33.20568,182.5536,0.2566133,-0.3665556,0.8899922,14
20.5,-0.3771894,1.704534,-4.044435,-0.3260073999958188,-0.0605479320636054,-0.2755631898819592,47.65661,33.96065,182.3781,0.2590742,-0.3918456,0.8771414,14
20.52,-0.4217746,1.114445,-4.072754,-0.3371946178352618,-0.0579095857618131,-0.2877888957963674,44.68108,31.81136,181.1679,0.2497456,-0.3681223,0.8905445,14
20.54,-0.3572297,1.314726,-3.983197,-0.3458525306116983,-0.0579282173508426,-0.2970079521309146,48.04632,32.46362,180.8542,0.2523914,-0.3927704,0.8777965,14
20.56,-0.2921093,1.511976,-3.894192,-0.3413004406722718,-0.0615064513307234,-0.2878372708006614,51.41288,33.13235,180.5794,0.2547983,-0.417049,0.8642421,14
20.58,-0.2265285,1.706209,-3.805891,-0.3337408107818225,-0.0617370288430705,-0.2758907845049874,54.78035,33.82674,180.3503,0.2569644,-0.4409361,0.8498945,14
20.6,-0.1903375,1.103689,-3.703491,-0.3234778129337891,-0.0619968660489499,-0.2613576412049507,56.48391,28.1965,176.2557,0.2294672,-0.4516875,0.8502007,14
20.62,-0.1265062,1.299522,-3.6168,-0.3022213758594774,-0.145787932162988,-0.2246014881447663,59.76676,28.37799,175.4383,0.2315854,-0.4741953,0.8350637,14
20.64,-0.0622836,1.492485,-3.530863,-0.267708339405068,-0.1130273414551432,-0.1771162561509965,63.04929,28.47581,174.5536,0.2334924,-0.4962712,0.8191888,14
20.66,0.05342628,1.117783,-3.322729,-0.230933227209105,-0.0800798621269716,-0.1281208728759634,61.84266,18.69517,167.2483,0.1947834,-0.4884277,0.831978,14
20.68,0.1180628,1.304004,-3.238114,-0.1922311703003949,-0.0501642414958048,-0.0777876475551513,64.95355,17.64273,165.0955,0.197098,-0.509345,0.815909,14
20.7,0.1827514,1.487437,-3.154711,-0.1519394559485005,-0.0415244725788771,-0.0262686787793577,68.04147,16.13905,162.5055,0.199237,-0.5298164,0.7991399,14
20.72,0.2936462,1.17785,-2.944992,-0.1182860697732249,-0.0283763032502359,0.0185700195599039,52.14459,21.19741,171.196,0.1978835,-0.4180516,0.8741068,14
20.74,0.359565,1.355732,-2.859247,-0.0836101727323589,-0.0133391991686123,0.0638145895805666,55.27075,21.06542,169.9525,0.2012544,-0.4400949,0.8602197,14
20.76,0.4253016,1.530749,-2.775136,-0.0482430683731574,0.0004728310064217,0.1093160234635214,58.39345,20.79207,168.5875,0.2044502,-0.4617619,0.8456128,14
20.78,0.490737,1.702989,-2.69278,-0.0148358732921506,0.0177618481434295,0.1433722100496173,61.51031,20.33638,167.0578,0.2074705,-0.483034,0.8303,14
20.8,0.5557609,1.765885,-2.612302,0.0194316606976769,0.0361485997540576,0.1777165235043631,64.61846,19.63495,165.2981,0.210311,-0.5038944,0.814294,14
20.82,0.594915,1.250507,-2.532141,0.0541410296956768,0.0525582502850727,0.2120658121830705,26.23692,30.59854,176.0349,0.2643945,-0.2099007,0.9367546,14
20.84,0.6695666,1.419777,-2.437907,0.0888766451983956,0.0639773014706037,0.2461663811845649,29.69592,31.34437,175.7782,0.270024,-0.2369429,0.9274924,14
20.86,0.7437322,1.585518,-2.345912,0.1113562350037428,0.0720955979375987,0.2691030863102351,33.1573,32.09879,175.5653,0.2753839,-0.263753,0.9173315,14
20.88,0.7670515,1.271977,-2.269546,0.1326019555820748,0.0813587869635273,0.2901480385804295,2.455548,36.14938,177.9619,0.3104985,-0.01484985,0.9501661,14
20.9,0.8448765,1.438568,-2.173107,0.1521159958159018,0.0888680556802323,0.3089931622703957,5.998089,37.01973,178.0517,0.3178308,-0.04421551,0.946551,14
20.92,0.9220904,1.601417,-2.079108,0.1651445998042184,0.0257238271797126,0.3299212061004667,9.537842,37.90219,178.1966,0.324834,-0.07352825,0.9419803,14
20.94,0.9985241,1.760679,-1.987724,0.1903978803915479,0.0553786102765258,0.360095868393636,13.07392,38.80393,178.3993,0.3315015,-0.1027584,0.9364594,14
20.96,1.014814,1.293881,-1.879121,0.2129139405315366,0.0836647240106862,0.3874548692782917,352.8073,38.66397,179.263,0.3300018,0.06131355,0.9418722,14
20.98,1.093242,1.455406,-1.78011,0.2321631334559595,0.1078452539997238,0.4116695659815312,356.3776,39.49533,179.5697,0.3375955,0.03101503,0.9407532,14
21.0,1.17091,1.613059,-1.683858,0.2546138407831108,0.1805468610536339,0.4306202652090625,359.942,40.34326,179.9274,0.344833,0.0006930786,0.9386637,14
21.02,1.159976,1.262191,-1.632295,0.2479584438584856,0.1486840734613388,0.4234091474816248,355.7158,39.30791,180.5854,0.3362789,0.03348282,0.9410066,14
21.04,1.235834,1.425935,-1.534896,0.2383348333700716,0.1179354252669925,0.4136688976839294,359.2561,40.1496,180.9499,0.3432782,0.003251628,0.9391748,14
21.06,1.311011,1.585976,-1.4401,0.2252767089756696,0.08551138134918,0.4011715712339656,2.789642,41.01388,181.3666,0.3499202,-0.02697421,0.9363874,14
21.08,1.385343,1.742481,-1.348079,0.2105416471182475,0.0764351857227624,0.3826815673015188,6.315343,41.90736,181.8388,0.3561988,-0.05716395,0.9326481,14
21.1,1.458666,1.788967,-1.258997,0.1938554339115394,0.0697762523251411,0.3620615339160981,9.832106,42.83721,182.3706,0.3621076,-0.08728683,0.9279616,14
21.12,1.336183,1.237864,-1.319916,0.1747225030913208,0.0626883167183297,0.3390326289159317,6.111125,40.10419,182.6096,0.341158,-0.05785655,0.9382188,14
21.14,1.412952,1.405025,-1.221691,0.1667761558203752,0.1276354510377021,0.3207281947329167,9.724586,41.01131,182.9992,0.3468421,-0.08849757,0.9337243,14
21.16,1.489117,1.568397,-1.125911,0.1284808831194798,0.0924300561692597,0.2754911841660545,13.33082,41.95445,183.4521,0.3521513,-0.1190393,0.9282425,14
21.18,1.405333,1.208795,-1.15066,0.0882568525136686,0.0602751857707397,0.2288512105707355,13.41835,39.89838,183.5623,0.3352732,-0.1202985,0.9343464,14
21.2,1.480309,1.383084,-1.05357,0.0456713397339395,0.02823749833552,0.1806328058290477,17.01822,40.84396,183.9229,0.3401424,-0.1503969,0.9280565,14
21.22,1.554922,1.55369,-0.9585092,-0.0197640611248308,-0.0682207819870898,0.1155715659734625,20.61066,41.83324,184.3545,0.3446479,-0.1803287,0.9207955,14
21.24,1.629012,1.72074,-0.8656567,-0.0510819893517017,-0.0540634069977346,0.0783477260177807,24.19423,42.87704,184.865,0.3487851,-0.2100617,0.9125716,14
21.26,1.502167,1.168253,-0.9291614,-0.0833389385314908,-0.0377151808844308,0.0405820639735439,20.13555,38.02205,184.0968,0.3146215,-0.1766367,0.9323383,14
21.28,1.573363,1.352719,-0.834159,-0.1169674689190952,-0.0221459470335765,0.0020840268619967,23.68731,38.95508,184.326,0.3188033,-0.2056754,0.9246275,14
21.3,1.644563,1.533712,-0.740587,-0.1523914150881367,-0.025347662379297,-0.0373017340327835,27.234,39.93111,184.6269,0.3226545,-0.2344963,0.9159793,14
21.32,1.578168,1.139086,-0.7513229,-0.1909695559833315,-0.042451833533135,-0.083337481173478,26.27913,34.77688,184.0022,0.2832717,-0.2269651,0.9311219,14
21.34,1.645491,1.331466,-0.6577062,-0.2284621586450911,-0.0547471262834275,-0.1271847874849314,29.77398,35.63472,184.0296,0.286931,-0.2548364,0.9222761,14
21.36,1.713102,1.520556,-0.5650644,-0.2652262436041371,-0.0654517098200211,-0.1690124425474277,33.26659,36.52646,184.1208,0.2903029,-0.2824461,0.9125279,14
21.38,1.780874,1.7064,-0.4735607,-0.2941898529650846,-0.0748381247322163,-0.2039540913074088,36.75653,37.46316,184.2837,0.2933836,-0.3097704,0.901887,14
21.4,1.848675,1.782395,-0.3833566,-0.3207732384190007,-0.0796239926679534,-0.2356666623075318,40.24273,38.45844,184.5292,0.2961704,-0.336783,0.8903644,14
21.42,1.721446,1.126045,-0.4654161,-0.3452932496491443,-0.0831411521223335,-0.2643248577410251,37.36751,30.77975,183.0513,0.2430878,-0.3154416,0.9152731,14
21.44,1.785722,1.324475,-0.373053,-0.3680710246945069,-0.0886689913425774,-0.2900880214691793,40.79454,31.44897,182.7795,0.2458078,-0.3415463,0.9042468,14
21.46,1.850499,1.51976,-0.2813191,-0.379053268005655,-0.094193890662892,-0.3083781188752751,44.22286,32.13244,182.5482,0.2482884,-0.3673191,0.892365,14
21.48,1.847835,1.13237,-0.2536852,-0.3868959828128347,-0.0955605872126177,-0.3229678916252672,44.67619,30.18608,181.1535,0.2371409,-0.3693663,0.8940012,14
21.5,1.910099,1.332691,-0.162669,-0.3918933054828647,-0.0961705834206883,-0.3340386726439909,48.04063,30.78158,180.8184,0.2396088,-0.3941839,0.8813941,14
21.52,1.972922,1.529988,-0.072166,-0.3887249129154588,-0.1844561580089892,-0.3533311564177995,51.40635,31.38752,180.5152,0.2418511,-0.4186326,0.8679817,14
21.54,2.036193,1.724273,0.01767072,-0.3668312818824623,-0.156012797025261,-0.3514992377764928,54.77301,32.01114,180.2491,0.2438661,-0.4426905,0.8537772,14
21.56,2.081808,1.105925,0.1371419,-0.3418610307037214,-0.1263664271055716,-0.3454589087475996,56.46609,26.8104,176.265,0.2191426,-0.4532695,0.8529977,14
21.58,2.143442,1.301779,0.2252677,-0.3141408058645741,-0.0988327261626627,-0.3353935039410022,59.74873,26.94744,175.4435,0.2211343,-0.4759762,0.8379737,14
21.6,2.205456,1.49477,0.3126743,-0.2840023522356657,-0.0917532305489096,-0.3214708577586354,63.03074,26.99545,174.5486,0.2229256,-0.4982516,0.8222134,14
21.62,2.328587,1.117745,0.5393671,-0.2340254279355882,-0.0891115053541168,-0.3238630249845109,61.84609,17.48213,167.254,0.1859415,-0.490308,0.8339864,14
21.64,2.391176,1.303974,0.625353,-0.1819324588876936,-0.0842366831488796,-0.3217074196170221,64.95702,16.38842,165.1009,0.1881323,-0.5114257,0.8180099,14
21.66,2.453817,1.487423,0.710155,-0.1280819710245219,-0.0803755345839946,-0.3151893543907524,68.04417,14.838,162.5046,0.1901565,-0.5320984,0.8013356,14
21.68,2.516401,1.668152,0.793644,-0.0653678140976989,-0.0633713146303023,-0.3325649077405058,71.09487,12.61866,159.2512,0.1920135,-0.5523067,0.7839803,14
21.7,2.578825,1.739566,0.8756981,-0.0025561232084587,-0.0444590259428391,-0.3457963890611247,74.08785,9.365455,154.9738,0.1937013,-0.5720363,0.765958,14
21.72,2.629279,1.195101,1.031031,0.0599966298281161,-0.0267525915072755,-0.3550757572401027,48.38417,22.35285,173.1375,0.2005524,-0.3907226,0.8885194,14
21.74,2.693787,1.371326,1.11869,0.1149961825246707,0.0602371361062646,-0.3797186129979958,51.53688,22.47105,172.2106,0.2040245,-0.4135002,0.8755057,14
21.76,2.758076,1.54465,1.204654,0.1807611345138638,0.0558463276650556,-0.4112481609396698,54.68949,22.50945,171.2246,0.2073207,-0.4359264,0.8617653,14
