pX,pY,pZ,aX,aY,aZ,reX,reY,reZ,rtX,rtY,rtZ,t,ID
-45.00041,0.23,-39.99973,5.092188985918568,0.2007776810867971,1.668278304081845,0.01565546,0.009941335,0.02322753,0.0001366373,8.672682e-05,0.0002026866,4.59999989718199,11
-45.00082,0.43,-39.99945,5.622186442085322,-0.1879643206485923,1.7175760928635384,0.03137727,0.009950789,0.04639417,0.0002738535,8.672614e-05,0.0004048417,4.61999989673495,11
-45.00122,0.63,-39.99917,6.059206062705755,-0.3354604295420822,1.7727216401970909,0.0472183,0.009966766,0.06976923,0.0004121102,8.672554e-05,0.0006088153,4.63999989628792,11
-45.00164,0.2833333,-39.99877,6.406047040025534,-0.2670442105145603,1.831435793492652,0.02370246,8.012517,0.03553256,0.0002280014,0.06986537,0.0002948712,4.65999989584088,11
-45.0022,0.4833333,-39.99827,6.665687741008348,-0.0070042705908406,1.891604775454077,0.04741714,8.012539,0.0710604,0.0004561063,0.06986535,0.0005896937,4.67999989539385,11
-45.00276,0.6833333,-39.99777,7.026444505252577,-0.4323358074145773,1.9306420042788448,0.07117262,8.012574,0.1066209,0.0006845865,0.06986532,0.0008847753,4.69999989494681,11
-44.98118,0.2833332,-39.97858,7.287547021730845,-0.6090339638324485,1.968742544930564,0.9099439,13.96877,0.5473735,0.008462487,0.1215559,0.003775555,4.71999989449978,11
-44.98667,0.4833333,-39.96067,7.453065693640781,-0.5624326131615591,2.004374844294425,1.819752,13.98181,1.094934,0.0169237,0.1215402,0.007550073,4.73999989405274,11
-44.99216,0.6833333,-39.94278,7.715380695113041,-0.9571332129660746,2.0258044001515927,2.731456,14.00361,1.644112,0.02540243,0.121514,0.01133095,4.75999989360571,11
-44.91895,0.2833334,-39.92211,7.870605806928424,-1.0992277971277564,2.0417289528464195,1.536666,22.1939,0.1203448,0.01336093,0.1924385,-0.001550451,4.77999989315867,11
-44.91064,0.4833336,-39.89632,7.924076405617882,-1.0140501440055516,2.051262682158153,3.073552,22.19873,0.2404117,0.02672062,0.1923862,-0.003104862,4.79999989271164,11
-44.81222,0.2833333,-39.91302,8.007871891881955,-1.3662028023983792,2.0345599517190607,359.5839,27.91047,358.1414,-0.007435085,0.2410732,-0.01486374,4.8199998922646,11
-44.789,0.4833332,-39.9095,7.989981522381434,-1.4617767406529292,2.012311490651029,0.3640055,27.34165,357.0597,-0.002978092,0.2363436,-0.02567966,4.83999989181757,11
-44.76578,0.6833332,-39.90598,7.876532119398085,-1.326106071659645,1.9840613604101665,1.133402,26.75867,355.9703,0.001481115,0.231581,-0.03648966,4.85999989137053,11
-44.74257,0.8833331,-39.90245,7.867060923082079,-1.6237923591790129,1.9431336279239773,1.891727,26.16153,354.873,0.005941874,0.2267862,-0.04729259,4.8799998909235,11
-44.59544,0.2833337,-39.84794,7.75638605807076,-1.6609269834496234,1.895284238531154,3.527489,34.78087,359.8004,0.02885101,0.2987905,-0.01086049,4.89999989047647,11
-44.55477,0.4833336,-39.82414,7.551746977474735,-1.4628441070189353,1.8406623636563069,5.834545,33.49601,358.5433,0.04507295,0.2883857,-0.02682123,4.91999989002943,11
-44.40632,0.2833335,-39.79353,7.466269721260183,-1.6941464084039346,1.7828489276867217,2.733063,39.02948,359.596,0.02130067,0.3340316,-0.01128875,4.9399998895824,11
-44.37019,0.4833334,-39.76058,7.279067127595738,-1.6609247583796296,1.716148026716823,5.458775,37.83915,359.1364,0.04260417,0.324203,-0.02256028,4.95999988913536,11
-44.33407,0.6833332,-39.72764,6.998978738103375,-1.3885131845483554,1.6414895450368403,8.177237,36.62149,358.6201,0.06391089,0.3141633,-0.03380095,4.97999988868833,11
-44.29794,0.8833333,-39.69473,6.758905036634452,-1.5415154182429966,1.546542599640425,10.88693,35.37082,358.0438,0.08520459,0.3039192,-0.04500472,4.99999988824129,11
-44.10851,0.2833333,-39.69185,6.430146165887386,-1.4260212278527629,1.44545466664421,2.687083,44.07431,359.9184,0.02146688,0.37512,-0.00945752,5.01999988779426,11
-44.07426,0.4833337,-39.65911,6.0228686249725385,-1.067364299914674,1.3397796448212915,5.371812,42.91187,359.7822,0.0429188,0.3654659,-0.0189077,5.03999988734722,11
-44.04001,0.6833336,-39.62637,5.741845080576411,-1.1301471036893072,1.2311922737335053,8.053969,41.73783,359.5912,0.06435136,0.3555834,-0.02834133,5.05999988690019,11
-43.82043,0.2833334,-39.63962,5.380149302120046,-0.9204610733410264,1.1199846760355283,2.061432,47.79416,358.8429,0.01235562,0.4051749,-0.01651726,5.07999988645315,11
-43.78232,0.4833334,-39.6268,4.94970920155145,-0.4636399877514882,1.0082683029839714,4.170129,44.45238,357.9763,0.02699933,0.3785493,-0.03009622,5.09999988600612,11
-43.57505,0.2833333,-39.6106,4.675094165406193,-0.4242859693661962,0.9078431779267008,2.810565,50.10993,0.1983475,0.02294941,0.423321,-0.008818176,5.11999988555908,11
-43.53873,0.4833332,-39.57692,4.3310471881246855,-0.3485863968521373,0.8093237933950519,5.626094,48.10091,0.2980624,0.04587528,0.4069319,-0.01762849,5.13999988511205,11
-43.50241,0.6833333,-39.54324,3.9314468661380815,-0.2895785699477906,0.7153148429352854,8.443048,46.08663,0.2985318,0.06875595,0.3901871,-0.02642314,5.15999988466501,11
-43.4661,0.8833332,-39.50957,3.490465129466621,0.3559630901124674,0.6283850492470648,11.2589,44.05691,0.1969336,0.09157464,0.3731013,-0.0352065,5.17999988421798,11
-43.25631,0.2833331,-39.49526,3.205511658963644,0.1007086596610387,0.546236111297425,2.901404,53.26723,0.1987771,0.02340782,0.4481,-0.009799,5.19999988377094,11
-43.21699,0.4833329,-39.46271,2.892952641162104,-0.1493182878088091,0.4787601949511995,5.807543,51.26629,0.2961756,0.04678951,0.4319324,-0.01958799,5.21999988332391,11
-43.17768,0.6833326,-39.43016,2.691151119392181,-0.1550679097185315,0.4075557334860136,8.714905,49.25938,0.291574,0.0701232,0.4153702,-0.02935784,5.23999988287687,11
-42.96212,0.2833333,-39.40733,2.477337199048925,-0.1299780123953051,0.3314271514290325,2.939972,56.99248,0.2433062,0.02355796,0.4768951,-0.01037378,5.25999988242984,11
-42.92067,0.4833332,-39.3764,2.268500619424394,-0.1273641252439292,0.2512118577642468,5.886472,55.001,0.3841508,0.04709042,0.460992,-0.02073984,5.2799998819828,11
-42.87923,0.6833331,-39.34549,1.9874930436799476,0.5197453253577997,0.1644142737089708,8.838159,53.00551,0.4218953,0.07059154,0.4446574,-0.03109806,5.29999988153577,11
-42.71924,0.283333,-39.33252,1.88213351815714,0.2671041811207115,0.0549438091806067,3.11256,58.99357,0.2316746,0.02463366,0.4921443,-0.01161327,5.31999988108873,11
-42.67414,0.483333,-39.30181,1.678405556725771,0.5009281985651377,-0.0146759835841407,6.235989,57.00723,0.3548519,0.04927469,0.4763575,-0.02323943,5.3399998806417,11
-42.62906,0.6833327,-39.27111,1.4706619106459795,0.7420701541282073,-0.0631222938933788,9.360956,55.01481,0.3692605,0.07385723,0.4600874,-0.03483877,5.35999988019466,11
-42.40299,0.2833333,-39.2464,1.4548764934312928,0.2979450045908857,-0.0901782338311534,3.286821,61.30189,0.1841404,0.02549107,0.5095566,-0.01323886,5.37999987974763,11
-42.35367,0.4833337,-39.2169,1.4421242227116124,-0.166565550661701,-0.0896651548694364,6.578473,59.31738,0.2530563,0.05095033,0.4939058,-0.02647581,5.39999987930059,11
-42.30437,0.6833338,-39.18741,1.4590096299948172,-0.1733614011644568,-0.1138067418381467,9.869612,57.32232,0.2068689,0.07634452,0.4777138,-0.03968043,5.41999987885356,11
-42.06241,0.2833338,-39.15486,1.4533898320031682,-0.1493172288946783,-0.1369327992276297,3.30015,62.30361,0.08199753,0.02501298,0.5170751,-0.01428387,5.43999987840652,11
-42.0116,0.483334,-39.12772,1.3094474916416343,0.3324430600394793,-0.1667569524013856,6.600378,60.31624,0.04853859,0.04998758,0.5015338,-0.0285555,5.45999987795949,11
-41.9608,0.683334,-39.10059,1.1607348977507002,0.7938179726169982,-0.2065801995521425,9.896507,58.3122,359.8984,0.07489669,0.4854415,-0.04279436,5.47999987751245,11
-41.79401,0.2833329,-39.08603,1.1934216386298928,0.3298294027042683,-0.2633247202922035,3.275334,61.9896,359.9499,0.02427305,0.5147606,-0.01509163,5.49999987706542,11
-41.74269,0.4833329,-39.06087,1.229863504200381,-0.154545407074515,-0.3306772868631071,6.545901,59.99701,359.7857,0.04851077,0.4992535,-0.03016217,5.51999987661839,11
-41.69139,0.683333,-39.03571,1.100752678447826,0.2456718494362235,-0.3736265652682533,9.80759,57.9804,359.5041,0.07268168,0.4832051,-0.04520127,5.53999987617135,11
-41.45801,0.2833332,-39.01056,1.1772910267333074,-0.0148100265362297,-0.4254359450435458,3.23563,61.97657,359.8755,0.02364374,0.5146835,-0.01546684,5.55999987572432,11
-41.40673,0.4833331,-38.98684,1.2596135377405844,-0.270064607004125,-0.4878535623079543,6.464058,59.98391,359.6382,0.04725435,0.499235,-0.03091264,5.57999987527728,11
-41.35547,0.683333,-38.96314,1.1407519989304191,0.1458346442203184,-0.5065547002378707,9.68128,57.96375,359.2856,0.07080585,0.4832556,-0.04632081,5.59999987483025,11
-41.10523,0.2833333,-38.9305,1.134094369260346,-0.0989666073107754,-0.5203148341897759,3.191974,60.46977,359.7649,0.02303022,0.503399,-0.01579634,5.61999987438321,11
-41.05435,0.4833334,-38.9075,0.9319463808923204,0.1416519557022403,-0.5175077578034006,6.372943,58.4742,359.4183,0.04602847,0.4879095,-0.03157153,5.63999987393618,11
-41.00348,0.6833334,-38.8845,0.7311078916503178,0.3885430819931071,-0.5175143613156976,9.538922,56.44565,358.9572,0.0689704,0.4719115,-0.04730873,5.65999987348914,11
-40.95263,0.8833336,-38.86151,0.7265776470416014,-0.0508781793125793,-0.524195599848774,12.68533,54.37098,358.3766,0.09182833,0.4554227,-0.06299154,5.67999987304211,11
-40.73049,0.2833333,-38.84321,0.7300575063291888,-0.5117303694484354,-0.5356725999375982,3.527143,61.72609,359.7436,0.02527009,0.5128025,-0.01770694,5.69999987259507,11
-40.67367,0.4833337,-38.81895,0.5489850802615308,-0.089035977903715,-0.52956531812805,7.042371,59.7322,359.3641,0.05050187,0.4973225,-0.03538705,5.71999987214804,11
-40.47647,0.2833333,-38.79359,0.5809974004289487,-0.3280869591960892,-0.521384141448415,3.504426,64.12655,359.799,0.02498238,0.5306519,-0.01771753,5.739999871701,11
-40.4195,0.4833333,-38.77103,0.6143023014894808,-0.5629552842038896,-0.5170859693493242,7.000079,62.14192,359.4755,0.04993201,0.5153705,-0.03542027,5.75999987125397,11
-40.36255,0.6833336,-38.74848,0.4531344816764644,-0.1277159608983652,-0.5058286710743474,10.4813,60.12058,359.0262,0.07481238,0.4994709,-0.0530749,5.77999987080693,11
-40.30561,0.8833335,-38.72594,0.2979997020750744,0.286092670275444,-0.4968733850412832,13.94351,58.0465,358.4451,0.09959338,0.4829731,-0.07066081,5.7999998703599,11
-40.0958,0.2833335,-38.71318,0.3243472018877966,-0.2265071910333826,-0.5003502823314747,3.567878,65.96997,359.8871,0.02557679,0.5441808,-0.01777383,5.81999986991286,11
-40.03773,0.4833338,-38.69061,0.2238670272343981,-0.0402493593375682,-0.4849403418675777,7.129275,64.00076,359.6512,0.05111646,0.5290577,-0.03552429,5.83999986946583,11
-39.97968,0.6833338,-38.66805,0.1339132866669601,0.1522807619997935,-0.470296574346051,10.67942,61.99938,359.2887,0.07658425,0.5132836,-0.0532259,5.85999986901879,11
-39.7514,0.2833336,-38.64811,0.251314447421656,-0.34150095088856,-0.4604416338212616,3.570035,68.37061,0.03258957,0.02592726,0.5615912,-0.0172668,5.87999986857176,11
-39.69331,0.4833336,-38.6256,0.1690264349742278,-0.1364264025496303,-0.4459738176673369,7.138157,66.42092,359.9435,0.05181452,0.5466793,-0.0345079,5.89999986812472,11
-39.48547,0.2833333,-38.59768,0.248848114008588,-0.3519557070726021,-0.4277873442389648,3.575317,69.28248,0.03188423,0.02582345,0.5681522,-0.01750382,5.91999986767769,11
-39.42694,0.4833336,-38.57608,0.3267660213746097,-0.5622578767358257,-0.4126757466246644,7.14865,67.33654,359.9417,0.05160458,0.5533316,-0.0349844,5.93999986723065,11
-39.36842,0.6833339,-38.55449,0.1868429200586447,-0.1014065118647616,-0.4049688380266261,10.71581,65.36771,359.7275,0.077313,0.5378292,-0.05241661,5.95999986678362,11
-39.30993,0.883334,-38.53291,0.0472201478727924,0.3390591763553783,-0.3993002280572781,14.27249,63.35976,359.3841,0.1029163,0.5216653,-0.06977908,5.97999986633658,11
-39.08997,0.2833333,-38.51703,0.0949460132552104,-0.1458383108252744,-0.4018222121775352,3.649577,69.62695,0.04674702,0.0263765,0.5706065,-0.01784472,5.99999986588955,11
-39.03016,0.4833327,-38.4951,0.0106536518983233,0.0691677536905183,-0.3917113986212186,7.297711,67.68985,359.97,0.05271187,0.5558318,-0.03566186,6.01999986544251,11
-38.97037,0.6833328,-38.47317,-0.0679373171453505,0.2914918299393088,-0.3805199873688707,10.94,65.72983,359.7672,0.0789703,0.5403507,-0.05342764,6.03999986499548,11
-38.73135,0.2833337,-38.45169,0.0662370608787057,-0.1714501812918956,-0.3675430229981913,3.620257,71.25848,0.08572026,0.02610993,0.5822278,-0.01779316,6.05999986454844,11
-38.67165,0.4833339,-38.43099,-0.007410909194597,0.0655105219734481,-0.3538404214931958,7.240306,69.33107,0.04959911,0.05217876,0.5676274,-0.03555867,6.07999986410141,11
-38.61197,0.6833338,-38.4103,-0.0798890121920194,0.3097890838190894,-0.3380917243365928,10.85606,67.3838,359.8893,0.07817306,0.5523151,-0.05327436,6.09999986365438,11
-38.4534,0.2833331,-38.40171,0.0790459318871015,-0.1311996185123581,-0.3126292345511672,3.567384,72.63286,0.1425645,0.02581669,0.5919257,-0.01743237,6.11999986320734,11
-38.3944,0.4833336,-38.38175,0.0066258753303571,0.1277144291967149,-0.2961844156946611,7.136376,70.71683,0.1658374,0.05159257,0.5774935,-0.03483752,6.13999986276031,11
-38.33541,0.6833336,-38.36179,-0.0699858956481378,0.393946436194003,-0.2787751268702436,10.70318,68.78538,0.06804107,0.07729661,0.5623537,-0.05219518,6.15999986231327,11
-38.10728,0.2833336,-38.3447,-0.1363408178782776,0.6152257263425744,-0.2607379991018774,3.512348,74.28604,0.2199745,0.02558755,0.6034751,-0.01697487,6.17999986186624,11
-38.049,0.4833335,-38.32539,-0.0017555933676334,-0.1144713646273498,-0.2492040938126933,7.029085,72.38312,0.3234123,0.05113672,0.5892342,-0.03392436,6.1999998614192,11
-37.99073,0.6833335,-38.30607,-0.0514874106227907,0.0691725739059769,-0.2310907468775198,10.54594,70.47039,0.3089561,0.07661237,0.5742882,-0.05082765,6.21999986097217,11
-37.74393,0.283333,-38.28239,-0.0957966466540796,0.2601337416822332,-0.2133453061757819,3.455931,74.36747,0.2403996,0.0252911,0.6040464,-0.01655366,6.23999986052513,11
-37.68667,0.4833335,-38.26305,-0.0974252923069087,0.2460206333619825,-0.1992245403076822,6.916394,72.4722,0.3667034,0.05054154,0.5898789,-0.03307953,6.2599998600781,11
-37.62942,0.6833335,-38.24372,-0.1088684210823487,0.2669283258439084,-0.1854233478423808,10.37822,70.56911,0.3779085,0.07572504,0.5750236,-0.04956218,6.27999985963106,11
-37.57219,0.8833336,-38.22439,-0.1166633358554065,0.2695407791271097,-0.1722818183713101,13.83747,68.6438,0.2710305,0.1008107,0.559499,-0.06598187,6.29999985918403,11
-37.36444,0.2833333,-38.21394,0.1052646022284875,-0.4397699629926782,-0.1527104716904048,3.407306,72.92999,0.1628229,0.02475353,0.5940343,-0.01652723,6.31999985873699,11
-37.30812,0.4833336,-38.1947,0.1487855635882766,-0.236785167274679,-0.1223256820706026,6.816712,71.03541,0.213069,0.0494683,0.5798359,-0.03302808,6.33999985828996,11
-37.25182,0.6833334,-38.17547,0.189422854789214,-0.0275280182321852,-0.0921004308670916,10.22501,69.1288,0.1493406,0.07411886,0.5649791,-0.04948695,6.35999985784292,11
-37.025,0.2833334,-38.1593,0.2407860009184474,0.1357312210222985,-0.0625287182923983,3.355195,71.96598,0.08681518,0.02413434,0.5872751,-0.01658783,6.37999985739589,11
-36.96949,0.4833331,-38.14065,0.2822999475711469,0.0672570158394982,-0.0394682343020491,6.710113,70.0705,0.06248585,0.04823133,0.5730702,-0.03315136,6.39999985694885,11
-36.76523,0.2833333,-38.11745,0.3174176085686824,0.0338040107187248,-0.016864028614016,3.309035,70.70879,359.9911,0.02350325,0.5783928,-0.0167702,6.41999985650182,11
-36.71038,0.4833335,-38.09943,0.1799447936080653,0.4622487941183022,-0.0017662652706462,6.614967,68.80897,359.8723,0.04697329,0.5641431,-0.03351701,6.43999985605478,11
-36.65554,0.6833333,-38.08142,0.2352799262097669,0.2341742792325203,0.0103754593437557,9.91387,66.88811,359.6414,0.07038122,0.5492842,-0.05022245,6.45999985560775,11
-36.60073,0.8833334,-38.06341,0.2814290505908978,0.0155081319027587,0.0207778554254574,13.2022,64.93281,359.2945,0.09370433,0.5338333,-0.06686796,6.47999985516071,11
-36.38397,0.2833332,-38.05075,0.3319354999049295,-0.2481109258509709,0.0289910129672463,3.261572,68.46478,359.868,0.02288087,0.5623498,-0.01696144,6.49999985471368,11
-36.32989,0.4833329,-38.03289,0.4188964119911702,-0.2909725861899983,0.0458040168334932,6.516083,66.5623,359.6275,0.04573064,0.5480124,-0.03389962,6.51999985426664,11
-36.27583,0.6833329,-38.01504,0.4876245476575143,-0.2998579968709631,0.058426334265583,9.75951,64.63241,359.2759,0.0685221,0.5330973,-0.05079468,6.53999985381961,11
-36.04138,0.2833336,-37.99628,0.5517354692393859,-0.3280839381328083,0.0664729142909408,3.212432,66.14317,359.7706,0.02239668,0.545518,-0.01697284,6.55999985337257,11
-35.9882,0.4833339,-37.97813,0.4096776475620736,0.291321255991292,0.0700708440287982,6.41459,64.2386,359.4341,0.04476294,0.5310786,-0.03392293,6.57999985292554,11
-35.93503,0.6833338,-37.96,0.4342964123393003,0.0141123696501064,0.0612840695221592,9.602827,62.30188,358.9874,0.06707519,0.516092,-0.05083317,6.5999998524785,11
-35.67989,0.2833333,-37.93451,0.4483513783024868,-0.2536876147558518,0.0490685737447833,3.369042,65.8143,359.7436,0.02346458,0.5430983,-0.0178479,6.61999985203147,11
-35.62408,0.4833337,-37.91541,0.3467552536407012,0.1538489814210846,0.0476645259136816,6.726798,63.91109,359.3749,0.04689515,0.5286131,-0.03567082,6.63999985158443,11
-35.56829,0.6833339,-37.89631,0.439497052827722,-0.0951334701371903,0.042741886320833,10.06948,61.9714,358.8903,0.07026619,0.5135423,-0.05344871,6.6599998511374,11
-35.51252,0.8833339,-37.87722,0.525448071841808,-0.3347073169182863,0.0361540465404957,13.39415,59.98101,358.2838,0.09355937,0.4979028,-0.07116926,6.67999985069036,11
-35.29167,0.2833333,-37.8645,0.4158220327470054,0.1010543060473048,0.0312111956700888,3.533458,67.07205,359.7646,0.0245636,0.5522502,-0.01874444,6.69999985024333,11
-35.23293,0.4833333,-37.84522,0.5168825237066805,-0.1197015535679506,0.0302730700570492,7.056399,65.17613,359.4116,0.04909031,0.5378336,-0.03746266,6.7199998497963,11
-35.17421,0.6833331,-37.82594,0.6041190758021315,-0.3310487351401457,0.0281842955050422,10.56585,63.24189,358.9368,0.07355703,0.5227751,-0.05613895,6.73999984934926,11
-34.93517,0.2833331,-37.8079,0.4658432894352842,0.1329398956677695,0.0196632296041414,3.56592,69.23534,359.8464,0.02484423,0.5678564,-0.01877782,6.75999984890223,11
-34.87572,0.4833326,-37.78932,0.318138506506056,0.5807240241522593,0.0092635341671396,7.124165,67.35228,359.575,0.04965047,0.5536147,-0.03753163,6.77999984845519,11
-34.81629,0.6833323,-37.77074,0.3456413160478249,0.1073276733332622,-0.0118474588512498,10.67043,65.4356,359.1822,0.07438762,0.5387048,-0.05623428,6.79999984800816,11
-34.55766,0.2833336,-37.74518,0.3699591767189503,-0.3822725266015804,-0.0340929317863896,3.590687,70.58815,-0.0003485971,0.02556932,0.5774896,-0.01810384,6.81999984756112,11
-34.49824,0.4833339,-37.72531,0.225150094885894,0.0169009220521965,-0.0469188865514738,7.178671,68.72498,359.8829,0.05110367,0.563372,-0.03617743,6.83999984711409,11
-34.43883,0.6833342,-37.70545,0.2786163638317518,-0.2404449479648981,-0.0625783753107498,10.75994,66.83777,359.6466,0.07656718,0.5485684,-0.05420145,6.85999984666705,11
-34.37944,0.8833345,-37.68559,0.328872001645518,-0.488381336976238,-0.0784032829225509,14.33039,64.91081,359.2856,0.1019272,0.533098,-0.07215411,6.87999984622002,11
-34.1606,0.2833338,-37.67368,0.1863535719223641,-0.0609824162758801,-0.0907592732141182,3.568978,70.99636,0.02123846,0.02545984,0.5803908,-0.01793156,6.89999984577298,11
-34.10151,0.4833338,-37.654,0.1574211194058001,-0.2901012012644784,-0.1157783345397902,7.135679,69.14275,359.9268,0.05088001,0.5663653,-0.03583629,6.91999984532595,11
-34.04245,0.6833339,-37.63433,-0.0450863247910255,-0.0296196386539434,-0.1444291446460823,10.69639,67.26685,359.7143,0.07622971,0.5516579,-0.05369256,6.93999984487891,11
-33.80228,0.2833331,-37.61628,-0.2474338385426904,0.2413156056324525,-0.1710678088200197,3.647658,72.29853,0.06318527,0.02602441,0.5895777,-0.01832911,6.95999984443188,11
-33.74164,0.4833331,-37.59685,-0.252393276599502,-0.1698795030641506,-0.2016009335358646,7.294395,70.45405,0.008861099,0.05200794,0.5756454,-0.03662984,6.97999984398484,11
-33.68102,0.683333,-37.57742,-0.2510578687063365,-0.598324175563054,-0.2298188128501337,10.93645,68.58899,359.8347,0.07791781,0.5609955,-0.0548794,6.99999984353781,11
-33.42138,0.2833336,-37.55385,-0.4225837069081386,-0.1390406654391152,-0.2491369958563467,3.620078,73.20446,0.07899381,0.02576778,0.5959409,-0.01828014,7.01999984309077,11
-33.361,0.4833333,-37.53525,-0.3766683538294018,-0.3373195045799978,-0.2640613603770276,7.239852,71.36716,0.04185527,0.05149619,0.582126,-0.03653261,7.03999984264374,11
-33.30064,0.6833329,-37.51665,-0.3260442260941474,-0.5272349832823666,-0.2750121877327771,10.85551,69.51076,359.8864,0.0771523,0.5675946,-0.05473448,7.0599998421967,11
-33.24029,0.8833329,-37.49806,-0.4716417916807103,-0.0428611917338107,-0.2829316370800256,14.46295,67.61955,359.6077,0.1027004,0.5523661,-0.0728649,7.07999984174967,11
-33.02179,0.2833331,-37.48745,-0.6052250856659676,0.4242629400959955,-0.2870808642598916,3.562389,74.64986,0.164742,0.02558851,0.6060053,-0.01770381,7.09999984130263,11
-32.96232,0.4833332,-37.46917,-0.5421800650453186,-0.0308395262896927,-0.2977177111613684,7.12712,72.82823,0.2163151,0.05113801,0.5923739,-0.03538047,7.1199998408556,11
-32.90287,0.6833335,-37.4509,-0.6957497948239748,0.2170973908283907,-0.3108645896514588,10.69061,70.99384,0.1531718,0.0766169,0.5780322,-0.05300941,7.13999984040856,11
-32.66491,0.2833331,-37.43457,-0.8395398101044123,0.4754881649028992,-0.3199877164057838,3.500264,75.76559,0.2284129,0.02532825,0.6137125,-0.017181,7.15999983996153,11
-32.6064,0.483333,-37.41661,-0.7759115721620766,0.0517480153742886,-0.3329245631328348,7.004938,73.95544,0.3463876,0.05061878,0.6002307,-0.03433637,7.17999983951449,11
-32.54791,0.683333,-37.39867,-0.6949660764021672,-0.3892412958218942,-0.3425792377747996,10.51013,72.13732,0.3529086,0.07583825,0.5860489,-0.05144466,7.19999983906746,11
-32.29123,0.2833334,-37.37628,-0.7805236288861934,0.0574980860266429,-0.3415078571180743,3.442837,75.57758,0.2406351,0.02502589,0.6124247,-0.0167482,7.21999983862042,11
-32.2338,0.4833334,-37.35815,-0.6438669749328874,-0.153326460569938,-0.3371866772673542,6.890141,73.77406,0.3732475,0.0500138,0.5989947,-0.03346867,7.23999983817339,11
-32.1764,0.6833332,-37.34003,-0.4981219018674139,-0.3557874672657966,-0.3295507259347374,10.33896,71.96394,0.3968257,0.07493664,0.5848849,-0.05014658,7.25999983772635,11
-32.11901,0.8833331,-37.32192,-0.5456937085291322,0.1160416016041365,-0.3173490818518516,13.78575,70.13368,0.3086912,0.09976497,0.5701125,-0.06676231,7.27999983727932,11
-31.90157,0.2833338,-37.31203,-0.5819121000948648,0.5706218185965992,-0.3013211205947925,3.395784,73.69016,0.1317421,0.02440036,0.5993624,-0.01684777,7.29999983683228,11
-31.84506,0.483334,-37.29408,-0.4352748820726795,0.1029764109995935,-0.2925995710170568,6.792716,71.88417,0.1565471,0.04876412,0.5858701,-0.03366952,7.31999983638525,11
-31.78857,0.6833339,-37.27613,-0.5097832078994919,0.3383687155556706,-0.2861688913431521,10.18781,70.06543,0.07290881,0.07306583,0.5717305,-0.05044948,7.33999983593822,11
-31.55246,0.2833331,-37.26082,-0.5800034498424651,0.5842146746940463,-0.2765778125314213,3.341941,72.67983,0.06325502,0.02381564,0.5923095,-0.01683489,7.35999983549118,11
-31.49684,0.4833336,-37.24328,-0.4515727335791055,0.1479286684773314,-0.2725548535654951,6.682748,70.87339,0.02106656,0.04759444,0.5788087,-0.03364425,7.37999983504415,11
-31.44124,0.6833335,-37.22575,-0.3141170633575427,-0.3056068378587366,-0.2664539139152211,10.01967,69.05074,359.8717,0.0713144,0.564686,-0.05041283,7.39999983459711,11
-31.28335,0.2833335,-37.22091,-0.3454027271151574,0.128586658814249,-0.2493106037609891,3.293147,71.29795,359.957,0.02313067,0.5825859,-0.01705185,7.41999983415008,11
-31.22841,0.4833333,-37.20406,-0.1593362424661926,-0.0947834933104647,-0.2312898279616106,6.582392,69.48794,359.8097,0.04622993,0.5690478,-0.03408095,7.43999983370304,11
-31.17349,0.6833331,-37.18722,0.0309647487575759,-0.3097906549850047,-0.2116606003635723,9.864046,67.65607,359.5559,0.06926954,0.5549135,-0.05106871,7.45999983325601,11
-30.94718,0.2833331,-37.17604,0.0218265506626345,0.1494931058633168,-0.1890089330201974,3.249138,70.22926,359.8716,0.02254621,0.5750086,-0.01722384,7.47999983280897,11
-30.89281,0.4833329,-37.15983,0.0174672046019388,0.5915274077988975,-0.1653018710953731,6.491686,68.41767,359.6402,0.04506215,0.5614533,-0.03442471,7.49999983236194,11
-30.83846,0.6833327,-37.14362,0.1881331226381171,0.111335555557272,-0.1546338099666258,9.72429,66.57998,359.3033,0.06752375,0.5473223,-0.05158486,7.5199998319149,11
-30.59468,0.2833333,-37.12662,0.1305169557069376,0.3341820683278383,-0.147763203959407,3.201765,67.67892,359.7598,0.02203785,0.5566978,-0.0172973,7.53999983146787,11
-30.54115,0.4833333,-37.11011,0.0697152475054991,0.5674831937126834,-0.139865926035128,6.393446,65.86375,359.418,0.04404643,0.5430263,-0.03457193,7.55999983102083,11
-30.48763,0.6833333,-37.0936,0.1973770379109325,0.1186532743138593,-0.139467920679138,9.57168,64.01691,358.9713,0.06600296,0.5288103,-0.05180639,7.5799998305738,11
-30.43413,0.8833333,-37.0771,0.3245275439768775,-0.347425818687643,-0.1388362746972546,12.73268,62.12639,358.4155,0.08788455,0.5140656,-0.06898042,7.59999983012676,11
-30.22153,0.2833333,-37.07032,0.2747739560395139,0.0742232641385251,-0.128825001682955,3.447737,67.91694,359.7408,0.02368866,0.558394,-0.01867944,7.61999982967973,11
-30.16375,0.4833333,-37.05278,0.4315261344144403,-0.1616905394670985,-0.1194171311326499,6.884713,66.10423,359.3721,0.04734365,0.5446851,-0.03733242,7.63999982923269,11
-30.10599,0.6833335,-37.03525,0.5814014256049163,-0.3892414520237058,-0.1092751556196489,10.30758,64.25438,358.8897,0.07093862,0.5303627,-0.05594091,7.65999982878566,11
-29.8759,0.2833335,-37.0248,0.5239730754548404,0.0574977562866173,-0.096486635276868,3.546508,70.39619,359.7982,0.02427167,0.5761727,-0.01927499,7.67999982833862,11
-29.81614,0.4833337,-37.00829,0.4638221791020598,0.4869876121418819,-0.0831814293047443,7.084688,68.59283,359.4836,0.04850854,0.5626221,-0.03853064,7.69999982789159,11
-29.7564,0.6833337,-36.99178,0.6789800100137917,-0.0057490183593812,-0.0682008478124274,10.61015,66.75417,359.0531,0.07268014,0.5484095,-0.05773509,7.71999982744455,11
-29.50684,0.2833333,-36.97552,0.6467327076095764,0.2045527574452828,-0.0587311412068771,3.580284,71.9903,359.8865,0.0246926,0.5874547,-0.01916027,7.73999982699752,11
-29.44655,0.4833333,-36.95902,0.5933354706304463,0.4253088536718739,-0.0507138675340002,7.154548,70.20029,359.6609,0.04934934,0.5740355,-0.03829394,7.75999982655048,11
-29.38627,0.6833333,-36.94252,0.5324464444829715,0.6042487259923579,-0.0446481320962348,10.71896,68.38014,359.3197,0.07393894,0.5599323,-0.05737605,7.77999982610345,11
-29.32602,0.8833331,-36.92603,0.6479145969107982,-0.1646508235226685,-0.0514481293085609,14.26971,66.51473,358.8574,0.09843135,0.5451628,-0.07638413,7.79999982565641,11
-29.11732,0.2833336,-36.91982,0.569466971126058,-0.0170744758573305,-0.0499205051963898,3.573224,72.76645,0.006938982,0.02513566,0.5928934,-0.01844507,7.81999982520938,11
-29.05753,0.4833339,-36.90213,0.4827391072664149,0.140955619170522,-0.0492202628352771,7.143942,70.995,359.9039,0.05023665,0.5795817,-0.03685852,7.83999982476234,11
-28.99776,0.6833339,-36.88446,0.5932757079733975,-0.3831447096112155,-0.0560040997373008,10.70876,69.20138,359.6877,0.0752696,0.5655831,-0.05522306,7.85999982431531,11
-28.76793,0.2833331,-36.87441,0.4839071971437505,-0.2042050669326622,-0.0615655550886629,3.597167,74.29946,0.04924236,0.02527594,0.6035917,-0.01861168,7.87999982386827,11
-28.70746,0.4833333,-36.85753,0.3613810400915938,-0.0148121921920519,-0.0687424403564946,7.193028,72.53712,359.9877,0.05051251,0.5904112,-0.03719578,7.89999982342124,11
-28.64701,0.6833335,-36.84066,0.4517019115460705,-0.507549480779482,-0.078536102378699,10.78447,70.75497,359.8127,0.0756792,0.5765233,-0.05573405,7.91999982297421,11
-28.3966,0.2833334,-36.82506,0.4081724823578696,-0.2972481616451489,-0.0761473384552005,3.643358,74.91135,0.05993182,0.02555272,0.6078269,-0.0189174,7.93999982252717,11
-28.33521,0.4833333,-36.80844,0.3554834154393091,-0.0764925896050109,-0.0746609470916652,7.285802,73.15511,0.008027104,0.05106574,0.5947027,-0.03780668,7.95999982208014,11
-28.27385,0.6833333,-36.79183,0.3084735345638414,0.1024467283863395,-0.0743325225433508,10.92389,71.37931,359.8422,0.07650787,0.5808517,-0.05664373,7.9799998216331,11
-28.2125,0.8833331,-36.77522,0.2487247293812835,0.0538355602616157,-0.0783247377167697,14.55445,69.56869,359.5574,0.1018486,0.5662914,-0.07541002,7.99999982118607,11
-28.00349,0.2833334,-36.77134,0.1794621273884331,0.0444273505626384,-0.0804229558139013,3.606212,75.84422,0.1000486,0.02535734,0.6142634,-0.01864963,8.01999982073903,11
-27.94265,0.4833336,-36.75518,0.115689152305741,0.020906518049663,-0.0809799333219132,7.212717,74.09899,0.09022448,0.0506759,0.6012719,-0.03727115,8.039999820292,11
-27.88184,0.6833338,-36.73904,0.0412807938969983,0.0099299902251814,-0.0867527881823164,10.81619,72.3374,359.9687,0.07592496,0.5875585,-0.05584206,8.05999981984496,11
-27.65317,0.283333,-36.73045,-0.043483161031947,0.0381563855438311,-0.0909261033719133,3.546166,77.94837,0.1975431,0.02513831,0.6286267,-0.0181215,8.07999981939793,11
-27.59315,0.483333,-36.71508,-0.1238812447938038,0.0522699611627579,-0.0939928685394946,7.095603,76.21772,0.2880623,0.05023891,0.6158504,-0.03621618,8.09999981895089,11
-27.53314,0.6833332,-36.69971,0.0307335474219989,-0.6413600859504337,-0.0977281391353557,10.64505,74.4777,0.27045,0.0752715,0.6023539,-0.05426292,8.11999981850386,11
-27.28485,0.2833338,-36.68568,0.0056580774662329,-0.4185135169019129,-0.0900050440919102,3.485544,78.25819,0.2330858,0.02487469,0.6307286,-0.01761518,8.13999981805682,11
-27.2259,0.4833338,-36.67021,-0.0198692713542811,-0.1852127606342351,-0.0828523165277133,6.975574,76.53609,0.3615755,0.04971388,0.6180403,-0.03520519,8.15999981760979,11
-27.16697,0.6833335,-36.65474,-0.031783174796665,0.0062713947695816,-0.0768023232356398,10.46649,74.80754,0.3848243,0.07448617,0.6046494,-0.05274686,8.17999981716275,11
-27.10805,0.8833333,-36.63928,-0.2228944030326509,0.7101274367219294,-0.0639092618022445,13.95545,73.05923,0.2999903,0.09916437,0.590572,-0.07022333,8.19999981671572,11
-26.80089,0.2833334,-36.62239,-0.1850564608892213,0.4110349597601681,-0.0663029914276762,3.427864,77.40753,0.2078712,0.02447464,0.6249709,-0.01728706,8.21999981626868,11
-26.74307,0.4833334,-36.60668,-0.1436588336235864,0.1270660613444842,-0.0674572818810901,6.85901,75.69012,0.3133449,0.04891303,0.6122981,-0.03454593,8.23999981582165,11
-26.68527,0.6833336,-36.59097,-0.3127026398253534,0.5241479676338551,-0.0675373603565461,10.29075,73.96526,0.3153415,0.07328892,0.5989494,-0.0517613,8.25999981537461,11
-26.62749,0.8833336,-36.57527,-0.2973094607830333,0.2704267556367165,-0.0763807003050587,13.72003,72.22018,0.211168,0.09757525,0.5849406,-0.06891474,8.27999981492758,11
-26.41024,0.2833333,-36.56933,-0.2865092684275865,0.0318291734107891,-0.083675934799416,3.371534,75.14021,0.0966045,0.02383069,0.609448,-0.01726914,8.29999981448054,11
-26.35357,0.4833331,-36.55346,-0.2665549267489773,-0.2460059061362718,-0.0899914450383221,6.743077,73.41987,0.0921767,0.04762671,0.5966914,-0.03451104,8.31999981403351,11
-26.29692,0.683333,-36.5376,-0.1994725379154047,-0.2973709034269155,-0.0888192693466862,10.11196,71.68591,359.985,0.07136349,0.5832965,-0.05171062,8.33999981358647,11
-26.06073,0.2833331,-36.52746,-0.1393787209982377,-0.3090455963810211,-0.0878943943167698,3.316753,73.91198,-0.001582559,0.02311766,0.6009499,-0.01740985,8.35999981313944,11
-26.00489,0.4833333,-36.51229,-0.0723341499042788,-0.3343455057787428,-0.0878394231266028,6.630924,72.18839,359.8969,0.04620324,0.5881703,-0.03479613,8.3799998126924,11
-25.94906,0.683333,-36.49713,-0.1885660359824505,0.2937025897439418,-0.0801741218827487,9.939241,70.44599,359.6934,0.06922974,0.5747793,-0.0521404,8.39999981224537,11
-25.69473,0.2833333,-36.48249,-0.1350295764058273,0.0308512240888241,-0.0882168251758841,3.264659,72.24375,359.8833,0.0224097,0.5892887,-0.0176146,8.41999981179833,11
-25.63964,0.4833331,-36.46788,-0.0762582914042262,-0.2168769378871455,-0.0950563476322656,6.52343,70.51574,359.668,0.04478979,0.5764545,-0.03520618,8.4399998113513,11
-25.58456,0.683333,-36.45328,-0.22665501613195,0.216445421796937,-0.09980160712945,9.772881,68.76292,359.3513,0.06711356,0.5630365,-0.05275577,8.45999981090426,11
-25.5295,0.8833329,-36.43868,-0.1928628142004811,-0.0010347559054955,-0.1158488649294966,13.01015,66.97334,358.9294,0.0893609,0.5490495,-0.07024643,8.47999981045723,11
-25.31281,0.2833334,-36.43315,-0.1632854912538235,-0.203391203651508,-0.1318652482607945,3.212213,68.96573,359.7626,0.02193104,0.565984,-0.01757535,8.49999981001019,11
-25.25878,0.4833332,-36.41769,-0.1244595486852873,-0.4449852753004881,-0.1483662492417679,6.414933,67.23483,359.4279,0.04383329,0.5530031,-0.03512833,8.51999980956316,11
-25.20477,0.6833333,-36.40224,-0.240192555966594,0.1802052558902248,-0.150598210240922,9.605004,65.47309,358.9927,0.0656841,0.5394766,-0.05264073,8.53999980911613,11
-24.96684,0.2833333,-36.39191,-0.0965097562865224,-0.0855034038581485,-0.1610135084357011,3.369725,69.27155,359.7554,0.02297898,0.5681622,-0.01846621,8.55999980866909,11
-24.91006,0.4833333,-36.37593,0.0461992257097101,-0.3360889498327102,-0.1707243913375009,6.729671,67.5433,359.4088,0.04592629,0.5551704,-0.03690742,8.57999980822206,11
-24.8533,0.6833335,-36.35995,0.0004904632496192,0.0943768830026072,-0.1710585307987742,10.07659,65.78116,358.9567,0.06881654,0.5415872,-0.05530387,8.59999980777502,11
-24.59426,0.2833331,-36.34518,0.1707328243449559,-0.1259602675034622,-0.1720866140204009,3.534579,71.04919,359.7806,0.02398789,0.580823,-0.01947697,8.61999980732799,11
-24.53441,0.4833328,-36.32966,0.3325487118029606,-0.3311739051501045,-0.1708170844379353,7.060177,69.32636,359.4545,0.04794107,0.5679066,-0.03892741,8.63999980688095,11
-24.47459,0.6833328,-36.31415,0.2744158418189855,0.1446620922677365,-0.1659938459988552,10.5744,67.5683,359.0172,0.07183599,0.5543363,-0.05833685,8.65999980643392,11
-24.41479,0.8833328,-36.29864,0.2120434037289946,0.6100090476827073,-0.1595086742813976,14.07251,65.7607,358.4633,0.09563942,0.5401291,-0.07767326,8.67999980598688,11
-24.355,0.9766702,-36.28313,0.3284907838420317,0.1598901570204874,-0.1643608009085966,17.55046,63.88809,357.7846,0.1193233,0.5253024,-0.09691434,8.69999980553985,11
-24.0952,0.2833333,-36.28193,0.4466066833222939,-0.3007175237876892,-0.1663212512716541,3.573285,72.99814,359.8802,0.0244409,0.5945465,-0.01938519,8.71999980509281,11
-24.03473,0.4833333,-36.26659,0.283019381928522,0.1331632623438942,-0.167600773240089,7.140738,71.29272,359.6535,0.04884681,0.5817999,-0.03874478,8.73999980464578,11
-23.97427,0.6833333,-36.25126,0.2925679909221585,-0.0837594924183902,-0.1794232816337881,10.69879,69.55791,359.3168,0.0731871,0.568374,-0.05805356,8.75999980419874,11
-23.74508,0.2833333,-36.24448,0.2916846448405366,-0.2855588127270686,-0.1899555090385547,3.571789,74.85968,0.02660639,0.02488887,0.6074885,-0.01875728,8.77999980375171,11
-23.6848,0.4833333,-36.22863,0.2948339713345582,-0.5265957589424215,-0.1996924313836316,7.141809,73.17314,359.9482,0.04974245,0.594902,-0.03748534,8.79999980330467,11
-23.62454,0.6833333,-36.21278,0.3086701240830081,-0.5411619244797552,-0.2192903837721687,10.70694,71.46676,359.7624,0.07452942,0.5816226,-0.05616434,8.81999980285764,11
-23.37458,0.2833331,-36.20185,0.3120073980345914,-0.5160371103451026,-0.2371819816304352,3.596826,75.87603,0.04724988,0.02500446,0.6144956,-0.01896955,8.8399998024106,11
-23.31368,0.483333,-36.18663,0.3196135987150619,-0.5045374708376298,-0.2537355057978416,7.192432,74.19637,359.989,0.04997154,0.6019998,-0.03791081,8.85999980196357,11
-23.2528,0.683333,-36.17141,0.1306690629907692,0.1603092618177044,-0.2625082630865094,10.78397,72.49786,359.8227,0.07487084,0.5887948,-0.05680566,8.87999980151653,11
-23.19194,0.8833331,-36.1562,-0.048449098061841,0.6741791999816543,-0.2691808769795969,14.36792,70.76641,359.5444,0.09967251,0.5748973,-0.07562794,8.8999998010695,11
-22.98178,0.283333,-36.15552,-0.0277596931271588,0.1610215654329094,-0.3279019474108011,3.643134,76.13461,0.0548098,0.02532024,0.6162632,-0.01922306,8.91999980062246,11
-22.92006,0.4833328,-36.14025,-0.2294363231406606,0.3581505243604583,-0.3799645779781642,7.285259,74.46218,0.003167242,0.05060182,0.6038076,-0.03841752,8.93999980017543,11
-22.85835,0.6833328,-36.12499,-0.4269380088657648,0.5729822448280383,-0.4256587046854889,10.92324,72.77097,359.843,0.07581381,0.5906264,-0.05755988,8.95999979972839,11
-22.62882,0.2833332,-36.12071,-0.4637653348615451,0.1129313496078271,-0.5090006916980556,3.605695,78.07327,0.1190321,0.02509057,0.6294797,-0.01900787,8.97999979928136,11
-22.56748,0.4833333,-36.10658,-0.4862569149478801,-0.3571204491087637,-0.5827332790725848,7.212234,76.41212,0.1334922,0.05014302,0.617209,-0.03798769,8.99999979883432,11
-22.50616,0.6833332,-36.09245,-0.6737335020995232,0.067803412656558,-0.6364477547031768,10.81663,74.73692,0.04180978,0.07512778,0.6042092,-0.05691697,9.01999979838729,11
-22.44486,0.8833331,-36.07832,-0.6800225285954546,-0.1575874086356778,-0.7278262073905211,14.41551,73.03358,359.8398,0.1000104,0.5904965,-0.07577536,9.03999979794025,11
-22.15579,0.2833333,-36.07256,-0.6639665154791174,-0.367366963708797,-0.805197234175651,3.540203,80.15599,0.220034,0.02487106,0.6434761,-0.01841879,9.05999979749322,11
-22.09539,0.4833331,-36.0591,-0.8321157461438276,0.1043917227846709,-0.8632975134746133,7.084242,78.51112,0.3385446,0.04970564,0.6314276,-0.03681118,9.07999979704618,11
-22.03501,0.6833332,-36.04564,-0.978215344183404,0.5661493360767298,-0.909118553066186,10.62912,76.85943,0.3547719,0.07447432,0.6186545,-0.05515542,9.09999979659915,11
-21.77685,0.2833333,-36.03459,-0.9501590853954838,0.1129283677474483,-0.9683439819895554,3.473638,79.99828,0.2408154,0.02456813,0.6424307,-0.01787245,9.11999979615211,11
-21.7177,0.4833334,-36.02077,-1.1320406507937797,0.3699949889097037,-1.0112686932382855,6.951378,78.36031,0.382749,0.04910029,0.6304384,-0.03571593,9.13999979570508,11
-21.65856,0.6833334,-36.00696,-1.2992500744761877,0.6447642891987634,-1.0400183469459208,10.43061,76.71748,0.4249635,0.07356866,0.6177456,-0.0535138,9.15999979525805,11
-21.59944,0.8833334,-35.99315,-1.439717712910447,0.8849655139847628,-1.055944058304476,13.90859,75.0573,0.3650906,0.09794641,0.6043676,-0.07124691,9.17999979481101,11
-21.38162,0.2833336,-35.99118,-1.3545288942770668,0.1845755480128798,-1.0502738105247431,3.419776,78.70062,0.1961156,0.02415845,0.6337374,-0.0175967,9.19999979436398,11
-21.32358,0.4833336,-35.97696,-1.2414004498660098,-0.4244271684873713,-1.030314590261888,6.842384,77.06522,0.2949866,0.0482821,0.6217275,-0.03516527,9.21999979391694,11
-21.26555,0.6833338,-35.96274,-1.327392875863996,-0.0393333157648557,-0.9809248227438232,10.26539,75.42269,0.2955623,0.0723453,0.6090464,-0.05269042,9.23999979346991,11
-21.0433,0.2833335,-35.95971,-1.2628437006061295,-0.3050421377261558,-0.8798835760564927,3.368244,78.27219,0.1269998,0.02349492,0.6308663,-0.01769017,9.25999979302287,11
-20.98602,0.4833336,-35.94642,-1.1776899990675955,-0.5556272576957708,-0.7687152335380532,6.737345,76.63557,0.1574297,0.04695288,0.6188873,-0.03535681,9.27999979257584,11
-20.92875,0.6833338,-35.93314,-1.261740243258096,-0.1251622584885363,-0.6394251459500921,10.10498,74.9881,0.09053409,0.07035385,0.6062585,-0.0529809,9.2999997921288,11
-20.6994,0.2833335,-35.94035,-1.2078919376078616,-0.345500501274768,-0.4771677553305977,3.315531,78.09728,0.02686552,0.02261456,0.6297109,-0.01804296,9.31999979168177,11
-20.64273,0.4833335,-35.92879,-1.1333657701017188,-0.5507154370604073,-0.3091290333105192,6.629521,76.45698,359.9587,0.0451989,0.6177801,-0.03606219,9.33999979123473,11
-20.58606,0.6833334,-35.91722,-1.2533943359548498,-0.074879824789366,-0.1321360968035918,9.938831,74.80038,359.7932,0.06772308,0.6052186,-0.05404167,9.3599997907877,11
-20.52942,0.8833336,-35.90566,-1.3548004920312824,0.3904672603436753,0.0466663153078883,13.24098,73.11588,359.5276,0.09016939,0.5920402,-0.07196075,9.37999979034066,11
-20.47279,0.9766707,-35.8941,-1.3702148929150226,-0.0596519024738512,0.2608846354370726,16.533,71.39115,359.157,0.1125152,0.5782595,-0.08980093,9.39999978989363,11
-20.2512,0.2833335,-35.93298,-1.3530081176069526,-0.5202597359991376,0.4729060071207271,3.258684,77.30969,359.8914,0.02161282,0.6243956,-0.01849997,9.41999978944659,11
-20.19517,0.4833334,-35.92316,-1.4704950281913227,-0.0863787819919864,0.6973048784254132,6.511992,75.66624,359.6891,0.04319715,0.612493,-0.03697629,9.43999978899956,11
-20.13916,0.6833336,-35.91333,-1.553240233675547,0.337013694882657,0.9157621481258716,9.757128,73.99942,359.3907,0.06473055,0.5999833,-0.05541046,9.45999978855252,11
-19.94958,0.2833333,-35.94442,-1.542631351516123,-0.1550610886737319,1.157258592857488,3.207105,76.77843,359.8021,0.0208615,0.6207941,-0.01873126,9.47999978810549,11
-19.89419,0.4833333,-35.93578,-1.684856613173764,0.0626628532397548,1.3994473609626468,6.406298,75.13277,359.5117,0.04169593,0.6089109,-0.0374388,9.49999978765845,11
-19.83882,0.6833332,-35.92715,-1.7898198669804,0.2976012202556496,1.6293677964808992,9.594843,73.45939,359.1262,0.06248271,0.5964392,-0.05610457,9.51999978721142,11
-19.63488,0.2833335,-35.96211,-1.7475613002737165,-0.1428301684682038,1.8827084244590964,3.44904,76.69811,359.7513,0.02225501,0.6202195,-0.02037316,9.53999978676438,11
-19.57513,0.4833334,-35.95333,-1.6602936384920053,-0.5937505355119798,2.1150205074926234,6.888666,75.05018,359.403,0.04447934,0.6082485,-0.04071844,9.55999978631735,11
-19.5154,0.6833334,-35.94455,-1.7902819124663765,-0.150182932186173,2.3343142627306293,10.31618,73.36765,358.9511,0.06664912,0.5956146,-0.06101699,9.57999978587031,11
-19.4557,0.8833334,-35.93577,-1.8834263777997773,0.2828957568511305,2.53055086186955,13.72953,71.63741,358.39,0.08874799,0.5823314,-0.0812531,9.59999978542328,11
-19.26566,0.2833335,-35.95012,-1.828699892140131,-0.1994910734107338,2.715144641326205,3.542778,75.40221,359.7386,0.02306306,0.6113043,-0.02070796,9.61999978497624,11
-19.20453,0.4833336,-35.9398,-1.96732272879305,0.0279210007367802,2.8738612774727272,7.076522,73.7585,359.3756,0.04610133,0.5992467,-0.04138699,9.63999978452921,11
-19.14341,0.6833336,-35.92948,-2.077257861046231,0.272547478294423,3.00234266131789,10.59732,72.07789,358.9064,0.06907938,0.586507,-0.06201285,9.65999978408217,11
-19.08231,0.8833337,-35.91917,-1.9930967510290287,-0.1581959421506813,3.1060040562096844,14.10176,70.34658,358.3249,0.09197052,0.5731006,-0.08256152,9.67999978363514,11
-18.84615,0.2833335,-35.89935,-1.879126829243198,-0.5994283908340797,3.173123722653948,3.576313,71.78498,359.8032,0.02427247,0.5860233,-0.0196848,9.6999997831881,11
-18.78558,0.4833334,-35.88392,-1.9156210873238528,-0.1461725065645454,3.217205146224863,7.145185,70.15356,359.5064,0.04852504,0.5737712,-0.03932749,9.71999978274107,11
-18.72503,0.6833333,-35.86849,-1.9225401219914195,0.2965943201951909,3.224536778442264,10.70307,68.48897,359.1037,0.07271347,0.5608585,-0.05891895,9.73999978229403,11
-18.54735,0.2833337,-35.81628,-1.661891052494246,-0.1761054082593325,3.200391985546837,3.548695,69.93904,359.943,0.02508792,0.5728783,-0.01815396,9.759999781847,11
-18.48857,0.4833338,-35.79676,-1.576323516336192,0.0609942626104709,3.146854071106759,7.093333,68.32578,359.7878,0.0501491,0.5605659,-0.03626724,9.77999978139997,11
-18.42982,0.6833336,-35.77724,-1.4801044191181632,0.3153084977965655,3.053287643084154,10.63121,66.68877,359.5299,0.07514523,0.5476191,-0.05433445,9.79999978095293,11
-18.26338,0.2833335,-35.73261,-1.155662363631354,-0.1057478039403889,2.915274167737536,3.619558,65.57523,359.9321,0.02622898,0.541272,-0.01760036,9.8199997805059,11
-18.20504,0.4833332,-35.70833,-1.0322363081583692,0.1829953807645559,2.7592191477614776,7.234819,63.96507,359.7622,0.05241985,0.5287153,-0.03517462,9.83999978005886,11
-18.14672,0.6833331,-35.68407,-0.915765162370656,0.4889531112297509,2.566394613012804,10.84362,62.32963,359.4891,0.07855319,0.5155417,-0.05269502,9.85999977961183,11
-18.08842,0.8833333,-35.65982,-0.79651795405338,0.7598549482780703,2.338114967337376,14.4421,60.65496,359.1066,0.1045875,0.5017675,-0.07014436,9.87999977916479,11
-17.97772,0.2833333,-35.60173,-0.4922815831624962,0.0896775323770157,2.0520194289769904,3.631719,60.69868,359.9285,0.02702979,0.5050341,-0.01654906,9.89999977871776,11
-17.92146,0.4833336,-35.57253,-0.1865176752772175,-0.4896000339760935,1.7338605892436831,7.258955,59.09448,359.7551,0.05401936,0.4922685,-0.03307312,9.91999977827072,11
-17.86522,0.6833338,-35.54333,-0.0666868837444081,-0.0752685265109834,1.4458135823421614,10.87884,57.46447,359.4769,0.08093666,0.4789267,-0.04955277,9.93999977782369,11
-17.80898,0.883334,-35.51415,0.0536469333818576,0.3280861379382548,1.138082010758545,14.48874,55.79501,359.0905,0.1077591,0.4650263,-0.06595872,9.95999977737665,11
-17.70813,0.2833331,-35.45534,0.4224369312387281,-0.1845137496800798,0.7836310431436004,3.583055,60.27621,0.0796463,0.02738555,0.5018218,-0.0150959,9.97999977692962,11
-17.65411,0.483333,-35.42385,0.623764855732146,0.0121981002267933,0.4643310938460701,7.165862,58.69303,0.06027853,0.05473084,0.4891036,-0.03016968,9.99999977648258,11
-17.60011,0.683333,-35.39237,0.810960959137148,0.225636308340231,0.1405638685234649,10.74569,57.09453,359.9402,0.0820041,0.4758269,-0.04520382,10.0199997760355,11
-17.45302,0.2833333,-35.32525,1.2017827392279994,-0.2367832784785356,-0.2039826235132196,3.518495,60.95843,0.1810344,0.02725844,0.5069442,-0.01421086,10.0399997755885,11
-17.40045,0.4833331,-35.29339,1.401033676177457,0.0101080862531348,-0.4944131759954189,7.039616,59.38961,0.265865,0.05447819,0.4943204,-0.02840145,10.0599997751415,11
-17.3479,0.6833328,-35.26154,1.5716708018549743,0.2737261160194707,-0.7741594024976486,10.56035,57.81274,0.2538964,0.08162687,0.4811488,-0.04255204,10.0799997746944,11
-17.29536,0.8833325,-35.22971,1.722835433164672,0.5018003721660544,-1.03996710438836,14.07836,56.21549,0.1424752,0.1086764,0.4674452,-0.05664773,10.0999997742474,11
-17.14821,0.2833332,-35.18559,2.023156287195638,-0.2116923842688933,-1.318123060529885,3.454921,62.73611,0.2667767,0.02695051,0.5202358,-0.01370471,10.1199997738004,11
-17.09633,0.483333,-35.15454,2.1476883002910903,-0.0024358081986946,-1.5461526700514874,6.914412,61.18144,0.4397718,0.05385941,0.5077729,-0.02739051,10.1399997733533,11
-17.04446,0.683333,-35.12351,2.242912680318897,0.2235472872455816,-1.7470479512408907,10.3763,59.62463,0.5190201,0.08070118,0.4947632,-0.04104229,10.1599997729063,11
-16.84663,0.2833333,-35.08621,2.497573906202477,-0.2263281576203254,-1.940042173603338,3.401778,64.98682,0.2423518,0.02617075,0.5369118,-0.01416203,10.1799997724593,11
-16.79424,0.4833332,-35.05802,2.719870883048337,-0.6871805671182362,-2.096758529231206,6.807593,63.43451,0.3914089,0.05229767,0.5246248,-0.02831317,10.1999997720122,11
-16.74186,0.6833333,-35.02983,2.7093661151033785,-0.2540323276773171,-2.2253246000718256,10.21517,61.87887,0.4480969,0.07836064,0.5117878,-0.04243018,10.2199997715652,11
-16.68949,0.8833332,-35.00165,2.662325995717426,0.168138890069583,-2.318464413326513,13.62208,60.30863,0.4103905,0.1043321,0.4984151,-0.05649883,10.2399997711182,11
-16.42303,0.2833332,-34.96801,2.830669838334286,-0.3256434917075164,-2.3990773377414847,3.345007,67.57365,0.1608985,0.02503777,0.555833,-0.01506428,10.2599997706711,11
-16.36981,0.4833331,-34.9439,2.810413277074033,-0.1101150493000732,-2.481530342165474,6.6918,66.02032,0.2292844,0.05003045,0.5437601,-0.03012078,10.2799997702241,11
-16.31661,0.6833333,-34.9198,2.7381832326614117,0.1221396891119861,-2.529101382192461,10.03822,64.45921,0.2062218,0.07496361,0.5311344,-0.04514195,10.2999997697771,11
-16.06862,0.2833333,-34.90021,2.8369498917197813,-0.3214635389426665,-2.557042035957597,3.290113,68.5983,0.009411291,0.02376189,0.5632796,-0.01610937,10.31999976933,11
-16.01495,0.4833333,-34.87988,2.75008383324991,-0.0557554832675623,-2.575333137594153,6.578283,67.03676,359.929,0.04749211,0.5513244,-0.03219863,10.339999768883,11
-15.96128,0.6833334,-34.85954,2.603071896399646,0.2266796080403723,-2.561354565033092,9.861649,65.45892,359.7558,0.07115817,0.5388249,-0.04825864,10.359999768436,11
-15.90764,0.8833335,-34.83921,2.406064751016073,0.4735707627315684,-2.514215811128093,13.13801,63.8539,359.4876,0.09474348,0.5257946,-0.06426854,10.3799997679889,11
-15.69243,0.2833334,-34.84114,2.335809844989768,-0.2211047122770207,-2.4582295269192187,3.240102,68.73498,359.9036,0.02286143,0.5642926,-0.01665344,10.3999997675419,11
-15.63888,0.4833335,-34.82295,2.152712789041045,0.0069690484319099,-2.405872438946197,6.475423,67.1709,359.7184,0.04569312,0.552411,-0.03328626,10.4199997670949,11
-15.58534,0.6833335,-34.80477,1.9259472468299477,0.251768911570203,-2.326543723425118,9.703529,65.5852,359.4425,0.06847304,0.5399985,-0.04988215,10.4399997666478,11
-15.53183,0.8833334,-34.78658,1.6666582220763164,0.4610244230636254,-2.220584402105878,12.92142,63.96702,359.0712,0.09117185,0.5270677,-0.06642959,10.4599997662008,11
-15.25516,0.2833333,-34.79578,1.6166971200737716,-0.2712870071107741,-2.1164666853529117,3.268445,69.51364,359.8097,0.02248408,0.5699008,-0.01762199,10.4799997657537,11
-15.20034,0.4833334,-34.77969,1.4743942366562184,-0.0808479842737728,-2.0200366677726507,6.52956,67.94749,359.5298,0.04493884,0.5580951,-0.0352217,10.4999997653067,11
-15.14553,0.6833332,-34.76361,1.302253322235245,0.1263177456756848,-1.903233917645057,9.78086,66.35396,359.1574,0.06734222,0.5457448,-0.05278214,10.5199997648597,11
-14.89619,0.2833334,-34.76548,1.3121421776321611,-0.3423745418924681,-1.785859353886309,3.528274,72.55605,359.808,0.0238265,0.5914643,-0.01956592,10.5399997644126,11
-14.83619,0.4833334,-34.75105,1.1805654279192126,-0.1017558726831259,-1.6912025535754085,7.049098,70.99174,359.5192,0.04761938,0.5797509,-0.0391048,10.5599997639656,11
-14.77623,0.6833334,-34.73661,1.0218745263045346,0.1555893744433024,-1.5834048510401786,10.56151,69.39581,359.1288,0.07135717,0.5673923,-0.05861425,10.5799997635186,11
-14.71628,0.8833336,-34.72218,0.8495826545484775,0.3773911481571455,-1.464332766473337,14.06077,67.75537,358.6326,0.09500787,0.5544039,-0.07805334,10.5999997630715,11
-14.50691,0.2833334,-34.73547,0.8336562462493262,-0.3423733087431848,-1.3607503262404137,3.56114,74.96155,359.8515,0.02386907,0.6082328,-0.01993491,10.6199997626245,11
-14.44604,0.4833335,-34.72268,0.6978978703299266,-0.1393892604939846,-1.2614506644308463,7.116152,73.40707,359.6052,0.04770043,0.5966904,-0.03984875,10.6399997621775,11
-14.38519,0.6833336,-34.70989,0.5580863056459471,0.0803215074125991,-1.154849469526205,10.66212,71.82349,359.2586,0.07147024,0.5844759,-0.0597116,10.6599997617304,11
-14.15586,0.2833333,-34.71826,0.4284157059110676,0.2644882505394603,-1.0433889607943598,3.592469,77.71809,0.0003485978,0.02441006,0.6270982,-0.01966374,10.6799997612834,11
-14.09443,0.4833333,-34.70574,0.3694347985989239,0.2273764849624024,-0.9674928519880196,7.18288,76.18208,359.9041,0.04878516,0.6157423,-0.03930204,10.6999997608364,11
-14.03302,0.6833332,-34.69323,0.3006785326672396,0.2357400815766657,-0.886489876051705,10.7684,74.62621,359.709,0.07309668,0.6036834,-0.05888961,10.7199997603893,11
-13.97163,0.8833329,-34.68071,0.2368036387328675,0.2362628717086819,-0.8028948734642576,14.34627,73.03749,359.411,0.09731584,0.5909362,-0.07840432,10.7399997599423,11
-13.68255,0.2833333,-34.69205,0.3820456165108297,-0.464684721494063,-0.7421832274125002,3.570113,79.88091,0.07006828,0.0242755,0.6416649,-0.01952948,10.7599997594953,11
-13.62129,0.4833333,-34.68073,0.2808378097306221,-0.2428830700932992,-0.6888251236485132,7.139678,78.3577,0.04472595,0.04851264,0.6304985,-0.0390336,10.7799997590482,11
-13.56004,0.6833332,-34.6694,0.1753208714603182,-0.0043547194206599,-0.6349830294814005,10.70627,76.81944,359.9227,0.07268688,0.6186202,-0.05848787,10.7999997586012,11
-13.29904,0.2833332,-34.67403,0.2906820957758125,-0.4416847409212838,-0.6028901516916605,3.647791,80.75661,0.07688217,0.02468016,0.6474869,-0.02010808,10.8199997581542,11
-13.23627,0.4833331,-34.66331,0.1710017824313148,-0.1697034682380406,-0.5678829209329344,7.295308,79.2384,0.05709041,0.04932394,0.6363659,-0.0401867,10.8399997577071,11
-13.17351,0.6833332,-34.65261,0.0383552376014169,0.1190043729535929,-0.5328292739298099,10.93994,77.70484,359.9388,0.07390133,0.6244996,-0.06021244,10.8599997572601,11
-13.11078,0.8833331,-34.6419,-0.0925530938008609,0.372168224473883,-0.4999100075295786,14.57974,76.14272,359.7178,0.09838598,0.6119023,-0.08016817,10.879999756813,11
-12.892,0.2833334,-34.65472,-0.2069652940946884,0.4236876889795701,-0.4713392410515524,3.619987,81.43781,0.08593059,0.02442788,0.6520049,-0.02003641,10.899999756366,11
-12.82963,0.4833333,-34.64466,-0.2706721469374429,0.3558050912380071,-0.4529205295902514,7.239936,79.92666,0.07638657,0.04882002,0.6409832,-0.04004366,10.919999755919,11
-12.76728,0.6833332,-34.6346,-0.3372428114877639,0.3338857267432963,-0.4332841931980056,10.85733,78.40112,359.9697,0.07314777,0.6292214,-0.05999867,10.9399997554719,11
-12.70494,0.8833331,-34.62455,-0.3915465782775804,0.3046136253628298,-0.4147055425795116,14.46937,76.84834,359.762,0.09737957,0.6167341,-0.07987934,10.9599997550249,11
-12.42644,0.2833332,-34.6408,-0.2321887898792454,-0.425641443921787,-0.4243028851449821,3.552991,84.4784,0.2179658,0.02422922,0.6718593,-0.01943195,10.9799997545779,11
-12.36499,0.4833333,-34.63186,-0.3158313847982708,-0.2326591488266792,-0.4039170326908348,7.109373,82.98586,0.343489,0.04842311,0.6611108,-0.0388364,10.9999997541308,11
-12.30355,0.6833333,-34.62293,-0.3915569139068964,-0.022462716552751,-0.3826452380514027,10.66676,81.4882,0.3760467,0.07255461,0.6496215,-0.05819137,11.0199997536838,11
-12.05539,0.2833334,-34.63144,-0.2427332041618335,-0.4876358616017759,-0.3858592319217564,3.487117,84.90462,0.2461246,0.02389863,0.6746141,-0.01895285,11.0399997532368,11
-11.99506,0.4833334,-34.62254,-0.3134656957071033,-0.2430100642581632,-0.369292169683213,6.978423,83.41917,0.4019883,0.04776353,0.6639584,-0.0378797,11.0599997527897,11
-11.93473,0.6833332,-34.61365,-0.3883894774113798,0.0188300559989401,-0.3522521722619274,10.47115,81.93091,0.4673492,0.07156606,0.6525822,-0.05675717,11.0799997523427,11
-11.87443,0.8833333,-34.60476,-0.4541416845352604,0.2456141800404321,-0.3367024777832341,13.96331,80.42849,0.4402071,0.09528225,0.6404989,-0.07556709,11.0999997518957,11
-11.66759,0.2833334,-34.6191,-0.3404523370981902,-0.4686808387508351,-0.3517606636119268,3.430926,84.27473,0.2287595,0.02353739,0.6705641,-0.01860466,11.1199997514486,11
-11.6083,0.4833333,-34.60992,-0.3885386200874654,-0.2597385362855808,-0.3355259200773801,6.865232,82.79367,0.3691981,0.04704126,0.659936,-0.03718057,11.1399997510016,11
-11.54904,0.6833332,-34.60075,-0.4267722894623782,-0.033582019716687,-0.3176862965647942,10.30103,81.30917,0.4207295,0.07048781,0.6486124,-0.05571191,11.1599997505546,11
-11.48978,0.8833331,-34.59158,-0.4419726590152191,0.1575181640142815,-0.3001486312808339,13.736,79.8103,0.3814235,0.09385201,0.6366064,-0.07417884,11.1799997501075,11
-11.22292,0.2833335,-34.61082,-0.4034707241338742,0.1278281414159825,-0.2912683709039356,3.377749,83.1153,0.1298755,0.02280519,0.6630597,-0.0187033,11.1999997496605,11
-11.16457,0.4833334,-34.60227,-0.3662763273621525,0.1441011553530512,-0.2792017939102962,6.756369,81.63133,0.1721021,0.04557628,0.6524241,-0.03738113,11.2199997492135,11
-11.10624,0.6833333,-34.59372,-0.3170315356864357,0.1530215019241916,-0.2659490152952628,10.13399,80.13834,0.1259071,0.0682933,0.6411218,-0.05601537,11.2399997487664,11
-10.87032,0.2833335,-34.6066,-0.052036206059749,-0.5390403701105513,-0.279204302896396,3.318867,81.68253,0.009397238,0.02196144,0.6536896,-0.01887587,11.2599997483194,11
-10.81295,0.4833334,-34.59881,-0.0430965558891429,-0.3078655264430387,-0.2645432686714457,6.635901,80.19262,359.9323,0.04389399,0.6430207,-0.03772781,11.2799997478724,11
-10.75559,0.6833334,-34.59103,-0.0341431028098133,-0.0594763143866604,-0.2479771211674517,9.94838,78.68703,359.7669,0.06577101,0.6317158,-0.05653625,11.2999997474253,11
-10.50093,0.2833334,-34.60184,0.1989977994145748,-0.4864569014545836,-0.2541772006186633,3.265576,79.92788,359.8898,0.02122128,0.6420653,-0.01903865,11.3199997469783,11
-10.4444,0.4833334,-34.59451,0.1932585327354266,-0.2036380881527711,-0.2406410546653745,6.526231,78.4324,359.6941,0.04241534,0.6313388,-0.03805333,11.3399997465312,11
-10.38788,0.6833334,-34.58717,0.1729245596686581,0.0963950674026327,-0.2255736430853048,9.779354,76.91489,359.4106,0.06355844,0.620005,-0.05702469,11.3599997460842,11
-10.33138,0.8833335,-34.57984,0.1507441531083113,0.3613718207745215,-0.2107963417439649,13.02284,75.36495,359.0356,0.08463262,0.6080756,-0.07593523,11.3799997456372,11
-10.2749,0.9766705,-34.57251,0.1394966843094565,0.4251926939714072,-0.1981855673906238,16.25413,73.77142,358.5641,0.1056176,0.5955628,-0.0947671,11.3999997451901,11
-10.01845,0.2833333,-34.59351,0.1715946201455418,0.3700991729926233,-0.1963853523844392,3.207386,76.36726,359.748,0.02063876,0.6179885,-0.01902872,11.4199997447431,11
-9.962929,0.4833334,-34.5853,0.1932648139124007,0.3614568740120706,-0.1928205621722583,6.406183,74.86768,359.4116,0.04125144,0.6071151,-0.03803387,11.4399997442961,11
-9.907419,0.6833334,-34.5771,0.2176428318829533,0.3459499613195638,-0.1893297957641238,9.594108,73.33883,358.9882,0.06181905,0.5956742,-0.05699728,11.459999743849,11
-9.677418,0.2833332,-34.59212,0.4341375577848678,-0.3700518073414668,-0.2149512315663102,3.45061,77.55029,359.7597,0.02215977,0.6260297,-0.02048917,11.479999743402,11
-9.61756,0.4833332,-34.58401,0.3978477907895303,-0.1623285767429818,-0.209864436325617,6.892892,76.05344,359.4289,0.04428925,0.6151432,-0.04095121,11.499999742955,11
-9.557722,0.683333,-34.57589,0.3535148927536156,0.0630965347239572,-0.2026453687278007,10.32469,74.52419,359.0036,0.06636529,0.603606,-0.06136831,11.5199997425079,11
-9.308219,0.2833334,-34.58953,0.5131590261689274,-0.3863606260794111,-0.2196550056739568,3.547383,79.46164,359.8005,0.02269153,0.6389158,-0.02112188,11.5399997420609,11
-9.246617,0.4833334,-34.58243,0.4418850318106289,-0.1255308468527685,-0.2136654197089029,7.088166,77.97186,359.5078,0.0453523,0.6281269,-0.04222269,11.5599997416139,11
-9.185033,0.6833333,-34.57533,0.3535295485432543,0.1530013591210631,-0.2050824219235067,10.61908,76.45078,359.1189,0.06795574,0.6166425,-0.06327012,11.5799997411668,11
-9.123466,0.8833334,-34.56823,0.2614778869496632,0.3969655665166508,-0.1957227186808054,14.13734,74.88586,358.6284,0.09047533,0.6044762,-0.08424136,11.5999997407198,11
-8.914869,0.2833334,-34.58656,0.4417764989923949,-0.299661450298793,-0.2180033261342231,3.580178,80.72853,359.888,0.02316876,0.6473517,-0.02097536,11.6199997402728,11
-8.852798,0.4833333,-34.57922,0.4367561796890262,-0.0725633595675767,-0.2116817525119927,7.155563,79.25259,359.6835,0.04630638,0.6366647,-0.04192233,11.6399997398257,11
-8.790743,0.6833332,-34.57187,0.4180507425068418,0.172237265675267,-0.2037820701426795,10.72345,77.75059,359.3836,0.06938439,0.6252636,-0.06281616,11.6599997393787,11
-8.728706,0.8833331,-34.56453,0.3998675264046571,0.3824696676636399,-0.1962442916060283,14.28117,76.20999,358.9833,0.09237625,0.613162,-0.08363307,11.6799997389317,11
-8.460765,0.2833333,-34.58702,0.5638468647292134,-0.3478888056531258,-0.2201802723844039,3.564866,82.92387,0.04230534,0.02355376,0.6617934,-0.02031832,11.6999997384846,11
-8.399027,0.4833331,-34.57941,0.4862473712307347,-0.154522728017425,-0.2104942702622381,7.128561,81.46839,359.9941,0.04707449,0.651291,-0.04060657,11.7199997380376,11
-8.337307,0.683333,-34.57179,0.4037606949927195,0.0565457800244001,-0.1987941097916561,10.68882,79.99707,359.8535,0.0705347,0.6400645,-0.06084364,11.7399997375906,11
-8.097253,0.2833332,-34.58819,0.5195804513422528,-0.4072681016385757,-0.2159839407312702,3.627893,84.08142,0.06334119,0.02387846,0.6693098,-0.02078709,11.7599997371435,11
-8.034295,0.4833331,-34.58137,0.422160357324894,-0.1607950411807167,-0.2068239545306411,7.255185,82.63205,0.03482119,0.04772187,0.6588745,-0.04154457,11.7799997366965,11
-7.97136,0.683333,-34.57454,0.3164561650528856,0.1033805543114755,-0.1951746358772297,10.88007,81.16753,359.9123,0.07150373,0.6476838,-0.06225417,11.7999997362494,11
-7.710538,0.2833333,-34.58907,0.2168861686943302,0.3329878059784719,-0.1828375588113644,3.639731,84.36224,0.0639797,0.02390769,0.6711245,-0.02091075,11.8199997358024,11
-7.647355,0.4833335,-34.58252,0.1534224374833481,0.3422920553995772,-0.1828510271884909,7.278841,82.91726,0.03609043,0.04778004,0.6607289,-0.04179135,11.8399997353554,11
-7.584188,0.6833333,-34.57597,0.0673432214718134,0.3980474381332218,-0.1785164225194151,10.91508,81.45717,359.9146,0.07158979,0.6495723,-0.06261773,11.8599997349083,11
-7.521041,0.8833331,-34.56942,-0.0264970223180567,0.4469379968530819,-0.1717200929569955,14.54613,79.96947,359.6958,0.09530893,0.6376686,-0.08336762,11.8799997344613,11
-7.457913,0.9766704,-34.56287,-0.1132245856220883,0.4356475474657811,-0.1643450587633808,18.16926,78.44077,359.3738,0.1189094,0.6250325,-0.1040152,11.8999997340143,11
-7.200841,0.2833334,-34.58912,-0.0164545612117938,-0.4148449572864939,-0.1895290162360794,3.583815,86.37595,0.1664537,0.02379267,0.6840256,-0.02034212,11.9199997335672,11
-7.138544,0.4833334,-34.58305,-0.1412955211081468,-0.2424916576211989,-0.1794707171544445,7.169612,84.94808,0.24372,0.04755129,0.6738353,-0.0406552,11.9399997331202,11
-7.076265,0.6833335,-34.57699,-0.2587131078816664,-0.0529241218986343,-0.1674666818683974,10.75515,83.51241,0.2308822,0.07124846,0.6628891,-0.06091653,11.9599997326732,11
-6.848822,0.2833335,-34.59642,-0.1692500640284593,-0.5387266376799903,-0.1876424328654664,3.516967,87.7,0.2313827,0.0235279,0.6924005,-0.01980327,11.9799997322261,11
-6.787601,0.4833335,-34.59069,-0.2698942558126385,-0.314729859810639,-0.1795694997734571,7.037556,86.28251,0.3759604,0.04702297,0.6823596,-0.03957897,11.9999997317791,11
-6.726395,0.6833332,-34.58496,-0.3656208512404033,-0.0735186078788041,-0.1699334682926547,10.55929,84.86191,0.4332457,0.07045636,0.6715772,-0.0593047,12.0199997313321,11
-6.478827,0.2833333,-34.60234,-0.442925592875858,0.1326365994000452,-0.160808224581217,3.456751,87.67613,0.2521155,0.02327843,0.6922579,-0.01930409,12.039999730885,11
-6.418667,0.4833333,-34.59624,-0.4741269120102549,0.1180009574219211,-0.1662030849928299,6.917211,86.26477,0.419408,0.04652294,0.6822755,-0.03857862,12.059999730438,11
-6.358523,0.6833334,-34.59015,-0.5166579459042411,0.1493287623900615,-0.1687268463114861,10.37974,84.85207,0.5016485,0.06971098,0.6715734,-0.05780666,12.079999729991,11
-6.298397,0.8833334,-34.58406,-0.5571115758323217,0.17330393849824,-0.1702395820298718,13.84224,83.42746,0.497083,0.09281729,0.6601641,-0.07696836,12.0999997295439,11
-5.9922,0.2833333,-34.60662,-0.3716917483948525,-0.5037038770808276,-0.1999056777860275,3.404386,86.09381,0.1583656,0.02265082,0.682265,-0.01926666,12.1199997290969,11
-5.933051,0.4833334,-34.60056,-0.3587609763763719,-0.2574746039201829,-0.1971395379484519,6.810221,84.67966,0.2327798,0.04526858,0.6722468,-0.03850543,12.1399997286499,11
-5.873919,0.6833335,-34.59449,-0.3483928828400202,0.0059691048840977,-0.1914546544158213,10.2159,83.25877,0.2225546,0.06783295,0.661541,-0.05769912,12.1599997282028,11
-5.814804,0.8833334,-34.58842,-0.3270110900649037,0.23435662389751,-0.1849805117834435,13.61929,81.82076,0.1253984,0.09031986,0.6501595,-0.07682838,12.1799997277558,11
-5.598786,0.2833334,-34.60966,-0.2810282478714803,0.2615882616905095,-0.1798347379441907,3.344557,84.07682,0.06164511,0.02203389,0.6693317,-0.01914215,12.1999997273088,11
-5.540774,0.4833333,-34.60328,-0.2365502964587298,0.1699057310294762,-0.1840732170804528,6.688231,82.6599,0.04080333,0.04403787,0.6592542,-0.03825564,12.2199997268617,11
-5.48278,0.6833333,-34.5969,-0.1933047825783322,0.1246745424146988,-0.1855514281035439,10.02939,81.23098,359.9359,0.06599075,0.6485247,-0.05732579,12.2399997264147,11
-5.247706,0.2833332,-34.61764,-0.137719395157819,0.0725785415470053,-0.1864753274164883,3.291214,82.83083,359.9456,0.02122212,0.6612509,-0.01935279,12.2599997259676,11
-5.190546,0.4833333,-34.61213,-0.0927719906517907,0.0402754818906305,-0.1938568780048442,6.579061,81.40826,359.8093,0.04241659,0.65115,-0.03868115,12.2799997255206,11
-5.133399,0.6833334,-34.60662,-0.054734594561332,0.0544235693984935,-0.1976261157434464,9.861147,79.96729,359.5888,0.06355875,0.6404233,-0.05796659,12.2999997250736,11
-5.076268,0.8833333,-34.60111,-0.0103773811390031,0.0617068754930639,-0.1998619534748229,13.13571,78.49794,359.2813,0.08463227,0.6290822,-0.07719089,12.3199997246265,11
-4.782627,0.2833332,-34.62702,0.013923725951106,0.0887832459832071,-0.2094259387205994,3.2332,80.21605,359.813,0.02052561,0.6440088,-0.01942251,12.3399997241795,11
-4.726413,0.4833332,-34.62134,0.0189611290109703,0.1623103927780648,-0.2153470067123635,6.459815,78.78822,359.5451,0.04102569,0.6338108,-0.03882072,12.3599997237325,11
-4.670216,0.6833332,-34.61566,0.0179385402947414,0.2289728254144025,-0.2196478271856605,9.677743,77.3351,359.1938,0.06148027,0.6230217,-0.05817689,12.3799997232854,11
-4.614031,0.8833331,-34.60999,0.0240705948581789,0.2354546270755579,-0.2243456947217126,12.88445,75.84689,358.7553,0.08186912,0.6116525,-0.07746992,12.3999997228384,11
-4.406518,0.2833332,-34.6336,0.3117963739941527,-0.5972656075495054,-0.2709838710372452,3.281433,78.66412,359.7518,0.02077392,0.6336005,-0.01982222,12.4199997223914,11
-4.349433,0.4833332,-34.62728,0.3678746752710824,-0.407140510108496,-0.278280882730094,6.554775,77.2362,359.4214,0.04152166,0.6233233,-0.03961927,12.4399997219443,11
-4.292365,0.6833331,-34.62097,0.4138639328028031,-0.199801075379594,-0.282735378606759,9.817886,75.77881,359.0059,0.06222273,0.6124494,-0.05937283,12.4599997214973,11
-4.062122,0.2833333,-34.64466,0.4634851490686416,-0.0275178497816614,-0.2863584591888397,3.532882,80.89857,359.7813,0.02221997,0.64851,-0.02145014,12.4799997210503,11
-4.000528,0.4833332,-34.63945,0.4966355392682118,-0.0760250792336741,-0.294268177502893,7.058353,79.47477,359.4744,0.04440914,0.6382678,-0.04287126,12.4999997206032,11
-3.938967,0.6833332,-34.63422,0.518285008635017,-0.078569320761928,-0.296701014207926,10.57598,78.01943,359.0749,0.06655114,0.627331,-0.06425589,12.5199997201562,11
-3.877423,0.883333,-34.62901,0.5423808937234028,-0.0884659314526467,-0.2958156208632871,14.0813,76.52067,358.5782,0.088613,0.615713,-0.0855647,12.5399997197092,11
-3.589248,0.2833333,-34.65948,0.3591291340354386,0.5612568079769495,-0.266026105637863,3.565291,83.41361,359.8629,0.02242839,0.6650243,-0.02158944,12.5599997192621,11
-3.527116,0.4833335,-34.65549,0.4103570168866463,0.3263528587630082,-0.2781344642207841,7.12533,82.00267,359.6371,0.04482305,0.654954,-0.04315373,12.5799997188151,11
-3.465001,0.6833335,-34.6515,0.4519442509384176,0.1128449940496313,-0.2856931161285629,10.67768,80.5651,359.3202,0.06716079,0.6441624,-0.06466439,12.5999997183681,11
-3.205766,0.2833335,-34.67308,0.4982659956594808,-0.1336282733995874,-0.2909947520223497,3.590395,84.68438,0.0129584,0.02323101,0.6732238,-0.02101696,12.619999717921,11
-3.143336,0.4833334,-34.66779,0.4659184389589511,-0.1473579916439218,-0.2967428219324546,7.179297,83.29172,359.9391,0.04643424,0.6632456,-0.04200213,12.639999717474,11
-3.080923,0.6833333,-34.66251,0.4093161529065955,-0.1151246958292248,-0.2969170048131744,10.76431,81.88191,359.776,0.06957819,0.6525292,-0.06293439,12.6599997170269,11
-3.018529,0.8833331,-34.65723,0.3427781134527453,-0.090244236040085,-0.2938526528024354,14.34317,80.44321,359.5197,0.09263638,0.6410878,-0.08379053,12.6799997165799,11
-2.956152,0.9766704,-34.65195,0.2806244857461624,-0.1260323428357773,-0.2898789326902076,17.91348,78.96294,359.1646,0.1155831,0.6289349,-0.1045471,12.6999997161329,11
-2.699351,0.2833335,-34.68577,0.2049790177505006,-0.1691729537390653,-0.292516295327573,3.587636,85.72719,0.05524594,0.02327206,0.6799108,-0.02094077,12.7199997156858,11
-2.636932,0.4833335,-34.6809,0.1222319676473916,-0.1663503387133766,-0.2914448362650006,7.174582,84.34541,0.02369826,0.04651009,0.6700425,-0.04185392,12.7399997152388,11
-2.574531,0.6833334,-34.67603,0.0469166929307854,-0.170880546906957,-0.2890846033474901,10.75869,82.9493,359.904,0.06968907,0.6594304,-0.06271428,12.7599997147918,11
-2.345777,0.2833334,-34.70268,-0.2190375510977979,0.4842088207414165,-0.2553068193746881,3.640306,86.8716,0.07994733,0.02354349,0.6871782,-0.02133154,12.7799997143447,11
-2.282362,0.4833333,-34.69859,-0.2521828279923376,0.2546714992235461,-0.2672295913862328,7.280457,85.49619,0.07250971,0.04705311,0.6773772,-0.04263261,12.7999997138977,11
-2.218965,0.6833332,-34.6945,-0.2859649279702727,0.0465302488772504,-0.2750814287831034,10.91833,84.10762,359.9761,0.07050133,0.6668048,-0.06387894,12.8199997134507,11
-1.970077,0.2833334,-34.72079,-0.3054738795538573,-0.1945762969631487,-0.281256636166411,3.605046,88.30927,0.1233638,0.02331715,0.6962279,-0.02113929,12.8399997130036,11
-1.907225,0.4833333,-34.71754,-0.3918090021806015,-0.2029393987495831,-0.2872120720417825,7.210979,86.94223,0.1607465,0.04660095,0.6865624,-0.04224891,12.8599997125566,11
-1.844392,0.6833332,-34.7143,-0.4891355928256156,-0.1653392442901201,-0.2873221886574555,10.8157,85.56524,0.1110131,0.06982463,0.6761282,-0.06330489,12.8799997121096,11
-1.781575,0.8833331,-34.71105,-0.58262968465979,-0.1350920022583288,-0.2841359417347675,14.41692,84.16679,359.9709,0.09295852,0.664938,-0.0842848,12.8999997116625,11
-1.473998,0.2833335,-34.74481,-0.6574690778597813,-0.1655133755100976,-0.2801939585554152,3.53998,90.14092,0.2228968,0.02319011,0.7075943,-0.0204943,12.9199997112155,11
-1.41219,0.4833333,-34.74181,-0.623047971614735,-0.2032873010454791,-0.2911180930858563,7.083243,88.78876,0.3624881,0.04634836,0.6981141,-0.04096019,12.9399997107685,11
-1.3504,0.6833332,-34.73881,-0.5871795658054226,-0.1950977419997996,-0.2987312457489395,10.62773,87.43365,0.4183683,0.06944817,0.6878756,-0.06137548,12.9599997103214,11
-1.288625,0.8833332,-34.73581,-0.535439715447342,-0.1942607731338792,-0.3056193798124624,14.17109,86.0649,0.3885634,0.0924614,0.6768913,-0.08171617,12.9799997098744,11
-1.072748,0.2833335,-34.76437,-0.6612810233522577,0.4661953130741968,-0.2784022897834148,3.473045,89.87337,0.2458202,0.02296585,0.705953,-0.01988614,12.9999997094274,11
-1.012118,0.4833333,-34.76065,-0.6171150468862434,0.2420248251983476,-0.2904898359775458,6.949617,88.52873,0.4106537,0.04590061,0.6965268,-0.03974186,13.0199997089803,11
-0.9515048,0.6833333,-34.75694,-0.5623651356503891,0.0392504440380436,-0.2999707197679058,10.4279,87.18309,0.4941159,0.06877863,0.6863695,-0.0595488,13.0399997085333,11
-0.890909,0.8833333,-34.75323,-0.4833751348750934,-0.1964889564536506,-0.3093401976023955,13.90617,85.82632,0.4946697,0.09157703,0.6754925,-0.07928703,13.0599997080863,11
-0.6159986,0.2833333,-34.79042,-0.4627714617455052,-0.1994851286816119,-0.3173096263029364,3.41413,89.41768,0.2000725,0.02239884,0.7031541,-0.01971672,13.0799997076392,11
-0.5564283,0.4833334,-34.78703,-0.4432228368703503,-0.1565183132471657,-0.3186033048773851,6.830558,88.07423,0.3200659,0.04476404,0.6937673,-0.03940581,13.0999997071922,11
-0.4968745,0.6833333,-34.78364,-0.4115313944559919,-0.1209043591894902,-0.3156982822006711,10.2479,86.72731,0.3597799,0.0670766,0.6836754,-0.05904929,13.1199997067451,11
-0.2521365,0.2833334,-34.81285,-0.5911520868752413,0.5743289057855931,-0.2803896507655565,3.357612,87.92171,0.09981925,0.02169245,0.6938502,-0.0197099,13.1399997062981,11
-0.1936176,0.4833333,-34.80968,-0.5219907940417623,0.3849355757685337,-0.294792433649313,6.71525,86.57343,0.1205963,0.04335387,0.6844274,-0.03939239,13.1599997058511,11
-0.1351154,0.6833333,-34.80651,-0.4587242722894156,0.216938343842381,-0.304928999160964,10.07146,85.21604,0.06137935,0.06496526,0.6743313,-0.05903045,13.179999705404,11
-0.07662991,0.8833333,-34.80333,-0.3880011990862995,0.0159763096818343,-0.3135891134242783,13.42437,83.83981,359.9198,0.08650532,0.6635726,-0.07860473,13.199999704957,11
0.1281874,0.2833335,-34.83571,-0.0871645467447144,-0.7845801743050927,-0.3653437833619932,3.303925,86.08244,359.9722,0.02090381,0.6822458,-0.01985331,13.21999970451,11
0.185763,0.4833334,-34.83294,-0.0091672839702745,-0.5627791917930733,-0.3698088727358595,6.60533,84.72859,359.8662,0.04178135,0.6727722,-0.03968172,13.2399997040629,11
0.243325,0.6833333,-34.83017,0.0665922746136304,-0.3242516446929522,-0.3710167492101845,9.901963,83.35853,359.6801,0.0626088,0.6626564,-0.05946509,13.2599997036159,11
0.3008702,0.8833333,-34.82739,0.1532972083345352,-0.1212681728136327,-0.3717113463523347,13.19224,81.96265,359.4112,0.08336918,0.6519089,-0.07918571,13.2799997031689,11
0.5644388,0.2833334,-34.86856,0.0644217216782858,0.6003595265680152,-0.3368332499758821,3.248116,84.49288,359.856,0.02013572,0.6720766,-0.01998402,13.2999997027218,11
0.6211154,0.4833335,-34.86629,0.1914015436534701,0.3253115297495448,-0.3557758604017706,6.490972,83.1348,359.6349,0.0402463,0.6625681,-0.03994349,13.3199997022748,11
0.6777762,0.6833334,-34.86402,0.3187304392552081,0.0716595237802457,-0.3713331428212285,9.726704,81.75439,359.3341,0.06031283,0.6524453,-0.05986004,13.3399997018278,11
0.9105226,0.2833334,-34.8962,0.2369843845923678,0.5053299370834538,-0.3497906390272618,3.195677,82.29635,359.7605,0.01962202,0.6577952,-0.01992114,13.3599997013807,11
0.9663671,0.4833334,-34.89351,0.3295213553661127,0.294469952276756,-0.3697572991311091,6.383904,80.93469,359.4448,0.03922064,0.6482053,-0.03981802,13.3799997009337,11
1.022196,0.6833332,-34.89083,0.4144851312944384,0.1050061034571095,-0.3845999560777287,9.562754,79.54596,359.05,0.05877738,0.6380302,-0.05967299,13.3999997004867,11
1.078011,0.8833331,-34.88815,0.5052360672594833,-0.117422843709568,-0.3969868731087302,12.72984,78.121,358.5725,0.07827315,0.6272801,-0.07946513,13.4199997000396,11
1.375065,0.2833333,-34.93064,0.5162145687413098,-0.1071085503289351,-0.4098415592502817,3.515821,84.45044,359.7821,0.02143895,0.6717723,-0.02202337,13.4399996995926,11
1.436579,0.4833335,-34.92923,0.5025311182493057,-0.0508307922300497,-0.414666905934574,7.024588,83.0927,359.4805,0.0428484,0.662181,-0.04401745,13.4599996991456,11
1.498063,0.6833335,-34.92781,0.4774901394397406,-0.0019058319992226,-0.4141903553723765,10.52583,81.70453,359.0908,0.06421131,0.6518832,-0.06597324,13.4799996986985,11
1.559524,0.8833334,-34.92639,0.4543857194685068,-0.013649385821331,-0.4111722627943592,14.01646,80.27465,358.6087,0.08550362,0.640891,-0.08785813,13.4999996982515,11
1.765875,0.2833334,-34.96265,0.5194193403798195,-0.0327458703658017,-0.4281136692553104,3.55777,85.95219,359.8323,0.02171449,0.6813971,-0.02223174,13.5199996978045,11
1.828025,0.4833334,-34.96191,0.5609902193351242,-0.0058787829502834,-0.4374634498061525,7.109941,84.60402,359.5801,0.0433987,0.6719069,-0.04443686,13.5399996973574,11
1.890157,0.6833334,-34.96118,0.5931323003038931,0.013635480984609,-0.4422645429574672,10.65415,83.2282,359.2408,0.06502895,0.6616873,-0.06658708,13.5599996969104,11
2.116999,0.2833336,-34.99701,0.6298810195796603,-0.0275190209903475,-0.4456167575733047,3.591702,87.97381,359.986,0.02246292,0.6941556,-0.02185237,13.5799996964633,11
2.179663,0.4833336,-34.99576,0.5906335599542478,-0.0760261058271851,-0.4489684407720204,7.181403,86.64391,359.8886,0.04489748,0.6847942,-0.0436748,13.5999996960163,11
2.24231,0.6833335,-34.99451,0.5349780872019627,-0.0785700568183225,-0.4453116544001148,10.76684,85.29591,359.7057,0.06727529,0.6746786,-0.06544273,13.6199996955693,11
2.304939,0.8833334,-34.99326,0.476894528475082,-0.0884668169156858,-0.4377868389585302,14.34595,83.91856,359.4334,0.08957109,0.6638207,-0.0871324,13.6399996951222,11
2.590518,0.2833334,-35.0397,0.208032520406201,0.5612556789331697,-0.3904203684226388,3.570283,89.56112,0.06009423,0.0224809,0.7040399,-0.02157089,13.6599996946752,11
2.652817,0.4833333,-35.03889,0.1656813262768306,0.3263518439303692,-0.4036946389436195,7.139876,88.24356,0.03788349,0.0449287,0.69482,-0.04311244,13.6799996942282,11
2.715098,0.6833335,-35.03809,0.1094096491850411,0.112844011014909,-0.4111531230629524,10.70695,86.91298,359.932,0.06731987,0.6848434,-0.06460067,13.6999996937811,11
2.973487,0.2833334,-35.07643,0.0536157472846143,-0.133629067476288,-0.4160273339954941,3.647902,90.23145,0.07498788,0.02292411,0.7081597,-0.02209005,13.7199996933341,11
3.037168,0.4833333,-35.07611,0.0312828561310123,-0.147358813075544,-0.4308241409621303,7.295524,88.91908,0.06636622,0.04581504,0.69896,-0.04414897,13.7399996928871,11
3.100832,0.6833333,-35.0758,-0.0052972949134968,-0.1151253217690063,-0.4383368383487536,10.94095,87.59398,359.9727,0.06864686,0.6889694,-0.06615138,13.75999969244,11
3.164473,0.8833331,-35.07548,-0.0413065367815521,-0.090244416983289,-0.441807872626029,14.5829,86.24478,359.7905,0.09139615,0.6781996,-0.08807839,13.779999691993,11
3.228095,0.9766704,-35.07516,-0.0619198778800083,-0.1260321617183381,-0.444517412174811,18.21852,84.85928,359.5148,0.1140338,0.6666641,-0.109899,13.799999691546,11
3.481735,0.2833335,-35.12549,-0.0436940857635006,-0.1691727197412584,-0.4631867609011237,3.611428,91.75612,0.1286566,0.02274274,0.7174783,-0.02183881,13.8199996910989,11
3.544784,0.4833333,-35.1259,-0.0394746997508059,-0.1663502553418568,-0.4723106891372239,7.223834,90.45554,0.1754171,0.04545347,0.7084333,-0.04364707,13.8399996906519,11
3.607815,0.6833331,-35.12632,-0.0340534145749495,-0.170880592992156,-0.4753614072473695,10.83531,89.14617,0.1392496,0.06810609,0.6986012,-0.0654004,13.8599996902049,11
3.832434,0.2833332,-35.16852,-0.2236254471325862,0.4842083441211589,-0.4344620228201847,3.546943,93.9087,0.216211,0.02250268,0.7304189,-0.02132977,13.8799996897578,11
3.894417,0.4833331,-35.16969,-0.2342534868826415,0.2546710743511288,-0.4394512986466026,7.096804,92.62029,0.3528345,0.04497393,0.7215682,-0.04263024,13.8999996893108,11
3.956382,0.6833331,-35.17086,-0.236559094466795,0.0465301430293972,-0.4390651935515279,10.64775,91.32928,0.4095666,0.0673888,0.7119397,-0.06387845,13.9199996888638,11
4.200985,0.2833334,-35.21389,-0.216064584616455,-0.1945759104224656,-0.4369003653559673,3.485066,94.42621,0.251518,0.02226553,0.7334988,-0.02082586,13.9399996884167,11
4.261934,0.4833334,-35.2149,-0.4478796923722354,0.4373752474572365,-0.3823412064239804,6.973867,93.1449,0.4253241,0.04450081,0.7247396,-0.04162373,13.9599996879697,11
4.32287,0.6833332,-35.2159,-0.4424697336137511,0.184699716693405,-0.3837146934094591,10.46428,91.86362,0.5215317,0.06668055,0.7152228,-0.06236909,13.9799996875226,11
4.383787,0.8833333,-35.2169,-0.4394783608673158,-0.0465797439442636,-0.3798984296034362,13.95489,90.57267,0.5385925,0.08878233,0.7049593,-0.08304323,13.9999996870756,11
4.686368,0.2833334,-35.27188,-0.4253052721834027,-0.3108244893605741,-0.3743547113904881,3.426899,93.94173,0.2290745,0.02186409,0.7306377,-0.02049422,14.0199996866286,11
4.746284,0.4833335,-35.27268,-0.3643905297988388,-0.3423259016235951,-0.3624608275670198,6.856633,92.66348,0.3819496,0.04369709,0.7219136,-0.04095851,14.0399996861815,11
4.806183,0.6833334,-35.27347,-0.3089511697297489,-0.3278640639131826,-0.3419013846315266,10.28795,91.38421,0.4585403,0.06547932,0.7124582,-0.06137512,14.0599996857345,11
4.866065,0.8833333,-35.27427,-0.2453352772189303,-0.3207549335556697,-0.3164836732799969,13.71913,90.09457,0.4572919,0.08718768,0.702282,-0.08172389,14.0799996852875,11
5.078351,0.2833334,-35.31952,-0.357639477854268,0.3459736207107474,-0.2461598224044294,3.37111,92.10564,0.119398,0.02116318,0.7196467,-0.02045486,14.0999996848404,11
5.137197,0.4833334,-35.32026,-0.2211094606224657,0.1280753189807646,-0.1836975573823096,6.74263,90.82272,0.1633711,0.04229645,0.7108732,-0.04088086,14.1199996843934,11
5.196027,0.6833332,-35.321,-0.0885786088042666,-0.0684268137446069,-0.1226641164296751,10.11335,89.53249,0.1311303,0.06338163,0.7014031,-0.06126107,14.1399996839464,11
5.25484,0.8833331,-35.32174,0.0538895244577046,-0.2978942390892033,-0.0667649585082017,13.48152,88.22565,0.02056591,0.08439748,0.6912467,-0.08157524,14.1599996834993,11
5.524873,0.2833333,-35.38146,-0.0474354868240753,0.3456955215465536,0.0375391898564601,3.311596,90.91576,359.9922,0.02021972,0.7124388,-0.02064205,14.1799996830523,11
5.58262,0.4833332,-35.38317,0.0180799782879059,0.1046590601405065,0.0804502584930375,6.621202,89.62698,359.9098,0.04041357,0.703657,-0.04125865,14.1999996826053,11
5.640354,0.6833332,-35.38489,0.0860002230185372,-0.1149815443160821,0.1181293940078518,9.926684,88.32372,359.7509,0.06055693,0.6942087,-0.06182993,14.2199996821582,11
5.880117,0.2833334,-35.4353,-0.065688265439288,0.3527007881524701,0.1942576798651103,3.255091,89.53394,359.8868,0.01946977,0.7039605,-0.02070235,14.2399996817112,11
5.936898,0.4833333,-35.43745,-0.2169926237574291,0.8161665411009682,0.2645200344441036,6.505857,88.24025,359.7,0.03891562,0.6951476,-0.04137928,14.2599996812642,11
5.993663,0.6833333,-35.4396,-0.1662262190823913,0.3704388976488086,0.215292244634405,9.750609,86.92658,359.4374,0.05831923,0.6856955,-0.06201206,14.2799996808171,11
6.050415,0.8833333,-35.44175,-0.1144076501454431,-0.0795050062117252,0.1621443381568355,12.98711,85.58391,359.0954,0.07765862,0.6756141,-0.08258051,14.2999996803701,11
6.347004,0.2833333,-35.50592,-0.0482369171207608,-0.4610259153010542,0.1020319739077706,3.199346,86.25317,359.7428,0.01884043,0.6833901,-0.02072119,14.3199996799231,11
6.402982,0.4833332,-35.50736,-0.035897629881985,-0.5106828416710242,0.0034884316723875,6.391157,84.95289,359.4127,0.03765834,0.6744389,-0.04141738,14.339999679476,11
6.458944,0.683333,-35.50881,-0.0269149558254611,-0.5148643286634982,-0.0897666904055682,9.573676,83.6251,359.0068,0.05643646,0.6648845,-0.06207032,14.359999679029,11
6.514892,0.8833328,-35.51026,-0.0080716454970293,-0.5268862920497239,-0.1809461404148322,12.74471,82.26102,358.5215,0.07515784,0.6547366,-0.08265768,14.379999678582,11
6.730845,0.2833332,-35.55786,-0.1601577490241084,0.1202233214618717,-0.2231449706000461,3.528692,87.02086,359.7453,0.02079999,0.6882082,-0.02280876,14.3999996781349,11
6.792614,0.4833332,-35.55979,-0.0878740715473664,-0.117781525847156,-0.3260012597049169,7.049854,85.72228,359.4102,0.04157216,0.67916,-0.04558703,14.4199996776879,11
6.854358,0.6833332,-35.56172,-0.0138587092341282,-0.3348781526546309,-0.4179687491680042,10.56272,84.39165,358.9908,0.06230018,0.6693898,-0.0683193,14.4399996772408,11
6.916073,0.8833331,-35.56364,-0.1437639296677968,0.134859830521228,-0.4526746402327219,14.06525,83.01789,358.4817,0.08296244,0.658908,-0.09098201,14.4599996767938,11
7.189213,0.2833333,-35.62013,-0.268820946378721,0.5998933218277718,-0.4786342490399136,3.562258,89.14247,359.8316,0.02111102,0.7014883,-0.02285921,14.4799996763468,11
7.251385,0.4833333,-35.62283,-0.2403358739753596,0.1552453053207274,-0.4987141532802681,7.119067,87.85667,359.5826,0.04219191,0.6925781,-0.04569063,14.4999996758997,11
7.31354,0.6833332,-35.62553,-0.1987608352516368,-0.2941070696786251,-0.511584424756073,10.66835,86.54391,359.2501,0.06322061,0.6829219,-0.06846628,14.5199996754527,11
7.559259,0.2833332,-35.66302,-0.4206457328972419,0.1568134395410343,-0.456873358907444,3.590442,87.70741,359.9245,0.02213442,0.6924941,-0.02217896,14.5399996750057,11
7.621924,0.4833332,-35.6625,-0.4671849933039116,-0.0372847367396398,-0.3619102096418132,7.177623,86.43413,359.7705,0.04424884,0.6835113,-0.04431964,14.5599996745586,11
7.684572,0.6833332,-35.66197,-0.5150089138736629,-0.2104745174995509,-0.2629516566996699,10.75945,85.13967,359.534,0.06630768,0.6737837,-0.06640574,14.5799996741116,11
7.7472,0.8833334,-35.66145,-0.5506335486332592,-0.4171172694043797,-0.1647571858778747,14.33395,83.81314,359.211,0.08828655,0.6633229,-0.08841272,14.5999996736646,11
8.031734,0.2833333,-35.66982,-0.7435697829238279,0.2488094487720146,-0.0187002841623282,3.570089,90.3035,0.0623623,0.02235351,0.708621,-0.02170093,14.6199996732175,11
8.094035,0.4833333,-35.66975,-0.6796549159611125,0.0296212188791843,0.2094841768501041,7.139523,89.0482,0.04624506,0.04467374,0.6998307,-0.04337277,14.6399996727705,11
8.156319,0.6833332,-35.66968,-0.6145096099432443,-0.1686586796114194,0.4250998716040541,10.70675,87.7808,359.9505,0.06693877,0.6902861,-0.06499173,14.6599996723235,11
8.218585,0.8833329,-35.66961,-0.5338958962430205,-0.4003914805111715,0.6234227972910418,14.26996,86.49092,359.7722,0.08912387,0.6799984,-0.08653453,14.6799996718764,11
8.430343,0.2833332,-35.72198,-0.6771613678889281,0.2404451368353378,0.8706454976918963,3.644433,93.97119,0.1313255,0.02252976,0.7307872,-0.02246894,14.6999996714294,11
8.493929,0.4833332,-35.72483,-0.6559084037134486,-0.0038324864055427,1.160994499411757,7.289814,92.72737,0.1836002,0.04502734,0.7221994,-0.04490631,14.7199996709824,11
8.557497,0.6833332,-35.72767,-0.6255468718728867,-0.2272019090076775,1.427391168384034,10.93442,91.47541,0.1558276,0.06746674,0.7128032,-0.06728731,14.7399996705353,11
8.621042,0.883333,-35.7305,-0.7903782444800136,0.2362633785587329,1.7241215238063816,14.5772,90.20442,0.04414385,0.08981916,0.7026088,-0.08959884,14.7599996700883,11
8.862097,0.2833334,-35.83692,-0.941749058698372,0.6950242882927333,1.9959108926743667,3.60209,99.91348,0.2275615,0.02173983,0.765139,-0.0227837,14.7799996696413,11
8.924604,0.4833334,-35.84456,-0.8554543260012775,0.2441033517613653,2.3152815465963315,7.207192,98.68384,0.3779249,0.04344831,0.7569721,-0.0455363,14.7999996691942,11
8.987095,0.6833332,-35.8522,-0.7564064313717793,-0.2115219354217279,2.596954543806852,10.81365,97.45271,0.4509556,0.06510139,0.7479734,-0.06823296,14.8199996687472,11
9.18699,0.2833335,-35.94341,-0.91791773487728,0.2331256955900437,2.911895809137356,3.543118,100.8436,0.2664059,0.02148762,0.7703393,-0.02234703,14.8399996683002,11
9.248488,0.4833334,-35.95117,-0.8821002043818211,0.0327549279796604,3.253799894428916,7.090097,99.6212,0.4574401,0.04294536,0.7622883,-0.04466392,14.8599996678531,11
9.30997,0.6833333,-35.95893,-0.8402202227810793,-0.1467073568181515,3.551541580363157,10.63929,98.40024,0.5733027,0.06434995,0.7534235,-0.06692679,14.8799996674061,11
9.371437,0.8833334,-35.96668,-0.7786022455466881,-0.3596227117264453,3.802117802143556,14.18867,97.17085,0.6114605,0.0856677,0.7437549,-0.08911643,14.899999666959,11
9.628968,0.2833334,-36.03334,-0.8756496915207599,0.300031197239182,4.0580758515461,3.482311,96.03085,0.1800252,0.02149214,0.7429489,-0.0215349,14.919999666512,11
9.689677,0.4833334,-36.0372,-0.7137307535537616,0.0745709103087306,4.350383918459386,6.966637,94.80537,0.285737,0.04295552,0.734664,-0.04304092,14.939999666065,11
9.750371,0.6833334,-36.04108,-0.550669322595347,-0.1299812523850854,4.586147678244913,10.45099,93.57646,0.3184769,0.06437616,0.7256229,-0.06448324,14.9599996656179,11
9.811048,0.8833333,-36.04496,-0.3732136985460705,-0.3679866313726765,4.7634689957413485,13.93424,92.33458,0.2747152,0.08572312,0.7158349,-0.08585312,14.9799996651709,11
9.999054,0.2833333,-36.04806,-0.4219902071176253,0.2665774525773104,4.946114408042867,3.419849,89.32963,0.09201628,0.02178691,0.7026278,-0.02040496,14.9999996647239,11
10.05872,0.4833334,-36.04635,-0.3103683244022885,0.0160272190150858,5.123087115848719,6.839521,88.10139,0.113374,0.04355907,0.6940137,-0.04076493,15.0199996642768,11
10.11836,0.6833334,-36.04464,-0.1944083148542628,-0.2136146661569818,5.242585405730608,10.25788,86.86459,0.06049373,0.06528074,0.6847099,-0.06107862,15.0399996638298,11
10.33484,0.2833334,-36.01046,-0.2817125085201404,0.2435784383997965,5.345359760755677,3.361413,81.10083,359.9707,0.02211942,0.6498429,-0.01926201,15.0599996633828,11
10.39294,0.4833335,-36.00246,-0.3652335630958774,0.6960670039566468,5.389769190710524,6.720247,79.86569,359.8718,0.04422611,0.6408357,-0.03847876,15.0799996629357,11
10.45103,0.6833336,-35.99446,-0.2225831441475154,0.2388742141556707,5.440105586517028,10.07519,78.61517,359.6986,0.06628311,0.6312128,-0.05765282,15.0999996624887,11
10.5091,0.8833336,-35.98647,-0.0786615247015074,-0.2230231551549051,5.422950811689816,13.4246,77.34016,359.4482,0.08826895,0.6209843,-0.07676592,15.1199996620417,11
10.78982,0.2833333,-35.89769,-0.1871704891000849,0.2153526045539205,5.348588547190509,3.296182,72.48962,359.8251,0.02229319,0.5910268,-0.01823498,15.1399996615946,11
10.84572,0.4833332,-35.88382,-0.1170629816559341,0.0087098301727565,5.265985090713556,6.586865,71.24683,359.5785,0.04455922,0.5816611,-0.03644687,15.1599996611476,11
10.9016,0.6833333,-35.86998,-0.0596529244545749,-0.1770248236307103,5.110841468678352,9.87039,69.98088,359.2598,0.06678696,0.5717571,-0.05460392,15.1799996607006,11
10.95747,0.8833333,-35.85614,-0.0027107452607282,-0.3962122310465111,4.883502858343022,13.14514,68.68275,358.8639,0.08894894,0.5613244,-0.07269982,15.1999996602535,11
11.15258,0.2833335,-35.78586,-0.1134923833151457,0.2571696084236831,4.647432540520704,3.241477,66.94578,359.7712,0.02249194,0.5513677,-0.01726396,15.2199996598065,11
11.20635,0.4833335,-35.76791,0.0181194077001993,0.0254373550578932,4.429825486087893,6.47634,65.70377,359.472,0.04495677,0.5418159,-0.03450695,15.2399996593595,11
11.26011,0.6833335,-35.74996,0.1332118742949326,-0.1853866838174573,4.143575296607068,9.702967,64.43588,359.0995,0.06737418,0.531777,-0.0517129,15.2599996589124,11
11.31386,0.8833334,-35.73203,0.244199870364147,-0.4296636342493011,3.790767732362347,12.91964,63.13385,358.6519,0.08973291,0.5212622,-0.0688519,15.2799996584654,11
11.56515,0.2833333,-35.64273,0.1503391966316165,0.1986284919771032,3.498033416574927,3.187632,61.17235,359.6706,0.02248177,0.5087035,-0.01662599,15.2999996580184,11
11.61686,0.4833333,-35.62146,0.2033848776035753,-0.0581938577755727,3.204982193182822,6.366508,59.92731,359.2716,0.04493704,0.4989757,-0.03323192,15.3199996575713,11
11.66854,0.6833332,-35.60019,0.2460943091264642,-0.2941077769862206,2.8688343058711894,9.534945,58.65145,358.7998,0.06734549,0.4888116,-0.04980344,15.3399996571243,11
11.89605,0.2833332,-35.51916,0.1258368583957256,0.1568128031471446,2.594141395325167,3.522221,61.03285,359.6823,0.02506791,0.507617,-0.01799308,15.3599996566772,11
11.95282,0.4833332,-35.49479,0.0020066235441511,0.603029019822497,2.296704629617345,7.035854,59.78829,359.2874,0.05010236,0.4977812,-0.03596219,15.3799996562302,11
12.00956,0.683333,-35.47044,0.0972841304830129,0.1395637365248481,2.045198540970077,10.54044,58.50869,358.8126,0.0750915,0.4874258,-0.05388691,15.3999996557832,11
12.06628,0.883333,-35.4461,0.1857634731634796,-0.3286060179952522,1.7736105182427906,14.0339,57.18328,358.2509,0.1000033,0.4765612,-0.07175754,15.4199996553361,11
12.34882,0.2833333,-35.34482,0.0448767608587488,0.1034971313051114,1.5583979252229057,3.559467,61.72491,359.7892,0.02571625,0.5127795,-0.01751008,15.4399996548891,11
12.40553,0.4833332,-35.31923,0.0771224777230443,-0.1094179328047135,1.3945416744497834,7.112932,60.49478,359.5021,0.05140196,0.5029926,-0.0349938,15.4599996544421,11
12.46223,0.683333,-35.29364,0.0909407757244018,-0.3014250353264229,1.2246161164182396,10.65833,59.23582,359.1348,0.07702447,0.492673,-0.05243544,15.479999653995,11
12.51891,0.883333,-35.26805,0.0991526073365225,-0.5268850771080137,1.055002935877404,14.19373,57.93742,358.6824,0.1025561,0.4818324,-0.06981638,15.499999653548,11
12.71565,0.2833332,-35.19784,-0.0383577814344278,0.120224395360225,0.8913146565017911,3.5911,61.97572,359.9442,0.02661077,0.5146167,-0.01654897,15.519999653101,11
12.77171,0.4833332,-35.16982,0.0686964771339937,-0.1177806102414369,0.8124926952064371,7.179486,60.76485,359.8135,0.05319166,0.504864,-0.03306841,15.5399996526539,11
12.82776,0.6833332,-35.14182,0.161303845190039,-0.3348776537322757,0.7368732718202757,10.76327,59.53482,359.6044,0.07970676,0.49457,-0.04954752,15.5599996522069,11
12.88379,0.883333,-35.11382,0.0645998863930827,0.1348602525187646,0.6321155283744879,14.34071,58.27529,359.3132,0.1061269,0.4837462,-0.06596886,15.5799996517599,11
13.13724,0.2833333,-35.02469,-0.039617736795579,0.5998935659312195,0.5319496129516281,3.570464,62.91243,0.03903122,0.0267525,0.5215845,-0.01596675,15.5999996513128,11
13.1927,0.4833333,-34.99629,0.0156264363453697,0.1552450160903764,0.4833036988530637,7.139805,61.71531,0.003661411,0.05346845,0.51191,-0.03190941,15.6199996508658,11
13.24813,0.6833333,-34.9679,0.0694361140625439,-0.2941078100908991,0.4456863471228232,10.70662,60.5054,359.8922,0.08011936,0.5016928,-0.04781312,15.6399996504188,11
13.47439,0.2833333,-34.88507,-0.1319387929394757,0.1568125947619038,0.3284696752581553,3.648025,63.27076,0.06607221,0.02740213,0.5242303,-0.01620436,15.6599996499717,11
13.53105,0.4833331,-34.85598,-0.3359243958889646,0.6030284543423136,0.2168627218815935,7.295613,62.07958,0.05631772,0.05476588,0.5145617,-0.03238602,15.6799996495247,11
13.58768,0.6833331,-34.82691,-0.3150498748178787,0.1395629517697271,0.179095022639423,10.94114,60.87673,359.9693,0.08205998,0.5043257,-0.04852724,15.6999996490777,11
13.6443,0.883333,-34.79785,-0.298132007525913,-0.3286068041442543,0.1496215961134765,14.58369,59.6519,359.8021,0.1092591,0.4935339,-0.06461347,15.7199996486306,11
13.92652,0.2833334,-34.69504,-0.4386133756900499,0.1034962025446378,0.06652118613815,3.612199,64.28308,0.1192518,0.02724009,0.5317202,-0.01588678,15.7399996481836,11
13.98269,0.4833334,-34.6664,-0.390028783652987,-0.1094193716385925,0.0474115626079196,7.225042,63.10183,0.1642019,0.05444264,0.5221389,-0.03175092,15.7599996477365,11
14.03885,0.6833334,-34.63777,-0.3445188757711204,-0.3014268858779633,0.0341856074944466,10.83697,61.91275,0.1337769,0.08157667,0.5119919,-0.04757646,15.7799996472895,11
14.095,0.8833333,-34.60914,-0.2878588329441491,-0.5268872548731691,0.0322889097732286,14.44626,60.70594,0.02556387,0.1086111,0.5012912,-0.06334548,15.7999996468425,11
14.2914,0.2833334,-34.54171,-0.4429891695491061,0.120221974885504,-0.0384958192127449,3.548145,65.24567,0.1942814,0.02698792,0.5388032,-0.01526262,15.8199996463954,11
14.34649,0.4833334,-34.51328,-0.3341745348418374,-0.1177834952270715,-0.0214879071946079,7.098485,64.07626,0.3163185,0.05393906,0.5293192,-0.03050469,15.8399996459484,11
14.40156,0.6833333,-34.48485,-0.221287737162001,-0.3348806386417688,0.0008812378509688,10.64952,62.90434,0.3658545,0.08082452,0.5192795,-0.04571018,15.8599996455014,11
14.45661,0.8833332,-34.45643,-0.301536614652111,0.1348571865028077,-0.0381978074100359,14.1994,61.72069,0.341388,0.1076135,0.508696,-0.0608603,15.8799996450543,11
14.70935,0.2833333,-34.3684,-0.3803822980634201,0.5998906654386551,-0.0740126355183967,3.480192,65.82679,0.2578976,0.02671409,0.5430614,-0.01461134,15.8999996446073,11
14.76319,0.4833333,-34.33998,-0.2918722264004998,0.1552426632188941,-0.0624535184028047,6.963881,64.66788,0.4457297,0.05339303,0.533662,-0.02920294,15.9199996441603,11
14.81702,0.6833332,-34.31157,-0.1947883914151731,-0.2941097631798283,-0.0439363989280181,10.44919,63.51093,0.5638845,0.08000665,0.5237212,-0.04375709,15.9399996437132,11
15.04008,0.2833335,-34.23043,-0.3472908350632053,0.1568105227574853,-0.106295995887411,3.421115,65.06627,0.2207328,0.02620172,0.5374982,-0.01442988,15.9599996432662,11
15.09286,0.4833333,-34.20232,-0.4966276873659012,0.6030265851476108,-0.1647724140307929,6.844583,63.90738,0.3725638,0.05236689,0.5281224,-0.02883863,15.9799996428192,11
15.14564,0.6833334,-34.17421,-0.4180432695639737,0.1395612885209743,-0.1529345293849076,10.26941,62.74841,0.4554349,0.07847199,0.5182283,-0.04321467,15.9999996423721,11
15.1984,0.8833333,-34.1461,-0.3381640755061141,-0.3286084301938038,-0.1358128853717382,13.69424,61.58092,0.468146,0.1044913,0.5078262,-0.05754401,16.0199996419251,11
15.47711,0.2833335,-34.0448,-0.4123591003956441,0.1034946855662938,-0.1627393424567067,3.364284,62.69813,0.09269219,0.02548995,0.520006,-0.01458129,16.0399996414781,11
15.52881,0.4833333,-34.01696,-0.2969372422475125,-0.1094203869939377,-0.1308964659738869,6.728375,61.53249,0.1170939,0.05094532,0.5106034,-0.02914169,16.059999641031,11
15.58049,0.6833333,-33.98914,-0.1831082854108245,-0.3014274718307772,-0.0975914429485875,10.09127,60.35931,0.07221693,0.07634355,0.500717,-0.04367052,16.079999640584,11
15.63216,0.8833332,-33.96132,-0.0578340915533353,-0.526887241979768,-0.0587907993240328,13.45159,59.17018,359.9561,0.1016608,0.4903568,-0.0581534,16.099999640137,11
15.82833,0.2833332,-33.89505,-0.1451103953986106,0.12022217124852,-0.0838303332798382,3.305851,60.63687,359.9702,0.02476849,0.5046018,-0.01478592,16.1199996396899,11
15.87913,0.4833333,-33.86774,0.0222860958538539,-0.1177831038949208,-0.0277546054562236,6.609407,59.46532,359.8726,0.04950628,0.4951844,-0.0295536,16.1399996392429,11
15.92991,0.6833332,-33.84044,0.1847379067668768,-0.3348802676080158,0.0278007603767278,9.908921,58.27941,359.7058,0.07418744,0.4853135,-0.0442882,16.1599996387959,11
15.98069,0.8833329,-33.81314,0.150238806691366,0.1348574409732457,0.0215051477919665,13.20334,57.07078,359.467,0.09879205,0.4749987,-0.05897796,16.1799996383488,11
16.23277,0.2833333,-33.72694,0.111807288946359,0.599891172375829,0.0143372356344073,3.248672,58.65811,359.8527,0.02408327,0.4896592,-0.01500514,16.1999996379018,11
16.28278,0.4833334,-33.70016,0.2324260066801891,0.1552432180707336,0.0480713998370418,6.492685,57.48146,359.6384,0.04813738,0.4802296,-0.02999228,16.2199996374547,11
16.33278,0.6833334,-33.6734,0.3547843142992448,-0.294108925805691,0.0831057154501486,9.730643,56.28416,359.3549,0.07214063,0.4703737,-0.04494831,16.2399996370077,11
16.55368,0.2833334,-33.59352,0.2208752876987461,0.1568116371655118,0.0347972599923771,3.195756,56.24268,359.7596,0.02360413,0.4712076,-0.01499311,16.2599996365607,11
16.60264,0.4833333,-33.56652,0.0836274016065843,0.6030277310050853,-0.0141165580746971,6.385014,55.06209,359.4529,0.04718067,0.4617423,-0.02996855,16.2799996361136,11
16.65158,0.6833335,-33.53952,0.16646484717986,0.1395620991500148,-0.0005021718267883,9.566242,53.85617,359.0776,0.07070826,0.4518785,-0.04491295,16.2999996356666,11
16.70051,0.8833334,-33.51253,0.2432327764125155,-0.3286077638314681,0.0116763338279852,12.73767,52.61694,358.6301,0.09416588,0.4416257,-0.05981038,16.3199996352196,11
16.98306,0.2833333,-33.41116,0.1583990751525448,0.1034953970555346,-0.0201816488426302,3.515609,58.13602,359.7816,0.02588557,0.485669,-0.01656793,16.3399996347725,11
17.03753,0.4833333,-33.38254,0.2555561847307537,-0.1094199884310294,0.00345832383735,7.025128,56.95886,359.4907,0.05173744,0.4761821,-0.03311402,16.3599996343255,11
17.09196,0.6833333,-33.35393,0.3435096883382762,-0.301427052708122,0.0256496793345242,10.52854,55.75349,359.1232,0.07753758,0.4662059,-0.04963353,16.3799996338785,11
17.14638,0.8833333,-33.32533,0.4355554877901184,-0.5268871496351386,0.05047360600242,14.02329,54.51003,358.6749,0.1032554,0.4557513,-0.06610146,16.3999996334314,11
17.34472,0.2833333,-33.25943,0.3076537407341604,0.1202223877356966,0.0104247243307753,3.557815,59.49123,359.8334,0.02623149,0.4959497,-0.01666355,16.4199996329844,11
17.39998,0.4833332,-33.23097,0.4264081423496257,-0.1177827658787286,0.0478820672098194,7.110843,58.3231,359.5937,0.05242879,0.4865249,-0.03330818,16.4399996325374,11
17.45522,0.6833332,-33.20252,0.5321778522654341,-0.3348796906283124,0.0823228594919278,10.65718,57.12966,359.2781,0.0785625,0.4765909,-0.04991285,16.4599996320903,11
17.51044,0.8833332,-33.17408,0.4355368097817056,0.134857908010569,0.0545776278723799,14.19513,55.90092,358.8824,0.1046049,0.4661587,-0.06645994,16.4799996316433,11
17.76523,0.2833333,-33.08715,0.3311793977311517,0.5998912862385001,0.0251310596949636,3.586783,61.75647,0.01052459,0.02690676,0.5129614,-0.01598253,16.4999996311963,11
17.82057,0.4833332,-33.05791,0.5005345795716281,0.1552431736407693,0.0864164098292441,7.172283,60.60948,359.9494,0.0537798,0.5036348,-0.03194239,16.5199996307492,11
17.8759,0.6833332,-33.02868,0.6718107213780833,-0.2941092948357411,0.1519424867330947,10.7548,59.44838,359.8148,0.08058697,0.4937741,-0.04786355,16.5399996303022,11
18.10124,0.2833335,-32.94877,0.5861576444723937,0.1568110290848344,0.1371066946513259,3.567786,62.67707,0.04938695,0.02681227,0.5198301,-0.01582247,16.5599996298552,11
18.15644,0.4833333,-32.91998,0.4972676443503587,0.6030267949267333,0.1232479348920598,7.134735,61.5372,0.02759698,0.05358669,0.5105679,-0.03162455,16.5799996294081,11
18.21163,0.6833335,-32.8912,0.6996799387310872,0.1395609979838584,0.1994873479286205,10.69948,60.38591,359.9335,0.08029589,0.5007697,-0.04738847,16.5999996289611,11
18.2668,0.8833334,-32.86242,0.9738066024589216,-0.3286089882689925,0.3033377879595562,14.26062,59.21379,359.7644,0.1069118,0.4904466,-0.06309783,16.6199996285141,11
18.55048,0.2833333,-32.76199,1.1489831723612092,0.1034944236037438,0.3884242957120314,3.639185,63.45002,0.0796154,0.02737328,0.5255589,-0.01610618,16.639999628067,11
18.60697,0.4833332,-32.73292,1.3830300102544657,0.5308926308111594,0.4961901654851743,7.278207,62.31744,0.08729549,0.05470841,0.5163258,-0.03219032,16.65999962762,11
18.66344,0.6833331,-32.70385,1.9453638029877744,0.0486101744614136,0.6832037314340162,10.91563,61.17492,0.02189719,0.08197502,0.5065305,-0.04823471,16.6799996271729,11
18.71989,0.8833332,-32.6748,2.536167236117169,-0.438376916630471,0.8635514351018649,14.5506,60.01272,359.8806,0.1091469,0.4961839,-0.06422568,16.6999996267259,11
18.91774,0.2833332,-32.61005,2.919915992513733,-0.0250919883195192,0.9699861308959612,3.604821,64.42554,0.1199261,0.027169,0.532773,-0.01588136,16.7199996262789,11
18.97385,0.4833332,-32.58156,3.5959303285818933,-0.2568247224000919,1.1454018124080427,7.210229,63.30143,0.1692397,0.05430047,0.5236216,-0.03174065,16.7399996258318,11
19.02995,0.6833333,-32.55309,4.237259917021067,-0.4676490136550583,1.288633630534413,10.81483,62.17032,0.1471204,0.08136464,0.5139098,-0.04756108,16.7599996253848,11
19.08603,0.8833332,-32.52462,4.649358248370994,0.0083618577472114,1.3420761250939464,14.41708,61.02284,0.0511541,0.1083304,0.5036488,-0.06332648,16.7799996249378,11
19.34048,0.2833332,-32.44036,5.025996328857115,0.4796682425072161,1.368007960818009,3.539211,66.66786,0.2346474,0.02692478,0.5492016,-0.01525937,16.7999996244907,11
19.39583,0.4833332,-32.4127,5.843841196847812,0.0412928707329566,1.510668627406783,7.081247,65.55901,0.4010394,0.05381301,0.5401891,-0.03049826,16.8199996240437,11
19.45117,0.6833333,-32.38504,6.603845779232277,-0.401786896384346,1.6174895502606894,10.62476,64.45102,0.4993217,0.08063631,0.5306162,-0.04570082,16.8399996235967,11
19.67568,0.2833333,-32.30667,7.037854250545244,0.0554061288954395,1.606091504830573,3.472386,66.78053,0.261165,0.02655039,0.5500272,-0.01477189,16.8599996231496,11
19.72983,0.4833333,-32.27913,7.400036397714622,0.5078946089028309,1.5603909575579848,6.947841,65.67736,0.455917,0.05306444,0.5410722,-0.0295218,16.8799996227026,11
19.78396,0.6833333,-32.25159,8.000117417059936,0.0507020453461982,1.59858995849358,10.42521,64.57703,0.5844445,0.07951538,0.5315751,-0.04423705,16.8999996222556,11
19.83808,0.8833334,-32.22406,8.501137032453194,-0.4111945863398638,1.6011088325163385,13.90337,63.47136,0.6459169,0.1058775,0.521546,-0.05890353,16.9199996218085,11
20.11889,0.2833333,-32.12624,8.74554614007296,0.0271816241152964,1.529928685566336,3.414663,65.51911,0.1954841,0.025978,0.5408309,-0.01468807,16.9399996213615,11
20.17196,0.4833332,-32.09896,8.90073347770754,0.4608530086923547,1.4315612602217662,6.831038,64.41433,0.3253827,0.05191997,0.5318901,-0.02935491,16.9599996209145,11
20.22502,0.6833331,-32.07169,9.408893240887046,-0.0151567821035054,1.456169997766139,10.24829,63.30859,0.389506,0.07780305,0.5224341,-0.04398927,16.9799996204674,11
20.27806,0.883333,-32.04443,9.74207406909635,-0.4958708646596116,1.4298607077219607,13.66516,62.19386,0.3866781,0.1036021,0.5124727,-0.05857647,16.9999996200204,11
20.58263,0.2833333,-31.93421,9.686345226035115,-0.076312101415556,1.291919182781129,4.376771,60.70909,359.9129,0.03256677,0.5050057,-0.01995233,17.0199996195734,11
20.6505,0.4833332,-31.89873,9.47915739008787,0.3385423603981986,1.112877197336811,8.750018,59.57706,359.739,0.06507568,0.4955022,-0.0398692,17.0399996191263,11
20.71835,0.6833332,-31.86326,9.740891360889538,-0.1562852795692583,1.0958329398659463,13.11793,58.41574,359.4739,0.0974759,0.4852383,-0.05971998,17.0599996186793,11
20.78617,0.8833328,-31.82781,9.62734461272716,0.0644704700164998,0.9724164673261412,17.4803,57.20995,359.1108,0.1297303,0.4742294,-0.07948158,17.0799996182323,11
21.11914,0.2833329,-31.71169,9.346511237286975,0.3082254421650152,0.806291004078453,9.071315,56.45061,358.4922,0.06346702,0.4723348,-0.04895379,17.0999996177852,11
21.26725,0.4833329,-31.6473,9.477288857478676,-0.117605542855994,0.7940502267807155,18.10285,54.92391,356.722,0.1265108,0.4592233,-0.09758294,17.1199996173382,11
21.41534,0.6833332,-31.58293,9.444168340766796,-0.5481404952985149,0.7512743559097999,27.07738,52.98382,354.5639,0.1887196,0.4431238,-0.1455709,17.1399996168911,11
21.56342,0.8833325,-31.51856,9.000052619006329,-0.0784023853665828,0.5995403938198187,35.96668,50.43561,351.8166,0.2496884,0.4241429,-0.1926056,17.1599996164441,11
21.96093,0.2833333,-31.40125,8.413364968619486,0.3866311061141955,0.422150157609181,8.258661,58.65551,357.941,0.05399126,0.4895824,-0.0508878,17.1799996159971,11
22.10395,0.4833327,-31.35833,7.710183443469518,0.6819056062771098,0.2262166927863553,16.46973,57.05293,355.6224,0.1076994,0.477102,-0.1015619,17.19999961555,11
22.24693,0.6833321,-31.31542,7.551036368093577,-0.0696757681594671,0.2290887588841954,24.60566,55.00032,352.9247,0.1608051,0.4619496,-0.1516769,17.219999615103,11
22.65037,0.2833329,-31.20114,7.07039572286585,0.1082525481017262,0.1579818952388443,6.902562,62.6889,358.1214,0.04289502,0.5200115,-0.04528604,17.239999614656,11
22.77288,0.4833331,-31.1763,6.449729134024111,0.3096678758293364,0.0596631163484104,13.76676,61.21475,356.0445,0.08564477,0.5087411,-0.09047405,17.2599996142089,11
22.89534,0.6833333,-31.15147,5.719327025430289,0.4822995373183175,-0.0578126170508959,20.56818,59.42252,353.7029,0.1280393,0.4954474,-0.1352887,17.2799996137619,11
23.01778,0.8833331,-31.12665,5.629512812371914,-0.2798751461399812,-0.0239195765255217,27.28602,57.22502,350.9986,0.1699097,0.4801852,-0.1795515,17.2999996133149,11
23.57684,0.2833333,-30.97215,5.219705899766424,-0.1125400546578151,-0.0741591498586338,7.693032,73.83153,359.141,0.04914119,0.5996723,-0.04627181,17.3199996128678,11
23.71028,0.4833332,-30.95053,4.728958204461833,0.0782813737393804,-0.140329591910536,15.36387,72.52596,358.0983,0.09804003,0.5878918,-0.09231669,17.3399996124208,11
23.84369,0.6833329,-30.92891,4.732273437666713,-0.399994680601084,-0.1363071469383783,23.00527,71.00839,356.8171,0.146469,0.5733873,-0.1379215,17.3599996119738,11
23.97705,0.8833327,-30.90729,4.436601848276251,-0.1621994578675735,-0.2111332951044531,30.60747,69.18801,355.2112,0.1942025,0.5562242,-0.1828928,17.3799996115267,11
24.39006,0.2833333,-30.78077,4.05363867461768,0.0990826753630786,-0.3016891052369992,6.983935,78.14159,359.8442,0.04643235,0.6291736,-0.03944274,17.3999996110797,11
24.50995,0.4833336,-30.75954,3.613605491533036,0.3315807463186053,-0.3991487741555062,13.96125,76.99545,359.547,0.09267311,0.6182405,-0.07872285,17.4199996106327,11
24.62981,0.6833335,-30.73832,3.890150695971816,-0.3707271403484085,-0.4212903071110823,20.92883,75.76711,359.0895,0.1385468,0.6049656,-0.1176916,17.4399996101856,11
24.74963,0.883333,-30.7171,3.8220228439600663,-0.1435249201569898,-0.5497475855233276,27.88261,74.40752,358.4378,0.1838789,0.5894016,-0.1562019,17.4599996097386,11
25.26965,0.2833335,-30.56129,3.684481058014757,0.1071640617347545,-0.6977127280389475,3.362104,75.47459,359.348,0.01971814,0.6119006,-0.02245207,17.4799996092916,11
25.32851,0.4833336,-30.55836,3.510131782745816,0.3290691942667256,-0.8538213166122155,6.706479,74.32465,358.6268,0.03938396,0.6035562,-0.04486413,17.4999996088445,11
25.38736,0.6833336,-30.55542,3.816753746480412,-0.3838319355611229,-0.9044757786873704,10.02991,73.12313,357.8303,0.05896634,0.5946289,-0.06721207,17.5199996083975,11
25.44619,0.8833336,-30.55246,3.799094064320034,-0.1672236757695394,-1.0522137447010564,13.33037,71.86073,356.9516,0.07844721,0.5851291,-0.08947662,17.5399996079504,11
26.06324,0.2833333,-30.36745,3.741822752311855,0.0728710927329278,-1.207573357341488,3.44234,72.0023,359.1755,0.0200708,0.587696,-0.0234729,17.5599996075034,11
26.12436,0.4833333,-30.36318,3.677347870922453,0.2841823149576717,-1.3610561350679902,6.860969,70.83984,358.2832,0.04009064,0.5791916,-0.0468625,17.5799996070564,11
26.18547,0.6833333,-30.35891,3.548639310574984,-0.4393115714793519,-1.4887432766881863,10.25616,69.61422,357.3134,0.06004179,0.5700949,-0.07017834,17.5999996066093,11
26.76422,0.2833333,-30.17885,3.1780402727014163,-0.2332958329052545,-1.6841810860644235,4.536016,70.8536,359.6758,0.03060824,0.5792972,-0.02524294,17.6199996061623,11
26.84096,0.4833336,-30.1588,2.782838830731169,-0.0037926133881273,-1.8887834378905597,9.06273,69.72533,359.2624,0.06115611,0.5702301,-0.05042427,17.6399996057153,11
26.91769,0.6833336,-30.13878,2.382999824010831,0.1969260524236274,-2.099491982556618,13.57906,68.54723,358.7539,0.09160761,0.5602255,-0.07549534,17.6599996052682,11
26.99441,0.8833333,-30.11878,1.9127074312917216,-0.5371602203728729,-2.274851394826573,18.08275,67.30238,358.1396,0.1219123,0.5493019,-0.1004158,17.6799996048212,11
27.0711,0.9766704,-30.09879,1.1798798735631555,-0.3417377338456038,-2.4780416840047224,22.5708,65.97011,357.4026,0.1520098,0.537477,-0.1251576,17.6999996043742,11
27.74216,0.2833333,-29.88179,0.4758556949511501,-0.1228271636959163,-2.629734413346206,3.923625,74.25113,0.03879013,0.02749898,0.6032008,-0.02039229,17.7199996039271,11
27.80792,0.4833333,-29.86319,-0.2612462779135533,-0.5730151348495497,-2.677469992338235,7.845968,73.17378,0.003777883,0.05495409,0.5946428,-0.04075205,17.7399996034801,11
27.87366,0.6833334,-29.8446,-1.256577272430576,-0.307132870071355,-2.740165026810708,11.76562,72.08224,359.8932,0.08233044,0.5853443,-0.06105395,17.7599996030331,11
27.9394,0.8833335,-29.82601,-2.1869919433788603,-0.0177639771440792,-2.723237550450019,15.67887,70.96581,359.7043,0.1095824,0.5753198,-0.08125497,17.779999602586,11
28.67978,0.2833335,-29.65511,-3.0292990955576684,0.2428212078152463,-2.627360259040099,6.745621,76.10156,359.7979,0.04524338,0.6153728,-0.03764847,17.799999602139,11
28.79569,0.4833336,-29.63128,-3.9251012829058496,-0.4313985861691164,-2.5348488161465426,13.48499,74.97199,359.4608,0.0903181,0.6047903,-0.07515746,17.819999601692,11
28.91158,0.6833331,-29.60747,-5.249699583764777,-0.1761088937464278,-2.567808688048828,20.21508,73.76035,358.9703,0.1350633,0.5920669,-0.112395,17.8399996012449,11
29.54104,0.2833335,-29.51027,-6.522898706665142,0.1026681522533999,-2.576344476820044,6.451701,74.49599,359.2334,0.04075009,0.6045933,-0.03937555,17.8599996007979,11
29.65379,0.4833332,-29.49417,-7.719547607154283,0.3526619018287045,-2.554327800773848,12.88541,73.27603,358.324,0.08135738,0.594242,-0.07861596,17.8799996003509,11
29.76652,0.6833332,-29.47808,-8.979703826390946,-0.3321507213337757,-2.3356751089277985,19.29615,71.90927,357.2403,0.1216879,0.5819389,-0.1175916,17.8999995999038,11
29.87923,0.8833328,-29.46199,-10.490220311650006,-0.0874543956046436,-2.198966689711142,25.67713,70.34488,355.9363,0.1616082,0.5677249,-0.1561751,17.9199995994568,11
30.68826,0.2833333,-29.37708,-11.901959518218028,0.1807285994801873,-2.0198632079701326,6.807679,75.75397,357.9951,0.03613565,0.6136112,-0.05023256,17.9399995990098,11
30.81252,0.4833336,-29.3832,-13.185681285589869,0.4201280376589453,-1.7953892064681654,13.57207,74.30067,355.7928,0.07210556,0.6027307,-0.1003634,17.9599995985627,11
30.93674,0.6833334,-29.38931,-14.474752812604128,-0.2752782678240685,-1.3806178552571993,20.27363,72.51976,353.3271,0.1077907,0.5894888,-0.150114,17.9799995981157,11
31.06092,0.8833331,-29.39541,-16.032133004158343,-0.0411756633570267,-1.050441494437088,26.89065,70.32615,350.5008,0.1430553,0.5739373,-0.1992842,17.9999995976686,11
31.63932,0.2833331,-29.30554,-17.33407307772057,0.2164138239037749,-0.6411002426969219,7.138443,75.2632,357.8812,0.0380268,0.6102051,-0.05261914,18.0199995972216,11
31.76933,0.4833331,-29.31092,-18.436624995439825,-0.1950946533332788,-0.0582149434393244,14.23589,73.77242,355.5567,0.07594553,0.5989962,-0.1050863,18.0399995967746,11
31.89931,0.6833326,-29.3163,-19.204789419409803,-0.6108196394380305,0.5900689448620327,21.2619,71.91614,352.9427,0.1135254,0.5852111,-0.1570859,18.0599995963275,11
32.02925,0.8833326,-29.32168,-20.279033447935664,-0.1257834002689155,1.0880722187404572,28.19088,69.59363,349.9227,0.1506042,0.5689117,-0.2083934,18.0799995958805,11
32.07502,0.2833333,-29.31336,-21.03984587159889,0.3550362617323185,1.6307904439114544,7.728426,78.76857,358.8026,0.04546968,0.6335858,-0.0508174,18.0999995954335,11
32.21148,0.4833333,-29.3088,-21.5576889885265,-0.0733378027555999,2.2933430150125176,15.42728,77.43447,357.4139,0.09071209,0.622023,-0.1013794,18.1199995949864,11
32.3479,0.6833338,-29.30423,-22.31245324836686,0.2143598837500667,2.7759862667979185,23.08681,75.83584,355.7654,0.1355126,0.6075234,-0.1514467,18.1399995945394,11
32.48427,0.8833333,-29.29968,-22.749111923448,0.5255441153817659,3.251246121102433,30.6943,73.87254,353.7565,0.1796774,0.5901577,-0.2007851,18.1599995940924,11
32.54027,0.2833339,-29.25886,-22.848638482983358,0.8079448793157894,3.721180495432737,7.756763,70.86198,359.9756,0.05499011,0.578406,-0.0393846,18.1799995936453,11
32.66859,0.4833339,-29.21562,-22.72193252048225,0.1555391889699779,4.388855065986583,15.5096,69.77674,359.8039,0.1097117,0.566937,-0.07857047,18.1999995931983,11
32.79686,0.6833344,-29.17238,-22.204341818018477,-0.3996942523310774,5.043250260929689,23.25546,68.61468,359.4653,0.1639094,0.5528357,-0.1173752,18.2199995927513,11
32.84861,0.2833331,-29.07994,-21.99201688514269,0.0449536734865694,5.4502299555651135,7.194124,55.58375,359.7646,0.05454613,0.4654557,-0.03106656,18.2399995923042,11
32.95477,0.4833325,-29.01269,-21.523747388664862,-0.1554171317586075,6.055958850896772,14.38441,54.46687,359.3929,0.1089131,0.4545996,-0.06196542,18.2599995918572,11
33.06089,0.6833323,-28.94547,-20.671163855977525,-0.3348795880909248,6.626083246082928,21.56607,53.25592,358.8598,0.1628579,0.4419238,-0.09258635,18.2799995914102,11
33.16685,0.8833323,-28.87832,-19.419913474838083,-0.5477953171692056,7.161312722488887,28.72732,51.90335,358.1298,0.2161122,0.4275174,-0.122762,18.2999995909631,11
33.11832,0.2833333,-28.88796,-18.565771870445896,0.1118580390354028,7.479918370844008,2.223422,25.6622,357.6751,0.01440895,0.222374,-0.02408463,18.3199995905161,11
33.16903,0.4833333,-28.87521,-17.559203605984926,-0.1136025021912503,8.07539974771991,4.139084,27.12358,355.3475,0.02556484,0.2355727,-0.04789329,18.3399995900691,11
33.2201,0.6833336,-28.86086,-16.262092259269153,-0.3181543955175238,8.582960908613792,6.227935,28.48152,353.0916,0.03775768,0.2483599,-0.07165184,18.359999589622,11
33.27117,0.8833336,-28.84651,-15.288835002810677,0.1641282144205078,8.915647091940478,8.365668,29.76087,350.8806,0.04990932,0.2609122,-0.09529878,18.379999589175,11
33.16781,0.2833334,-28.68224,-14.088613253733726,0.6417067983068977,9.162255474045164,5.721638,8.622966,359.1342,0.04920001,0.07545876,-0.01127667,18.399999588728,11
33.16267,0.4833333,-28.64869,-12.746899494209629,0.2096036609416429,9.511329022187176,7.242939,12.66057,359.8589,0.06264386,0.1101167,-0.008185405,18.4199995882809,11
33.16293,0.6833334,-28.60752,-11.15673907590578,-0.2272033413948574,9.722959140126967,9.461109,16.64688,0.4081267,0.08211458,0.1439764,-0.008426311,18.4399995878339,11
33.16318,0.8833334,-28.56632,-10.158178606725423,0.2362622490793646,9.723372835358262,11.63692,20.67949,1.11813,0.1014681,0.1775784,-0.008645253,18.4599995873868,11
33.01162,0.2833335,-28.39216,-9.160333555787744,0.0547087164616711,9.978418781167512,4.510235,359.157,359.3179,0.03939106,-0.007115979,-0.005658423,18.4799995869398,11
33.01941,0.4833333,-28.31117,-8.07176337299764,-0.1059363929318693,10.134617701955062,9.057394,3.008688,358.9395,0.07868561,0.02690011,-0.01129505,18.4999995864928,11
33.02718,0.6833334,-28.23015,-6.898343302502212,-0.3000345140671188,10.20224487183605,13.62074,6.887559,358.8704,0.1177758,0.0608092,-0.01689313,18.5199995860457,11
32.95303,0.2833333,-28.0616,-6.191976941734325,0.3784366320691372,10.077007859759751,4.10423,352.8372,358.556,0.0365224,-0.06197142,-0.01033197,18.5399995855987,11
32.96639,0.4833333,-27.98516,-5.633803100354523,0.1717936374547441,10.341955022950092,8.296287,356.5947,357.3813,0.07296188,-0.0279749,-0.02063194,18.5599995851517,11
32.97973,0.6833333,-27.90869,-5.106899102180403,-0.0139405791056128,10.49405911277179,12.55679,0.3110736,356.4747,0.1092243,0.006060902,-0.03087167,18.5799995847046,11
32.99307,0.8833332,-27.8322,-4.61883034202031,-0.2331273704259166,10.54548548883734,16.86733,4.026715,355.8408,0.1452161,0.04004858,-0.04102282,18.5999995842576,11
32.91603,0.2833333,-27.68763,-4.214370200924712,-0.2200593415307588,10.933173248992176,3.538931,353.81,358.2956,0.03163227,-0.05350168,-0.01317711,18.6199995838106,11
32.93665,0.4833334,-27.62068,-3.869880727341446,-0.1615156274123079,11.186183788476445,7.185794,357.541,356.8242,0.06322172,-0.01967075,-0.02630567,18.6399995833635,11
32.95727,0.6833334,-27.55374,-3.594332130544146,-0.1108134633246125,11.31970379154286,10.92374,1.210562,355.5847,0.09470224,0.01417452,-0.03934859,18.6599995829165,11
32.97791,0.8833336,-27.4868,-3.3977146620763747,-0.1212673141828069,11.34956324475814,14.73594,4.848022,354.579,0.1259996,0.0479572,-0.05227455,18.6799995824695,11
32.8771,0.2833333,-27.23173,-3.2820198994108374,-0.1395621574321539,11.622904195071428,4.281593,358.2493,358.4911,0.03754866,-0.01477307,-0.01258541,18.6999995820224,11
32.89872,0.4833333,-27.15419,-3.234070638429216,-0.1123813313136074,11.727169001138943,8.675108,1.964327,357.2629,0.0751914,0.0188933,-0.02510788,18.7199995815754,11
32.92036,0.6833332,-27.07667,-3.2662878852698825,-0.0930420854556126,11.676664215770485,13.14103,5.634153,356.3123,0.1126575,0.05247661,-0.03754617,18.7399995811284,11
32.84813,0.283333,-26.78121,-3.3002523534954484,0.585429643410107,11.427037985016815,5.733256,4.884536,359.0166,0.04959874,0.04298659,-0.01069383,18.7599995806813,11
32.87067,0.4833332,-26.68123,-3.55471404528393,0.3787877379396446,11.573586665446904,11.52591,8.636308,358.4067,0.09907671,0.07629906,-0.02135428,18.7799995802343,11
32.89321,0.6833332,-26.58127,-3.856735965808312,0.1930543500416683,11.506208669255606,17.34778,12.41883,358.1781,0.1482067,0.1092957,-0.03193421,18.7999995797873,11
32.91574,0.8833327,-26.48135,-4.221775778540298,-0.0261323075531595,11.239798645158752,23.17347,16.31707,358.3583,0.1968064,0.1418546,-0.04239221,18.8199995793402,11
32.82528,0.2833334,-26.06616,-4.64948921224472,-0.0130642636737781,11.387785601915285,6.415196,17.03533,0.4124626,0.05586868,0.1476822,-0.004733393,18.8399995788932,11
