pX,pY,pZ,aX,aY,aZ,reX,reY,reZ,rtX,rtY,rtZ,t,ID
-45.00041,0.23,-36.99972,3.797676983730149,0.0317451810911634,5.604406363432155,0.01568834,0.009947592,0.02319636,0.0001369241,8.67814e-05,0.0002024146,0.599999986588955,2
-45.00082,0.43,-36.99944,4.183060039710135,-0.242419322155714,5.982484758796041,0.03144349,0.009957121,0.04642872,0.0002744314,8.678108e-05,0.0004051432,0.61999998614192,2
-45.00132,0.2833333,-36.99904,4.510833480000613,-0.2834219483150348,6.289636763284378,0.02348791,3.213069,0.0340301,0.0002132158,0.02803558,0.0002911054,0.639999985694885,2
-45.0019,0.4833333,-36.9986,4.781765176336641,-0.1165963252936937,6.527041556841752,0.04701743,3.21309,0.06805668,0.0004267937,0.02803558,0.0005821698,0.65999998524785,2
-45.00247,0.6833333,-36.99815,5.093109897098671,-0.4065464752230464,6.779493507142938,0.07059674,3.213125,0.1021828,0.0006408305,0.02803557,0.0008740898,0.679999984800816,2
-44.99392,0.2833334,-36.97025,5.338891420157808,-0.4593626419800293,6.953447399294795,0.7569504,6.975263,0.4411528,0.006827496,0.06080591,0.003440726,0.699999984353781,2
-45.00002,0.4833333,-36.95604,5.520846242725355,-0.300378614116344,7.051533112535132,1.513846,6.984007,0.882481,0.01365452,0.06080057,0.006881442,0.719999983906746,2
-44.96694,0.2833334,-36.90775,5.716753737798953,-0.5941974836961128,7.13429749259781,1.297093,11.35684,0.06011138,0.01131539,0.09893267,-0.0005979973,0.739999983459711,2
-44.96345,0.4833333,-36.88515,5.844844878464222,-0.6469097373058326,7.138276526881974,2.59427,11.35887,0.12004,0.02262985,0.0989136,-0.001198112,0.759999983012676,2
-44.95996,0.6833333,-36.86258,6.002013252344845,-0.9107250732224974,7.152162624136601,3.893965,11.36222,0.1791293,0.03396246,0.09888154,-0.001808588,0.779999982565641,2
-44.90766,0.2833335,-36.79352,6.085901902144464,-0.9318308557386992,7.083833565372238,2.490326,16.05029,0.01753164,0.02153903,0.1395714,-0.002882284,0.799999982118607,2
-44.89584,0.4833334,-36.7514,6.09990378736876,-0.7355608749742614,6.938296450671487,4.982128,16.05138,0.03432203,0.04307964,0.1394723,-0.005771955,0.819999981671572,2
-44.85023,0.2833333,-36.69812,6.1219453703300175,-0.9865179044043244,6.782907418425772,3.458477,19.15695,0.04945992,0.0298274,0.1663097,-0.00459588,0.839999981224537,2
-44.83112,0.4833333,-36.64049,6.073047189867644,-0.99079289747848,6.5521569266469655,6.919922,19.16142,0.09881461,0.05965248,0.166082,-0.009195881,0.859999980777502,2
-44.74529,0.2833331,-36.53234,6.051284357013145,-1.2005958598245248,6.339518405345814,4.406602,24.04395,0.1655273,0.0379028,0.2080783,-0.006595887,0.879999980330467,2
-44.71643,0.4833331,-36.46059,5.955988950025791,-1.162113891594564,6.0528524820825,8.817086,24.06315,0.3321413,0.07578121,0.2076152,-0.01319664,0.899999979883432,2
-44.68759,0.683333,-36.38887,5.906873994900138,-1.3275565603021082,5.8093209185136345,13.22926,24.09579,0.5027331,0.1135621,0.2068436,-0.0197815,0.919999979436398,2
-44.60513,0.2833333,-36.31738,5.781193545652151,-1.243111326766026,5.491994304268459,3.994101,28.5188,0.2262275,0.03426031,0.2460956,-0.006671267,0.939999978989363,2
-44.57527,0.4833332,-36.25419,5.585089426210509,-0.9341117451917385,5.109173681098994,7.988407,28.54253,0.4533978,0.06847841,0.2456452,-0.01334565,0.959999978542328,2
-44.46243,0.2833332,-36.13504,5.418888432024694,-1.0651598462028269,4.757064791098749,3.757228,32.63445,0.2134512,0.03198469,0.2807451,-0.007423569,0.979999978095293,2
-44.43019,0.4833332,-36.07789,5.184172147833287,-0.9423473173886894,4.34515874566177,7.513228,32.65559,0.4286271,0.06392476,0.2802911,-0.01483728,0.999999977648258,2
-44.39796,0.6833331,-36.02075,5.002333696922946,-1.017884284425143,3.994122743452508,11.26683,32.69112,0.6462247,0.09577363,0.2795349,-0.02224036,1.01999997720122,2
-44.28786,0.2833333,-35.91887,4.752273742607436,-0.8379577407452612,3.588911823090129,3.675391,35.72833,0.1900115,0.03103056,0.3065526,-0.008259909,1.03999997675419,2
-44.25307,0.4833333,-35.8649,4.442256153568906,-0.4279013595570774,3.140076358570372,7.349657,35.74673,0.3814764,0.06201981,0.3060784,-0.0165094,1.05999997630715,2
-44.12722,0.2833333,-35.73528,4.174191522782074,-0.4523173838768211,2.747846366428416,3.632202,38.66963,0.2574706,0.03064767,0.3308535,-0.00837362,1.07999997586012,2
-44.09108,0.4833333,-35.68304,3.8514754668384574,-0.2172973679168777,2.322890813815441,7.26325,38.69427,0.5168462,0.06125502,0.3303525,-0.01673712,1.09999997541308,2
-43.94668,0.2833335,-35.52765,3.599720788189032,-0.1750509976706661,1.9897506608021305,3.577514,41.90164,0.3704781,0.03030626,0.3572961,-0.008143436,1.11999997496605,2
-43.90975,0.4833339,-35.47694,3.300294893012449,-0.1118612372091513,1.634987707725326,7.153794,41.93655,0.7436044,0.06057305,0.3567683,-0.01627756,1.13999997451901,2
-43.87283,0.6833345,-35.42625,2.963568937027695,0.3354003471633547,1.2709037751681933,10.72868,41.99546,1.122458,0.09077086,0.3558895,-0.02439364,1.15999997407198,2
-43.74569,0.2833338,-35.29748,2.6001027987580656,0.7455501997604215,0.910077874416011,3.509836,44.06956,0.4047011,0.02971157,0.3748908,-0.008217055,1.17999997362494,2
-43.70812,0.4833338,-35.24862,2.349509963655933,0.2136111184675201,0.6860717814127106,7.018537,44.10697,0.8122518,0.05938649,0.3743564,-0.01642482,1.19999997317791,2
-43.67056,0.6833338,-35.19977,2.071407358317608,0.3648484100169419,0.4459202752369435,10.52586,44.17006,1.225772,0.08899601,0.3734666,-0.02461544,1.21999997273088,2
-43.56194,0.2833333,-35.0969,1.9012339159363665,0.0797997917016884,0.3188879267387534,3.46187,45.27452,0.3591159,0.02908438,0.3846308,-0.00873495,1.23999997228384,2
-43.52342,0.4833333,-35.04997,1.6842736049613052,0.2644890237079905,0.1600876402962008,6.922586,45.30725,0.720669,0.0581331,0.3840986,-0.01746003,1.25999997183681,2
-43.39653,0.2833335,-34.92362,1.4635170672229094,0.4397699865140143,0.0081585871073208,3.424661,45.96939,0.3285656,0.02862807,0.3902304,-0.009029721,1.27999997138977,2
-43.35756,0.4833335,-34.87798,1.3341628959461858,-0.0869428315304832,-0.0443045316671302,6.848014,45.99897,0.6588449,0.05721856,0.3897028,-0.0180524,1.29999997094274,2
-43.31859,0.6833335,-34.83234,1.1558780319280686,0.0695201420188803,-0.1319276941397582,10.27015,46.04884,0.9938058,0.08574931,0.3888246,-0.02705623,1.3199999704957,2
-43.20997,0.2833333,-34.7285,1.0889953427130052,-0.2103016071452308,-0.1127973279148157,3.390315,45.65445,0.2370504,0.02806702,0.3877265,-0.009570525,1.33999997004867,2
-43.17056,0.4833332,-34.6842,0.984700367828978,-0.0203852797434399,-0.1071458104137619,6.779361,45.67556,0.4750972,0.05609737,0.387215,-0.01913391,1.35999996960163,2
-43.04329,0.283333,-34.55812,0.8821742456238368,0.1601226717390406,-0.1122688814129446,3.355126,44.99185,0.1730911,0.02762486,0.3824125,-0.009806081,1.3799999691546,2
-43.00404,0.4833328,-34.51459,0.7961996003230567,0.1188291592977812,-0.1028807604170864,6.708956,45.00712,0.3471075,0.05521492,0.3819196,-0.01960167,1.39999996870756,2
-42.85749,0.2833329,-34.36801,0.7031092611394101,0.0958306892566426,-0.1239013950861149,3.315315,44.19652,0.07926501,0.02706264,0.3760201,-0.01024179,1.41999996826053,2
-42.81815,0.4833327,-34.32558,0.7218082908238372,-0.3890656930118003,-0.0653127346582032,6.629594,44.20343,0.1589809,0.05409402,0.3755478,-0.0204723,1.43999996781349,2
-42.77883,0.6833327,-34.28317,0.6775144833152495,-0.1907861066634712,-0.0379549933034084,9.942597,44.21503,0.2393938,0.08106873,0.3747615,-0.03068458,1.45999996736646,2
-42.65147,0.2833332,-34.15862,0.6364703007656161,-0.0019150783101836,-0.0262802624531452,3.280611,43.34895,359.9807,0.02653862,0.3691859,-0.01072895,1.47999996691942,2
-42.61193,0.4833332,-34.11724,0.5922747705940878,-0.034844723724226,-0.0119309174903285,6.560236,43.34728,359.9612,0.05304755,0.3687322,-0.02144582,1.49999996647239,2
-42.4654,0.283333,-33.97174,0.5478525866262913,-0.0494797216421181,-0.0102135948572481,3.242064,42.22545,359.9276,0.02616225,0.3600765,-0.01077859,1.51999996602535,2
-42.42646,0.4833329,-33.9307,0.5131693199959386,-0.0991359051605195,-0.0137892137842072,6.483143,42.21928,359.8548,0.0522956,0.359644,-0.02154544,1.53999996557832,2
-42.38752,0.6833329,-33.88968,0.5416329057203697,-0.1571558527331628,0.0625496091179442,9.723233,42.20887,359.781,0.07837918,0.3589241,-0.03229196,1.55999996513128,2
-42.26102,0.2833332,-33.76485,0.5695460303315159,-0.1968814512744675,0.1290817894792404,3.208274,40.27999,359.8367,0.02579159,0.3442173,-0.01097611,1.57999996468425,2
-42.22266,0.4833331,-33.72398,0.497640490176451,0.2085641000665394,0.1030952961881155,6.41555,40.2662,359.6724,0.05155507,0.3438117,-0.02194041,1.59999996423721,2
-42.07541,0.2833332,-33.57735,0.5055498861554426,-0.0592352065646804,0.1465612863576311,3.314064,39.91775,359.8075,0.02660669,0.341248,-0.01144867,1.61999996379018,2
-42.03572,0.4833335,-33.53515,0.3890012057251866,0.1458394542430398,0.0626711555593217,6.627078,39.90095,359.6138,0.05318289,0.3408186,-0.02288437,1.63999996334314,2
-41.99603,0.683333,-33.49295,0.3701814223692494,-0.0822347578220469,0.066715458331231,9.939197,39.87267,359.4175,0.07970801,0.3401035,-0.03429786,1.65999996289611,2
-41.95636,0.8833333,-33.45077,0.3477689363298708,-0.3176276681937469,0.0592615827315619,13.25087,39.83241,359.2173,0.1061638,0.3391035,-0.04568103,1.67999996244907,2
-41.79589,0.2833338,-33.29548,0.2234219522530125,0.1055888404126033,-0.0450879016194996,3.543247,41.62772,359.8206,0.02834204,0.3552081,-0.01244823,1.69999996200204,2
-41.75244,0.4833343,-33.25133,0.1768979173852543,-0.1444397835478695,-0.0801474726178028,7.085498,41.61097,359.6399,0.05664931,0.3546975,-0.02488095,1.719999961555,2
-41.60794,0.2833333,-33.11067,0.1329603772020462,-0.4017861020462454,-0.1194946483531431,3.56368,42.97523,359.8528,0.02846234,0.3661599,-0.01258481,1.73999996110797,2
-41.56367,0.4833333,-33.06693,0.0162962224255949,-0.00052300949427,-0.2194981330561773,7.126472,42.96138,359.704,0.05688907,0.3656279,-0.02515727,1.75999996066093,2
-41.51941,0.6833336,-33.0232,0.0408066390739705,-0.2725041087264196,-0.1868224909560609,10.68814,42.93797,359.553,0.08525202,0.3647421,-0.03770196,1.7799999602139,2
-41.39685,0.2833333,-32.90337,-0.0358984522514447,-0.071611293051526,-0.2491058077661527,3.591144,44.13059,359.9498,0.02887391,0.3754912,-0.01217693,1.79999995976686,2
-41.35259,0.4833333,-32.859,0.0039185311457217,-0.3038674546162994,-0.2009445026055303,7.181488,44.12586,359.8994,0.05771376,0.3749381,-0.02433753,1.81999995931983,2
-41.20898,0.2833333,-32.71706,0.0417058841129929,-0.5434417375950973,-0.1580066888733569,3.5904,45.10886,0.06843665,0.02915995,0.3833553,-0.01146455,1.8399999588728,2
-41.16545,0.4833333,-32.672,0.0042927621152131,-0.1244067018681756,-0.1807802249932457,7.179784,45.11538,0.1378126,0.05828445,0.3827909,-0.02291127,1.85999995842576,2
-41.12193,0.6833336,-32.62695,0.0677151673619036,-0.37861638995241,-0.1077938606363346,10.76808,45.12638,0.2083203,0.0873432,0.3818511,-0.03433171,1.87999995797873,2
-40.99985,0.2833333,-32.50821,0.0327820039658774,-0.1599516034862967,-0.1277723774420671,3.556523,45.74629,0.08237194,0.02887071,0.3884843,-0.01139972,1.89999995753169,2
-40.95641,0.4833336,-32.46388,0.0035677348038802,0.0524408058722244,-0.1432320620416369,7.111734,45.75399,0.1651445,0.05770233,0.3879228,-0.02278594,1.91999995708466,2
-40.81096,0.283333,-32.32157,-0.0669373641879786,0.0461682031301124,-0.201176845179841,3.63601,46.44402,0.1010377,0.02950209,0.3940707,-0.01169906,1.93999995663762,2
-40.76619,0.4833332,-32.27657,-0.1352372385644358,0.0613266410771322,-0.2576726278181667,7.270901,46.4537,0.202833,0.05896539,0.3934753,-0.02338303,1.95999995619059,2
-40.72143,0.6833332,-32.23158,-0.0990698978980759,-0.3822759294140579,-0.2144704122439833,10.90544,46.47002,0.3060868,0.08836602,0.3924837,-0.03504393,1.97999995574355,2
-40.59888,0.2833338,-32.11263,-0.1578595734200831,-0.139567013714248,-0.2607434265294834,3.645558,46.79422,0.1053807,0.02955768,0.3968737,-0.01178748,1.99999995529652,2
-40.55378,0.4833338,-32.06773,-0.207876883682367,0.0968695525813579,-0.2981581776259965,7.290117,46.80435,0.2116079,0.05907749,0.3962708,-0.0235597,2.01999995484948,2
-40.50868,0.6833338,-32.02286,-0.2221638350376906,0.1146421040983369,-0.300202800990565,10.93359,46.82144,0.3194969,0.08852876,0.3952671,-0.03530506,2.03999995440245,2
-40.33533,0.2833336,-31.85466,-0.240236585182842,0.1538456403749662,-0.3051850202935071,3.605343,48.12468,0.1595022,0.02929101,0.4074882,-0.01155577,2.05999995395541,2
-40.29034,0.4833333,-31.8106,-0.2517198664488376,0.1611642200274374,-0.3033495836515563,7.209662,48.13983,0.3202897,0.05854511,0.4068821,-0.02309644,2.07999995350838,2
-40.24538,0.6833336,-31.76656,-0.2634008610529719,0.1632554626202657,-0.3010768429151937,10.81281,48.16542,0.4835311,0.08773185,0.4058731,-0.03461125,2.09999995306134,2
-40.13069,0.2833334,-31.65554,-0.2687007197482316,0.1867774663419286,-0.2924400674502223,3.552385,49.36697,0.2224649,0.02897363,0.4173491,-0.01118069,2.11999995261431,2
-40.08619,0.4833334,-31.61224,-0.2766583788641483,0.2317310038382055,-0.2888621137725558,7.103679,49.38779,0.4465925,0.05791089,0.4167453,-0.02234729,2.13999995216727,2
-39.9497,0.2833336,-31.47932,-0.2838906273513188,0.2981151029640684,-0.286664764586046,3.511694,49.78673,0.2641808,0.02876367,0.4206679,-0.01080726,2.15999995172024,2
-39.9059,0.4833336,-31.43624,-0.2807094506717789,0.3326146211167594,-0.2767877746029121,7.022306,49.81116,0.5302736,0.05749194,0.4200721,-0.02160129,2.1799999512732,2
-39.86211,0.6833335,-31.39318,-0.1729114519366206,-0.3584013504097394,-0.17019378432175,10.53117,49.85239,0.8003626,0.08615316,0.4190805,-0.03236952,2.19999995082617,2
-39.74831,0.2833331,-31.28195,-0.1894425955988765,-0.1507126911143797,-0.1832188985765128,3.459118,49.78596,0.2912308,0.02844707,0.420662,-0.01039997,2.21999995037913,2
-39.70551,0.4833333,-31.23911,-0.1964834816193885,0.049657598656102,-0.1886032003378552,6.91669,49.81252,0.5847511,0.05685709,0.4200833,-0.02078385,2.2399999499321,2
-39.66273,0.6833333,-31.19627,-0.1689557912980532,0.0303176143895357,-0.1602736275798797,10.37313,49.85729,0.8824648,0.08520703,0.4191197,-0.03114628,2.25999994948506,2
-39.49856,0.2833337,-31.0361,-0.1452844388675132,0.0313630604053878,-0.1354592925570692,3.413252,49.04072,0.2552961,0.02802005,0.4147711,-0.01033387,2.27999994903803,2
-39.45651,0.4833337,-30.99369,-0.1165083798227257,-0.0005221539996778,-0.1053585759279762,6.825146,49.06367,0.5124291,0.05600494,0.4142163,-0.02065374,2.29999994859099,2
-39.30753,0.2833334,-30.84777,-0.0929561955237474,-0.0386793858038664,-0.0787165403038052,3.3699,47.73589,0.1685824,0.02748408,0.4044151,-0.01055284,2.31999994814396,2
-39.266,0.4833332,-30.80605,-0.0670286721196475,-0.0564512037908583,-0.0483191012121402,6.738474,47.75084,0.338218,0.05493359,0.4038894,-0.0210929,2.33999994769692,2
-39.22448,0.6833334,-30.76435,-0.0494681210486689,-0.05383706155922,-0.0276078994601007,10.10596,47.77604,0.5102004,0.08232725,0.4030141,-0.0316113,2.35999994724989,2
-39.09663,0.2833332,-30.63956,-0.0364341033779282,-0.0308374377329117,-0.0124283327132772,3.330951,46.55332,0.1016289,0.02704866,0.3949806,-0.01067088,2.37999994680285,2
-39.05566,0.4833332,-30.59831,-0.0188103572176174,-0.0407682202926695,0.0057362219329135,6.660619,46.56223,0.2039302,0.0540642,0.3944797,-0.0213285,2.39999994635582,2
-39.0147,0.683333,-30.55707,0.0725073745194464,-0.0569720826503842,0.0958297078033325,9.98934,46.57725,0.307624,0.08102663,0.3936458,-0.03196496,2.41999994590878,2
-38.90661,0.2833331,-30.45275,0.1587741947453906,-0.0527908738243299,0.1794551057127833,3.290741,45.25093,0.005940962,0.02652334,0.3845456,-0.01099829,2.43999994546175,2
-38.86591,0.4833329,-30.41226,0.1268277703121185,0.3986527913340463,0.1478263903660241,6.58052,45.25144,0.0119135,0.05301704,0.38407,-0.02198434,2.45999994501472,2
-38.73877,0.2833329,-30.28854,0.1837108079971656,0.1789424775713844,0.200008345876725,3.256047,44.05886,359.9355,0.02612542,0.3749462,-0.01117755,2.47999994456768,2
-38.69846,0.4833326,-30.2485,0.2364810423609853,-0.0459948536165359,0.2466495451720796,6.511108,44.05334,359.8707,0.05222205,0.3744921,-0.02234226,2.49999994412065,2
-38.65816,0.6833326,-30.20847,0.3155064406189396,-0.0371088681338087,0.3182808566226001,9.765037,44.04404,359.8051,0.07826737,0.373736,-0.03348552,2.51999994367361,2
-38.48164,0.2833333,-30.03545,0.3832333078535939,-0.0078374671786513,0.3775357661335796,3.21341,41.17246,359.8181,0.02569013,0.3515197,-0.01134451,2.53999994322658,2
-38.44234,0.4833332,-29.99533,0.4488304117167416,-0.011496608077391,0.4334304200763661,6.42585,41.15707,359.635,0.05135245,0.3511038,-0.02267694,2.55999994277954,2
-38.40306,0.6833332,-29.95523,0.4585581605811768,-0.0214280736389415,0.4347709417712764,9.637272,41.13118,359.4497,0.07696682,0.3504115,-0.03398776,2.57999994233251,2
-38.28139,0.2833332,-29.83597,0.4555520205343342,-0.0109736322978187,0.4234045548680285,3.309131,40.63559,359.8048,0.02648585,0.3471278,-0.01162247,2.59999994188547,2
-38.2412,0.4833329,-29.79436,0.4488445334756079,-0.0334500385932831,0.4082965116508354,6.617305,40.61859,359.6084,0.05294224,0.3466922,-0.02323185,2.61999994143844,2
-38.09668,0.2833335,-29.65343,0.5074137666841594,-0.0621987536090444,0.4578438138808174,3.52603,41.65332,359.7921,0.02811045,0.3554252,-0.01263362,2.6399999409914,2
-38.05303,0.4833335,-29.60983,0.5529854235035288,-0.0705621177936153,0.4960402535597161,7.051107,41.63401,359.5826,0.05618703,0.3549188,-0.0252519,2.65999994054437,2
-38.0094,0.6833334,-29.56625,0.4846567654801674,0.3683357636811859,0.4246925098177527,10.57664,41.60136,359.3696,0.08421379,0.3540751,-0.03785032,2.67999994009733,2
-37.88664,0.2833334,-29.44778,0.4932341790289811,0.1360796812191717,0.4291713289215728,3.5595,43.01375,359.8356,0.02836944,0.366477,-0.01271995,2.6999999396503,2
-37.84217,0.4833337,-29.40433,0.4941534349751251,-0.1014034847903415,0.4280137280002307,7.118174,42.99829,359.6697,0.05670404,0.3659455,-0.02542745,2.71999993920326,2
-37.79771,0.6833339,-29.36089,0.4130282592153875,0.3218135061860234,0.3487512479718262,10.67578,42.97222,359.5012,0.08497569,0.3650607,-0.03810706,2.73999993875623,2
-37.62447,0.2833332,-29.19257,0.4722489489425854,0.0738771324202601,0.4059661687731228,3.584606,44.51396,359.9351,0.0287318,0.3785924,-0.01237022,2.75999993830919,2
-37.57981,0.4833331,-29.14876,0.5270034603262559,-0.1792861483056765,0.4597691645723785,7.16836,44.50784,359.8698,0.05742896,0.3780367,-0.02472478,2.77999993786216,2
-37.53517,0.6833332,-29.10497,0.4417473782126819,0.2282498026784956,0.379067894223887,10.75108,44.49751,359.8035,0.08606189,0.3771115,-0.03705125,2.79999993741512,2
-37.42054,0.2833333,-28.99203,0.4332001770390334,-0.0353689483342514,0.3721268013860879,3.588289,45.42173,0.06276977,0.02909247,0.3858759,-0.01158261,2.81999993696809,2
-37.37672,0.4833332,-28.9473,0.295938378270101,0.1759777296983572,0.241271463605063,7.175608,45.42772,0.1266033,0.05815055,0.3853084,-0.02314607,2.83999993652105,2
-37.23968,0.2833336,-28.81344,0.1542500048075368,0.3831429717893908,0.1068533654513785,3.556301,45.99804,0.07962378,0.02883445,0.3905073,-0.01148443,2.85999993607402,2
-37.19601,0.4833336,-28.76934,0.1483361937096958,-0.1064587198596976,0.1032945776401916,7.11138,46.00549,0.1596714,0.05763073,0.389943,-0.0229552,2.87999993562698,2
-37.15236,0.683334,-28.72525,0.0375024262404579,0.0923429203029002,-0.0010277870096082,10.66537,46.01805,0.2409326,0.08636278,0.3890036,-0.0344005,2.89999993517995,2
-36.96414,0.2833332,-28.54164,0.0389521236810139,-0.1399130606671388,0.0028660637091064,3.63429,46.79312,0.1066187,0.02947188,0.3968658,-0.01173825,2.91999993473291,2
-36.91918,0.4833331,-28.49686,0.0340770154374112,-0.3773958320340343,5.852559954533376e-05,7.267524,46.80333,0.2140506,0.05890558,0.3962667,-0.02346148,2.93999993428588,2
-36.87424,0.6833332,-28.4521,-0.0471723986968868,0.0458212363027397,-0.0750423391294958,10.90035,46.82055,0.3230368,0.08827625,0.395269,-0.03516134,2.95999993383884,2
-36.74405,0.2833332,-28.32586,-0.1226789961109702,0.438198938385028,-0.1443953343189612,3.636685,47.11377,0.1058119,0.02945525,0.399431,-0.01183547,2.97999993339181,2
-36.69881,0.4833332,-28.28132,-0.1623238264669169,0.3749514455417354,-0.1777132158983434,7.272295,47.12391,0.2124449,0.05887221,0.3988273,-0.02365561,2.99999993294477,2
-36.54607,0.2833336,-28.13314,-0.2031619933738255,0.3362714502635077,-0.2108355882145147,3.592258,48.27063,0.1562985,0.02916069,0.4086528,-0.0115719,3.01999993249774,2
-36.50111,0.4833336,-28.0894,-0.1279200243075422,-0.1580330010961428,-0.1299019404448067,7.183456,48.28543,0.3137985,0.05828434,0.4080494,-0.02312901,3.0399999320507,2
-36.45616,0.6833336,-28.04566,-0.2097729628705238,0.0371100962298739,-0.2005688429097425,10.77357,48.3104,0.4737273,0.08734218,0.4070449,-0.03466033,3.05999993160367,2
-36.3259,0.2833336,-27.91957,-0.2917080620191612,0.2291171232206409,-0.2710901022117902,3.548537,49.49709,0.2213023,0.02892619,0.4183809,-0.01120874,3.07999993115664,2
-36.28133,0.4833337,-27.87643,-0.3631409196323467,0.3657172148683324,-0.3315344976767846,7.095994,49.51778,0.4442119,0.05781604,0.4177769,-0.02240375,3.0999999307096,2
-36.23678,0.6833337,-27.83329,-0.3888785354334345,0.2611760462383242,-0.3506211047435492,10.64232,49.55269,0.6705881,0.08664219,0.4167714,-0.03357346,3.11999993026257,2
-36.05761,0.2833337,-27.65909,-0.4051960668002294,0.182247660544422,-0.3627070131271317,3.493999,49.97632,0.272469,0.0286364,0.4221677,-0.01072409,3.13999992981553,2
-36.01399,0.4833336,-27.61624,-0.4278502169944467,0.1289312579601652,-0.382853858512739,6.986969,50.0014,0.5469438,0.0572384,0.4215756,-0.02143493,3.1599999293685,2
-35.97038,0.6833335,-27.5734,-0.4514050583795388,0.1012274761862075,-0.4055838706917889,10.47839,50.04374,0.8256433,0.0857763,0.42059,-0.03211994,3.17999992892146,2
-35.84924,0.2833334,-27.4551,-0.4663648274831615,0.0458203696570917,-0.4216461388501074,3.44157,49.82526,0.2894296,0.02829807,0.4209757,-0.01035949,3.19999992847443,2
-35.80662,0.4833333,-27.4125,-0.5582464103049247,0.6296822147725023,-0.5117512549168701,6.881697,49.85152,0.5811141,0.05656029,0.4204024,-0.02070338,3.21999992802739,2
-35.76402,0.6833333,-27.36992,-0.5270152124557228,0.3085671307998666,-0.4829579727274549,10.32065,49.89579,0.8769639,0.08476297,0.4194479,-0.03102558,3.23999992758036,2
-35.59288,0.2833339,-27.20315,-0.483425550175852,-0.0115029627818379,-0.442034535137644,3.401283,48.68465,0.2226111,0.02783941,0.4119526,-0.01046348,3.25999992713332,2
-35.55088,0.4833341,-27.16105,-0.4826222999932739,-0.091476693086733,-0.4408371040607832,6.801262,48.70458,0.4467649,0.05564413,0.4114061,-0.02091348,3.27999992668629,2
-35.50889,0.6833342,-27.11896,-0.4802952850074291,-0.144792267182845,-0.4362913438117104,10.20016,48.73819,0.6740056,0.08339155,0.4104962,-0.03134236,3.29999992623925,2
-35.39499,0.2833335,-27.00811,-0.4671851788458347,-0.2247658675954363,-0.4195377018616177,3.358494,47.44327,0.1589579,0.02738608,0.4020832,-0.01051945,3.31999992579222,2
-35.35371,0.4833336,-26.96643,-0.3726858871119134,-0.3047395295130345,-0.3250502929648569,6.71565,47.45733,0.3190507,0.05473826,0.4015642,-0.02102496,3.33999992534518,2
-35.31244,0.6833336,-26.92477,-0.2749806947300293,-0.3580551552698696,-0.2286655416768503,10.07183,47.48104,0.48136,0.08203598,0.4007001,-0.03150923,3.35999992489815,2
-35.14883,0.2833333,-26.76577,-0.276307451848055,0.042163335174208,-0.2282812573390309,3.313542,45.68899,0.04286429,0.02678943,0.3880591,-0.01088,3.37999992445111,2
-35.10799,0.4833333,-26.72486,-0.1830514585944378,-0.2224997612980565,-0.1388258989983839,6.626108,45.69273,0.08600009,0.05354858,0.3875725,-0.02174774,3.39999992400408,2
-34.95982,0.2833334,-26.58058,-0.0795454117636111,-0.4861178315740661,-0.0408465214709217,3.268935,44.47556,359.9496,0.02623527,0.3783088,-0.01120102,3.41999992355704,2
-34.91924,0.4833334,-26.5405,-0.129915060348793,-0.0827629702391066,-0.0928182971187787,6.536917,44.47122,359.899,0.05244145,0.377847,-0.02238999,3.43999992311001,2
-34.87866,0.6833336,-26.50044,-0.0356953637618531,-0.3442889663850283,-0.0067770417196975,9.803603,44.4639,359.8474,0.07859404,0.3770782,-0.03355779,3.45999992266297,2
-34.8381,0.8833336,-26.46038,0.0582939329727558,-0.60476976297072,0.0775713013911776,13.06938,44.45348,359.7949,0.1046757,0.3760032,-0.04469495,3.47999992221594,2
-34.68166,0.2833333,-26.30761,0.0588968562900618,-0.1982782768842621,0.0713378994671387,3.225654,42.00531,359.8515,0.02581123,0.358303,-0.01129702,3.4999999217689,2
-34.64207,0.4833332,-26.26752,0.1397193594568442,-0.4566683356363593,0.1409200487273878,6.450346,41.99271,359.7021,0.0515945,0.3578764,-0.02258158,3.51999992132187,2
-34.50249,0.2833335,-26.13024,0.0970169809726826,-0.2338214601082069,0.0903690300615061,3.198592,40.41159,359.7898,0.02555852,0.345306,-0.01136013,3.53999992087483,2
-34.46354,0.4833333,-26.09012,0.0543996118188232,-0.0088837708670505,0.039665886685146,6.396248,40.3939,359.5785,0.0510901,0.3449008,-0.02270768,3.5599999204278,2
-34.42459,0.6833333,-26.05001,0.1487237449554257,-0.4744401023982159,0.1216635972352655,9.592843,40.36414,359.3645,0.07657398,0.3442262,-0.03403405,3.57999991998076,2
-34.38565,0.8833331,-26.00992,0.1417441722845112,-0.2453205641910594,0.1062381846899214,12.78806,40.32192,359.1471,0.1019897,0.3432833,-0.04532519,3.59999991953373,2
-34.23096,0.2833332,-25.86078,0.2477617839735515,-0.4409869105844796,0.201742229558814,3.531196,41.74266,359.7971,0.02815829,0.3561518,-0.0126307,3.61999991908669,2
-34.18724,0.483333,-25.81713,0.3472505606162706,-0.635607634723195,0.292607098002648,7.061432,41.72379,359.5926,0.05628236,0.3556429,-0.02524641,3.63999991863966,2
-34.0503,0.283333,-25.6847,0.2881961434937246,-0.1632562307363401,0.2309229323189008,3.508332,43.10707,359.8392,0.02795538,0.3672379,-0.01255021,3.65999991819263,2
-34.0064,0.483333,-25.64192,0.224243401293851,0.2845281040425701,0.1656435114068344,7.016835,43.09217,359.6768,0.05588499,0.3667203,-0.02509206,3.67999991774559,2
-33.96251,0.6833329,-25.59914,0.2854336974413485,-0.1972319941912146,0.2227911513045555,10.5243,43.06704,359.5121,0.08375432,0.3658585,-0.03760674,3.69999991729856,2
-33.91863,0.883333,-25.55639,0.2510843437666352,0.0167289776576148,0.1889088001057359,14.03064,43.03117,359.3434,0.1115367,0.3646536,-0.05008303,3.71999991685152,2
-33.774,0.2833337,-25.41616,0.3213065894137088,-0.1930498143526609,0.2566435427690479,3.569638,44.5872,359.9356,0.02860475,0.3791849,-0.012335,3.73999991640449,2
-33.72947,0.4833336,-25.37258,0.3854625943409644,-0.4007375538606589,0.3191472583336718,7.138798,44.58115,359.8708,0.05717819,0.3786328,-0.02465583,3.75999991595745,2
-33.60056,0.2833332,-25.24578,0.2992657121048623,0.0595912276955108,0.2369663917925244,3.584332,45.48622,0.0626615,0.02905375,0.3863952,-0.0115865,3.77999991551042,2
-33.55674,0.4833332,-25.20115,0.209951327424875,0.4963979717283983,0.15218268730926,7.167747,45.49219,0.1263621,0.05807357,0.3858282,-0.02315424,3.79999991506338,2
-33.51292,0.6833332,-25.15653,0.242390149107365,0.0047054980771036,0.1850237918207256,10.75015,45.50227,0.1910685,0.0870285,0.3848842,-0.03469599,3.81999991461635,2
-33.33286,0.2833332,-24.98102,0.1895356720479135,0.2097803332942098,0.1370980351609567,3.566611,46.30708,0.08789444,0.02891442,0.392984,-0.01153118,3.83999991416931,2
-33.28893,0.4833331,-24.93692,0.2381517919357527,-0.0078396899836089,0.1866310936672981,7.132061,46.31532,0.1762105,0.0577907,0.3924127,-0.02304934,3.85999991372228,2
-33.245,0.6833335,-24.89284,0.2863913722380609,-0.2223237303051088,0.2356076973711545,10.69642,46.32922,0.2658867,0.08660235,0.3914617,-0.03454173,3.87999991327524,2
-33.12164,0.2833333,-24.77329,0.1977375130165448,0.2322555580139963,0.1530692306056309,3.650638,46.83459,0.1058886,0.02959595,0.3971961,-0.01181143,3.89999991282821,2
-33.07642,0.4833334,-24.72836,0.2655090802790951,0.0240445710938285,0.2221908328023261,7.300219,46.84477,0.2125517,0.05915316,0.396591,-0.02360797,3.91999991238117,2
-33.03123,0.6833333,-24.68344,0.1991693513540973,0.2991617736787849,0.1623543612035511,10.94895,46.86195,0.3208317,0.08864328,0.3955836,-0.0353788,3.93999991193414,2
-32.85763,0.2833336,-24.51521,0.1236005258557995,0.5784602858848314,0.094490414463749,3.632776,47.47096,0.1216345,0.02944256,0.4022815,-0.01178717,3.9599999114871,2
-32.81235,0.4833335,-24.47081,0.1414330231508422,0.1693558196280783,0.1182963461251311,7.26452,47.48261,0.2442127,0.05884726,0.4016745,-0.02355925,3.97999991104007,2
-32.76709,0.6833336,-24.42641,0.1581048704092964,-0.2632705429343679,0.1428453645714,10.89514,47.50227,0.3687113,0.0881838,0.4006641,-0.03530442,3.99999991059303,2
-32.65228,0.2833334,-24.31578,0.0451269041864108,0.1855590518643687,0.042987862789797,3.584964,48.81823,0.1809261,0.02913588,0.4130017,-0.01148921,4.019999910146,2
-32.60729,0.4833333,-24.27222,0.0854679956301325,-0.0294470462788095,0.0915765057941655,7.168858,48.83533,0.3632403,0.05823486,0.412394,-0.02296372,4.03999990969896,2
-32.56231,0.6833333,-24.22868,0.0055316524427198,0.2378296145742143,0.0235359281697888,10.75163,48.86417,0.5483422,0.08726801,0.4113822,-0.03441276,4.05999990925193,2
-32.39716,0.2833332,-24.06866,-0.0771236912622654,0.5082425819382312,-0.0479323427380968,3.526614,49.92276,0.2529552,0.0288275,0.4217448,-0.0109851,4.07999990880489,2
-32.35293,0.4833335,-24.02567,-0.0639317816973275,0.0892069300286959,-0.0307026206606337,7.052077,49.94625,0.5077621,0.05761872,0.4211428,-0.02195636,4.09999990835786,2
-32.20195,0.2833331,-23.87871,-0.0406660748340748,-0.3543956438600821,-0.0061150352636545,3.484632,49.9721,0.2793288,0.02858801,0.4221339,-0.01063429,4.11999990791082,2
-32.15855,0.4833333,-23.83588,-0.1359988029906809,0.0824115832397627,-0.0953418232212008,6.96807,49.99774,0.5606797,0.05714043,0.4215448,-0.02125503,4.13999990746379,2
-32.11515,0.6833333,-23.79306,-0.0841578605179762,-0.145661598834231,-0.0447888269865437,10.44971,50.04102,0.8463793,0.08562735,0.4205644,-0.03184899,4.15999990701675,2
-32.07177,0.8833333,-23.75025,-0.1420038610372387,0.1075023840593639,-0.1007259681710479,13.93009,50.10273,1.138479,0.1140266,0.4191936,-0.04241034,4.17999990656972,2
-31.91499,0.2833333,-23.5976,-0.2010921233378013,0.3627575478665464,-0.1584196174739887,3.42772,49.49572,0.2728634,0.02815755,0.4183726,-0.01035872,4.19999990612268,2
-31.87262,0.4833333,-23.55514,-0.1775911467498723,-0.0724813907277639,-0.1353614595229224,6.853943,49.52036,0.5478175,0.05627898,0.4178079,-0.02070193,4.21999990567565,2
-31.73012,0.2833333,-23.41634,-0.1461458400350075,-0.5333331725435436,-0.1035730925070161,3.387157,48.30445,0.1866609,0.02763325,0.4089392,-0.01060678,4.23999990522861,2
-31.68816,0.4833335,-23.3746,-0.2181419040629784,-0.1148207015754704,-0.170776548635537,6.772939,48.32109,0.3744794,0.0552311,0.4084018,-0.0212007,4.25999990478158,2
-31.64621,0.6833332,-23.33287,-0.1494166607000515,-0.3622351227575895,-0.1008098014142149,10.15774,48.34914,0.5649165,0.08277325,0.4075072,-0.03177314,4.27999990433455,2
-31.60428,0.8833332,-23.29116,-0.177093060723056,-0.1294570002458833,-0.1242133544174173,13.54143,48.38908,0.7593637,0.1102348,0.4062563,-0.04231475,4.29999990388751,2
-31.4542,0.2833333,-23.14529,-0.0850241228430981,-0.3225093344742054,-0.0334028821879535,3.338963,46.63644,0.1050922,0.02711705,0.3956448,-0.01069042,4.31999990344048,2
-31.41311,0.4833335,-23.10396,0.0075600196671778,-0.5155613352164512,0.056159630770761,6.67655,46.64568,0.2109649,0.05420035,0.3951407,-0.02136654,4.33999990299344,2
-31.27885,0.2833333,-22.97355,-0.0531263971347257,-0.0426867191871592,-0.00339872667967,3.293363,45.33485,0.00734252,0.02654109,0.3852207,-0.01101524,4.35999990254641,2
-31.23807,0.4833331,-22.93307,-0.1127704260090283,0.4045753332680809,-0.0631947408763871,6.585791,45.33549,0.01469113,0.0530526,0.3847435,-0.02201859,4.37999990209937,2
-31.1973,0.6833331,-22.8926,-0.0403917764359142,-0.0787531254303521,0.0021185687725626,9.876903,45.33654,0.0220134,0.07950935,0.3839491,-0.03300034,4.39999990165234,2
-31.01361,0.2833333,-22.71368,-0.0581813944602451,0.1325941815040331,-0.0197841574848887,3.250557,43.47873,359.9091,0.02605187,0.3702568,-0.01124135,4.4199999012053,2
-30.97344,0.4833333,-22.67362,0.0325276816229198,-0.0808441396008999,0.0613957716710409,6.500148,43.47095,359.8177,0.05207511,0.3698097,-0.02247032,4.43999990075827,2
-30.93328,0.683333,-22.63357,0.1214771133550165,-0.2932368070887969,0.1392614084917447,9.748801,43.45786,359.7251,0.07804912,0.3690652,-0.03367792,4.45999990031123,2
-30.80639,0.2833333,-22.50925,0.0640568041572002,0.1613425531023115,0.0750828749593388,3.210318,41.29963,359.8275,0.02568111,0.3525561,-0.011287,4.4799998998642,2
-30.76716,0.4833332,-22.46915,0.0060708579644881,0.59135471802634,0.009709767806413,6.419665,41.28506,359.6538,0.05133443,0.35214,-0.02256199,4.49999989941716,2
-30.72795,0.6833332,-22.42907,0.0690701157227771,0.0918222043532304,0.0600225373264393,9.628008,41.26052,359.4781,0.07694004,0.3514471,-0.03381537,4.51999989897013,2
-30.54996,0.2833333,-22.25498,0.0519470168459683,0.2880108481416609,0.033334764975077,3.370413,40.97785,359.8003,0.0269379,0.3499224,-0.01192571,4.53999989852309,2
-30.50873,0.4833335,-22.21285,0.0383416385552983,0.4873355091236186,0.0103139717520619,6.739825,40.96012,359.5992,0.05384469,0.3494669,-0.02383786,4.55999989807606,2
-30.46752,0.6833334,-22.17072,0.1655867804436539,-0.0027879668850779,0.1246049130922379,10.10826,40.93025,359.3953,0.08069767,0.3487085,-0.03572608,4.57999989762902,2
-30.34351,0.2833333,-22.0512,0.1539866657968929,0.2028099525729836,0.1056309926097078,3.543751,42.18508,359.812,0.02825818,0.3597501,-0.01265772,4.59999989718199,2
-30.29952,0.4833333,-22.00757,0.2555509402729932,-0.0153324041665227,0.1980665386713447,7.086478,42.16752,359.6224,0.05648122,0.3592327,-0.02530027,4.61999989673495,2
-30.25555,0.683333,-21.96396,0.2232089497757101,0.2488085502413699,0.1622110702139423,10.62956,42.13781,359.4296,0.08465239,0.3583707,-0.03792322,4.63999989628792,2
-30.08203,0.2833336,-21.7964,0.1813525787802774,0.5160856989528164,0.1184406041174881,3.567012,43.8553,359.8737,0.02846018,0.3732862,-0.01264405,4.65999989584088,2
-30.03731,0.4833333,-21.75305,0.1395750056319933,0.7342281523928299,0.0760390251984972,7.133227,43.8434,359.7462,0.05688543,0.372743,-0.02527588,4.67999989539385,2
-29.9926,0.6833336,-21.70971,0.2295882300799299,-0.0027867281602697,0.1614888219532204,10.69832,43.82332,359.6167,0.08524699,0.3718387,-0.03787899,4.69999989494681,2
-29.87794,0.2833333,-21.59756,0.1874916236579196,0.1693574157091804,0.120404417218797,3.601506,44.92004,359.9897,0.02900596,0.3818527,-0.01208815,4.71999989449978,2
-29.83344,0.4833331,-21.55318,0.1451839313501857,0.3446380109661524,0.0797386908411574,7.202312,44.9191,359.9797,0.05797895,0.381287,-0.02415885,4.73999989405274,2
-29.78895,0.6833333,-21.50881,0.1294710482288295,0.3106619557545185,0.0656564832120736,10.80202,44.91752,359.9696,0.08688597,0.3803453,-0.03620185,4.75999989360571,2
-29.62417,0.2833331,-21.34795,0.1024852030924954,0.3075250750515825,0.0418562229046948,3.55783,45.8542,0.08245825,0.02887076,0.3893512,-0.01143065,4.77999989315867,2
-29.58063,0.4833331,-21.30368,0.0743325835541384,0.2819121174447356,0.0180228056481119,7.114271,45.86195,0.1658165,0.05770347,0.3887882,-0.02284352,4.79999989271164,2
-29.42842,0.2833333,-21.15527,0.1327058893349608,-0.4598067217309995,0.0770104907075648,3.615315,46.53788,0.08747524,0.02927995,0.3948287,-0.01176058,4.8199998922646,2
-29.38367,0.4833336,-21.11077,0.0706024528951196,-0.2934120812913687,0.0207621568311537,7.229553,46.54621,0.1756026,0.05852202,0.394239,-0.02350617,4.83999989181757,2
-29.33893,0.6833335,-21.06628,0.0144141430283468,-0.1249269867600852,-0.029525348591914,10.8433,46.56023,0.264845,0.087701,0.393257,-0.03522914,4.85999989137053,2
-29.29421,0.8833334,-21.0218,-0.006716616968049,-0.1667436211642117,-0.0457648138991153,14.45599,46.58025,0.3562461,0.1167845,0.3918841,-0.04691375,4.8799998909235,2
-29.13525,0.2833333,-20.868,-0.0303587588756428,-0.1787657993823785,-0.063906665705236,3.647728,47.08559,0.1097926,0.02956033,0.3992035,-0.01183487,4.89999989047647,2
-29.08993,0.4833333,-20.82326,-0.0461831263584748,-0.2143094766500914,-0.073954005395862,7.29439,47.09615,0.2204237,0.05908209,0.3985963,-0.02365454,4.91999989002943,2
-28.94503,0.2833331,-20.68297,-0.0706795257891528,-0.2467170462091217,-0.0911842850258501,3.603183,47.79923,0.1300563,0.02920244,0.4049023,-0.01169972,4.9399998895824,2
-28.89997,0.4833332,-20.63907,-0.1043434993611214,-0.2493305416798778,-0.1158747388561884,7.205244,47.81157,0.261085,0.05836697,0.4043012,-0.02338447,4.95999988913536,2
-28.85493,0.6833334,-20.59517,-0.1366588144568403,-0.275465544824825,-0.1380051991680524,10.80622,47.83242,0.3941659,0.08746525,0.4033005,-0.03504277,4.97999988868833,2
-28.80991,0.8833333,-20.55129,-0.1738587597470378,-0.2984647423848361,-0.1645505604185544,14.40619,47.8621,0.5301349,0.1164684,0.4019012,-0.04666577,4.99999988824129,2
-28.65934,0.2833333,-20.40606,-0.2094177932298144,-0.2916695959663256,-0.1885154990791271,3.554723,49.64223,0.2267016,0.0289807,0.4195281,-0.01122528,5.01999988779426,2
-28.61464,0.4833333,-20.36289,-0.2327919440512467,-0.3083962747655679,-0.2001215638562747,7.108343,49.66346,0.4550871,0.05792487,0.4189202,-0.02243644,5.03999988734722,2
-28.56996,0.683333,-20.31973,-0.269239681346523,-0.3219866939230706,-0.2110719904711082,10.66084,49.69928,0.6869562,0.08680487,0.4179083,-0.0336229,5.05999988690019,2
-28.40518,0.2833333,-20.15989,-0.3065432965516947,-0.3057831287234068,-0.22489754101057,3.495976,50.09571,0.2736154,0.02864506,0.4231109,-0.01075217,5.07999988645315,2
-28.36147,0.4833336,-20.11709,-0.3349047020718316,-0.3131013097258491,-0.2325052314018307,6.990808,50.1209,0.5491694,0.05725451,0.4225168,-0.02149122,5.09999988600612,2
-28.21132,0.2833336,-19.97069,-0.3910023573895422,-0.3172830197393184,-0.1020754629777584,3.442552,49.92475,0.2894133,0.02829677,0.4217624,-0.0103878,5.11999988555908,2
-28.16861,0.4833336,-19.92815,-0.43985518444196,-0.29167040067137,0.0151926082564699,6.88365,49.95099,0.5810487,0.05655748,0.4211877,-0.02076018,5.13999988511205,2
-28.12592,0.6833338,-19.88563,-0.4721702381848338,-0.2895792749032116,0.1288370849150339,10.32355,49.99527,0.8768726,0.08475853,0.4202309,-0.03111055,5.15999988466501,2
-28.08324,0.8833335,-19.84311,-0.6341909042161582,0.3559614909822499,0.0995849021841515,13.76227,50.05838,1.179177,0.1128753,0.418893,-0.0414299,5.17999988421798,2
-27.92616,0.2833333,-19.69077,-0.7298829749486941,0.1007069766365946,0.2523432972692916,3.401379,48.80235,0.2230005,0.02783082,0.4128877,-0.01048932,5.19999988377094,2
-27.88407,0.4833333,-19.64875,-0.8081415991531316,-0.1493208318162527,0.3924962321733147,6.801394,48.82232,0.4475488,0.05562648,0.4123399,-0.02096489,5.21999988332391,2
-27.84199,0.6833335,-19.60675,-0.8876999304682336,-0.1550706281353604,0.6121201194640484,10.20031,48.85598,0.6752117,0.08336478,0.4114279,-0.03141906,5.23999988287687,2
-27.67135,0.2833333,-19.44065,-0.9496633254053428,-0.1299807660947526,0.8079696552143787,3.353348,47.07629,0.1306147,0.02727975,0.3991577,-0.01064043,5.25999988242984,2
-27.63006,0.4833331,-19.39914,-0.9850728825518652,-0.1273673086943773,0.9900016465305406,6.705353,47.08782,0.2621861,0.05452572,0.3986444,-0.02126667,5.2799998819828,2
-27.58879,0.683333,-19.35764,-1.1293844968929037,0.5197422359943329,1.028323012812816,10.05634,47.10727,0.3955436,0.08171704,0.3977899,-0.03187159,5.29999988153577,2
-27.47485,0.2833335,-19.2476,-1.1444814413311055,0.2671016162921672,1.1765108191399456,3.30855,45.80104,0.04242066,0.02673716,0.3889603,-0.01089281,5.31999988108873,2
-27.43398,0.4833335,-19.20683,-1.263547863255475,0.5009251229662479,1.1856985784236045,6.616141,45.80473,0.08513262,0.05344437,0.388474,-0.02177323,5.3399998806417,2
-27.39312,0.6833334,-19.16607,-1.3639170152704096,0.742066182437935,1.1760961394799665,9.922462,45.81094,0.1282629,0.08009639,0.3876643,-0.03263249,5.35999988019466,2
-27.2296,0.2833333,-19.00782,-1.3232242214620982,0.2979408262577227,1.2877405795490962,3.263933,44.1317,359.9308,0.02616654,0.3755355,-0.01125827,5.37999987974763,2
-27.18908,0.4833333,-18.96779,-1.2611685951478186,-0.1665699557619132,1.3837157039965555,6.526897,44.12576,359.8612,0.05230419,0.3750784,-0.02250393,5.39999987930059,2
-27.14857,0.6833335,-18.92777,-1.2052164000461794,-0.1733647885571496,1.4567040720577928,9.788571,44.11574,359.7906,0.07838872,0.3743175,-0.03372808,5.41999987885356,2
-26.97242,0.2833336,-18.75569,-1.1398588172453792,-0.1493203385565397,1.5039612884421611,3.215682,41.26009,359.8172,0.02569724,0.3522352,-0.01137845,5.43999987840652,2
-26.93303,0.4833335,-18.71562,-1.176367414878861,0.3324402212261601,1.420883363513127,6.430432,41.24462,359.6332,0.05136704,0.3518179,-0.02274463,5.45999987795949,2
-26.89365,0.6833334,-18.67555,-1.2004262575742608,0.7938151832864614,1.3200761233455631,9.644166,41.21857,359.4471,0.0769887,0.3511231,-0.03408957,5.47999987751245,2
-26.7724,0.2833333,-18.5566,-1.0995804156090507,0.3298272526425001,1.327982783832594,3.307695,40.22077,359.7964,0.02649066,0.3437343,-0.01159134,5.49999987706542,2
-26.73241,0.4833333,-18.51481,-0.9835688760150204,-0.1545461012273559,1.322890491473002,6.614412,40.20304,359.5914,0.05295166,0.3433032,-0.02316979,5.51999987661839,2
-26.69243,0.6833332,-18.47302,-0.9708380187954796,0.2456723915688958,1.1936051779281025,9.920137,40.17318,359.3838,0.07936133,0.3425855,-0.03472525,5.53999987617135,2
-26.52988,0.2833333,-18.3006,-0.8190721368259162,-0.0148090377517468,1.1905415054343944,3.541122,40.66514,359.7959,0.02835354,0.3473539,-0.01240479,5.55999987572432,2
-26.48688,0.4833333,-18.25602,-0.6574724751905769,-0.2700630408914667,1.175897511407138,7.081231,40.6461,359.5903,0.05667209,0.3468548,-0.02479453,5.57999987527728,2
-26.4439,0.6833332,-18.21147,-0.6218142409245502,0.1458363447553942,1.020387072108031,10.62216,40.61393,359.3814,0.08494338,0.3460233,-0.03716459,5.59999987483025,2
-26.35134,0.2833333,-17.96491,-0.5072334681219921,-0.0989640839501975,0.9280616165265894,3.56555,40.92904,359.8438,0.02867032,0.3494974,-0.01215391,5.61999987438321,2
-26.30852,0.4833334,-17.91969,-0.5101737211462627,0.1416544701768256,0.707053396112169,7.13024,40.91438,359.6865,0.05730684,0.3489891,-0.02429132,5.63999987393618,2
-26.26572,0.6833333,-17.87448,-0.5081661401749074,0.3885457798501907,0.4783730444358571,10.69388,40.88964,359.5269,0.08588,0.3481427,-0.03640146,5.65999987348914,2
-26.22293,0.8833332,-17.82928,-0.3725403310703754,-0.0508760149635325,0.3732726501417218,14.25642,40.85434,359.3636,0.1143618,0.3469594,-0.04847287,5.67999987304211,2
-26.13322,0.2833333,-17.61221,-0.2308358408563329,-0.5117284069508106,0.2653245391120649,3.592811,41.37252,359.9905,0.02929767,0.3530793,-0.0111514,5.69999987259507,2
-26.09167,0.4833333,-17.56527,-0.212019629320963,-0.0890343161359605,0.0336330207048867,7.184837,41.3717,359.9818,0.05856311,0.352559,-0.02228161,5.71999987214804,2
-25.99732,0.2833333,-17.36367,-0.0472739516594664,-0.3280846340279977,-0.0567376471558667,3.548431,41.56075,0.06404611,0.02914505,0.3546004,-0.01046223,5.739999871701,2
-25.95709,0.4833331,-17.3166,0.1160524238834348,-0.5629536786269712,-0.1495835431340566,7.09554,41.56679,0.1290928,0.05825297,0.3540906,-0.02090626,5.75999987125397,2
-25.91688,0.6833332,-17.26954,0.1321617093973905,-0.1277141288157497,-0.3826068366314601,10.64158,41.57697,0.1951127,0.08729633,0.3532417,-0.03132729,5.77999987080693,2
-25.87667,0.8833332,-17.2225,0.1470638153775034,0.2860948340146693,-0.6121687659024566,14.18659,41.5915,0.2626688,0.1162478,0.3520547,-0.04171535,5.7999998703599,2
-25.74247,0.2833333,-17.06324,0.2839357804189788,-0.2265043770485709,-0.7216405633297622,3.622308,42.32322,0.09531386,0.02977417,0.3607948,-0.01063423,5.81999986991286,2
-25.70113,0.4833331,-17.01538,0.3347661154556647,-0.0402471889774064,-0.9027286966963696,7.243602,42.33232,0.1913838,0.05951038,0.3602538,-0.02125474,5.83999986946583,2
-25.65981,0.6833331,-16.96753,0.3856947365413674,0.1522824446757662,-1.0703538977202314,10.86448,42.34766,0.2888527,0.08918342,0.3593529,-0.03185405,5.85999986901879,2
-25.51133,0.2833334,-16.79723,0.5780091194788177,-0.341500083284625,-1.0899023237670171,3.637389,42.72786,0.1082639,0.02990008,0.3640789,-0.01068202,5.87999986857176,2
-25.46965,0.4833334,-16.74932,0.6229782624334312,-0.1364253076559387,-1.2301794447751373,7.27372,42.73823,0.2173582,0.05976138,0.3635283,-0.02135034,5.89999986812472,2
-25.33314,0.2833335,-16.59468,0.7754613049973642,-0.3519542886242364,-1.2441994068963815,3.588882,43.92372,0.1550774,0.02954729,0.3737662,-0.01045653,5.91999986767769,2
-25.29165,0.4833332,-16.5477,0.913883440179344,-0.562256543836918,-1.2432689911888026,7.176744,43.93839,0.3113104,0.05905728,0.3732155,-0.02090009,5.93999986723065,2
-25.25017,0.6833333,-16.50074,0.884286716148651,-0.1014052206080561,-1.3740199621142128,10.76345,43.96313,0.4699494,0.08850017,0.3722985,-0.0313202,5.95999986678362,2
-25.2087,0.8833333,-16.45379,0.8409492592499994,0.3390604960124145,-1.4843833556574797,14.34896,43.99839,0.632043,0.117846,0.3710163,-0.0417088,5.97999986633658,2
-25.06915,0.2833335,-16.29751,0.9234081876689436,-0.1458360928989172,-1.4434891634377802,3.538591,45.72443,0.245611,0.0292819,0.3882692,-0.01002142,5.99999986588955,2
-25.02794,0.4833335,-16.25135,0.8986847075657636,0.0691700355611751,-1.466208346902194,7.076101,45.74732,0.4930522,0.05852741,0.3877114,-0.02003025,6.01999986544251,2
-24.98674,0.6833335,-16.20519,0.8614460733601916,0.2914940479527842,-1.459363579967876,10.61243,45.78596,0.7442169,0.08770818,0.3867826,-0.03001717,6.03999986499548,2
-24.83161,0.2833333,-16.03586,0.9617101877141536,-0.1714483422398737,-1.281242566685922,3.480217,46.41691,0.2911236,0.02890927,0.3938237,-0.009632638,6.05999986454844,2
-24.79114,0.4833333,-15.99032,0.90356274295981,0.0655117320365727,-1.2241293295188562,6.959318,46.4436,0.5843006,0.0577831,0.3932751,-0.01925366,6.07999986410141,2
-24.75067,0.6833332,-15.9448,0.8219745634209339,0.3097894389103278,-1.1411766012577598,10.43687,46.48861,0.8818033,0.08659219,0.3923621,-0.02885256,6.09999986365438,2
-24.64669,0.2833334,-15.83473,0.8796529235893402,-0.131199480953704,-0.8756547495562828,3.430837,46.59313,0.3000476,0.02852961,0.3952398,-0.009435203,6.11999986320734,2
-24.6068,0.4833333,-15.78979,0.8510976291928465,0.1277139723521498,-0.8231825618423105,6.860242,46.62023,0.6021429,0.05702234,0.3947046,-0.0188582,6.13999986276031,2
-24.56693,0.6833336,-15.74487,0.7972756069151146,0.3939453927867996,-0.7589369477767391,10.28844,46.66593,0.9085247,0.0854552,0.3938134,-0.02826147,6.15999986231327,2
-24.41384,0.2833331,-15.58655,0.7260847009446039,0.6152244356085768,-0.6729581469675985,3.390627,45.67971,0.2043673,0.02795677,0.3879376,-0.009840511,6.17999986186624,2
-24.374,0.4833331,-15.54267,0.7675556376501547,-0.114472443926992,-0.4397155959559704,6.779876,45.69793,0.4098003,0.05587701,0.3874265,-0.01967085,6.1999998614192,2
-24.33418,0.6833329,-15.49881,0.7357551351559621,0.0691712459727721,-0.3844268273280864,10.16809,45.72863,0.6180403,0.08374029,0.3865755,-0.02948156,6.21999986097217,2
-24.16482,0.2833335,-15.3267,0.6906115566794888,0.2601328250311027,-0.3162405891172781,3.339984,44.68262,0.1219124,0.02735938,0.3799328,-0.01009421,6.23999986052513,2
-24.12535,0.4833334,-15.28378,0.7170989760303392,0.2460198567959127,-0.2815092510087993,6.678611,44.69332,0.2444536,0.054684,0.3794482,-0.02017703,6.2599998600781,2
-24.0859,0.6833334,-15.24086,0.7256557601373288,0.2669283802052766,-0.2526306545775085,10.01626,44.71135,0.3686037,0.08195424,0.3786413,-0.03024016,6.27999985963106,2
-24.04646,0.8833335,-15.19796,0.7253649355345502,0.2695420003412849,-0.2205303805056679,13.35287,44.73703,0.495324,0.109147,0.3775132,-0.04027447,6.29999985918403,2
-23.89909,0.2833335,-15.05582,0.8809856831078804,-0.4397690858929268,-0.0299183621134098,3.29048,43.6545,-0.004570422,0.02663778,0.3716571,-0.01071199,6.31999985873699,2
-23.8594,0.4833333,-15.01435,0.9154295854874236,-0.236785144362757,0.0301389438277812,6.58005,43.6541,359.9908,0.0532462,0.3711976,-0.02141228,6.33999985828996,2
-23.81971,0.6833333,-14.97289,0.936950065958257,-0.0275286013972379,0.087528003951073,9.868296,43.65335,359.9856,0.07979827,0.3704323,-0.03209511,6.35999985784292,2
-23.65528,0.2833333,-14.81577,0.9547383510835274,0.1357297980438183,0.1512568626933639,3.241414,42.12983,359.9031,0.02608895,0.3593039,-0.01095462,6.37999985739589,2
-23.61609,0.4833333,-14.77496,0.971720667957932,0.0672553560754467,0.1968770527142052,6.481861,42.12156,359.8055,0.05214922,0.3588724,-0.02189743,6.39999985694885,2
-23.46883,0.2833332,-14.63157,0.9734464497075024,0.0338023822298846,0.2352211218367443,3.211611,40.36977,359.8293,0.02578799,0.3449539,-0.01106705,6.41999985650182,2
-23.43027,0.4833331,-14.59082,0.8553164981623205,0.4622466374356004,0.1471222102837206,6.422235,40.35534,359.6575,0.051548,0.3445465,-0.02212209,6.43999985605478,2
-23.39173,0.683333,-14.55007,0.8654205949533562,0.234172939277088,0.1855777899030588,9.631853,40.33106,359.4836,0.07725979,0.3438681,-0.03315654,6.45999985560775,2
-23.35319,0.8833328,-14.50934,0.8575401481446754,0.0155079429447373,0.2131359539523583,12.84001,40.29656,359.3067,0.1029003,0.3429197,-0.04415887,6.47999985516071,2
-23.19171,0.2833332,-14.35649,0.8412758978872823,-0.2481098382751572,0.2390127313686498,3.452587,41.19013,359.8098,0.02761606,0.3516477,-0.0121497,6.49999985471368,2
-23.14949,0.4833332,-14.31331,0.8621378827392618,-0.2909719187822512,0.286708332105281,6.904185,41.17284,359.6183,0.05519943,0.3511676,-0.02428489,6.51999985426664,2
-23.1073,0.6833332,-14.27015,0.8610238144703217,-0.2998581683183501,0.3190747155236781,10.3551,41.14362,359.4236,0.08272663,0.3503678,-0.03639887,6.53999985381961,2
-22.93204,0.2833335,-14.10438,0.8480049988163607,-0.3280845442097817,0.3455434917133146,3.549484,43.18639,359.8491,0.02831217,0.3678751,-0.01262148,6.55999985337257,2
-22.88772,0.4833335,-14.06102,0.6963868072726349,0.2913212448402432,0.2276640728920878,7.098708,43.17221,359.6964,0.0565933,0.3673446,-0.02523495,6.57999985292554,2
-22.84341,0.6833333,-14.01768,0.6606506550469042,0.014113066155122,0.2218568849950859,10.64689,43.14828,359.5414,0.08481218,0.3664613,-0.03782067,6.5999998524785,2
-22.6536,0.2833334,-13.83729,0.6121681125377663,-0.2536862937920537,0.2072717824489807,3.581676,44.84236,359.9414,0.02869358,0.3812405,-0.01239193,6.61999985203147,2
-22.60881,0.4833333,-13.7937,0.4850393074598251,0.1538495667640751,0.1158394823881465,7.162597,44.83682,359.8823,0.05735285,0.3806818,-0.02476979,6.63999985158443,2
-22.56402,0.6833335,-13.75012,0.4966372703023545,-0.0951326220475915,0.1565127183007391,10.74246,44.82748,359.8223,0.08594775,0.3797516,-0.0371197,6.6599998511374,2
-22.51925,0.8833337,-13.70655,0.5009183586448067,-0.3347064595071079,0.1918188930202315,14.32128,44.81414,359.7608,0.1144506,0.3784511,-0.04942985,6.67999985069036,2
-22.36006,0.2833332,-13.55469,0.3728651054131369,0.1010557207496148,0.0954467476453668,3.573143,46.08437,0.07042596,0.02892957,0.3912008,-0.01163748,6.69999985024333,2
-22.31601,0.4833332,-13.51056,0.3977351695490547,-0.1197001104653107,0.1440893425642642,7.145198,46.09104,0.1418056,0.0578237,0.3906303,-0.02325674,6.7199998497963,2
-22.27197,0.6833332,-13.46644,0.4126326670096318,-0.3310469644754227,0.183820358337778,10.71623,46.10229,0.2142971,0.08665348,0.3896805,-0.03485006,6.73999984934926,2
-22.09693,0.2833334,-13.30048,0.273258084084869,0.1329410813379736,0.0707965769819303,3.596045,47.03852,0.0963691,0.02910514,0.3988365,-0.01175019,6.75999984890223,2
-22.05215,0.4833334,-13.25648,0.1288085451981651,0.580725244233907,-0.0475647239971195,7.19105,47.04765,0.1934697,0.05817324,0.3982471,-0.02348547,6.77999984845519,2
-22.00739,0.6833333,-13.2125,0.1147837219162042,0.1073282676493632,-0.0457118377047294,10.78526,47.06302,0.2918056,0.0871768,0.3972656,-0.03519741,6.79999984800816,2
-21.81678,0.2833334,-13.03153,0.1016159352078389,-0.3822727134687799,-0.0449146596172855,3.642378,47.64163,0.1133454,0.02947239,0.4036447,-0.01193098,6.81999984756112,2
-21.77114,0.4833333,-12.98724,-0.0289783286225819,0.01689978211872,-0.1541027673712811,7.2837,47.65251,0.227601,0.05890661,0.4030326,-0.02384631,6.83999984711409,2
-21.72551,0.6833332,-12.94297,-0.0122466403014236,-0.2404455629278657,-0.1243095670723732,10.92397,47.67089,0.343669,0.088273,0.4020135,-0.03573445,6.85999984666705,2
-21.6799,0.8833331,-12.89871,0.0056127240539147,-0.4883822139888736,-0.0932240733683809,14.56359,47.69709,0.4624256,0.1175447,0.4005884,-0.04758587,6.87999984622002,2
-21.51964,0.2833333,-12.74804,-0.113623690395844,-0.0609834230065831,-0.1891905644641234,3.6043,48.97144,0.1616223,0.02920421,0.4142206,-0.0117513,6.89999984577298,2
-21.47405,0.4833335,-12.70464,-0.1459700367717822,-0.290102579377408,-0.204022836995815,7.207481,48.98678,0.3244677,0.05837059,0.4136049,-0.02348752,6.91999984532595,2
-21.42847,0.6833335,-12.66125,-0.3000460851883737,-0.0296209644092099,-0.333794013971687,10.80957,49.0127,0.48987,0.08747082,0.4125797,-0.0351972,6.93999984487891,2
-21.25369,0.2833333,-12.49643,-0.4488753120895694,0.2413151033125123,-0.4591858426916708,3.543749,50.46776,0.2421376,0.0288699,0.4260504,-0.01127116,6.95999984443188,2
-21.2087,0.4833334,-12.45382,-0.4420915535934782,-0.1698795405247075,-0.4419833187213093,7.086382,50.49037,0.4860587,0.05770347,0.4254366,-0.02252822,6.97999984398484,2
-21.16372,0.6833333,-12.41122,-0.4194296237998287,-0.5983231837294546,-0.412532638594401,10.62786,50.52851,0.7336819,0.08647327,0.4244145,-0.03376045,6.99999984353781,2
-20.97478,0.2833333,-12.23223,-0.5174586234984382,-0.1390392484717472,-0.4954615401986437,3.482257,50.73539,0.2824869,0.02850962,0.428159,-0.0107907,7.01999984309077,2
-20.93087,0.4833333,-12.18996,-0.4509262863256182,-0.3373186374987691,-0.4269500833662807,6.96339,50.7613,0.5669911,0.05698427,0.4275622,-0.02156815,7.03999984264374,2
-20.88697,0.6833333,-12.1477,-0.3745646124833612,-0.5272347222781096,-0.3525330393353734,10.44294,50.80504,0.855889,0.08539538,0.4265688,-0.03231923,7.0599998421967,2
-20.84308,0.8833332,-12.10545,-0.4375741239802551,-0.042861114373404,-0.4096045384720739,13.92122,50.8674,1.151244,0.1137191,0.4251801,-0.04303727,7.07999984174967,2
-20.68439,0.2833333,-11.955,-0.4906424659760553,0.4242634034743787,-0.4584019500346574,3.427185,50.25901,0.2738947,0.02808752,0.4244099,-0.01053592,7.09999984130263,2
-20.64147,0.4833333,-11.9131,-0.4094849173252868,-0.0308386510194106,-0.3809416277345665,6.852883,50.28374,0.5498701,0.05613906,0.4238371,-0.02105628,7.1199998408556,2
-20.59857,0.6833333,-11.8712,-0.4875921398950034,0.217097786603536,-0.4535905761383088,10.27745,50.32545,0.8297417,0.08413205,0.4228835,-0.03155489,7.13999984040856,2
-20.42556,0.2833332,-11.7072,-0.5608705485008549,0.4754883492436891,-0.5215639155466629,3.380475,48.61197,0.1730917,0.02750286,0.4113894,-0.01076477,7.15999983996153,2
-20.38331,0.4833332,-11.66594,-0.4903968205482023,0.0517482963284702,-0.4534458921399462,6.759537,48.62738,0.3473316,0.05497052,0.4108512,-0.0215157,7.17999983951449,2
-20.34108,0.6833332,-11.62469,-0.4129719812365806,-0.38924108935324,-0.3776246190734316,10.13757,48.65334,0.5239769,0.08238243,0.4099552,-0.0322448,7.19999983906746,2
-20.1545,0.2833332,-11.44738,-0.4558509383346951,0.0574982470199219,-0.4147146969042712,3.32881,46.9163,0.07454199,0.02690354,0.3978938,-0.01096582,7.21999983862042,2
-20.11297,0.4833332,-11.40676,-0.3381631346211051,-0.1533261159328091,-0.3025709912363084,6.656229,46.92283,0.149563,0.0537732,0.3973901,-0.0219178,7.23999983817339,2
-20.07145,0.6833333,-11.36615,-0.2150298203374951,-0.3557871890122604,-0.1870085645239818,9.982672,46.93384,0.2255987,0.08058977,0.3965515,-0.03284802,7.25999983772635,2
-20.02995,0.8833332,-11.32556,-0.2335427407451611,0.1160414300696307,-0.2049312537738981,13.30817,46.9495,0.3031784,0.1073309,0.395379,-0.04374755,7.27999983727932,2
-19.87145,0.2833333,-11.17628,-0.2453036657247871,0.5706208657045568,-0.2174406067168615,3.278442,45.23062,359.9551,0.02625558,0.384395,-0.01136201,7.29999983683228,2
-19.83029,0.4833333,-11.13656,-0.1261519905409969,0.1029736356078679,-0.1092765573525778,6.555917,45.22675,359.9098,0.05248189,0.3839231,-0.02271157,7.31999983638525,2
-19.78914,0.6833333,-11.09685,-0.1697992288267471,0.3383651238722636,-0.1554373729124716,9.832096,45.22019,359.8638,0.07865441,0.3831374,-0.03403934,7.33999983593822,2
-19.61762,0.2833333,-10.93377,-0.2125039594853817,0.5842108305439041,-0.2015412850143842,3.22884,42.78568,359.8538,0.02576677,0.3646488,-0.01146428,7.35999983549118,2
-19.57749,0.4833333,-10.89416,-0.1150649374324537,0.1479260427536014,-0.1177058396606831,6.456716,42.77325,359.7066,0.05150557,0.3642137,-0.02291597,7.37999983504415,2
-19.53737,0.6833333,-10.85456,-0.0143727882941568,-0.3056077817776665,-0.0322287803318381,9.683582,42.75233,359.5577,0.07719576,0.3634894,-0.03434603,7.39999983459711,2
-19.42287,0.2833334,-10.74555,-0.038346290612413,0.1285862672207465,-0.0636262882465636,3.191086,41.18362,359.803,0.02546065,0.3516158,-0.01140114,7.41999983415008,2
-19.38363,0.4833333,-10.7059,0.0903100079011558,-0.094783606214841,0.0486610246466483,6.381208,41.1671,359.6049,0.05089417,0.3512054,-0.02278992,7.43999983370304,2
-19.3444,0.6833335,-10.66627,0.216645703282321,-0.3097902020607302,0.1590006194105218,9.570286,41.13926,359.4044,0.07628043,0.350522,-0.03415748,7.45999983325601,2
-19.17459,0.2833333,-10.50631,0.1954826923594588,0.1494934662687271,0.1311489379541406,3.528646,42.53512,359.8011,0.02806243,0.362601,-0.01278394,7.47999983280897,2
-19.13035,0.4833333,-10.46325,0.1746684740741528,0.5915277494740292,0.1045277957381713,7.056323,42.51664,359.6009,0.05609084,0.3620838,-0.02555233,7.49999983236194,2
-19.08613,0.6833332,-10.4202,0.2773043905597312,0.1113354977111996,0.1960700930634207,10.5842,42.48536,359.3969,0.0840666,0.361222,-0.03830147,7.5199998319149,2
-18.90319,0.2833333,-10.24812,0.2112795219765662,0.3341822012692592,0.1299835426232114,3.56044,44.31937,359.8538,0.02829015,0.3770436,-0.0128984,7.53999983146787,2
-18.85795,0.4833333,-10.20546,0.1408031456494818,0.5674831206210373,0.0610544728820645,7.120067,44.30562,359.7061,0.05654524,0.3764967,-0.02578505,7.55999983102083,2
-18.81272,0.6833333,-10.16281,0.2058180950254691,0.1186533033240115,0.1208204855280037,10.67862,44.2824,359.5561,0.08473748,0.3755862,-0.03864316,7.5799998305738,2
-18.76751,0.8833335,-10.12017,0.2687206435629203,-0.3474257800945566,0.1803716488089799,14.23606,44.24927,359.4026,0.1128397,0.3743134,-0.05146017,7.59999983012676,2
-18.61485,0.2833334,-9.975558,0.2018801279662732,0.0742231392119214,0.119356079155839,3.594729,45.76344,359.978,0.02882215,0.3886442,-0.01237215,7.61999982967973,2
-18.56964,0.4833332,-9.932069,0.2850691016688991,-0.1616912822315493,0.2004314201775434,7.188747,45.76139,359.9562,0.05761122,0.3880708,-0.02472736,7.63999982923269,2
-18.52445,0.6833331,-9.888592,0.3631249597160426,-0.3892423096962386,0.2777294398208108,10.78172,45.75792,359.934,0.08633537,0.3871158,-0.03705459,7.65999982878566,2
-18.35785,0.2833333,-9.730237,0.2903697269988257,0.0574968053982808,0.2144322756720704,3.556009,46.67544,0.07858762,0.02876015,0.3959397,-0.01166197,7.67999982833862,2
-18.31366,0.4833335,-9.686666,0.2162916661663825,0.4869866420876773,0.1507332695093817,7.11068,46.68284,0.1581054,0.05748303,0.3953679,-0.02330556,7.69999982789159,2
-18.26949,0.6833336,-9.643106,0.3440601756020367,-0.0057502808672863,0.2772620827762653,10.66433,46.69532,0.2388484,0.08614247,0.3944157,-0.03492337,7.71999982744455,2
-18.08629,0.2833334,-9.469842,0.2933318378227199,0.2045515411968099,0.2358055300535593,3.624421,47.58357,0.1021495,0.02929572,0.4031864,-0.01194221,7.73999982699752,2
-18.04079,0.4833334,-9.425863,0.2291917405646479,0.4253075021298059,0.1818194967432562,7.247817,47.59333,0.2050769,0.05855388,0.4025811,-0.02386926,7.75999982655048,2
-17.9953,0.6833333,-9.381898,0.1619418856153807,0.604246829791207,0.1248946208421966,10.87078,47.60977,0.3094123,0.08774926,0.401573,-0.03577304,7.77999982610345,2
-17.94983,0.8833334,-9.337946,0.2264715988068655,-0.1646527030843612,0.1909729473832158,14.49263,47.63324,0.4162777,0.1168483,0.4001637,-0.0476376,7.79999982565641,2
-17.79686,0.2833333,-9.194221,0.152372882397195,-0.0170753377986254,0.1282438420981266,3.637774,48.00533,0.1105317,0.0293877,0.406546,-0.01203054,7.81999982520938,2
-17.75097,0.4833333,-9.150318,0.0752867997782775,0.1409561263690474,0.0634017313786294,7.274476,48.01593,0.2219376,0.05873726,0.4059311,-0.02404537,7.83999982476234,2
-17.7051,0.6833333,-9.106428,0.1449429728425606,-0.3831431429758518,0.1378201797448728,10.9101,48.03382,0.3351339,0.08801918,0.4049073,-0.03603252,7.85999982431531,2
-17.53729,0.2833333,-8.94885,0.0581273902960095,-0.2042035733889446,0.0658287294637176,3.590107,49.69716,0.186632,0.02910853,0.4199686,-0.01168604,7.87999982386827,2
-17.49163,0.4833334,-8.905856,-0.0342314748756695,-0.0148099977874407,-0.0110234659863639,7.179108,49.71482,0.3746628,0.05817968,0.4193488,-0.02335726,7.89999982342124,2
-17.44598,0.6833334,-8.862875,0.0371065552565692,-0.5075469161251721,0.0656537921447419,10.76699,49.74463,0.5656418,0.08718527,0.4183169,-0.03500207,7.91999982297421,2
-17.26372,0.2833332,-8.69125,0.019609791674469,-0.2972451161018224,0.0588670977862824,3.528194,50.7919,0.2543252,0.02876092,0.4286053,-0.01119854,7.93999982252717,2
-17.21883,0.4833332,-8.648901,0.00436160241326,-0.0764890976712268,0.0524290645177636,7.055254,50.81554,0.5105138,0.05748577,0.4279929,-0.02238304,7.95999982208014,2
-17.17396,0.6833332,-8.606565,0.0021508806789363,0.1024502469781015,0.0561609244605634,10.58113,50.85543,0.7705709,0.08614748,0.4269733,-0.03354289,7.9799998216331,2
-17.1291,0.8833332,-8.564238,-0.0064652304970636,0.0538388058268937,0.0514463730376144,14.1054,50.91233,1.036612,0.114716,0.425548,-0.04466615,7.99999982118607,2
-16.97766,0.2833332,-8.420794,-0.0176023239411495,0.0444302624676046,0.042335202299335,3.467005,50.81969,0.2893722,0.02840728,0.4288236,-0.01070033,8.01999982073903,2
-16.93397,0.4833333,-8.378662,-0.0213903006703404,0.0209086744710126,0.0381046351813161,6.932554,50.84613,0.5810557,0.05677829,0.4282311,-0.02138428,8.039999820292,2
-16.89029,0.6833334,-8.336542,-0.0352912079128184,0.0099320205002799,0.0238038913714158,10.39682,50.89074,0.8769813,0.08508804,0.4272444,-0.03204507,8.05999981984496,2
-16.72434,0.2833333,-8.179511,-0.0588815322863922,0.038158159170554,0.0002711290647354,3.415723,50.03277,0.2542122,0.02794508,0.4226286,-0.01059374,8.07999981939793,2
-16.68152,0.4833332,-8.13783,-0.0825073919191652,0.0522713609679628,-0.0232496763547214,6.830009,50.05565,0.5102651,0.05585447,0.4220625,-0.02117279,8.09999981895089,2
-16.63871,0.6833332,-8.09616,0.0574620298117594,-0.64135897755352,0.1087248321714522,10.24317,50.09421,0.7699161,0.08370591,0.42112,-0.03172998,8.11999981850386,2
-16.45862,0.2833333,-7.925382,0.0683562830137631,-0.4185123240009509,0.1199777127140393,3.367346,48.26506,0.154792,0.02736555,0.4086356,-0.01078031,8.13999981805682,2
-16.41658,0.4833334,-7.884257,0.0747792876292319,-0.1852113319931143,0.1276550570915269,6.733268,48.27879,0.3106647,0.05469633,0.4081054,-0.02154627,8.15999981760979,2
-16.37456,0.6833334,-7.843144,0.0866864743064734,0.0062733602292063,0.1410051983090863,10.09821,48.30192,0.4686738,0.08197224,0.4072227,-0.03229062,8.17999981716275,2
-16.33254,0.8833334,-7.802042,-0.0317518908799989,0.7101293643725259,0.0313546225489931,13.46209,48.33487,0.6299849,0.1091694,0.4059886,-0.04300389,8.19999981671572,2
-16.10948,0.2833333,-7.590962,0.0147714209120106,0.4110367439281174,0.0730581457579404,3.311171,46.04389,0.01110147,0.02662822,0.3909178,-0.01120983,8.21999981626868,2
-16.06803,0.4833332,-7.55073,0.0627872571449064,0.1270675979242824,0.1144600522389449,6.621372,46.04486,0.02228121,0.05322644,0.3904284,-0.02240696,8.23999981582165,2
-16.02659,0.6833332,-7.510507,-0.0445252876117869,0.5241490201884038,0.0091744093896117,9.930195,46.04647,0.03349286,0.07976881,0.3896136,-0.03358166,8.25999981537461,2
-15.98516,0.8833331,-7.470295,-0.0196048869407157,0.2704271944479431,0.0258839158336758,13.23807,46.04877,0.04493327,0.1062372,0.3884742,-0.04472515,8.27999981492758,2
-15.82701,0.2833333,-7.32108,0.0002219755895094,0.0318290016149303,0.0364702371546252,3.255533,44.22071,359.9108,0.02602407,0.3762602,-0.01141305,8.29999981448054,2
-15.78628,0.4833334,-7.281464,0.0247281496120646,-0.2460069260217299,0.0501358450523001,6.510082,44.21306,359.821,0.05201932,0.3758045,-0.02281349,8.31999981403351,2
-15.74557,0.6833334,-7.241858,0.0811526352262586,-0.2973717698983242,0.0930188034606009,9.76367,44.20018,359.73,0.0779651,0.3750457,-0.03419213,8.33999981358647,2
-15.57435,0.2833333,-7.078959,0.1286298757596178,-0.3090457316746173,0.1263022945057681,3.206409,41.5304,359.8044,0.02555525,0.3544444,-0.01151435,8.35999981313944,2
-15.53472,0.4833333,-7.03934,0.17705105264832,-0.3343449933531629,0.1594524277085005,6.411827,41.51389,359.6077,0.05108285,0.3540268,-0.0230162,8.3799998126924,2
-15.49509,0.6833332,-6.999733,0.0899115843791396,0.2937026178829194,0.0654413202175829,9.616228,41.48612,359.4085,0.0765629,0.3533313,-0.03449648,8.39999981224537,2
-15.30692,0.2833333,-6.8209,0.1148837677371847,0.0308509565507482,0.078728446679154,3.450889,42.07196,359.7981,0.02747122,0.3588403,-0.01245196,8.41999981179833,2
-15.26392,0.4833333,-6.778535,0.139104065435335,-0.2168770846802613,0.0924762273588708,6.900794,42.0536,359.5948,0.05490992,0.3583507,-0.02488931,8.4399998113513,2
-15.22093,0.6833333,-6.736181,0.0084959847574772,0.2164454818209464,-0.0382398686586524,10.35002,42.02262,359.3883,0.08229347,0.3575352,-0.03730337,8.45999981090426,2
-15.17796,0.8833333,-6.693848,-0.0094700899162614,-0.0010350529764292,-0.0463840517310645,13.7998,41.97844,359.1772,0.1096075,0.3563944,-0.04968601,8.47999981045723,2
-15.01646,0.2833334,-6.54282,-0.0322492451197433,-0.2033919404919608,-0.0571297189384596,3.548959,43.84388,359.8418,0.02821118,0.3732034,-0.01284126,8.49999981001019,2
-14.97156,0.4833334,-6.500069,-0.0497180526718441,-0.4449865473913257,-0.0610040457374427,7.097637,43.82904,359.6818,0.05639171,0.3726652,-0.02567312,8.51999980956316,2
-14.92667,0.6833333,-6.45733,-0.179743412598178,0.180203806602237,-0.1699248262412336,10.64526,43.80399,359.5194,0.08451014,0.3717693,-0.03847671,8.53999980911613,2
-14.75134,0.2833334,-6.29215,-0.1580445066206621,-0.0855049775500329,-0.1053318299716483,3.58151,45.35892,359.9366,0.02862006,0.3854029,-0.01255894,8.55999980866909,2
-14.7061,0.4833333,-6.249022,-0.1340162944650131,-0.3360902467520591,-0.0379515077411927,7.162256,45.35295,359.8728,0.05720616,0.3848382,-0.02510287,8.57999980822206,2
-14.66086,0.6833334,-6.205907,-0.2437562485018301,0.0943749732982317,-0.0960863518094923,10.74196,45.34286,359.808,0.08572822,0.3838978,-0.03761853,8.59999980777502,2
-14.47135,0.2833333,-6.025778,-0.2289990887439099,-0.1259628001856202,0.0151598868891529,3.573512,46.49505,0.06712272,0.02887927,0.3944954,-0.01176883,8.61999980732799,2
-14.42694,0.4833333,-5.981998,-0.2130588984443449,-0.3311768186231869,0.1236830183478083,7.145937,46.50142,0.1352304,0.05772335,0.3939201,-0.02351883,8.63999980688095,2
-14.38254,0.6833333,-5.938231,-0.3497294389392369,0.1446593202735971,0.0843174721292809,10.71734,46.51215,0.2043994,0.08650318,0.392962,-0.03524259,8.65999980643392,2
-14.33815,0.8833333,-5.894475,-0.4812954557668814,0.6100064079330488,0.0446691431314691,14.2877,46.52749,0.2752042,0.1151908,0.3916227,-0.04692876,8.67999980598688,2
-14.29378,0.9766704,-5.850733,-0.5305500952134476,0.1598871749858739,0.1353721575737645,17.85704,46.54773,0.3482696,0.1437585,0.3899036,-0.05856611,8.69999980553985,2
-14.10395,0.2833334,-5.67279,-0.5643520630252503,-0.3007210035250139,0.230472581487886,3.608169,47.62844,0.1085268,0.02918381,0.4035448,-0.01184555,8.71999980509281,2
-14.05871,0.4833334,-5.62896,-0.7891029416060409,0.1331593674913236,0.1357369746180903,7.215287,47.63877,0.2178828,0.05833028,0.4029443,-0.02367599,8.73999980464578,2
-14.01348,0.6833334,-5.585142,-0.9275289883673016,-0.0837632550264827,0.1835182903373735,10.82171,47.65615,0.3287335,0.08741262,0.4019443,-0.03548266,8.75999980419874,2
-13.84511,0.2833333,-5.426904,-1.0546637522874214,-0.2855622292170319,0.2260326307614657,3.633279,48.04652,0.1123251,0.02935393,0.4068743,-0.01201085,8.77999980375171,2
-13.79927,0.4833332,-5.383064,-1.159834886052966,-0.5265986949789552,0.2730053324691237,7.265486,48.05728,0.2255141,0.05866975,0.4062603,-0.02400623,8.79999980330467,2
-13.75344,0.6833333,-5.339235,-1.2944814761840036,-0.5411646186778982,0.3660552020540697,10.89661,48.07544,0.3405394,0.08791817,0.4052383,-0.03597381,8.81999980285764,2
-13.57031,0.2833334,-5.167301,-1.4140136025324068,-0.5160398690102512,0.4504589580412004,3.58886,49.70332,0.1864156,0.02909724,0.4200175,-0.01168474,8.8399998024106,2
-13.52465,0.4833335,-5.124328,-1.5076232495842845,-0.5045402960606071,0.5361979320052042,7.176629,49.72095,0.3742424,0.05815732,0.4193981,-0.02335462,8.85999980196357,2
-13.47901,0.6833334,-5.081368,-1.7212447446264625,0.1603063786615391,0.485273177197588,10.76328,49.7507,0.5650005,0.08715184,0.4183668,-0.03499818,8.87999980151653,2
-13.43338,0.8833333,-5.038418,-1.904313408957257,0.6741765316574309,0.4386581619606922,14.34854,49.79313,0.7600363,0.1160496,0.4169249,-0.04660515,8.8999998010695,2
-13.28652,0.2833333,-4.898773,-2.0009010483672096,0.1610191430416004,0.5343478395733423,3.528316,50.13454,0.2421357,0.02878061,0.4234214,-0.01113013,8.91999980062246,2
-13.24198,0.4833333,-4.856069,-2.230399373096219,0.3581485908729847,0.4763378201809503,7.055519,50.15705,0.4860509,0.05752528,0.4228166,-0.02224633,8.93999980017543,2
-13.19747,0.6833333,-4.813377,-2.4289361550079125,0.5729802690014232,0.4186632879587297,10.58157,50.19503,0.7336628,0.08620695,0.4218097,-0.03333799,8.95999979972839,2
-13.04845,0.2833333,-4.65811,-2.562935043387638,0.1129296774730783,0.4471112125566954,3.468397,49.20803,0.2687542,0.02849113,0.4160881,-0.01046833,8.97999979928136,2
-13.00572,0.4833333,-4.615015,-2.650297532650457,-0.3571219666098132,0.4848071704753995,6.935375,49.23261,0.5397032,0.05694615,0.4155133,-0.02092046,8.99999979883432,2
-12.96299,0.6833333,-4.571934,-2.82455616208191,0.0678025922703479,0.4100817014778743,10.40107,49.27412,0.8150058,0.08534105,0.4145563,-0.03134668,9.01999979838729,2
-12.92028,0.8833332,-4.528865,-2.885113644871865,-0.1575880960804679,0.459242530976562,13.86555,49.33329,1.096413,0.1136494,0.4132183,-0.04174114,9.03999979794025,2
-12.74676,0.2833333,-4.334507,-2.9004995060378835,-0.3673671640792226,0.5155163711366972,3.413573,45.24519,0.1736413,0.02807555,0.3844466,-0.01005883,9.05999979749322,2
-12.70662,0.4833333,-4.290411,-3.01932636334106,0.1043919095647563,0.4407320385356637,6.825654,45.2609,0.3496335,0.05611809,0.3839341,-0.02009493,9.07999979704618,2
-12.66649,0.6833333,-4.246326,-3.095586353549022,0.5661499290860645,0.3733310067150728,10.23668,45.28739,0.5281208,0.08410273,0.3830806,-0.03011014,9.09999979659915,2
-12.517,0.2833333,-4.049814,-3.060557186584777,0.1129295183963867,0.4073728972012826,3.356528,41.18353,0.07604483,0.02764919,0.351538,-0.009679509,9.11999979615211,2
-12.47945,0.4833334,-4.004856,-3.149919320407827,0.3699962745037667,0.2902320054308922,6.71162,41.19035,0.1537555,0.05526646,0.3510858,-0.01933707,9.13999979570508,2
-12.44192,0.6833333,-3.95991,-3.202161735516139,0.644765364490999,0.1754547563599715,10.06575,41.20185,0.2325125,0.08282851,0.3503328,-0.0289754,9.15999979525805,2
-12.40439,0.8833333,-3.914977,-3.210660725823459,0.8849662429846337,0.0711478829574483,13.41891,41.21821,0.3128961,0.1103118,0.3492799,-0.03858623,9.17999979481101,2
-12.30425,0.2833333,-3.756341,-3.0874385951715304,0.1845761235115819,0.1072806335903242,3.30248,37.01175,359.9534,0.02719666,0.3172812,-0.009531225,9.19999979436398,2
-12.26894,0.4833333,-3.71081,-2.916455621430515,-0.4244263305905299,0.1568544021397977,6.603982,37.00771,359.9066,0.0543628,0.316886,-0.01905144,9.21999979391694,2
-12.23363,0.6833333,-3.665294,-2.8656397914700857,-0.0393320145767466,0.0674764643173169,9.904185,37.00104,359.8602,0.08147588,0.3162284,-0.02854406,9.23999979346991,2
-12.12951,0.2833333,-3.487716,-2.7724721441499742,-0.3050408265195247,0.0623471217239335,3.249838,32.57051,359.8506,0.02685309,0.2803422,-0.009202912,9.25999979302287,2
-12.09682,0.4833333,-3.441324,-2.633044654721713,-0.5556261256028783,0.0684732688445675,6.49869,32.55773,359.7003,0.0536767,0.2800034,-0.01839534,9.27999979257584,2
-12.06413,0.6833334,-3.394944,-2.5896870910867253,-0.1251609247184535,-0.0429012391589491,9.746546,32.53622,359.5481,0.08044932,0.2794392,-0.02756997,9.2999997921288,2
-11.95829,0.2833333,-3.196094,-2.477862674818056,-0.3454987071754155,-0.0744335954977526,3.199205,27.35976,359.7459,0.02659857,0.2364644,-0.008755325,9.31999979168177,2
-11.92873,0.4833333,-3.148541,-2.3255824071231803,-0.5507128449640617,-0.0941610603589089,6.397409,27.33838,359.4904,0.05316862,0.2361863,-0.01750068,9.33999979123473,2
-11.89918,0.6833333,-3.101002,-2.2929571886758726,-0.0748767234036744,-0.2472526862691022,9.594546,27.30238,359.2318,0.07968931,0.2357232,-0.02622931,9.3599997907877,2
-11.86963,0.8833333,-3.053479,-2.2293328274655213,0.3904702216443052,-0.3879656547656912,12.79041,27.25141,358.9692,0.1061407,0.2350765,-0.03492637,9.37999979034066,2
-11.84009,0.9766704,-3.005971,-2.153551234712348,-0.0596489334197565,-0.484345998775596,15.98515,27.18465,358.7007,0.1325029,0.2342465,-0.04358909,9.39999978989363,2
-11.7676,0.2833334,-2.838043,-2.038179486593668,-0.5202569202719779,-0.5548631321892421,3.455629,25.07656,359.735,0.02893062,0.2170606,-0.008801544,9.41999978944659,2
-11.73785,0.4833333,-2.785331,-2.0008940179795047,-0.0863764700657652,-0.7071738960884495,6.91027,25.05245,359.4683,0.0578272,0.2167629,-0.0175924,9.43999978899956,2
-11.70811,0.6833332,-2.732641,-1.929116322866628,0.3370150416332588,-0.8298174475584155,10.36454,25.01189,359.1983,0.08667045,0.2162674,-0.02636055,9.45999978855252,2
-11.65525,0.2833333,-2.607522,-1.8456693853108188,-0.1550597607405277,-0.8704234747008044,3.539792,26.97705,359.8364,0.0297007,0.233182,-0.008592068,9.47999978810549,2
-11.62468,0.4833333,-2.553766,-1.8462022660974335,0.0626645069055761,-1.0053723211770258,7.079171,26.96178,359.6714,0.05936962,0.2328476,-0.01717574,9.49999978765845,2
-11.59412,0.6833333,-2.500025,-1.8142301681145323,0.2976032378987012,-1.107223253247998,10.61748,26.93601,359.5039,0.08897331,0.2322907,-0.02574063,9.51999978721142,2
-11.49953,0.2833333,-2.340881,-1.7444419683644554,-0.1428281877630041,-1.1355932441181196,3.589419,29.22869,359.9872,0.03027708,0.2521912,-0.00800984,9.53999978676438,2
-11.46875,0.4833333,-2.286327,-1.6373582379201572,-0.5937484329292934,-1.1198453262282104,7.178203,29.22749,359.9745,0.06051932,0.2518201,-0.01600958,9.55999978631735,2
-11.43798,0.6833333,-2.231789,-1.6470748008878893,-0.150180454997909,-1.2334402817721324,10.76596,29.22546,359.9615,0.09069358,0.2512023,-0.02399142,9.57999978587031,2
-11.40722,0.8833332,-2.177267,-1.628747214410648,0.2828985967098605,-1.3087350670012046,14.35271,29.22257,359.9482,0.1207704,0.2503385,-0.03194752,9.59999978542328,2
-11.31873,0.2833333,-2.042369,-1.5755872160136182,-0.199488440456246,-1.3194531481669485,3.554091,30.66967,0.09080521,0.03011571,0.2643084,-0.007437124,9.61999978497624,2
-11.28846,0.4833333,-1.988224,-1.6220199952211178,0.0279235780231379,-1.4632035531765957,7.106909,30.67818,0.1823937,0.060192,0.263927,-0.01486351,9.63999978452921,2
-11.25821,0.6833333,-1.934094,-1.6464194415018198,0.2725499259498299,-1.5715399284233889,10.6587,30.69254,0.2753861,0.09020185,0.2632919,-0.02227347,9.65999978408217,2
-11.22796,0.8833333,-1.87998,-1.6159425424693534,-0.1581938966300057,-1.5818680001455794,14.20945,30.71305,0.3705548,0.1201166,0.2624041,-0.02965989,9.67999978363514,2
-11.12141,0.2833333,-1.711744,-1.562460026095632,-0.5994266592851454,-1.5511788363959296,3.625081,30.80818,0.09710597,0.03071825,0.2654661,-0.007585029,9.6999997831881,2
-11.09046,0.4833333,-1.656536,-1.559062963351808,-0.1461709864499678,-1.6087075778519129,7.249126,30.81746,0.19495,0.06139702,0.2650674,-0.01516046,9.71999978274107,2
-11.05952,0.6833333,-1.601348,-1.5345604134204152,0.2965957463099035,-1.6271314100756815,10.87274,30.83312,0.294355,0.09201086,0.2644036,-0.02272001,9.73999978229403,2
-11.02628,0.2833333,-1.4787,-1.41950531155382,-0.1761038365711498,-1.489784398879363,3.6248,32.32722,0.1352153,0.03070517,0.2782058,-0.007671607,9.759999781847,2
-10.99444,0.4833332,-1.423998,-1.369923475916849,0.060995755718599,-1.4729009231059171,7.248533,32.34013,0.2714688,0.0613707,0.2777878,-0.01533342,9.77999978139997,2
-10.96261,0.6833332,-1.369311,-1.30743227043612,0.3153097969809699,-1.429895554737998,10.87117,32.36194,0.409875,0.09196584,0.2770918,-0.02297781,9.79999978095293,2
-10.90355,0.2833332,-1.251672,-1.1446633951066314,-0.1057464523112033,-1.236031274033,3.574198,33.81201,0.2058496,0.03036004,0.290607,-0.007350958,9.8199997805059,2
-10.87183,0.4833333,-1.197866,-1.0607494028043067,0.1829964602384343,-1.1999932666472026,7.147279,33.8314,0.4132422,0.06068136,0.2901816,-0.01469261,9.83999978005886,2
-10.84012,0.6833333,-1.144074,-0.9720348052091304,0.4889538217606966,-1.1540486585020866,10.71923,33.86412,0.6238468,0.09093469,0.2894735,-0.02201778,9.85999977961183,2
-10.80842,0.8833332,-1.090296,-0.8762670336593228,0.7598550868821343,-1.0918969070293951,14.2897,33.91077,0.8392398,0.1210878,0.2884834,-0.02932014,9.87999977916479,2
-10.79804,0.2833333,-1.014265,-0.6668398534984377,0.0896774691296553,-0.907841583265664,3.513964,32.9996,0.2349023,0.02997961,0.2838176,-0.006743309,9.89999977871776,2
-10.7681,0.4833333,-0.9606106,-0.4516607171124196,-0.4896003681591131,-0.7055103161144145,7.02683,33.02134,0.4715381,0.05992212,0.2834156,-0.01347805,9.91999977827072,2
-10.73817,0.6833333,-0.9069702,-0.2803716244071399,-0.0752693202392158,-0.6228116388293129,10.53818,33.05808,0.7120456,0.08979704,0.2827466,-0.02019442,9.93999977782369,2
-10.70825,0.8833333,-0.853346,-0.105642317009261,0.3280849089706145,-0.5314348710569173,14.04828,33.11055,0.958376,0.1195792,0.2818115,-0.02688696,9.95999977737665,2
-10.70286,0.2833333,-0.7582362,0.2454260485081452,-0.1845148165219099,-0.2902308949498112,3.450689,31.18211,0.2551512,0.02959864,0.2685824,-0.005948484,9.97999977692962,2
-10.67552,0.4833332,-0.7044172,0.5600347755984245,0.0121966478025744,-0.1358398612562444,6.899814,31.2054,0.5131692,0.0591601,0.2682155,-0.01187966,9.99999977648258,2
-10.64819,0.6833332,-0.6506138,0.8637956195586192,0.2256346824649175,0.013734340224029,10.3478,31.24466,0.7748888,0.08865913,0.2676046,-0.01779841,10.0199997760355,2
-10.61868,0.2833333,-0.5663007,1.3145409975356266,-0.2367854387330593,0.2895585373832691,3.396802,29.61109,0.1801535,0.02905584,0.2553818,-0.006054485,10.0399997755885,2
-10.59214,0.4833333,-0.5132236,1.664644497571368,0.0101057366050028,0.429659113779254,6.792153,29.62722,0.3616919,0.0580744,0.2550444,-0.01209955,10.0599997751415,2
-10.5656,0.6833332,-0.4601615,1.9843286014015649,0.2737234822809251,0.551481715885382,10.18647,29.65441,0.5457552,0.0870336,0.2544827,-0.01813229,10.0799997746944,2
-10.53907,0.8833332,-0.4071147,2.275790102402519,0.50179714620223,0.6608339941929036,13.57971,29.69313,0.7337341,0.1159079,0.2536974,-0.02414731,10.0999997742474,2
-10.50848,0.2833334,-0.3363454,2.670962746786815,-0.2116957118118116,0.8531015380609295,3.341665,28.2332,0.1085256,0.02850775,0.2437655,-0.006193295,10.1199997738004,2
-10.48257,0.4833333,-0.2840847,2.959633938049977,-0.0024393197339337,0.9348465354996464,6.681932,28.24276,0.2178549,0.05697966,0.2434544,-0.01237786,10.1399997733533,2
-10.45667,0.6833333,-0.231839,3.2064356610613327,0.2235436426818047,0.99828055241262,10.02122,28.25886,0.3286498,0.085395,0.2429364,-0.0185502,10.1599997729063,2
-10.402,0.2833333,-0.127293,3.5589326947078987,-0.2263315507627775,1.1580856593058568,3.291226,27.10519,359.9901,0.02789755,0.2342436,-0.006813501,10.1799997724593,2
-10.37567,0.4833333,-0.07626529,3.860176106441235,-0.6871835629174268,1.2979620061958193,6.58148,27.10433,359.9801,0.05576383,0.2339539,-0.0136195,10.1999997720122,2
-10.34936,0.6833333,-0.02524836,4.02165601364355,-0.2540350182165223,1.2874037126461444,9.870423,27.10283,359.9696,0.08357222,0.2334713,-0.02041515,10.2199997715652,2
-10.32305,0.8833333,0.02575404,4.1267172041574725,0.1681366010552841,1.2527407774197723,13.15842,27.10069,359.9589,0.1113039,0.2327966,-0.02719199,10.2399997711182,2
-10.2335,0.2833333,0.1798155,4.369944210780117,-0.3256457477042558,1.348419615367115,3.2362,25.84347,359.8767,0.0272818,0.2235602,-0.007362818,10.2599997706711,2
-10.20695,0.4833333,0.2296842,4.537780395762095,-0.1101169199757732,1.3303185772479178,6.471433,25.83297,359.7526,0.05453376,0.2232924,-0.01471775,10.2799997702241,2
-10.1804,0.6833333,0.2795384,4.635292317802304,0.122138704857617,1.2771866694862342,9.705676,25.81528,359.627,0.08173413,0.2228466,-0.02205881,10.2999997697771,2
-10.07397,0.2833334,0.440059,4.831466929301421,-0.3214639318429334,1.326515919952715,3.285769,27.00432,359.8435,0.02755875,0.2334239,-0.008020874,10.31999976933,2
-10.04548,0.4833333,0.4899002,4.912267971924554,-0.0557552571103359,1.2601137334670602,6.570575,26.99079,359.6861,0.0550869,0.2331354,-0.01603299,10.339999768883,2
-10.017,0.6833333,0.5397273,4.911354125108641,0.2266798833319112,1.1527892589428184,9.854394,26.96799,359.5266,0.0825618,0.2326552,-0.02402985,10.359999768436,2
-9.988535,0.8833333,0.5895401,4.833297529175579,0.4735709441103614,1.0111857176743184,13.13765,26.93539,359.3631,0.1099631,0.2319829,-0.03201225,10.3799997679889,2
-9.862288,0.2833333,0.7324596,4.814328369668494,-0.2211044082366815,0.9449357540110248,3.53421,32.46394,359.893,0.02934681,0.2794214,-0.009515761,10.3999997675419,2
-9.827539,0.4833333,0.7835015,4.736766914317082,0.0069693720737044,0.8175429467429463,7.067451,32.45397,359.7852,0.0586576,0.2790225,-0.01902044,10.4199997670949,2
-9.79282,0.6833333,0.8345258,4.585607577142437,0.2517696186164456,0.659824152772492,10.60157,32.43681,359.6736,0.08791509,0.2783568,-0.02852658,10.4399997666478,2
-9.758111,0.8833332,0.8855347,4.366817525272601,0.46102579882438,0.4786584698055121,14.13479,32.41234,359.5593,0.1170817,0.2774263,-0.03800331,10.4599997662008,2
-9.563046,0.2833333,1.063756,4.268327528112594,-0.2712844346158841,0.4252837702914189,3.561927,39.1081,-0.0002166366,0.02928561,0.3345343,-0.01040369,10.4799997657537,2
-9.523803,0.4833333,1.111957,4.121254923453899,-0.0808454297251019,0.2941706133682413,7.123166,39.10785,-0.002879592,0.0585302,0.334049,-0.02081526,10.4999997653067,2
-9.484571,0.6833333,1.160145,3.909842244013385,0.1263202671196765,0.1365899000233641,10.68339,39.10743,-0.005584862,0.08770996,0.3332413,-0.0312038,10.5199997648597,2
-9.299219,0.2833333,1.325673,3.798703416058392,-0.3423721764760551,0.0846662963786784,3.585905,43.07803,0.1316596,0.02952451,0.3669213,-0.01041865,10.5399997644126,2
-9.258149,0.4833333,1.372937,3.616792067774498,-0.1017534276412488,-0.0320636151534539,7.171049,43.09039,0.2634227,0.05901109,0.3663815,-0.02083223,10.5599997639656,2
-9.217092,0.6833333,1.420189,3.3761685794822,0.1555918941449425,-0.1726183401755721,10.75513,43.11125,0.3972394,0.08843144,0.3654829,-0.03122245,10.5799997635186,2
-9.176044,0.8833332,1.467426,3.085817500879452,0.3773932568380643,-0.3294083119756492,14.33815,43.14102,0.5342182,0.1177569,0.3642268,-0.04157933,10.5999997630715,2
-9.013489,0.2833333,1.598618,2.8802785915566185,-0.3423718992679274,-0.3972357666004944,3.563896,45.92539,0.1445264,0.02912356,0.3899066,-0.01097074,10.6199997626245,2
-8.970551,0.4833333,1.643667,2.622910038910555,-0.1393880417191009,-0.5003493125210752,7.126687,45.93887,0.2891911,0.0582069,0.3893399,-0.02193504,10.6399997621775,2
-8.927628,0.6833333,1.688704,2.328712674914128,0.0803224960228481,-0.6110333744216332,10.68842,45.96157,0.4356795,0.08722427,0.3883964,-0.03287817,10.6599997617304,2
-8.748875,0.2833333,1.835564,2.0078003805333138,0.2644890618654417,-0.721385104864205,3.643317,48.05733,0.1555601,0.02958631,0.406948,-0.01170484,10.6799997612834,2
-8.703376,0.4833333,1.880068,1.8111895417130208,0.227377091300728,-0.7476434416590458,7.285577,48.07226,0.3123098,0.0591342,0.40633,-0.02339479,10.6999997608364,2
-8.657889,0.6833333,1.924559,1.5822944704769526,0.2357403746401882,-0.7813245106004452,10.92674,48.09748,0.4715497,0.08861367,0.4053012,-0.035058,10.7199997603893,2
-8.612424,0.8833332,1.96904,1.3322438081219836,0.2362630756509265,-0.8140788543873345,14.56756,48.13328,0.6337115,0.117998,0.4038617,-0.04669285,10.7399997599423,2
-8.38723,0.2833334,2.152914,1.2211054279512936,-0.4646849427727064,-0.7178980398554571,3.607111,50.85516,0.2044089,0.02918946,0.4291058,-0.01190324,10.7599997594953,2
-8.340658,0.4833333,2.195392,1.0163715311995292,-0.2428836007264505,-0.742353499165485,7.213125,50.87458,0.4103577,0.0583413,0.4284661,-0.02379142,10.7799997590482,2
-8.294099,0.6833334,2.237857,0.7971618810113732,-0.0043556846833976,-0.7679411004179104,10.81798,50.90738,0.6195237,0.08742651,0.4274013,-0.03565273,10.7999997586012,2
-8.092638,0.2833333,2.403341,0.7449946448861393,-0.4416859208417276,-0.6510148069397443,3.543229,53.06443,0.2673597,0.0287013,0.4464216,-0.01172354,10.8199997581542,2
-8.046026,0.4833333,2.444205,0.589997284548649,-0.1697049768530976,-0.6652650361461236,7.085324,53.08938,0.5366889,0.05736643,0.445778,-0.02343239,10.8399997577071,2
-7.999427,0.6833333,2.485057,0.4271755697959447,0.1190026473286542,-0.6846947009002986,10.62623,53.13149,0.8100895,0.085968,0.4447064,-0.03511548,10.8599997572601,2
-7.952842,0.8833332,2.525902,0.2684566799177368,0.3721662996110505,-0.7014683419097119,14.16551,53.19144,1.089219,0.1144738,0.4432079,-0.04676475,10.879999756813,2
-7.782978,0.2833334,2.663306,0.1258803588232275,0.4236858222241586,-0.7077950994632713,3.481028,53.86256,0.2991219,0.02826072,0.4526403,-0.01143039,10.899999756366,2
-7.737011,0.4833333,2.703333,0.0629351653611873,0.3558034070810342,-0.6762568541506582,6.960942,53.88998,0.6003706,0.05648689,0.4520094,-0.02284686,10.919999755919,2
-7.691057,0.6833332,2.743352,0.0014043440340696,0.3338841239541379,-0.6489834863420301,10.43926,53.93623,0.9059076,0.08464892,0.4509589,-0.03423825,10.9399997554719,2
-7.645115,0.8833331,2.783359,-0.0472039988676922,0.3046121366105798,-0.6183639593730765,13.91629,54.00214,1.218269,0.1127243,0.4494904,-0.04559463,10.9599997550249,2
-7.428759,0.2833334,2.958685,0.0688134664638067,-0.4256425720072745,-0.4642452455595753,3.423739,53.54668,0.273315,0.02774461,0.4501963,-0.01132828,10.9799997545779,2
-7.38355,0.4833333,2.998013,0.0119223921820852,-0.2326601482395058,-0.4570578661085411,6.845989,53.57133,0.5484728,0.05545286,0.4495899,-0.02264179,10.9999997541308,2
-7.338353,0.6833333,3.037329,-0.0406860212849196,-0.0224632718401773,-0.4504855289008285,10.2671,53.61287,0.8275228,0.0831034,0.4485804,-0.03393178,11.0199997536838,2
-7.146203,0.2833333,3.193739,0.0779757142365449,-0.4876366690074689,-0.3113737431125249,3.369685,52.04572,0.1649341,0.0270522,0.4385016,-0.01160659,11.0399997532368,2
-7.101618,0.4833333,3.232164,0.0278004005696699,-0.2430108873450176,-0.3136151232640376,6.737922,52.06034,0.3308304,0.05406914,0.4379317,-0.02319914,11.0599997527897,2
-7.057045,0.6833333,3.270578,-0.026317639389445,0.0188293469489944,-0.3234619243938086,10.10514,52.08498,0.4989956,0.08103153,0.4369829,-0.03476834,11.0799997523427,2
-7.012486,0.8833332,3.308981,-0.0734087025201057,0.2456132750630567,-0.3333965243586396,13.47132,52.12007,0.6706779,0.1079162,0.4356563,-0.04630416,11.0999997518957,2
-6.850392,0.2833334,3.438904,0.022525568140213,-0.4686813169392091,-0.2386338840340371,3.316596,50.50668,0.04853861,0.02635368,0.4264317,-0.01196294,11.1199997514486,2
-6.806278,0.4833333,3.476352,-0.0118314518811866,-0.2597387770785611,-0.241171979678711,6.63221,50.51091,0.0973845,0.05267749,0.4258959,-0.02391236,11.1399997510016,2
-6.762175,0.6833333,3.513792,-0.0382286113255521,-0.0335817851090544,-0.2413976708260294,9.946479,50.51802,0.1466657,0.07894584,0.4250038,-0.03583857,11.1599997505546,2
-6.718084,0.8833333,3.551222,-0.0460101552929614,0.1575190068768251,-0.2316344232919247,13.2598,50.52813,0.1969506,0.1051407,0.4237566,-0.04773133,11.1799997501075,2
-6.509691,0.2833334,3.718643,-0.0144797948178849,0.1278291538964457,-0.1895100986709597,3.260594,48.357,359.908,0.02562555,0.4094357,-0.01238504,11.1999997496605,2
-6.466113,0.4833333,3.755238,0.0148015566196022,0.1441025524576126,-0.1522692978513866,6.520226,48.34911,359.8154,0.05122285,0.4089382,-0.02475648,11.2199997492135,2
-6.422547,0.6833333,3.791822,0.0523144099466899,0.1530232462794085,-0.1120628274548414,9.778856,48.3358,359.7215,0.07677086,0.4081099,-0.03710433,11.2399997487664,2
-6.239497,0.2833333,3.940584,0.2563260871864723,-0.5390386749767655,0.0561364783922826,3.207996,45.7697,359.8053,0.02512754,0.3887712,-0.01245018,11.2599997483194,2
-6.19703,0.4833333,3.977194,0.2557312788712442,-0.3078637039433569,0.0605438427893929,6.415002,45.75326,359.6094,0.05022797,0.3883127,-0.02488666,11.2799997478724,2
-6.154575,0.6833333,4.013793,0.2513658267397063,-0.0594741740820616,0.0600537219224381,9.620991,45.72559,359.4111,0.07528156,0.3875491,-0.03729993,11.2999997474253,2
-5.95326,0.2833333,4.177243,0.418189478116032,-0.4864550383581127,0.1946085450127457,3.450793,46.38368,359.7996,0.02698777,0.3936803,-0.01346414,11.3199997469783,2
-5.907214,0.4833333,4.216273,0.3950639826348023,-0.2036366181308002,0.1762300513801493,6.900609,46.36547,359.5978,0.05394366,0.3931431,-0.02691248,11.3399997465312,2
-5.861183,0.6833333,4.255292,0.3576030940703307,0.0963962536826585,0.1461387129579465,10.34974,46.33472,359.3928,0.08084508,0.3922485,-0.04033566,11.3599997460842,2
-5.815174,0.8833333,4.294293,0.3161862991955879,0.3613729249897942,0.1125621174430806,13.79941,46.29086,359.1833,0.1076783,0.3909971,-0.05372475,11.3799997456372,2
-5.769177,0.9766704,4.333283,0.2812053596499297,0.4251935843130281,0.0837151507899101,17.24791,46.23308,358.9675,0.1344059,0.3893906,-0.06706125,11.3999997451901,2
-5.56506,0.2833334,4.495455,0.2786120323334806,0.370099850506009,0.0833733336566533,3.546532,48.68698,359.8599,0.02768928,0.4120427,-0.01386908,11.4199997447431,2
-5.516947,0.4833333,4.534471,0.2659337557978665,0.3614573525489146,0.0759306413402232,7.092788,48.67382,359.718,0.05534787,0.4114496,-0.02772864,11.4399997442961,2
-5.468848,0.6833333,4.573475,0.2539899867081865,0.345950040770793,0.0698282389859317,10.63799,48.65162,359.5741,0.08294551,0.4104623,-0.04155769,11.459999743849,2
-5.289443,0.2833333,4.717981,0.39361116812701,-0.3700519818379705,0.184539148022945,3.591007,50.2047,359.9806,0.02830126,0.4240331,-0.01344549,11.479999743402,2
-5.241082,0.4833333,4.757832,0.3334902785520044,-0.1623293279578382,0.1409276749866714,7.181346,50.20289,359.9613,0.0565703,0.4234087,-0.02687353,11.499999742955,2
-5.192735,0.6833333,4.797671,0.2670762148132501,0.0630957751458159,0.0925622394074858,10.77066,50.19983,359.9417,0.08477578,0.4223689,-0.04027141,11.5199997425079,2
-4.9982,0.2833333,4.95521,0.3618904461661305,-0.3863613992478952,0.173229757793619,3.555149,51.16092,0.08006935,0.02828055,0.4315507,-0.01276361,11.5399997420609,2
-4.950766,0.4833333,4.995203,0.2758467941624651,-0.1255315187906286,0.1099661539485543,7.109015,51.16845,0.1610612,0.05652498,0.4309277,-0.02550778,11.5599997416139,2
-4.903346,0.6833333,5.035184,0.177444391982386,0.1530006903194342,0.037268992936073,10.66185,51.18115,0.2432999,0.08470699,0.4298903,-0.03822372,11.5799997411668,2
-4.855939,0.8833331,5.075155,0.0777163974463803,0.3969645759898169,-0.0362679292348433,14.21366,51.19929,0.3274575,0.1127996,0.42844,-0.05089934,11.5999997407198,2
-4.691418,0.2833333,5.206289,0.1945598131870891,-0.2996621952411817,0.0626466746327931,3.623569,52.10609,0.1032145,0.02879912,0.4389577,-0.0130772,11.6199997402728,2
-4.642613,0.4833333,5.246549,0.1656948158093021,-0.0725641976386533,0.0473209394039964,7.246094,52.11594,0.2072105,0.05756116,0.438299,-0.02613774,11.6399997398257,2
-4.593828,0.6833333,5.286795,0.1285840109648068,0.1722362353356999,0.0255840702005372,10.86818,52.13254,0.3125742,0.08626122,0.4372019,-0.03917304,11.6599997393787,2
-4.545056,0.8833332,5.32703,0.0947975030379582,0.3824683448703722,0.0065775973646484,14.48921,52.15623,0.4204979,0.1148669,0.4356682,-0.05216548,11.6799997389317,2
-4.334109,0.2833333,5.495599,0.2091472330605519,-0.3478903225443532,0.1058338519709485,3.629677,52.87835,0.127874,0.0288538,0.4449923,-0.01310211,11.6999997384846,2
-4.284954,0.4833333,5.535598,0.1356360863667074,-0.1545241149292285,0.0571793803128883,7.258288,52.89058,0.256738,0.05767028,0.4443219,-0.02618734,11.7199997380376,2
-4.235811,0.6833333,5.575587,0.061715441766303,0.0565445275350154,0.0093172229680469,10.88581,52.91124,0.3876553,0.08642051,0.443206,-0.03924254,11.7399997375906,2
-4.04823,0.2833334,5.725389,0.1499030154895206,-0.4072691213497983,0.0917271285848402,3.57532,54.6535,0.2090821,0.02855131,0.4587896,-0.01270054,11.7599997371435,2
-3.999461,0.4833333,5.764447,0.0758043696450794,-0.1607957287126244,0.0450342764076596,7.149543,54.6732,0.4197333,0.05706635,0.4581177,-0.02538501,11.7799997366965,2
-3.950706,0.6833333,5.803494,0.0011025696216939,0.1033798730520335,-0.0021117413608662,10.72262,54.70645,0.6336561,0.08551738,0.4569989,-0.03804093,11.7999997362494,2
-3.747617,0.2833333,5.966168,-0.0625290049239795,0.3329872586187452,-0.0407332381453899,3.513033,55.44589,0.2649606,0.0282086,0.464914,-0.01221343,11.8199997358024,2
-3.699768,0.4833333,6.004739,-0.089853523991449,0.3422917567605266,-0.0533416071824532,7.024949,55.47041,0.5318459,0.05638219,0.4642551,-0.0244117,11.8399997353554,2
-3.651929,0.6833333,6.043301,-0.1291437161205855,0.3980473840332065,-0.0773873979225712,10.53534,55.51179,0.8027765,0.08449193,0.4631582,-0.03658154,11.8599997349083,2
-3.604104,0.8833332,6.081851,-0.1695710696454861,0.4469381841558697,-0.1043189740363557,14.04444,55.5708,1.079883,0.1125135,0.4616246,-0.04871314,11.8799997344613,2
-3.556292,0.9766704,6.120391,-0.2002678351441806,0.4356480941285664,-0.1255678341029247,17.55222,55.64861,1.365542,0.140421,0.4596563,-0.06079533,11.8999997340143,2
-3.35523,0.2833333,6.282138,-0.0860784110436669,-0.4148441585054423,-0.0350100533709056,3.448697,55.2776,0.2931632,0.02784349,0.4636163,-0.01169369,11.9199997335672,2
-3.308697,0.4833333,6.32062,-0.1442430379975234,-0.2424908462952167,-0.0812294947033409,6.895844,55.30426,0.5886903,0.05565124,0.4629823,-0.02336906,11.9399997331202,2
-3.262177,0.6833332,6.359091,-0.1980076994499631,-0.0529229773479251,-0.1244098986501702,10.34182,55.34921,0.8884744,0.08340034,0.4619266,-0.03501976,11.9599997326732,2
-3.084479,0.2833333,6.501593,-0.0976443860549668,-0.5387252778617506,-0.0433435943345612,3.39649,53.74162,0.1917864,0.02719189,0.4517369,-0.01190241,11.9799997322261,2
-3.038677,0.4833332,6.539337,-0.147181625856592,-0.3147285216846771,-0.081230049642385,6.791531,53.75877,0.3847919,0.05434832,0.45114,-0.02378983,11.9999997317791,2
-2.992888,0.6833332,6.577071,-0.1964652224012016,-0.0735173149668633,-0.1182781019547976,10.18553,53.78767,0.5804915,0.08144919,0.4501462,-0.0356529,12.0199997313321,2
-2.800278,0.2833333,6.73225,-0.2351727098955142,0.132637583480179,-0.1463624709709527,3.342189,52.07009,0.1068326,0.02661179,0.4387095,-0.01196246,12.039999730885,2
-2.755435,0.4833333,6.769564,-0.2376868292152525,0.1180020616371907,-0.1479631353295811,6.682969,52.07949,0.2144704,0.05319027,0.4381494,-0.0239088,12.059999730438,2
-2.710603,0.6833333,6.806868,-0.2507392313953237,0.1493297764386417,-0.1592697395387965,10.02277,52.09534,0.3235659,0.07971597,0.4372169,-0.03583136,12.079999729991,2
-2.665785,0.8833332,6.844162,-0.2637468358885506,0.1733047721263223,-0.1720087248281476,13.36159,52.11792,0.43489,0.1061663,0.4359131,-0.04772018,12.0999997295439,2
-2.427148,0.2833334,7.035777,-0.0992163201699562,-0.5037028477866732,-0.0455824201989258,3.285979,49.8494,359.9579,0.02584667,0.421263,-0.01241561,12.1199997290969,2
-2.382855,0.4833333,7.072176,-0.073010079763816,-0.2574735620810957,-0.0290013999824889,6.570996,49.84576,359.9156,0.05166454,0.4207435,-0.02481739,12.1399997286499,2
-2.338574,0.6833333,7.108568,-0.0511582869712633,0.0059701762560431,-0.0169325649013085,9.854664,49.83961,359.8726,0.07742879,0.4198786,-0.037195,12.1599997282028,2
-2.294306,0.8833332,7.144949,-0.0231579236474547,0.2343577151322636,-0.001002798219611,13.13739,49.83086,359.8287,0.1031222,0.4186692,-0.0495385,12.1799997277558,2
-2.125203,0.2833334,7.281012,0.0214965228422765,0.2615892430699984,0.0271588911295364,3.230913,47.42828,359.8552,0.02530277,0.4020462,-0.01249456,12.1999997273088,2
-2.081988,0.4833333,7.317287,0.062379268640127,0.1699066056899357,0.0505234041335604,6.460857,47.41597,359.7094,0.05057802,0.401566,-0.0249754,12.2199997268617,2
-2.038785,0.6833333,7.353552,0.0982124554794106,0.124674979483574,0.069025284130797,9.689811,47.39524,359.5619,0.07580563,0.4007665,-0.03743266,12.2399997264147,2
-1.854156,0.2833334,7.502608,0.1394316499815542,0.0725785282180161,0.0911348449362297,3.281918,46.0082,359.7951,0.02566041,0.3906832,-0.01283623,12.2599997259676,2
-1.810467,0.4833334,7.539819,0.1690494773998667,0.0402751099857005,0.1036823823836918,6.562856,45.99049,359.5889,0.05129235,0.3902008,-0.02565827,12.2799997255206,2
-1.76679,0.6833333,7.577019,0.1886757402039246,0.0544229291714311,0.1087121356492488,9.842776,45.96068,359.38,0.07687487,0.3893976,-0.03845547,12.2999997250736,2
-1.723128,0.8833333,7.614206,0.2088640300771737,0.0617058160562258,0.1148721192362725,13.12214,45.9183,359.1671,0.1023915,0.3882744,-0.05121788,12.3199997246265,2
-1.488066,0.2833333,7.802056,0.2110220406340389,0.0887820817439255,0.1073898894793128,3.525842,48.11987,359.8331,0.02749744,0.4075395,-0.01387184,12.3399997241795,2
-1.440267,0.4833333,7.840976,0.1945394425178297,0.1623094648016486,0.0866368669349917,7.050697,48.10435,359.6649,0.05496123,0.4069596,-0.027727,12.3599997237325,2
-1.392496,0.6833333,7.879879,0.1701989324356779,0.2289719027521586,0.0613043617994204,10.57645,48.07807,359.4934,0.08237836,0.4059932,-0.0415642,12.3799997232854,2
-1.344738,0.8833332,7.91877,0.1487859765624328,0.2354536794105716,0.0400866488796545,14.10112,48.04058,359.3181,0.1097096,0.4046421,-0.05535809,12.3999997228384,2
-1.180532,0.2833333,8.049067,0.3476790072870285,-0.5972669301685378,0.1962779965362404,3.564405,49.65451,359.8957,0.02784388,0.4197063,-0.01388428,12.4199997223914,2
-1.131945,0.4833333,8.087942,0.3612847964328378,-0.4071418517191595,0.2058702915093508,7.128085,49.64469,359.7903,0.05565432,0.4190967,-0.02775429,12.4399997219443,2
-1.083372,0.6833333,8.126807,0.3657820465403923,-0.1998023195928091,0.2093180166080728,10.69072,49.62812,359.6833,0.08340304,0.4180818,-0.04159343,12.4599997214973,2
-0.9041532,0.2833334,8.271367,0.3724513363143195,-0.0275187591149154,0.2155454701438675,3.589515,50.99763,0.05433531,0.02847265,0.4302678,-0.01305495,12.4799997210503,2
-0.8560816,0.4833333,8.311533,0.3674958666285802,-0.0760260677568054,0.2129791301100141,7.178231,51.00282,0.1097043,0.05691333,0.4296346,-0.02608938,12.4999997206032,2
-0.8080237,0.6833333,8.351686,0.353134255554514,-0.0785700021956029,0.2043755708343066,10.7659,51.0116,0.1659336,0.08529001,0.4285804,-0.03909451,12.5199997201562,2
-0.7599794,0.8833331,8.391829,0.3408193115013735,-0.088466624908549,0.1987745353547669,14.35256,51.02412,0.2235138,0.1135752,0.4271065,-0.05205761,12.5399997197092,2
-0.5331565,0.2833334,8.573175,0.1657325918526584,0.561255996825202,0.0642366487922814,3.58667,52.09027,0.09894986,0.02849544,0.4388396,-0.01296532,12.5599997192621,2
-0.4848395,0.4833334,8.612988,0.1796014151119755,0.3263521572051722,0.0791613983727792,7.172326,52.09961,0.1984482,0.05695419,0.4381943,-0.02591589,12.5799997188151,2
-0.4365363,0.6833334,8.652788,0.1874872052683442,0.1128442964120858,0.089640553750435,10.75694,52.11536,0.2995019,0.08534911,0.4371201,-0.03883738,12.5999997183681,2
-0.231852,0.2833334,8.816568,0.2011699677927665,-0.1336287126464033,0.1050038410101574,3.63977,52.62994,0.1129515,0.02890334,0.4430536,-0.01319523,12.619999717921,2
-0.182565,0.4833333,8.856687,0.1569076534707725,-0.1473586106142977,0.0743384056052072,7.278487,52.64078,0.2267869,0.05776927,0.4423826,-0.0263734,12.639999717474,2
-0.1332916,0.6833333,8.896793,0.095866695203534,-0.1151251466626808,0.0315770493935936,10.91614,52.65908,0.3424374,0.08656861,0.4412656,-0.03952131,12.6599997170269,2
-0.08403563,0.8833332,8.936888,0.0297806961565612,-0.0902444905105224,-0.0140223883496126,14.55321,52.68517,0.460768,0.1152758,0.4397037,-0.05262876,12.6799997165799,2
-0.03479386,0.9766704,8.976971,-0.0296137924458839,-0.1260325723034734,-0.053173797824872,18.18917,52.71965,0.5830348,0.1438586,0.437699,-0.06567939,12.6999997161329,2
0.1678891,0.2833334,9.137614,-0.0941563026430332,-0.1691731166489329,-0.0965629015070508,3.596911,54.47887,0.1954498,0.02868365,0.4574363,-0.01284894,12.7199997156858,2
0.2169861,0.4833333,9.176847,-0.1608101901690566,-0.166350420691015,-0.1405194158979963,7.192725,54.49739,0.3923878,0.05733054,0.4567584,-0.02568145,12.7399997152388,2
0.2660693,0.6833333,9.216067,-0.2176085030762662,-0.1708803206626137,-0.1758001287637398,10.7874,54.52867,0.5924014,0.08591244,0.4556299,-0.03848499,12.7599997147918,2
0.4451815,0.2833333,9.358537,-0.4223758240279003,0.484209102828126,-0.3285749725184015,3.530291,55.5666,0.256676,0.02829522,0.4658454,-0.01237725,12.7799997143447,2
0.4934435,0.4833333,9.397056,-0.4302426351152224,0.2546717042983196,-0.3289757699926987,7.059469,55.59047,0.5152344,0.0565551,0.4651789,-0.02473906,12.7999997138977,2
0.5416918,0.6833332,9.435563,-0.4298569525839015,0.0465305097943893,-0.32463255636479,10.58746,55.63075,0.777692,0.08475272,0.4640693,-0.03707365,12.8199997134507,2
0.7362403,0.2833334,9.591192,-0.4098374270872402,-0.1945759545910773,-0.3066669965559718,3.468048,55.58425,0.2898028,0.02794775,0.4659824,-0.0118728,12.8399997130036,2
0.7832901,0.4833334,9.629566,-0.4382047307547578,-0.2029391899287534,-0.3295643311066758,6.934688,55.61074,0.5819242,0.0558603,0.465338,-0.02372789,12.8599997125566,2
0.8303273,0.6833333,9.66793,-0.4725249352981495,-0.1653391588277773,-0.3583022457210045,10.40002,55.65543,0.8782962,0.08371235,0.4642653,-0.03555717,12.8799997121096,2
0.8773511,0.8833333,9.706282,-0.5022904161872037,-0.1350918180917737,-0.3844084690521843,13.86408,55.71913,1.181248,0.1114794,0.4627654,-0.04735031,12.8999997116625,2
1.117949,0.2833333,9.898859,-0.5169990329430858,-0.1655131111953741,-0.3994025555111893,3.412141,54.36714,0.2283894,0.0273938,0.4565867,-0.01182902,12.9199997112155,2
1.164008,0.4833333,9.936782,-0.4468695639334545,-0.2032868689423045,-0.3457501250179682,6.8228,54.38766,0.4584395,0.05475227,0.455977,-0.02364158,12.9399997107685,2
1.210054,0.6833333,9.974694,-0.3819478774330593,-0.1950974946730037,-0.2945851670173773,10.23237,54.42228,0.6917306,0.0820542,0.454962,-0.03542968,12.9599997103214,2
1.256086,0.8833333,10.0126,-0.3114289033732214,-0.1942608246203643,-0.2372658157645855,13.6408,54.47158,0.9300318,0.1092754,0.4535429,-0.04718289,12.9799997098744,2
1.426181,0.2833333,10.14833,-0.3813605506707871,0.4661950734137463,-0.2920507102739513,3.356316,52.66338,0.1327261,0.02676012,0.4433461,-0.01195231,12.9999997094274,2
1.471331,0.4833333,10.18569,-0.3184896796954395,0.2420246131541692,-0.2437268132260399,6.711202,52.67511,0.2663756,0.05348626,0.442775,-0.02388883,13.0199997089803,2
1.516468,0.6833333,10.22303,-0.250635492380491,0.0392501280625953,-0.1920544659126886,10.06508,52.69488,0.4018487,0.08015883,0.4418241,-0.03580137,13.0399997085333,2
1.561592,0.8833332,10.26037,-0.1669812873284115,-0.1964892821862662,-0.1285994107411401,13.41797,52.72304,0.5401306,0.1067552,0.4404946,-0.04767985,13.0599997080863,2
1.778404,0.2833334,10.43276,-0.1293761109502034,-0.1994859174441429,-0.1032510493356646,3.300822,50.46103,359.9823,0.02598773,0.4260883,-0.01241637,13.0799997076392,2
1.823012,0.4833333,10.46917,-0.0951174283857714,-0.1565194073567982,-0.0809879019867647,6.60067,50.4595,359.9645,0.0519462,0.4255582,-0.02481885,13.0999997071922,2
1.867608,0.6833333,10.50558,-0.0538185008467282,-0.1209055897252454,-0.0536231232741499,9.899158,50.45688,359.9463,0.0778503,0.4246756,-0.03719705,13.1199997067451,2
2.059465,0.2833333,10.65915,-0.182838390041923,0.5743275861285579,-0.1618272031644636,3.244154,48.44241,359.8911,0.02542538,0.4101205,-0.01247902,13.1399997062981,2
2.103072,0.4833333,10.69528,-0.1163702639497215,0.384934532884037,-0.1168626234283944,6.487324,48.43312,359.7816,0.05082274,0.4096271,-0.0249443,13.1599997058511,2
2.146667,0.6833332,10.73139,-0.0584054649996961,0.2169375701511914,-0.0792481561610998,9.729533,48.41747,359.6707,0.07617208,0.4088054,-0.03738591,13.179999705404,2
2.190252,0.883333,10.7675,0.0014612507112241,0.0159754507896566,-0.0406575111948956,12.97041,48.39526,359.558,0.101451,0.4076568,-0.04979105,13.199999704957,2
2.352177,0.2833334,10.89704,0.2391913719614256,-0.784580794059526,0.1375937080155811,3.1961,45.91589,359.792,0.02497084,0.3899496,-0.01254856,13.21999970451,2
2.394751,0.4833333,10.93323,0.2948498993781578,-0.5627793681190452,0.1722767716618776,6.391222,45.89839,359.5827,0.04991493,0.3894928,-0.02508354,13.2399997040629,2
2.437313,0.6833334,10.96941,0.3428537579897828,-0.3242513856923996,0.2015099287853594,9.585315,45.86895,359.3709,0.07481271,0.3887322,-0.03759518,13.2599997036159,2
2.479865,0.8833334,11.00558,0.3937291255823627,-0.1212673788240485,0.2338339190490721,12.77811,45.82716,359.1555,0.09964423,0.3876689,-0.05007028,13.2799997031689,2
2.694177,0.2833333,11.17479,0.3018884843621148,0.6003606099621868,0.1538351325968801,3.51659,47.85698,359.8179,0.02740178,0.4054492,-0.01389688,13.2999997027218,2
2.741865,0.4833333,11.21363,0.3806752927574308,0.3253125640965203,0.2105729661918527,7.032211,47.84011,359.6344,0.05477037,0.4048751,-0.02777708,13.3199997022748,2
2.789529,0.6833333,11.25246,0.4553240282457791,0.0716607298359632,0.266379586082115,10.54846,47.81154,359.4476,0.08209085,0.4039184,-0.04163793,13.3399997018278,2
2.978064,0.2833332,11.40139,0.3611168643932663,0.5053314022268386,0.1893836501169978,3.559436,49.53591,359.875,0.02774328,0.4187727,-0.01400113,13.3599997013807,2
3.026741,0.4833332,11.44004,0.4057878646075306,0.2944715243134088,0.2231827839940194,7.118145,49.52415,359.7487,0.05545289,0.4181659,-0.02798888,13.3799997009337,2
3.075403,0.6833332,11.47867,0.4417942679235409,0.1050078436306828,0.2519474733240514,10.6758,49.50431,359.6204,0.08310106,0.4171557,-0.0419456,13.3999997004867,2
3.124052,0.8833331,11.51729,0.4802710419422507,-0.1174211137287507,0.2844255371184356,14.2324,49.47599,359.4892,0.1106613,0.4157434,-0.0558578,13.4199997000396,2
3.359234,0.2833334,11.7047,0.4572428489523936,-0.107106742116536,0.2681297964709657,3.586486,51.25891,0.03800953,0.02835739,0.4323281,-0.0132368,13.4399996995926,2
3.407627,0.4833333,11.74439,0.4135210031748597,-0.0508290169480936,0.2368072018307039,7.17219,51.26255,0.07676755,0.05668254,0.4316931,-0.02645419,13.4599996991456,2
3.456007,0.6833333,11.78407,0.360230110620412,-0.0019041207486826,0.1991239979250156,10.75686,51.26869,0.1161305,0.08494413,0.4306357,-0.03964191,13.4799996986985,2
3.504373,0.8833332,11.82373,0.3084977218738745,-0.0136478897512035,0.163762547103726,14.34052,51.27744,0.1564312,0.1131147,0.4291573,-0.05278712,13.4999996982515,2
3.668093,0.2833334,11.95323,0.3283268625286508,-0.0327443676747394,0.1852398259688037,3.566923,52.07272,0.08070585,0.02827282,0.4387091,-0.01302833,13.5199996978045,2
3.716319,0.4833333,11.99259,0.3302102992124256,-0.0058775982383739,0.1930066017647593,7.132704,52.0803,0.1619463,0.05650898,0.4380713,-0.02604043,13.5399996973574,2
3.764531,0.6833334,12.03194,0.3258465798494656,0.0136364622769806,0.1962125285475942,10.69744,52.09309,0.244434,0.08468229,0.4370096,-0.03902362,13.5599996969104,2
3.945757,0.2833332,12.17548,0.3269313870669332,-0.0275181290806075,0.2039824928468032,3.646113,52.71823,0.1104266,0.02893296,0.4437435,-0.0132618,13.5799996964633,2
3.995223,0.4833331,12.21556,0.2729870761059443,-0.0760256427972725,0.1677696419589658,7.291169,52.72885,0.2217197,0.05782834,0.4430692,-0.02650638,13.5999996960163,2
4.044676,0.6833331,12.25563,0.2078584696560703,-0.0785696834323925,0.1236694532622522,10.93515,52.74677,0.3348018,0.08665686,0.4419467,-0.03972039,13.6199996955693,2
4.09411,0.883333,12.29568,0.1431657281181912,-0.0884664340339405,0.0808093048487137,14.57877,52.77234,0.4505866,0.1153948,0.4403768,-0.05289386,13.6399996951222,2
4.322064,0.2833333,12.4756,-0.0862689519948274,0.5612562643632781,-0.092355850908806,3.610296,54.13711,0.1659985,0.02870891,0.4547893,-0.01304522,13.6599996946752,2
4.371418,0.4833333,12.51485,-0.1271784629690477,0.3263521595573468,-0.1171495913368119,7.219501,54.1529,0.3332562,0.0573808,0.4541109,-0.02607378,13.6799996942282,2
4.420757,0.6833333,12.55408,-0.1758995778301475,0.1128442775946905,-0.1470760553912988,10.82759,54.17956,0.5031481,0.08598723,0.4529816,-0.0390727,13.6999996937811,2
4.625213,0.2833334,12.71544,-0.220406584696791,-0.1336286153360715,-0.1729098489957881,3.545641,55.61152,0.2428796,0.02835266,0.4661932,-0.01255725,13.7199996933341,2
4.673863,0.4833334,12.75387,-0.2261816627977371,-0.1473584994522722,-0.1699381378149951,7.090172,55.6342,0.4875535,0.05666969,0.4655208,-0.02509876,13.7399996928871,2
4.722501,0.6833333,12.7923,-0.2333009485381927,-0.1151249238159223,-0.1694436933028313,10.63353,55.67249,0.7359424,0.08492392,0.4644013,-0.03761257,13.75999969244,2
4.771126,0.8833333,12.83071,-0.230063516555278,-0.0902441910002974,-0.1624475334455546,14.17528,55.72709,0.9899852,0.113085,0.4628363,-0.0500859,13.779999691993,2
4.819737,0.9766704,12.86911,-0.2047373831992223,-0.1260322572863188,-0.1399639943115591,17.71573,55.7991,1.252015,0.1411295,0.4608277,-0.06250764,13.799999691546,2
5.021786,0.2833333,13.02935,-0.1416662909016643,-0.1691728201007059,-0.0899448023096862,3.477516,55.86199,0.2911392,0.02799731,0.4681226,-0.01196889,13.8199996910989,2
5.069141,0.4833333,13.06761,-0.0869802704848359,-0.1663500426878546,-0.0481037465840419,6.953909,55.88866,0.5843633,0.05596042,0.4674716,-0.02392303,13.8399996906519,2
5.116487,0.6833332,13.10585,-0.0295486839170102,-0.170880107050319,-0.0055993950611892,10.42866,55.93368,0.8821575,0.08386126,0.466388,-0.03584759,13.8599996902049,2
5.295029,0.2833333,13.24745,-0.1273722037458799,0.4842091729577729,-0.0857745100999913,3.418896,55.06914,0.2547817,0.02747948,0.462018,-0.01181971,13.8799996897578,2
5.341381,0.4833333,13.28526,-0.0888402246262423,0.2546717852305471,-0.0586957714928466,6.836277,55.09209,0.5114178,0.0549233,0.461398,-0.02362278,13.8999996893108,2
5.387721,0.6833333,13.32305,-0.0518030855326134,0.0465306229601203,-0.0313927748225069,10.25254,55.13077,0.7716618,0.08231008,0.4603658,-0.03540148,13.9199996888638,2
5.581434,0.2833333,13.47694,-0.0053208226710621,-0.1945756805191842,0.0048034975906237,3.368394,53.30328,0.1550947,0.02687464,0.4483351,-0.01197442,13.9399996884167,2
5.626935,0.4833334,13.51423,-0.1623955956862541,0.4373751954480454,-0.120051712998686,6.735367,53.31704,0.3112743,0.05371517,0.447753,-0.02393297,13.9599996879697,2
5.672422,0.6833333,13.5515,-0.1307524641230681,0.1846995915054494,-0.0989702441267113,10.10134,53.34022,0.4695864,0.08050162,0.446784,-0.03586749,13.9799996875226,2
5.717896,0.8833333,13.58877,-0.1055361825451726,-0.0465800388372562,-0.0830130310528005,13.46628,53.37325,0.6312115,0.1072109,0.4454291,-0.04776758,13.9999996870756,2
5.958099,0.2833333,13.77904,-0.0758061930167466,-0.310824822672419,-0.0636849776253729,3.311568,51.09622,0.01185577,0.02611423,0.4310861,-0.01236815,14.0199996866286,2
6.002928,0.4833333,13.81548,-0.0089629367012005,-0.3423265006440438,-0.0168692818260467,6.62215,51.09725,0.02377808,0.05219883,0.4305462,-0.02472236,14.0399996861815,2
6.047747,0.6833333,13.85191,0.0506769532170077,-0.3278648219232085,0.0239768127801145,9.93135,51.09898,0.03573833,0.07822859,0.4296474,-0.03705171,14.0599996857345,2
6.092552,0.8833332,13.88833,0.1140867865262,-0.3207559695578792,0.067438246700556,13.23962,51.10143,0.04796213,0.1041859,0.4283907,-0.04934654,14.0799996852875,2
6.262858,0.2833332,14.02262,0.0325487300844216,0.3459724549904673,-0.0029959908551919,3.255786,49.29151,359.9114,0.02549797,0.4168583,-0.01254913,14.0999996848404,2
6.306922,0.4833333,14.05849,0.1664809299599809,0.128074332896926,0.0922678272990502,6.510584,49.28392,359.8222,0.05096764,0.4163533,-0.0250844,14.1199996843934,2
6.350974,0.6833333,14.09436,0.2911771710108253,-0.0684275488427101,0.1796409971765609,9.764406,49.27113,359.7319,0.07638872,0.4155125,-0.03759566,14.1399996839464,2
6.395014,0.8833333,14.13021,0.4178100462218008,-0.2978945563714135,0.2679919311640599,13.01691,49.25294,359.6398,0.1017382,0.414337,-0.05007147,14.1599996834993,2
6.611541,0.2833332,14.30174,0.3432263671768361,0.3456955247699045,0.1982513847277509,3.201993,46.0965,359.7767,0.02494625,0.3914027,-0.01273045,14.1799996830523,2
6.654487,0.4833332,14.33768,0.3890458011913464,0.1046590352248804,0.2209051428927804,6.402988,46.07768,359.5521,0.04986556,0.3909422,-0.02544708,14.1999996826053,2
6.69742,0.6833332,14.3736,0.4296260059872976,-0.1149813585814115,0.2400498225353029,9.602939,46.04602,359.3248,0.07473848,0.3901755,-0.03813988,14.2199996821582,2
6.894548,0.2833333,14.52911,0.2896642270812108,0.3527011847987926,0.1178463664067717,3.530914,47.5203,359.7949,0.02747599,0.4027674,-0.01405029,14.2399996817112,2
6.942462,0.4833334,14.56811,0.1456284653163866,0.8161672172204744,-0.0062879723795088,7.060833,47.50122,359.5883,0.05491835,0.402192,-0.02808358,14.2599996812642,2
6.990354,0.6833334,14.6071,0.1660094566098013,0.3704392702506807,-0.0058064648273514,10.59095,47.46896,359.3781,0.08230948,0.4012335,-0.04209394,14.2799996808171,2
7.038225,0.8833333,14.64607,0.1843244284620944,-0.0795051471679628,-0.0076224219794323,14.12134,47.4229,359.163,0.1096255,0.3998927,-0.0560659,14.2999996803701,2
7.282946,0.2833334,14.83754,0.2115024845901629,-0.4610261144518328,-0.0025759970234542,3.563881,49.84606,359.8774,0.02774925,0.4212265,-0.01407355,14.3199996799231,2
7.331863,0.4833335,14.876,0.2133532643795348,-0.5106831767252198,-0.0733203470131282,7.126946,49.8345,359.7534,0.05546361,0.4206147,-0.02813422,14.339999679476,2
7.380767,0.6833334,14.91445,0.21106076537699,-0.5148648640009996,-0.1466802802462261,10.68898,49.81499,359.6274,0.08311655,0.419596,-0.04216366,14.359999679029,2
7.429657,0.8833332,14.95289,0.2154355913595882,-0.526887012512073,-0.213353721756393,14.24996,49.78714,359.4986,0.1106814,0.4181719,-0.05614831,14.379999678582,2
7.602322,0.2833332,15.08874,0.0797979847929983,0.1202223104624068,-0.3881772999540356,3.59264,51.26924,0.01721314,0.02832611,0.4324137,-0.01342612,14.3999996781349,2
7.651033,0.4833333,15.1282,0.1413763557639811,-0.1177829338414133,-0.5252694459561482,7.184486,51.2709,0.03496699,0.05661967,0.4317764,-0.02683289,14.4199996776879,2
7.699731,0.6833333,15.16765,0.2051889310117474,-0.3348800656694747,-0.6537427975609482,10.77531,51.27372,0.05301757,0.08484964,0.4307152,-0.04020936,14.4399996772408,2
7.748415,0.8833333,15.2071,0.1052278682121379,0.1348577825612615,-0.9031788593587536,14.36511,51.27774,0.0714846,0.1129882,0.4292316,-0.05354265,14.4599996767938,2
7.968514,0.2833334,15.37922,0.009946562946876,0.5998911749893548,-1.1399752586150989,3.569881,52.46408,0.09126163,0.028292,0.4417706,-0.01305363,14.4799996763468,2
8.016935,0.4833333,15.41843,0.038511046505155,0.1552430684898552,-1.4004844608446678,7.13861,52.47266,0.1831874,0.0565474,0.4411273,-0.02609055,14.4999996758997,2
8.065343,0.6833333,15.45763,0.0814271156903849,-0.2941093881386664,-1.633862793309767,10.70629,52.48714,0.2765208,0.08473973,0.4400563,-0.0390985,14.5199996754527,2
8.263807,0.2833333,15.61254,-0.084348324819663,0.1568111806694165,-2.013935188015182,3.646866,53.16188,0.1144514,0.02890298,0.4472064,-0.01334526,14.5399996750057,2
8.313552,0.4833333,15.6523,-0.1153288130962639,-0.0372866747572274,-2.438591282673661,7.292664,53.17288,0.229789,0.05776828,0.4465265,-0.02667324,14.5599996745586,2
8.363283,0.6833333,15.69205,-0.141018393137335,-0.2104763258861865,-2.827706429458054,10.93741,53.19145,0.3469842,0.08656694,0.4453946,-0.03997051,14.5799996741116,2
8.412995,0.8833332,15.73178,-0.1509149079116376,-0.4171191260541508,-3.17180109490047,14.58177,53.21796,0.4669141,0.1152747,0.4438117,-0.05322742,14.5999996736646,2
8.65918,0.2833332,15.92259,-0.2851538383169512,0.2488075116256027,-3.579030268137256,3.610427,54.67722,0.1688963,0.02865973,0.4589786,-0.01315846,14.6199996732175,2
8.708874,0.4833333,15.96141,-0.2302247729317557,0.029619714358653,-4.064184509804997,7.219734,54.69328,0.339076,0.05728228,0.4582939,-0.02629999,14.6399996727705,2
8.758554,0.6833333,16.00022,-0.1653304622321947,-0.1686597580398878,-4.483200647464663,10.82794,54.72041,0.5119381,0.08583961,0.4571539,-0.03941167,14.6599996723235,2
8.808221,0.8833332,16.03902,-0.0794059147644929,-0.4003923922837197,-4.827239575082212,14.43483,54.75906,0.6886099,0.1143008,0.4555601,-0.05248243,14.6799996718764,2
8.971053,0.2833333,16.16416,-0.168414772879597,0.2404446119519442,-5.250579924284349,3.545183,56.27292,0.2458626,0.02828846,0.4712878,-0.01269585,14.6999996714294,2
9.020109,0.4833333,16.20207,-0.1398544526703133,-0.0038329372389973,-5.751657333477395,7.089238,56.29588,0.4935487,0.05654126,0.4706082,-0.02537568,14.7199996709824,2
9.069152,0.6833335,16.23997,-0.0862985693590925,-0.2272022528607494,-6.163479746041872,10.6321,56.33463,0.7449853,0.08473124,0.4694766,-0.03802747,14.7399996705353,2
9.118182,0.8833335,16.27785,-0.1824675095040913,0.2362631869000655,-6.621886208772079,14.17336,56.38987,1.002089,0.1128282,0.4678947,-0.05063883,14.7599996700883,2
9.315513,0.2833333,16.42658,-0.2601418605217791,0.6950241729490627,-6.996066972514461,3.470219,60.41103,0.3617698,0.02775514,0.5027874,-0.01250611,14.7799996696413,2
9.365053,0.4833333,16.46194,-0.1802814037121134,0.2441034353942389,-7.482702805367253,6.939275,60.4441,0.7260625,0.05547621,0.5020884,-0.02499725,14.7999996691942,2
9.414578,0.6833333,16.4973,-0.0811925490120213,-0.2115215311961755,-7.858742841120311,10.40673,60.49968,1.09453,0.08313065,0.5009244,-0.03746863,14.8199996687472,2
9.594419,0.2833333,16.58371,-0.1891037701042943,0.2331263147346532,-8.301344860157277,3.405316,64.61709,0.3628032,0.02680388,0.5341603,-0.01320596,14.8399996683002,2
9.645396,0.4833333,16.61487,-0.1699675208295765,0.0327557353853501,-8.802673690673537,6.809318,64.64945,0.7260642,0.05356533,0.5334446,-0.02641017,14.8599996678531,2
9.69636,0.6833333,16.64602,-0.1469578385822849,-0.1467065355607654,-9.18599556223784,10.21208,64.70397,1.094376,0.08027121,0.5322532,-0.03958735,14.8799996674061,2
9.747308,0.8833333,16.67716,-0.1101414484558755,-0.3596217324377768,-9.446931544758606,13.61342,64.78165,1.47056,0.1068978,0.5305878,-0.05272534,14.899999666959,2
9.972408,0.2833333,16.73302,-0.1981356568794812,0.3000327183120516,-9.698402089435085,3.335909,71.9361,0.3245178,0.02522025,0.587016,-0.01480452,14.919999666512,2
