pX,pY,pZ,aX,aY,aZ,reX,reY,reZ,rtX,rtY,rtZ,t,ID
-42.00041,0.23,-35.99972,4.228918539857837,0.2819700121092064,5.083643649057088,0.0156865,0.009936067,0.02319509,0.0001369081,8.668083e-05,0.0002024035,0.339999992400408,1
-42.00082,0.43,-35.99944,4.599454138712709,-0.0085027707049407,5.349336015989351,0.03140735,0.009945675,0.04642619,0.000274116,8.668132e-05,0.0004051211,0.359999991953373,1
-42.00122,0.63,-35.99917,4.916675009644578,-0.0660928995518388,5.562105518565382,0.04724756,0.009961801,0.06983411,0.0004123655,8.668182e-05,0.0006093815,0.379999991506338,1
-42.00095,0.08333334,-35.99935,5.2914706579474,-0.3430102840557179,5.784730963518442,5.912661e-10,3.925794,-8.637785e-09,2.57484e-12,0.03425232,-7.55114e-11,0.386657299552965,1
-42.00152,0.2833333,-35.9989,5.6010569540043065,-0.3854420473677227,5.946345870729424,0.02345954,3.931866,0.0341143,0.0002148153,0.03430521,0.0002905052,0.399999991059303,1
-42.00209,0.4833333,-35.99845,5.846457842952013,-0.2187220852812915,6.04840614041062,0.04693172,3.931886,0.06819148,0.0004297299,0.0343052,0.0005806826,0.419999990612268,1
-41.99109,0.2833333,-35.97299,6.116896357980686,-0.5074531574198774,6.1328555311974,0.7554144,8.57634,0.4391401,0.006860223,0.07474547,0.003328487,0.439999990165234,1
-41.99676,0.4833333,-35.95866,6.316186611092128,-0.5577259904660162,6.154578812672504,1.51071,8.585029,0.8784443,0.01371941,0.07473896,0.006656928,0.459999989718199,1
-42.00243,0.6833334,-35.94434,6.555973024931994,-0.8217504961347621,6.181635536668388,2.267995,8.599553,1.319057,0.02059653,0.07472803,0.009992335,0.479999989271164,1
-41.9616,0.2833333,-35.90748,6.715706993991248,-0.8457135862300194,6.142611471309252,1.378821,13.92992,0.1173833,0.0120676,0.1212412,-0.0004423208,0.499999988824129,1
-41.95771,0.4833332,-35.88348,6.798436788376272,-0.6549496111247385,6.041001329429527,2.757669,13.93415,0.2346381,0.02413345,0.1212147,-0.000886902,0.519999988377094,1
-41.89467,0.2833333,-35.81279,6.894742271382242,-0.9140606655610308,5.922562241167128,2.471536,19.64605,0.03972919,0.0213095,0.1705584,-0.00333783,0.539999987930059,1
-41.8807,0.4833335,-35.77166,6.911662055260926,-0.9291382765706048,5.741447589210651,4.944487,19.64855,0.07840338,0.04261947,0.1704391,-0.006686524,0.559999987483025,1
-41.86674,0.6833333,-35.73056,6.962364545255426,-1.1523917838545097,5.567946516793327,7.419806,19.65274,0.1172053,0.06392969,0.1702401,-0.01003702,0.57999998703599,1
-41.78307,0.2833331,-35.65379,6.929519807941084,-1.1300087667115155,5.331469046269504,3.706312,25.5951,0.09466061,0.03171759,0.2213648,-0.006357965,0.599999986588955,1
-41.75645,0.4833332,-35.59443,6.9513339094888025,-1.314198898328752,5.1252498532221615,7.415987,25.60424,0.1889641,0.06342842,0.2210164,-0.01272553,0.61999998614192,1
-41.63699,0.2833333,-35.47458,6.883705842296635,-1.2511489853592117,4.855957099836257,4.7744,31.32828,0.1991001,0.04057416,0.2696934,-0.009574556,0.639999985694885,1
-41.59642,0.4833338,-35.40127,6.732754431253291,-0.9661931791121828,4.530147786270511,9.551746,31.3533,0.3995551,0.08109957,0.2689888,-0.01915149,0.65999998524785,1
-41.55587,0.6833341,-35.32799,6.614293276109095,-1.1239335070750107,4.2230388004409605,14.3307,31.39596,0.6055747,0.1214978,0.2678152,-0.02870038,0.679999984800816,1
-41.44863,0.2833333,-35.25743,6.412386098143514,-1.0304616537008608,3.863554301271265,3.620363,36.62892,0.1949402,0.03052256,0.3140238,-0.008311871,0.699999984353781,1
-41.41364,0.4833332,-35.20475,6.134434929286982,-0.711111300822407,3.45931232872012,7.23915,36.64746,0.3907813,0.06100006,0.3135524,-0.01661669,0.719999983906746,1
-41.26363,0.2833333,-35.08491,5.872508297966782,-0.8304855533100509,3.068324702900636,3.659049,41.1655,0.2102602,0.03053251,0.3513252,-0.009506948,0.739999983459711,1
-41.22432,0.4833331,-35.03445,5.54002995104031,-0.6946752301909624,2.641099815848566,7.317026,41.18578,0.4221274,0.0610251,0.3507863,-0.01900201,0.759999983012676,1
-41.18502,0.683333,-34.98401,5.253131920420103,-0.7558900030841578,2.2560879155875924,10.97402,41.22,0.6372125,0.09144722,0.349889,-0.02847725,0.779999982565641,1
-41.04438,0.2833333,-34.88691,4.899425294083066,-0.5603167837935364,1.8434387572304625,3.638145,44.69923,0.1951321,0.03000607,0.380015,-0.01049653,0.799999982118607,1
-41.00211,0.483333,-34.83943,4.488524271845442,-0.1332896025349609,1.4124232363633062,7.275234,44.71794,0.3917214,0.05997324,0.379439,-0.0209801,0.819999981671572,1
-40.91753,0.2833337,-34.78504,4.115144432246204,-0.139411232783578,1.025742503111939,3.597061,47.02518,0.244386,0.02962963,0.3986918,-0.01056645,0.839999981224537,1
-40.87448,0.4833337,-34.73918,3.694224827829707,-0.1248685596853116,0.6329682961868635,7.193045,47.04834,0.4904965,0.05922113,0.3980999,-0.02112063,0.859999980777502,1
-40.72766,0.2833337,-34.63494,3.3478602791073016,-0.5695748840031425,0.3161819328751214,3.549034,50.67553,0.3696896,0.02936712,0.427656,-0.01033764,0.879999980330467,1
-40.68379,0.4833337,-34.59077,2.963503895044276,-0.1521079156773467,0.006639291435345,7.096937,50.7101,0.742048,0.05869734,0.4270341,-0.02066305,0.899999979883432,1
-40.63993,0.6833336,-34.54662,2.690729888489386,-0.1474036010922962,-0.1962090525466706,10.64349,50.7684,1.119959,0.08796159,0.4259989,-0.0309664,0.919999979436398,1
-40.51365,0.2833333,-34.46477,2.392122994352974,-0.1285863292488707,-0.3805251273075782,3.500288,53.17831,0.4104894,0.0289134,0.4472804,-0.01046792,0.939999978989363,1
-40.46901,0.4833333,-34.42249,2.0661449253314927,0.3312205668041867,-0.5651139671977141,6.999364,53.21615,0.8238713,0.05779069,0.4466459,-0.0209234,0.959999978542328,1
-40.32168,0.2833333,-34.31888,1.8511222050677176,0.1136013860404411,-0.6598191700335363,3.455547,54.65854,0.4632233,0.02864023,0.4587827,-0.01025266,0.979999978095293,1
-40.27713,0.4833335,-34.27748,1.6414147981570864,-0.1155179078890354,-0.7327012459408593,6.90983,54.70068,0.92955,0.05724478,0.4581459,-0.02049388,0.999999977648258,1
-40.2326,0.6833332,-34.23607,1.5292035885645276,-0.117085660360125,-0.7124093759273471,10.36259,54.77134,1.39985,0.08577676,0.4570845,-0.03073395,1.01999997720122,1
-40.10629,0.2833333,-34.15525,1.417561004099518,-0.104540596529078,-0.6755127217648855,3.421426,55.61426,0.3626356,0.02788126,0.4662029,-0.01112842,1.03999997675419,1
-40.06059,0.483333,-34.11633,1.2493800365020815,0.3489935385763499,-0.6688012708565232,6.841601,55.64682,0.7265272,0.05572337,0.4655725,-0.02225258,1.05999997630715,1
-39.91264,0.2833332,-34.01591,1.1949550212128417,0.1251011762613201,-0.5828416707610842,3.389359,55.47036,0.2496012,0.02718886,0.465124,-0.01183593,1.07999997586012,1
-39.86638,0.483333,-33.97881,1.1485218064173566,-0.1102902689669919,-0.4891216980115622,6.777439,55.49256,0.500053,0.05434079,0.4645104,-0.02366348,1.09999997541308,1
-39.69529,0.283333,-33.85961,1.172379651442192,-0.1181304881896591,-0.3356073401639428,3.354705,54.97022,0.1794734,0.02668982,0.4612791,-0.01212032,1.11999997496605,1
-39.64915,0.4833333,-33.82346,1.1898009189331589,-0.1118578597478624,-0.1983931598619399,6.708051,54.98604,0.3597961,0.05334491,0.4606846,-0.02422787,1.13999997451901,1
-39.60303,0.6833333,-33.78731,1.10182294399862,0.3354038446726632,-0.1454680740076099,10.06041,55.01271,0.5425764,0.07994694,0.4596949,-0.03631128,1.15999997407198,1
-39.45437,0.2833338,-33.687,1.0028850379218568,0.7455529837767838,-0.1248445125365727,3.314629,54.30043,0.08283811,0.02606452,0.4561153,-0.01255465,1.17999997362494,1
-39.40825,0.4833338,-33.65209,1.0469260912081424,0.2136120203957806,-0.0418442355028041,6.628347,54.30766,0.1662264,0.05210018,0.4555427,-0.02509525,1.19999997317791,1
-39.36213,0.6833339,-33.61718,1.0051085310926524,0.364847961797015,0.0052694895228526,9.940783,54.31977,0.2502288,0.07808042,0.4545892,-0.03761376,1.21999997273088,1
-39.2369,0.2833335,-33.53522,1.0903300797991875,0.0797996544043889,0.1222760947774084,3.280272,53.54438,359.9829,0.02548647,0.4502635,-0.01302586,1.23999997228384,1
-39.19069,0.4833333,-33.50147,1.0370479425610384,0.2644891803453911,0.141742778402925,6.559632,53.5429,359.9656,0.05094477,0.4497102,-0.02603786,1.25999997183681,1
-39.04365,0.2833333,-33.40223,0.9742642223966058,0.4397701158836126,0.142838978856858,3.241852,52.49933,359.9296,0.02509801,0.442122,-0.01306159,1.27999997138977,1
-38.99804,0.4833335,-33.36877,1.0090472212275543,-0.0869427695027694,0.1930412397322634,6.482727,52.49332,359.8587,0.05016832,0.4415911,-0.02610899,1.29999997094274,1
-38.95243,0.6833335,-33.33533,0.9229725649497382,0.0695202172013476,0.1707590990094836,9.722651,52.48321,359.787,0.07519135,0.4407072,-0.03913151,1.3199999704957,1
-38.8273,0.2833333,-33.25201,0.9550013329155788,-0.2103008908645231,0.215850886087189,3.208179,50.61325,359.8379,0.02470203,0.4273303,-0.01324446,1.33999997004867,1
-38.78225,0.4833333,-33.21868,0.92636076783608,-0.020384931970078,0.2336485102164758,6.415387,50.59957,359.6748,0.04937739,0.4268267,-0.02647459,1.35999996960163,1
-38.63297,0.2833333,-33.11787,0.8924569682901193,0.1601222934745289,0.2392184769550773,3.316122,50.32033,359.81,0.02548474,0.4250149,-0.01380153,1.3799999691546,1
-38.5863,0.483333,-33.08347,0.835640174809356,0.1188283479717986,0.2318070537500851,6.631313,50.30375,359.6188,0.05094125,0.4244795,-0.02758767,1.39999996870756,1
-38.41128,0.2833333,-32.96518,0.768284036417775,0.0958289225993262,0.2098946138830548,3.531345,51.50742,359.8004,0.02699481,0.434345,-0.01495603,1.41999996826053,1
-38.36082,0.4833332,-32.92953,0.825345203409924,-0.3890680338610577,0.2621833058473761,7.061734,51.48886,359.5993,0.05395698,0.4337245,-0.02989388,1.43999996781349,1
-38.31039,0.6833336,-32.89389,0.7795550382872349,-0.1907882953183232,0.2570080688440335,10.59247,51.45743,359.3946,0.08086914,0.4326907,-0.04480907,1.45999996736646,1
-38.15945,0.2833338,-32.79374,0.7294185076227251,-0.0019172667036835,0.2430375807938922,3.560876,53.0069,359.8406,0.0271838,0.4460746,-0.01510916,1.47999996691942,1
-38.10815,0.4833334,-32.75858,0.659222876394729,-0.0348479159735494,0.2167035580701153,7.12103,52.99192,359.6796,0.05433459,0.4454272,-0.03020361,1.49999996647239,1
-37.93154,0.2833337,-32.64063,0.5809182715338466,-0.0494841913835699,0.1791689244777572,3.576656,54.19867,359.899,0.02737967,0.455337,-0.01500053,1.51999996602535,1
-37.87989,0.4833334,-32.60556,0.5060528768999291,-0.0991413571526374,0.1368627567276661,7.152496,54.18914,359.7971,0.05472625,0.4546713,-0.02998351,1.53999996557832,1
-37.82825,0.6833334,-32.57049,0.507572730124167,-0.157161768626371,0.1539313722726056,10.72725,54.17305,359.6936,0.08201118,0.4535628,-0.04493324,1.55999996513128,1
-37.67783,0.2833334,-32.4688,0.5032131749813757,-0.1968873142873061,0.163345192953205,3.599921,55.31359,0.03985254,0.02798262,0.4639355,-0.01427185,1.57999996468425,1
-37.62658,0.4833336,-32.43247,0.3821080014170164,0.2085581269370837,0.098326732738851,7.198994,55.31742,0.08056241,0.05593327,0.4632489,-0.02852205,1.59999996423721,1
-37.45116,0.2833335,-32.31374,0.3531389159598532,-0.0592409997963407,0.0916762292864987,3.550023,56.0041,0.08740367,0.02770657,0.4692569,-0.01386966,1.61999996379018,1
-37.40067,0.4833334,-32.27784,0.1770824498319356,0.1458342648232959,-0.013776050319155,7.09867,56.01228,0.1755154,0.05537614,0.4685813,-0.02772015,1.63999996334314,1
-37.35018,0.6833334,-32.24195,0.114304758203751,-0.0822395577391126,-0.0466811601134722,10.64628,56.02608,0.2649728,0.08298468,0.4674563,-0.04154009,1.65999996289611,1
-37.29971,0.8833335,-32.20608,0.0459699496794669,-0.3176314120715592,-0.0856423527182776,14.19283,56.04578,0.3564851,0.1105055,0.4658838,-0.05531636,1.67999996244907,1
-37.11469,0.2833333,-32.08354,-0.1391581305802773,0.1055850876487974,-0.2003467802077807,3.622972,57.02861,0.106808,0.02822135,0.4771135,-0.01427185,1.69999996200204,1
-37.06266,0.4833333,-32.04757,-0.2296355958769993,-0.1444425989265603,-0.2553788481873447,7.244896,57.0388,0.2144317,0.05640636,0.4763977,-0.02852546,1.719999961555,1
-36.894,0.2833337,-31.93501,-0.3159663865387969,-0.4017883265935393,-0.3098220449145543,3.641967,57.37547,0.1069696,0.02832404,0.4797671,-0.01443551,1.73999996110797,1
-36.84148,0.4833337,-31.89917,-0.4812765163962211,-0.0005246568005083,-0.412631377646246,7.282912,57.38574,0.2147823,0.05661162,0.4790398,-0.02885241,1.75999996066093,1
-36.78897,0.6833336,-31.86335,-0.478099442954452,-0.2725058198898403,-0.403906003606945,10.92278,57.40308,0.3243238,0.08483385,0.4778289,-0.04323608,1.7799999602139,1
-36.6464,0.2833331,-31.76908,-0.5869574622144746,-0.0716125123491159,-0.4677740239645693,3.613392,58.14069,0.1270968,0.02809446,0.4856107,-0.01434978,1.79999995976686,1
-36.59402,0.4833332,-31.73393,-0.5551858304848736,-0.3038681080852349,-0.4380969601056605,7.225645,58.15281,0.2551855,0.05615233,0.4848858,-0.02868073,1.81999995931983,1
-36.42607,0.2833335,-31.62247,-0.5200093651237374,-0.5434414593415605,-0.406122483813057,3.568712,59.59884,0.206748,0.02791667,0.4966746,-0.01390952,1.8399999588728,1
-36.3742,0.4833334,-31.58785,-0.5643162751156403,-0.1244054861424066,-0.4237618762899551,7.136353,59.61828,0.4150786,0.05579829,0.4959499,-0.0278013,1.85999995842576,1
-36.32234,0.6833334,-31.55325,-0.4756232391204165,-0.3786140308955803,-0.3556945971286396,10.70283,59.6511,0.6265988,0.08361724,0.4947432,-0.0416621,1.87999995797873,1
-36.18073,0.2833336,-31.45924,-0.4896455969750306,-0.1599483877152286,-0.3552567354818485,3.518517,60.3251,0.2522975,0.02764902,0.5021585,-0.01352263,1.89999995753169,1
-36.12958,0.4833335,-31.42502,-0.4855183582711007,0.0524451386648467,-0.3443879990177194,7.035972,60.34849,0.5064477,0.05526409,0.5014449,-0.02702857,1.91999995708466,1
-35.96242,0.2833333,-31.31342,-0.5249591766886255,0.0461730077515237,-0.3655485358014729,3.479956,60.39386,0.2803577,0.0274733,0.502676,-0.01315847,1.93999995663762,1
-35.91206,0.4833336,-31.27917,-0.5544543913202631,0.0613323651374384,-0.3814526507131006,6.958751,60.41956,0.5627235,0.05491268,0.5019764,-0.02630056,1.95999995619059,1
-35.86171,0.6833336,-31.24493,-0.4581151415419597,-0.3822703573739215,-0.3162342643744438,10.43583,60.46294,0.8494191,0.08228999,0.5008119,-0.03941069,1.97999995574355,1
-35.72127,0.2833333,-31.15105,-0.4638577317565726,-0.1395610803975259,-0.3180574784206733,3.431103,60.21619,0.2906426,0.02717005,0.5013408,-0.01282446,1.99999995529652,1
-35.67184,0.4833332,-31.11691,-0.4549516845773063,0.0968763743231175,-0.310581161333566,6.86077,60.24247,0.583482,0.05430584,0.5006621,-0.02563071,2.01999995484948,1
-35.62243,0.6833332,-31.08278,-0.4025562474474462,0.1146481173889932,-0.2731097663896342,10.28927,60.28677,0.8804762,0.08138483,0.4995322,-0.03841026,2.03999995440245,1
-35.42352,0.2833333,-30.95022,-0.3530361955950454,0.1538508920837781,-0.2361979014986737,3.391148,58.71668,0.1910529,0.02660593,0.4900118,-0.01305411,2.05999995395541,1
-35.37469,0.4833331,-30.91665,-0.2958318770026267,0.1611685537783547,-0.1928773454097054,6.78097,58.73373,0.3833011,0.05317807,0.4893664,-0.02609238,2.07999995350838,1
-35.32587,0.6833334,-30.88309,-0.243267806381759,0.1632595187274693,-0.1531545535353444,10.16968,58.76248,0.5782408,0.07969556,0.4882917,-0.03910362,2.09999995306134,1
-35.1936,0.2833332,-30.79493,-0.1875043602195418,0.1867810575897487,-0.1114357063447712,3.342505,57.50995,0.1333385,0.02612778,0.4808302,-0.01301044,2.11999995261431,1
-35.14566,0.4833333,-30.76164,-0.1412466873391586,0.2317338352465316,-0.0777754962520731,6.683597,57.52169,0.2675954,0.05222267,0.4802159,-0.0260039,2.13999995216727,1
-34.98923,0.2833331,-30.65734,-0.1003337212818387,0.2981173042509696,-0.0491456117873987,3.305675,56.24072,0.0431297,0.02561607,0.4711196,-0.01326284,2.15999995172024,1
-34.9417,0.4833329,-30.62466,-0.0541920715886803,0.3326158668980901,-0.0187407415665035,6.610367,56.24447,0.08651776,0.05120318,0.4705317,-0.02651085,2.1799999512732,1
-34.89419,0.6833329,-30.592,0.1045608403162603,-0.3584009617782363,0.0834029170579953,9.913805,56.25079,0.1303628,0.07673757,0.4695527,-0.03973264,2.19999995082617,1
-34.76173,0.2833333,-30.50457,0.1174266426603658,-0.1507127438205133,0.0896971706084741,3.266273,55.03052,359.9496,0.02507319,0.4618082,-0.01355595,2.21999995037913,1
-34.71453,0.4833333,-30.47264,0.1364199555152083,0.0496579594971007,0.0991107038010739,6.531591,55.02619,359.899,0.05011873,0.4612454,-0.02709689,2.2399999499321,1
-34.66734,0.6833334,-30.44071,0.1903688471182647,0.0303176584710289,0.1303872637720111,9.79567,55.01887,359.8475,0.07511317,0.4603085,-0.04061253,2.25999994948506,1
-34.478,0.283333,-30.31411,0.2346684740807632,0.0313626028638802,0.1542714705751002,3.225146,52.56768,359.8516,0.02465825,0.4426753,-0.01362205,2.27999994903803,1
-34.43176,0.4833332,-30.28196,0.279571573201359,-0.0005226998784068,0.1775912426058283,6.449253,52.5551,359.7023,0.04928926,0.4421484,-0.02722883,2.29999994859099,1
-34.26131,0.2833331,-30.167,0.313755638699714,-0.0386794733570304,0.1935451277883082,3.198139,50.97105,359.7898,0.02440092,0.430161,-0.01366262,2.31999994814396,1
-34.21566,0.4833332,-30.13471,0.3457402554783009,-0.0564505504961596,0.2076754417426514,6.395238,50.95336,359.5783,0.04877515,0.4296564,-0.02731032,2.33999994769692,1
-34.17003,0.6833334,-30.10242,0.3617650108084831,-0.053837394958182,0.211639857697687,9.591289,50.92359,359.3643,0.07310414,0.4288163,-0.04093216,2.35999994724989,1
-34.01686,0.2833335,-30.00055,0.3663770762442482,-0.0308387149636867,0.2085809156882945,3.54016,51.93205,359.7889,0.02696464,0.4376796,-0.01517934,2.37999994680285,1
-33.9659,0.4833335,-29.96533,0.3699787868849071,-0.0407704555554254,0.2055547385990834,7.079362,51.91236,359.5763,0.05389643,0.4370509,-0.03034047,2.39999994635582,1
-33.91496,0.6833335,-29.93012,0.4514639063317496,-0.0569747740607657,0.2557180927651394,10.61853,51.87909,359.3601,0.08077608,0.4360038,-0.04547497,2.41999994590878,1
-33.78816,0.2833333,-29.84708,0.5187296863737103,-0.0527934815147201,0.2980479826310791,3.578798,53.23349,359.8225,0.027223,0.4478446,-0.01537384,2.43999994546175,1
-33.73628,0.4833337,-29.81219,0.4435289936148194,0.3986495671996919,0.2470057166680703,7.156749,53.21672,359.6433,0.05441183,0.4471878,-0.03073191,2.45999994501472,1
-33.58571,0.2833333,-29.71268,0.4665503008313933,0.1789391214539005,0.2615371025170212,3.577388,54.37494,359.8723,0.02725597,0.4567114,-0.01525241,2.47999994456768,1
-33.53368,0.4833333,-29.67814,0.4793048540314544,-0.0459987909824836,0.2704178420406258,7.153717,54.36289,359.7434,0.05447675,0.4560432,-0.03048683,2.49999994412065,1
-33.48166,0.6833335,-29.64361,0.5178790790769625,-0.0371127171625343,0.297204701922567,10.72896,54.34255,359.6126,0.08163653,0.4549305,-0.04568695,2.51999994367361,1
-33.27141,0.2833333,-29.50311,0.5406643847813264,-0.0078411437145767,0.3137623990216163,3.596705,55.77522,0.01674977,0.02780586,0.4675042,-0.01454945,2.53999994322658,1
-33.21968,0.4833331,-29.46756,0.5591896497493138,-0.0114999063488034,0.3276117413710331,7.19255,55.77685,0.03410513,0.05557962,0.4668137,-0.02907745,2.55999994277954,1
-33.16798,0.683333,-29.43203,0.5125495568470022,-0.0214313726944138,0.2988952271891669,10.78735,55.77961,0.05172078,0.08329059,0.4656639,-0.04357272,2.57999994233251,1
-33.02663,0.2833333,-29.33749,0.4509146213053263,-0.0109770977478591,0.2609208327868728,3.548879,56.37952,0.07904339,0.02761774,0.4721478,-0.01401991,2.59999994188547,1
-32.97583,0.4833332,-29.30206,0.3857183366955681,-0.0334533968887067,0.2211276934701658,7.0964,56.38694,0.1588957,0.05519941,0.4714685,-0.02801929,2.61999994143844,1
-32.80729,0.2833334,-29.18973,0.3964656225475593,-0.0622023981728212,0.2320340385916282,3.613415,57.06435,0.0864624,0.0280589,0.4773937,-0.01439674,2.6399999409914,1
-32.75517,0.4833331,-29.15418,0.3953919071398495,-0.0705659772764508,0.2347707152652169,7.225853,57.07259,0.1736044,0.05608243,0.4766815,-0.02877524,2.65999994054437,1
-32.70308,0.6833332,-29.11864,0.2642436103753347,0.3683324388389123,0.1519086764003177,10.83774,57.08646,0.2618632,0.08404493,0.4754954,-0.04312507,2.67999994009733,1
-32.56034,0.2833331,-29.02394,0.2297143763304987,0.1360777483415202,0.1320757940456367,3.656004,57.46798,0.1061796,0.02841642,0.480473,-0.01452327,2.6999999396503,1
-32.50755,0.483333,-28.98806,0.1918857470558208,-0.1014039906821031,0.1099073940294523,7.310914,57.47821,0.213214,0.05679557,0.479739,-0.02902735,2.71999993920326,1
-32.45478,0.6833333,-28.9522,0.0608047399069278,0.3218134932926221,0.0275540956709612,10.9647,57.4955,0.3219742,0.08510837,0.4785171,-0.04349761,2.73999993875623,1
-32.25328,0.2833333,-28.81881,0.0989596419257061,0.0738767057183749,0.0583746822510704,3.621399,58.32983,0.1318877,0.02815209,0.4870496,-0.01439368,2.75999993830919,1
-32.20072,0.4833331,-28.78368,0.137879941540465,-0.1792875658828673,0.0911774898762587,7.241746,58.34242,0.2647724,0.05626791,0.4863192,-0.02876906,2.77999993786216,1
-32.14817,0.6833332,-28.74857,0.0194624932839388,0.2282483709882569,0.0205118419043657,10.86097,58.36367,0.3997798,0.08431913,0.4851033,-0.04311132,2.79999993741512,1
-32.01453,0.2833336,-28.66048,0.0020548074229225,-0.0353692204024385,0.0158410417990921,3.565441,59.76539,0.1995607,0.02784045,0.4979371,-0.01399022,2.81999993696809,1
-31.96255,0.4833339,-28.62615,-0.1552398782307875,0.1759785520882726,-0.0814680095428599,7.129786,59.78414,0.4006119,0.05564564,0.497212,-0.02796277,2.83999993652105,1
-31.80311,0.2833331,-28.52034,-0.3075880453641773,0.383144451045825,-0.1758324432699147,3.530517,60.45093,0.2562379,0.0277419,0.5031043,-0.01357599,2.85999993607402,1
-31.75174,0.483333,-28.48608,-0.2864312110775309,-0.1064563687305668,-0.1587702308667644,7.059886,60.47477,0.514336,0.05544878,0.5023845,-0.02713502,2.87999993562698,1
-31.70038,0.683333,-28.45182,-0.3805688864670102,0.0923460782278992,-0.2182257721544083,10.58806,60.51498,0.7763276,0.0830946,0.501186,-0.04066419,2.89999993517995,1
-31.48388,0.2833331,-28.30751,-0.3362403538928973,-0.1399093077290977,-0.1884549784959297,3.467706,60.49711,0.290438,0.02741342,0.5034537,-0.01305343,2.91999993473291,1
-31.43372,0.4833331,-28.27331,-0.2921396773377758,-0.3773919231555343,-0.1611600924718672,6.93394,60.52367,0.5831567,0.05479176,0.5027577,-0.02608771,2.93999993428588,1
-31.38358,0.683333,-28.23911,-0.328115089273318,0.0458253401503734,-0.1863177752838112,10.3989,60.56844,0.8801617,0.08211119,0.501599,-0.03909359,2.95999993383884,1
-31.23458,0.2833336,-28.13983,-0.3535067873168458,0.4382025810322172,-0.2053336515908093,3.417633,60.04245,0.2676684,0.02698748,0.5000366,-0.01289798,2.97999993339181,1
-31.18526,0.4833333,-28.106,-0.3345082822545464,0.3749555006906472,-0.1941381283888112,6.833894,60.06654,0.5372311,0.05394094,0.4993657,-0.02577893,2.99999993294477,1
-31.01124,0.2833334,-27.98988,-0.3142072213367299,0.3362757250358251,-0.1812751399424108,3.38412,58.85659,0.1850362,0.0265108,0.4910775,-0.01310217,3.01999993249774,1
-30.96238,0.4833333,-27.95658,-0.1591501941717439,-0.1580300463293303,-0.0774328279813509,6.766957,58.87307,0.371199,0.05298822,0.4904334,-0.02618884,3.0399999320507,1
-30.91353,0.6833334,-27.9233,-0.1867343366822851,0.03711267996293,-0.0939312241466936,10.14875,58.90084,0.55996,0.07941185,0.489361,-0.0392487,3.05999993160367,1
-30.76437,0.2833333,-27.8237,-0.216986812128141,0.2291193367040026,-0.1118278922480442,3.340372,57.63294,0.1311718,0.02608839,0.4817712,-0.01304606,3.07999993115664,1
-30.71637,0.4833333,-27.79056,-0.2390725201414731,0.365719404655712,-0.1241562575563612,6.67941,57.64449,0.2633393,0.05214496,0.4811566,-0.02607475,3.0999999307096,1
-30.66839,0.6833335,-27.75744,-0.2165219963035021,0.261178386042171,-0.1091996159738712,10.01744,57.66395,0.3972823,0.07814958,0.4801331,-0.0390775,3.11999993026257,1
-30.46276,0.2833331,-27.62067,-0.1906533992276529,0.1822500189043118,-0.0932766401071774,3.299589,55.88988,0.01025289,0.02547527,0.4684263,-0.01341282,3.13999992981553,1
-30.4152,0.4833331,-27.58824,-0.1758313891464205,0.1289337450798321,-0.0856779750969458,6.598172,55.89077,0.02054812,0.05092157,0.467844,-0.0268106,3.1599999293685,1
-30.36765,0.6833332,-27.55582,-0.166444757861079,0.1012305916849469,-0.0824117368165175,9.895487,55.89225,0.03081608,0.07631528,0.4668744,-0.04018227,3.17999992892146,1
-30.22734,0.2833336,-27.46281,-0.1518043966368338,0.0458238180320877,-0.0764642373521908,3.258254,54.69236,359.9365,0.02499831,0.4591938,-0.01355153,3.19999992847443,1
-30.18031,0.4833336,-27.43086,-0.230082840089679,0.6296861449076913,-0.1318501769240008,6.515579,54.68691,359.8727,0.04996939,0.4586369,-0.02708815,3.21999992802739,1
-30.13329,0.6833336,-27.39892,-0.173099416822005,0.3085707763219371,-0.1001715432064109,9.771812,54.67775,359.8079,0.07489143,0.4577097,-0.04059905,3.23999992758036,1
-29.93647,0.2833332,-27.26727,-0.107583375862859,-0.0114994863549824,-0.0639454852941483,3.214103,51.81109,359.8186,0.0245352,0.4367564,-0.01367588,3.25999992713332,1
-29.89045,0.4833329,-27.23508,-0.0969302641101919,-0.0914736954580719,-0.0645426065810319,6.427238,51.79575,359.6361,0.04904391,0.4362396,-0.02733695,3.27999992668629,1
-29.84443,0.6833329,-27.2029,-0.0897584577970853,-0.1447896711662101,-0.0678181577303398,9.639323,51.76992,359.4513,0.07350647,0.435379,-0.04097224,3.29999992623925,1
-29.7106,0.2833333,-27.11358,-0.0754972758207017,-0.2247637022009758,-0.0666058556833348,3.309336,51.27534,359.8049,0.02529614,0.4325418,-0.01402811,3.31999992579222,1
-29.66341,0.4833335,-27.0801,0.0265803912402411,-0.3047381833722559,-0.006420495617732,6.617677,51.25835,359.6086,0.05056381,0.4319991,-0.02804041,3.33999992534518,1
-29.61623,0.6833334,-27.04663,0.1252270806853559,-0.3580550713756441,0.0524325492286514,9.925035,51.22971,359.4096,0.07578231,0.4310952,-0.04202543,3.35999992489815,1
-29.42206,0.2833333,-26.91842,0.1025734619082321,0.0421632451817524,0.0316983223013451,3.54205,52.82206,359.8171,0.02696986,0.4446387,-0.01517585,3.37999992445111,1
-29.37084,0.4833336,-26.8836,0.1803282677492994,-0.2224998546880976,0.0786140726362134,7.083067,52.80499,359.6328,0.05390618,0.444,-0.03033319,3.39999992400408,1
-29.19404,0.2833336,-26.76664,0.2608723779912907,-0.486117487982345,0.1290147786370639,3.563242,54.06218,359.8499,0.02709858,0.4542901,-0.01529633,3.41999992355704,1
-29.14215,0.4833335,-26.73228,0.1572067927441338,-0.0827630251231777,0.0582796282633566,7.125625,54.04805,359.6982,0.05416319,0.4536301,-0.03057698,3.43999992311001,1
-29.09028,0.6833335,-26.69792,0.2164095101155041,-0.3442897477425636,0.0958536041526585,10.68694,54.0242,359.5443,0.08116785,0.4525314,-0.04582343,3.45999992266297,1
-29.03843,0.8833336,-26.66358,0.2700863596651821,-0.6047710129336934,0.1307827340049279,14.24715,53.99017,359.3867,0.1080861,0.4509953,-0.06102114,3.47999992221594,1
-28.85394,0.2833338,-26.54077,0.2109828692123336,-0.1982807780298583,0.0924124076450247,3.595689,55.52151,359.978,0.02767257,0.4655567,-0.01478311,3.4999999217689,1
-28.802,0.483334,-26.50556,0.245323563399932,-0.4566716469754082,0.1151753676911404,7.19064,55.51945,359.9561,0.0553135,0.4648693,-0.02954626,3.51999992132187,1
-28.63521,0.2833333,-26.3935,0.1342688657589015,-0.2338252222807098,0.0426078646375778,3.563495,56.24603,0.07479379,0.02772901,0.4711203,-0.01408051,3.53999992087483,1
-28.58425,0.4833331,-26.35786,0.022317179423986,-0.0088879313411096,-0.0297434648637278,7.125763,56.25309,0.1505578,0.05542342,0.4704369,-0.02813943,3.5599999204278,1
-28.5333,0.683333,-26.32223,0.0714712590528421,-0.4744441817658129,0.0046116298592124,10.68697,56.26501,0.2275299,0.08305632,0.4692992,-0.04216672,3.57999991998076,1
-28.48236,0.883333,-26.28661,0.0023295065608657,-0.245324561145428,-0.0383334059200102,14.24715,56.28203,0.306287,0.110601,0.4677086,-0.05614946,3.59999991953373,1
-28.30653,0.2833336,-26.17078,0.0672127167389078,-0.4409907950700603,0.0068962708563127,3.593363,57.12655,0.09630252,0.02793851,0.4778706,-0.01425296,3.61999991908669,1
-28.25478,0.4833336,-26.13534,0.1282100126093404,-0.6356119215177388,0.0491917144328013,7.185713,57.13567,0.1933469,0.05584178,0.4771655,-0.02848788,3.63999991863966,1
-28.09436,0.2833334,-26.02876,0.0081310143917789,-0.1632601679280524,-0.0279599851439193,3.650381,57.52162,0.1089209,0.02837813,0.4808833,-0.01449202,3.65999991819263,1
-28.04164,0.4833336,-25.99295,-0.1130600483904729,0.284524377239801,-0.105734993550886,7.299675,57.53209,0.2186568,0.05671892,0.4801509,-0.02896538,3.67999991774559,1
-27.98893,0.6833335,-25.95715,-0.0811786310921682,-0.1972354481417361,-0.0820332632215681,10.94794,57.54979,0.3301969,0.0849945,0.4789315,-0.04340519,3.69999991729856,1
-27.93624,0.8833337,-25.92136,-0.1572747879874505,0.0167252336926845,-0.128050256375932,14.59561,57.57505,0.4443732,0.113179,0.4772266,-0.05779974,3.71999991685152,1
-27.76916,0.2833333,-25.81158,-0.1058174329119623,-0.1930539986969358,-0.0883079762998946,3.619473,58.3882,0.1328245,0.02813407,0.4874942,-0.01439269,3.73999991640449,1
-27.7166,0.4833333,-25.77651,-0.0550978940078152,-0.4007424372363591,-0.0474154131789177,7.237859,58.40087,0.266668,0.05623173,0.486764,-0.02876683,3.75999991595745,1
-27.56619,0.2833333,-25.67719,-0.1725693847812799,0.0595870380370656,-0.1170358854607194,3.57088,59.80779,0.2085361,0.02791542,0.4982547,-0.01395631,3.77999991551042,1
-27.51418,0.4833333,-25.64273,-0.2855529265289647,0.4963950584295522,-0.1835414862497124,7.140647,59.82741,0.4186276,0.05579528,0.4975267,-0.02789495,3.79999991506338,1
-27.46217,0.6833333,-25.60827,-0.2405693917508387,0.0047040493118193,-0.1480818103619263,10.70927,59.86052,0.6319302,0.08361252,0.4963147,-0.04180262,3.81999991461635,1
-27.25319,0.2833333,-25.46985,-0.2859213467562966,0.2097790223489333,-0.1717921827548458,3.511399,60.59729,0.2649499,0.02761889,0.5042078,-0.01346165,3.83999991416931,1
-27.2021,0.4833333,-25.43575,-0.2015580978283431,-0.0078403633153499,-0.112800063410674,7.021686,60.6218,0.5318041,0.05520348,0.5034939,-0.02690677,3.85999991372228,1
-27.15102,0.6833335,-25.40165,-0.1052367855589295,-0.2223235319383883,-0.048344469852509,10.53039,60.66316,0.8027474,0.08272533,0.5023054,-0.04032001,3.87999991327524,1
-27.01025,0.2833333,-25.30787,-0.161642985194117,0.2322567175489301,-0.0845423278055825,3.45903,60.57288,0.2910957,0.02734233,0.5040256,-0.01302843,3.89999991282821,1
-26.96019,0.4833333,-25.27379,-0.0287028976932042,0.0240457434350427,0.002853327118153,6.916594,60.59941,0.5844443,0.05464974,0.5033323,-0.02603797,3.91999991238117,1
-26.91014,0.6833333,-25.23972,-0.0459851081100808,0.299163049341444,-0.0093187492596058,10.37298,60.64418,0.8820623,0.08189934,0.5021779,-0.03901974,3.93999991193414,1
-26.71109,0.2833334,-25.10726,-0.0697153258866336,0.5784620878247648,-0.0257913063520796,3.413298,59.80128,0.2547622,0.02692567,0.4982178,-0.0129199,3.9599999114871,1
-26.66186,0.4833333,-25.07346,0.0162771262465248,0.1693581316414169,0.0320661152812533,6.825193,59.8242,0.5113305,0.05381719,0.4975514,-0.02582257,3.97999991104007,1
-26.61264,0.6833333,-25.03967,0.1039376098884368,-0.2632678293961234,0.092945776289337,10.23598,59.86281,0.7715118,0.08065307,0.4964418,-0.03869855,3.99999991059303,1
-26.48019,0.2833332,-24.9521,0.0450590308806262,0.1855617788187205,0.0579269763164553,3.369598,58.48109,0.1681131,0.02637096,0.488228,-0.01308216,4.019999910146,1
-26.43161,0.4833331,-24.91886,0.1594146831559442,-0.0294450818645981,0.1376539149874212,6.737826,58.496,0.337292,0.05270844,0.4875934,-0.02614805,4.03999990969896,1
-26.38305,0.683333,-24.88564,0.1309088628307648,0.2378315969346464,0.1225064336436183,10.10503,58.52113,0.5087919,0.07899276,0.4865369,-0.03918757,4.05999990925193,1
-26.19296,0.2833334,-24.75939,0.0938846772493064,0.5082449753193856,0.1008878065119986,3.325461,56.76794,0.07249947,0.02582842,0.4751617,-0.01323721,4.07999990880489,1
-26.14512,0.4833336,-24.72653,0.1574495284437809,0.0892098884544467,0.1427176502057392,6.64958,56.77428,0.1454714,0.05162474,0.4745614,-0.02645786,4.09999990835786,1
-25.97266,0.2833331,-24.612,0.2237108341271145,-0.3543920981747523,0.1845907739108767,3.283853,55.5437,359.9723,0.02524001,0.4657668,-0.01356467,4.11999990791082,1
-25.92515,0.483333,-24.57999,0.1537570848479212,0.0824154332267818,0.1373189653324757,6.566716,55.54131,359.9445,0.05045174,0.4651932,-0.02711405,4.13999990746379,1
-25.87764,0.6833332,-24.54799,0.2497004984978481,-0.1456586473778854,0.1977417904858214,9.84829,55.53724,359.916,0.0756111,0.4642381,-0.04063795,4.15999990701675,1
-25.83015,0.8833331,-24.51599,0.2131534907251975,0.1075049635236626,0.1700848176820883,13.12896,55.53146,359.887,0.1007017,0.4629028,-0.0541246,4.17999990656972,1
-25.64878,0.2833333,-24.39533,0.1693764908105031,0.3627592526703845,0.1367043595482933,3.238572,53.48661,359.8876,0.02479413,0.4498389,-0.01359162,4.19999990612268,1
-25.6022,0.4833333,-24.36329,0.2146396468711344,-0.0724806139003416,0.1597771532520155,6.476174,53.47703,359.7745,0.04956115,0.4492995,-0.0271683,4.21999990567565,1
-25.43916,0.2833333,-24.25381,0.2627808714305928,-0.5333331810810676,0.1832767969411008,3.207939,51.43816,359.8091,0.02449512,0.4338305,-0.01364736,4.23999990522861,1
-25.39333,0.4833333,-24.22152,0.1872923683369975,-0.1148206090566056,0.125591258284448,6.41489,51.42204,359.617,0.0489638,0.4333189,-0.02727979,4.25999990478158,1
-25.34752,0.6833332,-24.18924,0.2697628659700513,-0.3622345486527668,0.1716758285420887,9.620831,51.39492,359.4226,0.07338689,0.432467,-0.04088673,4.27999990433455,1
-25.30171,0.8833331,-24.15697,0.2351869804634141,-0.1294560949200373,0.1407062186370957,12.82534,51.35646,359.2251,0.0977443,0.4312764,-0.05445187,4.29999990388751,1
-25.12309,0.2833331,-24.03911,0.331555414629495,-0.3225088197835694,0.1969097218090887,3.452531,51.96157,359.7991,0.02631239,0.4379177,-0.01477191,4.31999990344048,1
-25.07343,0.4833331,-24.00472,0.4204355966005408,-0.5155614272126099,0.2491200340906196,6.904063,51.94331,359.5968,0.05259358,0.4373196,-0.02952619,4.33999990299344,1
-24.91483,0.2833334,-23.89998,0.3247470279946327,-0.0426872891974565,0.1801785213462565,3.492775,53.27217,359.8272,0.02656563,0.4481545,-0.01500971,4.35999990254641,1
-24.86414,0.4833333,-23.86594,0.2236448774100097,0.4045743856902111,0.1085390644023007,6.984925,53.25624,359.6529,0.0531005,0.4475285,-0.03000592,4.37999990209937,1
-24.81347,0.6833336,-23.83191,0.2681120576057978,-0.0787543511746412,0.134334395597147,10.47761,53.22935,359.4758,0.07959034,0.4464856,-0.04497696,4.39999990165234,1
-24.59506,0.2833333,-23.68766,0.2027459721294953,0.1325927898007634,0.0888830481495865,3.555162,54.80018,359.8942,0.02711482,0.460005,-0.01509495,4.4199999012053,1
-24.54329,0.4833333,-23.65341,0.2591468750159542,-0.0808452648986233,0.1242381132525274,7.109785,54.79025,359.7873,0.05419873,0.4593403,-0.03017464,4.43999990075827,1
-24.49154,0.6833333,-23.61917,0.3093878770771745,-0.2932379251557621,0.1562388642059922,10.66337,54.77348,359.6788,0.08122262,0.4582336,-0.04522114,4.45999990031123,1
-24.34079,0.2833334,-23.51793,0.1864400970943229,0.1613414375617544,0.0745517800835529,3.593807,55.81961,0.03636479,0.02785796,0.4678421,-0.0143972,4.4799998998642,1
-24.28927,0.4833333,-23.48217,0.0613487107574322,0.5913535212922032,-0.008245051276031,7.186913,55.82311,0.07362564,0.05568561,0.467152,-0.02877274,4.49999989941716,1
-24.23777,0.6833335,-23.44641,0.0784822463196448,0.0918211900432968,0.0024553391849231,10.77896,55.82903,0.111468,0.08345036,0.4660031,-0.0431158,4.51999989897013,1
-24.02887,0.2833333,-23.30716,-0.0009449991794916,0.288009934626764,-0.0486068070088698,3.562196,56.70175,0.08824784,0.02771855,0.4746192,-0.01408202,4.53999989852309,1
-23.97777,0.4833332,-23.27176,-0.0758574982865667,0.4873351494151485,-0.0959194127478255,7.123151,56.71003,0.1771387,0.05540068,0.4739311,-0.02814566,4.55999989807606,1
-23.92668,0.6833334,-23.23636,0.0167846906644513,-0.0027879969406415,-0.0332002554187802,10.68303,56.724,0.2673785,0.08302104,0.4727855,-0.04217809,4.57999989762902,1
-23.78343,0.2833333,-23.14187,-0.051521403906964,0.2028094698544963,-0.075935285570253,3.63728,57.35524,0.1019715,0.0282698,0.4796142,-0.01444914,4.59999989718199,1
-23.73093,0.4833335,-23.10613,0.0153805295805149,-0.0153333364116983,-0.0294998579884726,7.273486,57.36502,0.2047277,0.0565028,0.478889,-0.02887959,4.61999989673495,1
-23.67846,0.6833335,-23.0704,-0.0694495040295528,0.248807303414627,-0.0825253991192838,10.90933,57.3815,0.3089229,0.08467527,0.4776814,-0.04328134,4.63999989628792,1
-23.47663,0.2833333,-22.93691,-0.1608043565656096,0.5160844181502198,-0.1391013037918362,3.641622,57.79074,0.1107894,0.028285,0.4829406,-0.01450743,4.65999989584088,1
-23.42389,0.4833333,-22.90141,-0.2468232750184427,0.7342268914530417,-0.1913687477795242,7.282171,57.80137,0.2224419,0.05653318,0.4822085,-0.02899603,4.67999989539385,1
-23.37118,0.6833334,-22.86592,-0.1723522180905305,-0.0027875018514595,-0.136690978268291,10.92163,57.81934,0.3358722,0.08471593,0.4809898,-0.04345126,4.69999989494681,1
-23.23798,0.2833331,-22.77859,-0.2477586215809459,0.1693571052221412,-0.179527195483768,3.596604,58.95145,0.1518493,0.02797099,0.4917758,-0.01428818,4.71999989449978,1
-23.18559,0.4833332,-22.74396,-0.3170867621259887,0.3446376881955333,-0.2174917978705117,7.192071,58.96584,0.3048594,0.05590577,0.4910481,-0.02855782,4.73999989405274,1
-23.13321,0.6833331,-22.70934,-0.3442658340450748,0.3106616254046714,-0.228238892063807,10.78646,58.99014,0.4602661,0.0837774,0.4898366,-0.04279525,4.75999989360571,1
-22.94109,0.2833333,-22.58261,-0.3736033745765894,0.3075251953609533,-0.2405883659608356,3.541452,60.41997,0.2389028,0.02775191,0.5028735,-0.01374716,4.77999989315867,1
-22.88942,0.4833336,-22.54848,-0.392965395146728,0.2819127752695496,-0.246843643107983,7.081768,60.44226,0.4795733,0.05546881,0.50215,-0.02747694,4.79999989271164,1
-22.71373,0.2833332,-22.43208,-0.2968030637410876,-0.4598061038931537,-0.1805806734789072,3.501328,60.67306,0.2741876,0.02757486,0.5047777,-0.01336599,4.8199998922646,1
-22.66283,0.4833333,-22.39799,-0.3338417543988292,-0.2934113473257938,-0.201559639811478,7.001511,60.69836,0.5503538,0.05511546,0.5040668,-0.02671535,4.83999989181757,1
-22.61194,0.6833333,-22.3639,-0.3554457283542263,-0.1249256332143128,-0.2135548587989681,10.49993,60.74103,0.8307605,0.08259259,0.5028834,-0.04003216,4.85999989137053,1
-22.56106,0.8833334,-22.32983,-0.3302485725689053,-0.1667423024654694,-0.195752059885546,13.99707,60.8019,1.117505,0.1099842,0.5012289,-0.05330756,4.8799998909235,1
-22.37871,0.2833332,-22.20863,-0.301244422287624,-0.1787646368854499,-0.1761652759702592,3.439938,60.45175,0.2919592,0.02721599,0.5031157,-0.01290916,4.89999989047647,1
-22.32901,0.4833333,-22.1746,-0.2574203353233599,-0.2143091663372883,-0.1474262244715767,6.878313,60.47822,0.5861627,0.05439675,0.5024312,-0.0257992,4.91999989002943,1
-22.16347,0.2833334,-22.06463,-0.2207533318021077,-0.246716900984123,-0.1222855470105415,3.395867,59.38906,0.2136523,0.02666228,0.4951093,-0.01305914,4.9399998895824,1
-22.11438,0.4833334,-22.03126,-0.1922031512074333,-0.249330315696888,-0.1010760153023042,6.79035,59.40815,0.4286481,0.05329023,0.4944548,-0.02610224,4.95999988913536,1
-22.0653,0.6833334,-21.99789,-0.1609130357418671,-0.2754653790400775,-0.0766039739459287,10.18377,59.44034,0.6466388,0.07986365,0.4933652,-0.03911865,4.97999988868833,1
-22.01624,0.8833332,-21.96453,-0.1394443292462597,-0.2984645648392151,-0.0596485676905125,13.57609,59.48619,0.8692656,0.1063594,0.4918416,-0.05209697,4.99999988824129,1
-21.84239,0.2833333,-21.84937,-0.1193805330456427,-0.2916692146526972,-0.0437074626563926,3.351294,57.68439,0.128129,0.02615318,0.4821637,-0.01312699,5.01999988779426,1
-21.79417,0.4833333,-21.81622,-0.0897545636448988,-0.3083959768234582,-0.0218227784489037,6.701251,57.69571,0.257231,0.05227427,0.4815445,-0.02623649,5.03999988734722,1
-21.74597,0.6833334,-21.78308,-0.0674125818594326,-0.3219864063479548,-0.0065733085593677,10.0502,57.71478,0.3880927,0.07834312,0.4805136,-0.03931969,5.05999988690019,1
-21.55588,0.2833334,-21.65744,-0.052720795130245,-0.3057824979050401,0.0023319981205744,3.302764,55.94229,0.009385861,0.02549005,0.46883,-0.01344413,5.07999988645315,1
-21.50824,0.4833335,-21.62504,-0.034919189727617,-0.3131004468262636,0.0118375361848279,6.60455,55.94311,0.01884984,0.05095147,0.468246,-0.02687299,5.09999988600612,1
-21.33636,0.2833334,-21.51086,0.0643991239548746,-0.3172821677294287,0.0748960513180172,3.259511,54.75288,359.9364,0.02500058,0.4596626,-0.01357037,5.11999988555908,1
-21.28928,0.4833334,-21.47895,0.1529911384093374,-0.2916701221564828,0.1297059259210016,6.51807,54.74742,359.8725,0.04997362,0.4591047,-0.02712591,5.13999988511205,1
-21.24221,0.6833335,-21.44705,0.2418061564339417,-0.2895798144223581,0.1834603449599825,9.775518,54.73823,359.8076,0.07489759,0.4581758,-0.04065535,5.15999988466501,1
-21.19515,0.8833334,-21.41516,0.1624722835523648,0.3559609395279957,0.125971761718187,13.0319,54.72516,359.7415,0.09975298,0.456877,-0.05414752,5.17999988421798,1
-21.01385,0.2833335,-21.29446,0.2240591476158222,0.1007065528967066,0.1594199363436708,3.214146,51.87541,359.8186,0.02452798,0.437261,-0.01368955,5.19999988377094,1
-20.96779,0.4833337,-21.26232,0.2797539189931086,-0.1493206936477787,0.1878225571887632,6.427325,51.86008,359.6362,0.04902957,0.4367436,-0.02736412,5.21999988332391,1
-20.92174,0.6833335,-21.23019,0.3672962363553971,-0.1550704778575434,0.2376192596142452,9.639555,51.83425,359.4515,0.07348582,0.4358819,-0.04101327,5.23999988287687,1
-20.72224,0.2833333,-21.09734,0.4443538141034793,-0.1299808061688383,0.2806093874505322,3.371916,51.5825,359.7981,0.02572429,0.4349512,-0.01438646,5.25999988242984,1
-20.67393,0.4833333,-21.06352,0.5220895150602196,-0.1273672885702169,0.3243537531213256,6.742857,51.56458,359.5949,0.05141913,0.4343845,-0.02875642,5.2799998819828,1
-20.62563,0.6833335,-21.02971,0.443920621958636,0.5197421005265044,0.2658132425774404,10.11275,51.53437,359.3889,0.07706202,0.4334408,-0.04309736,5.29999988153577,1
-20.4898,0.2833334,-20.94089,0.5008802098576091,0.2671008288364022,0.2973933288936052,3.544041,52.80692,359.8117,0.02696648,0.4445215,-0.0152222,5.31999988108873,1
-20.43852,0.4833334,-20.90612,0.4071671281081954,0.5009244517253284,0.2304736931146784,7.087069,52.78934,359.622,0.05389969,0.4438821,-0.03042563,5.3399998806417,1
-20.38726,0.6833335,-20.87136,0.3067009793845159,0.7420655562368017,0.160043602355568,10.63038,52.75959,359.4289,0.08078247,0.4428169,-0.04560449,5.35999988019466,1
-20.19441,0.2833333,-20.74467,0.3599342610860994,0.297940307821029,0.1919345590284251,3.567192,54.49271,359.8741,0.02716822,0.4576257,-0.01522609,5.37999987974763,1
-20.14246,0.4833333,-20.71031,0.4089227476272477,-0.1665706633308614,0.2226227617405776,7.133518,54.48083,359.7468,0.05430232,0.4569597,-0.03043634,5.39999987930059,1
-20.09052,0.6833332,-20.67597,0.4400995492622108,-0.1733655296663648,0.2421512378624548,10.69881,54.46081,359.6176,0.08137623,0.455851,-0.04561282,5.41999987885356,1
-19.8808,0.2833334,-20.53651,0.4569979196408269,-0.1493208647466969,0.2526418143541988,3.593808,55.89585,0.01684318,0.02776859,0.4684343,-0.01456615,5.43999987840652,1
-19.82905,0.4833335,-20.5011,0.3323541956781106,0.3324393319299484,0.1706293635103684,7.186804,55.89749,0.03425422,0.05550538,0.4677435,-0.02911135,5.45999987795949,1
-19.77731,0.6833336,-20.4657,0.2017053004159983,0.7938139243503762,0.0852586956495571,10.77876,55.90026,0.05194788,0.08317964,0.4665932,-0.04362365,5.47999987751245,1
-19.63614,0.2833334,-20.37178,0.2182534232935928,0.32982597558596,0.0969966215891489,3.548166,56.50425,0.07922125,0.02759772,0.4731065,-0.01404565,5.49999987706542,1
-19.58529,0.4833336,-20.33646,0.2334265084927622,-0.1545471521266705,0.108767922271955,7.09495,56.51167,0.1591976,0.055159,0.4724261,-0.02807107,5.51999987661839,1
-19.53444,0.6833335,-20.30115,0.1095036127742403,0.2456714648121283,0.0302447045668685,10.64076,56.5242,0.2404176,0.08266009,0.4712934,-0.04206564,5.53999987617135,1
-19.33257,0.2833334,-20.16774,0.1523265184240685,-0.0148097289425918,0.0607681592316886,3.622526,57.43158,0.1026417,0.02815012,0.4802001,-0.01440101,5.55999987572432,1
-19.28025,0.4833334,-20.1322,0.1935374701487173,-0.2700640915294295,0.0900640052914418,7.244018,57.44138,0.2060823,0.05626416,0.4794799,-0.02878353,5.57999987527728,1
-19.22795,0.6833335,-20.09667,0.0751770142101602,0.145835244634649,0.015167500971259,10.8651,57.45787,0.3109017,0.08431778,0.4782805,-0.04313792,5.59999987483025,1
-19.00861,0.2833334,-19.95157,0.0510036119027716,-0.09896500417315,0.0023124228006494,3.637326,57.86545,0.1109203,0.0282433,0.4835116,-0.01450675,5.61999987438321,1
-18.95589,0.4833332,-19.91617,-0.1181258221639893,0.141653866364908,-0.1051476642820787,7.273625,57.87609,0.2226993,0.05645021,0.4827804,-0.0289949,5.63999987393618,1
-18.90319,0.6833332,-19.88078,-0.2873520961278704,0.3885454165699006,-0.2117784530272608,10.90882,57.89405,0.3362403,0.08459181,0.4815631,-0.04344983,5.65999987348914,1
-18.8505,0.883333,-19.84541,-0.292880821406138,-0.0508756528157694,-0.2097951081653803,14.54315,57.91965,0.4524366,0.1126413,0.4798611,-0.05785867,5.67999987304211,1
-18.66678,0.2833335,-19.72487,-0.2942342887728113,-0.5117275388241692,-0.2034919599104476,3.589477,59.58747,0.1874725,0.02799168,0.4965902,-0.01414266,5.69999987259507,1
-18.61443,0.4833337,-19.69035,-0.4400142350039147,-0.0890331998984638,-0.2913728945775453,7.177864,59.6052,0.376361,0.05594761,0.4958575,-0.02826734,5.71999987214804,1
-18.44635,0.2833332,-19.57955,-0.4001034259778819,-0.3280841006070814,-0.2578052120618714,3.542901,60.45998,0.2442423,0.02778147,0.5031736,-0.01372297,5.739999871701,1
-18.39468,0.4833331,-19.54538,-0.3530322578879712,-0.562953268216073,-0.2199815484891054,7.084691,60.48277,0.4902618,0.05552795,0.5024489,-0.02742894,5.75999987125397,1
-18.34303,0.6833331,-19.51121,-0.4706935081646524,-0.1277137028108052,-0.2909148652121054,10.62529,60.52124,0.7399991,0.08321273,0.5012424,-0.04110464,5.77999987080693,1
-18.29138,0.8833333,-19.47705,-0.580499558306057,0.28609473339387,-0.3577716805071382,14.16408,60.57607,0.9952953,0.1108045,0.4995559,-0.05473614,5.7999998703599,1
-18.11734,0.2833333,-19.36188,-0.5355391096854447,-0.2265049093369587,-0.3269749467192895,3.48153,60.72137,0.2830136,0.02745913,0.5051423,-0.01322389,5.81999986991286,1
-18.06678,0.4833332,-19.32787,-0.5794034623931807,-0.0402473936165909,-0.3540537201735212,6.961945,60.74733,0.5680529,0.05488467,0.5044385,-0.02643153,5.83999986946583,1
-18.01624,0.6833329,-19.29386,-0.6110522583411928,0.152282567685784,-0.3741575207649177,10.44081,60.79114,0.8574639,0.08224937,0.503267,-0.03960777,5.85999986901879,1
-17.82545,0.2833333,-19.16738,-0.468735070217777,-0.3415000851140928,-0.2811138417549195,3.427209,60.20248,0.2731312,0.0270656,0.5012421,-0.01293633,5.87999986857176,1
-17.77593,0.4833332,-19.13353,-0.4801131134525693,-0.1364252075578447,-0.288601971985198,6.852942,60.22715,0.5483395,0.05409679,0.5005657,-0.02585408,5.89999986812472,1
-17.60213,0.2833333,-19.01817,-0.3514718775678194,-0.3519540865985764,-0.2021724248398442,3.386949,59.01637,0.1867367,0.02652129,0.4922902,-0.01313837,5.91999986767769,1
-17.55315,0.4833333,-18.98496,-0.2212910563279191,-0.5622557730206079,-0.1128520377590334,6.772553,59.03302,0.374606,0.05300865,0.4916434,-0.02626097,5.93999986723065,1
-17.50418,0.6833332,-18.95176,-0.2675689230624467,-0.1014038655812852,-0.1393514096413675,10.15713,59.06107,0.5651075,0.07944229,0.4905666,-0.03935669,5.95999986678362,1
-17.45523,0.8833331,-18.91856,-0.3110968712519675,0.3390624127733131,-0.1638290003873805,13.54063,59.10102,0.7595952,0.1057987,0.489061,-0.0524145,5.97999986633658,1
-17.27331,0.2833334,-18.79815,-0.200038993819426,-0.1458342217005125,-0.0887155994392472,3.33888,57.35658,0.1053016,0.02600007,0.4796638,-0.01317485,5.99999986588955,1
-17.22525,0.4833335,-18.76518,-0.1892414759734357,0.0691720537269322,-0.0796976323104949,6.676413,57.36586,0.2114282,0.05196829,0.4790527,-0.02633212,6.01999986544251,1
-17.1772,0.6833335,-18.73222,-0.1713527355716397,0.2914960459943801,-0.0671955458445872,10.01297,57.38147,0.3189958,0.07788505,0.4780351,-0.03946318,6.03999986499548,1
-16.97902,0.2833334,-18.60149,0.0255692698052421,-0.1714469716190566,0.0606847005935797,3.290367,55.61339,359.9783,0.02530653,0.4663025,-0.01356003,6.05999986454844,1
-16.93143,0.4833333,-18.56938,0.0523798692263479,0.0655127056625984,0.0763616477149398,6.579781,55.61152,359.9565,0.05058496,0.465726,-0.02710483,6.07999986410141,1
-16.88386,0.6833332,-18.53729,0.0792788755632987,0.3097900309613712,0.0912028846450621,9.867914,55.60833,359.9343,0.07581101,0.4647661,-0.04062371,6.09999986365438,1
-16.75195,0.2833334,-18.4499,0.294635822405823,-0.1311993900029557,0.2281595889523622,3.244391,54.20096,359.9221,0.02489121,0.4553868,-0.01350117,6.11999986320734,1
-16.70524,0.4833333,-18.41789,0.3094002303460197,0.1277137740725461,0.2319522526070319,6.487845,54.19431,359.8437,0.04975537,0.4548392,-0.02698755,6.13999986276031,1
-16.65856,0.6833335,-18.38589,0.3119511375013086,0.3939449426502873,0.2266853679140972,9.730306,54.18312,359.7643,0.07457215,0.4539272,-0.0404482,6.15999986231327,1
-16.46938,0.2833333,-18.26007,0.312877258312433,0.6152234764440684,0.2194260519961375,3.203247,51.49328,359.8075,0.02444564,0.4342645,-0.01365392,6.17999986186624,1
-16.42356,0.4833333,-18.2279,0.4624754894771623,-0.1144729580078052,0.3083368906422006,6.405515,51.47706,359.6138,0.04886495,0.4337538,-0.02729303,6.1999998614192,1
-16.37775,0.6833332,-18.19574,0.4569160378299592,0.069170705408215,0.2953798152139768,9.606788,51.44974,359.4178,0.07323911,0.4329035,-0.04090655,6.21999986097217,1
-16.16908,0.2833333,-18.05723,0.4470755936696129,0.2601319726727437,0.2796096261513927,3.45106,52.03331,359.7988,0.02629047,0.4384804,-0.01478507,6.23999986052513,1
-16.1194,0.4833332,-18.02293,0.4628182884253373,0.2460190060056691,0.2810471706901936,6.901168,52.01503,359.5962,0.05255009,0.437882,-0.02955284,6.2599998600781,1
-16.06974,0.6833333,-17.98864,0.460365789283415,0.2669274307979375,0.2712992541070314,10.35056,51.98415,359.3904,0.07875633,0.4368854,-0.04429261,6.27999985963106,1
-16.0201,0.8833331,-17.95437,0.450829359326768,0.2695411850950131,0.2578154745284386,13.80056,51.94012,359.18,0.1048966,0.4354914,-0.05899526,6.29999985918403,1
-15.84337,0.2833335,-17.83915,0.6218311591758425,-0.4397700005403513,0.3647639026659881,3.548795,53.79573,359.8419,0.02699031,0.4522222,-0.01523812,6.31999985873699,1
-15.79175,0.4833334,-17.8048,0.6385834856506758,-0.2367860590101826,0.3716181392807201,7.097328,53.7809,359.6821,0.05395108,0.4515702,-0.03046419,6.33999985828996,1
-15.74016,0.6833334,-17.77046,0.6444737750029326,-0.0275296434105586,0.3726074551812708,10.6448,53.75588,359.5199,0.08085243,0.4504848,-0.04565654,6.35999985784292,1
-15.54719,0.2833332,-17.64337,0.6511113414953762,0.1357290743581167,0.3753366048962938,3.581607,55.30413,359.937,0.02742616,0.4638896,-0.01498965,6.37999985739589,1
-15.49518,0.4833333,-17.60869,0.6435342642203068,0.0672547310068415,0.3684583761011062,7.162411,55.2982,359.8736,0.05481945,0.4632099,-0.02996128,6.39999985694885,1
-15.31888,0.2833332,-17.49087,0.6239827977701182,0.033801769967563,0.3542489855233359,3.587744,56.21187,0.06328334,0.02787248,0.470857,-0.01426046,6.41999985650182,1
-15.26747,0.4833332,-17.45513,0.4550386976336433,0.4622460855457586,0.2425276729053926,7.174492,56.2179,0.1275883,0.05571215,0.4701648,-0.02849887,6.43999985605478,1
-15.21608,0.6833332,-17.4194,0.4404496138143141,0.2341725620579874,0.2328339608777323,10.76021,56.22809,0.192893,0.08348934,0.4690122,-0.04270537,6.45999985560775,1
-15.1647,0.8833332,-17.38368,0.4119616700155539,0.0155078285593591,0.2151127911326167,14.34488,56.24263,0.2597804,0.1111769,0.4674009,-0.05686575,6.47999985516071,1
-14.98102,0.2833333,-17.26293,0.3817033141332562,-0.2481094672414023,0.1972456384659988,3.56729,57.04914,0.08833335,0.02771513,0.4772831,-0.01418655,6.49999985471368,1
-14.92963,0.4833334,-17.22779,0.3795497328168391,-0.2909712911872376,0.1982102216867876,7.133412,57.05743,0.177101,0.05539346,0.476589,-0.02835647,6.51999985426664,1
-14.87825,0.6833335,-17.19265,0.3607122733046424,-0.299857511974536,0.1881750871684904,10.6985,57.07141,0.2672553,0.0830103,0.4754336,-0.04249474,6.53999985381961,1
-14.67604,0.2833333,-17.05927,0.3376553175759955,-0.328083860162577,0.1752867562192488,3.646323,57.70245,0.1128852,0.02834091,0.482265,-0.01448941,6.55999985337257,1
-14.6233,0.4833333,-17.0236,0.1426035697360674,0.2913217287783753,0.0503067061440507,7.291592,57.7133,0.2266356,0.05664493,0.4815321,-0.02896019,6.57999985292554,1
-14.57057,0.6833331,-16.98795,0.091007793544561,0.0141135746604107,0.0200504846423505,10.93583,57.73162,0.3422323,0.08488391,0.4803119,-0.04339764,6.5999998524785,1
-14.3513,0.2833333,-16.84361,0.0334640997244424,-0.2536857628104298,-0.0128777548683185,3.618713,58.56165,0.1336919,0.02811018,0.4888143,-0.01442542,6.61999985203147,1
-14.29865,0.4833332,-16.80869,-0.1187238233403391,0.1538501181312107,-0.1066521325438749,7.236371,58.57441,0.2684127,0.05618423,0.4880823,-0.02883235,6.63999985158443,1
-14.24601,0.6833331,-16.77379,-0.1021381789229369,-0.0951319456667335,-0.088714458199858,10.85291,58.59593,0.4052536,0.0841938,0.4868637,-0.04320638,6.6599998511374,1
-14.19338,0.8833331,-16.73889,-0.0850576805407481,-0.3347054462425849,-0.0690927140015009,14.4682,58.62661,0.5451432,0.1121091,0.48516,-0.05753453,6.67999985069036,1
-14.00984,0.2833333,-16.61864,-0.2254235220878744,0.101056697424756,-0.1519903316842903,3.55911,60.40454,0.2279809,0.02783895,0.5027572,-0.01390325,6.69999985024333,1
-13.95781,0.4833333,-16.58452,-0.1740322021346738,-0.119699223695509,-0.1101542416605241,7.117116,60.42592,0.457659,0.05564274,0.502027,-0.02778899,6.7199998497963,1
-13.9058,0.6833333,-16.55041,-0.1183010504577772,-0.331046447693964,-0.0666198903292834,10.67396,60.462,0.6908699,0.08338454,0.5008112,-0.04164371,6.73999984934926,1
-13.70565,0.2833333,-16.41854,-0.2410633658339023,0.1329415605717559,-0.1409117376923774,3.497178,60.85619,0.2739829,0.02752135,0.5061564,-0.01339325,6.75999984890223,1
-13.6547,0.4833333,-16.38465,-0.3612720821216477,0.5807257253842764,-0.214496260035446,6.993242,60.88144,0.5499454,0.05500883,0.5054452,-0.02676994,6.77999984845519,1
-13.60376,0.6833333,-16.35076,-0.3250397430321765,0.1073286706552667,-0.1887581825112647,10.48771,60.92404,0.8301417,0.08243437,0.5042614,-0.04011477,6.79999984800816,1
-13.38741,0.2833334,-16.20751,-0.2795341213350699,-0.3822720018053054,-0.1590937942596149,3.439142,60.60546,0.291396,0.02719017,0.5042741,-0.0129464,6.81999984756112,1
-13.33764,0.4833333,-16.17363,-0.3653403422269718,0.0169003904607505,-0.2148107022130041,6.876796,60.63188,0.5850705,0.0543459,0.5035883,-0.02587366,6.83999984711409,1
-13.28787,0.6833332,-16.13975,-0.2782962764149044,-0.2404450568618689,-0.1568898502728242,10.31328,60.67642,0.8829446,0.08144461,0.5024464,-0.03877378,6.85999984666705,1
-13.23812,0.8833332,-16.10588,-0.1858494747624721,-0.4883818230051943,-0.094930314644321,13.7485,60.73988,1.187315,0.1084618,0.5008498,-0.05163503,6.87999984622002,1
-13.0555,0.2833333,-15.98576,-0.245894497125569,-0.0609829203381736,-0.1324386213052157,3.39325,59.09813,0.1913195,0.02657943,0.4929088,-0.01314962,6.89999984577298,1
-13.00642,0.4833333,-15.95249,-0.2110306183375723,-0.2901021779396185,-0.1068366388577146,6.785106,59.11522,0.3838561,0.05312464,0.4922588,-0.02628285,6.91999984532595,1
-12.95735,0.6833333,-15.91923,-0.3166255878203046,-0.0296205441540247,-0.1735699040070351,10.17592,59.14402,0.5790492,0.0796155,0.4911765,-0.0393894,6.93999984487891,1
-12.75898,0.2833335,-15.78802,-0.4183867131703369,0.2413153156180434,-0.238082394053853,3.341017,57.41926,0.1063073,0.02601343,0.4801428,-0.01319033,6.95999984443188,1
-12.71087,0.4833335,-15.75507,-0.3536833136683732,-0.1698795505432305,-0.195924239064773,6.680649,57.42862,0.2134254,0.05199458,0.4795303,-0.02636305,6.97999984398484,1
-12.66277,0.6833335,-15.72213,-0.2803767051033503,-0.5983236849168676,-0.1494669101245751,10.01932,57.44439,0.3219849,0.07792422,0.4785105,-0.03950968,6.99999984353781,1
-12.44845,0.2833334,-15.5807,-0.3456159212543053,-0.1390398314625638,-0.1933266194654734,3.291027,55.68327,359.9788,0.02530515,0.4668414,-0.01357475,7.01999984309077,1
-12.40082,0.4833333,-15.54864,-0.2276188414354223,-0.3373195598996582,-0.1186054392662629,6.581095,55.68143,359.9574,0.05058195,0.466264,-0.02713457,7.03999984264374,1
-12.3532,0.6833333,-15.51659,-0.1043921501784463,-0.5272361360221274,-0.041682013872899,9.869846,55.6783,359.9355,0.07580613,0.4653026,-0.04066824,7.0599998421967,1
-12.30559,0.8833331,-15.48455,-0.1453168805931284,-0.0428624660025889,-0.0728710990861198,13.15767,55.67384,359.9132,0.1009608,0.4639583,-0.05416466,7.07999984174967,1
-12.12398,0.2833333,-15.36459,-0.1801538583450845,0.4242619214301827,-0.1008704700972931,3.240787,53.63894,359.8896,0.02480125,0.4510244,-0.01361755,7.09999984130263,1
-12.07731,0.4833333,-15.33262,-0.0672981137250872,-0.0308402159124228,-0.034449112003978,6.480606,53.62952,359.7786,0.04957543,0.4504829,-0.02721998,7.1199998408556,1
-12.03065,0.6833333,-15.30065,-0.1426805232927002,0.2170963865369773,-0.0921714665481356,9.719429,53.61367,359.6661,0.0743025,0.4495812,-0.04079666,7.13999984040856,1
-11.83382,0.2833333,-15.1698,-0.2179454095084967,0.4754872160182656,-0.1501838267898136,3.195251,51.10388,359.7912,0.02436765,0.4312066,-0.01366892,7.15999983996153,1
-11.78815,0.4833334,-15.13763,-0.1335218508252662,0.0517475601849559,-0.1041290071842073,6.389504,51.08633,359.5811,0.04870909,0.4307018,-0.02732292,7.17999983951449,1
-11.7425,0.6833334,-15.10546,-0.0465070373527574,-0.3892413494863198,-0.0565321542195071,9.582753,51.05678,359.3686,0.07300559,0.4298611,-0.04095151,7.19999983906746,1
-11.52472,0.2833334,-14.96141,-0.1026893369780328,0.0574976235194333,-0.1022161927115643,3.530675,52.47917,359.7981,0.02685275,0.4419639,-0.01520012,7.21999983862042,1
-11.47364,0.4833333,-14.92665,0.0165179052802368,-0.1533267570310467,-0.0317002127346732,7.060376,52.46039,359.5946,0.05367279,0.4413327,-0.03038199,7.23999983817339,1
-11.4226,0.6833332,-14.89191,0.1331503710386368,-0.3557879693243856,0.0386951442469403,10.5903,52.42862,359.3876,0.08044252,0.440281,-0.04553936,7.25999983772635,1
-11.37157,0.8833331,-14.85719,0.0810969871305928,0.1160407480261325,-0.0005546863093748,14.12052,52.38325,359.1757,0.1071389,0.4388101,-0.06065551,7.27999983727932,1
-11.18704,0.2833332,-14.73696,0.0306710675609647,0.5706199858170422,-0.0375443907543076,3.560787,54.27509,359.8532,0.02706459,0.4559429,-0.01531048,7.29999983683228,1
-11.1351,0.4833332,-14.70277,0.1246421906981698,0.1029729271677433,0.0212246640373745,7.120741,54.26128,359.705,0.05409515,0.4552816,-0.03060602,7.31999983638525,1
-11.08317,0.6833332,-14.66858,0.0269895981662262,0.3383645826978826,-0.04478493283478,10.67963,54.23798,359.5544,0.0810657,0.4541804,-0.04586762,7.33999983593822,1
-10.88172,0.2833333,-14.53574,-0.0733602233298977,0.5842104524536261,-0.1116199948712015,3.595233,55.75247,359.9788,0.02764244,0.4673382,-0.01483089,7.35999983549118,1
-10.82965,0.4833333,-14.50074,-0.0145874582006655,0.1479258235657811,-0.0741215499200027,7.189715,55.75049,359.9576,0.05525303,0.4666484,-0.02964196,7.37999983504415,1
-10.7776,0.6833333,-14.46575,0.0449566537836707,-0.305608179730753,-0.0352550192729221,10.78317,55.74714,359.9362,0.08280142,0.4654998,-0.04441966,7.39999983459711,1
-10.64505,0.2833333,-14.37769,-0.042244858751725,0.1285856046915831,-0.0908065083736708,3.563345,56.48084,0.07504196,0.02769998,0.4729256,-0.01413478,7.41999983415008,1
-10.59394,0.4833333,-14.34226,0.0460046512118923,-0.0947837141535172,-0.0307544643340289,7.125434,56.48793,0.1510435,0.05536512,0.4722398,-0.02824788,7.43999983370304,1
-10.54285,0.6833334,-14.30684,0.1317654699080037,-0.3097897483523962,0.0286821201691225,10.68648,56.49989,0.2282246,0.08296877,0.4710978,-0.04232952,7.45999983325601,1
-10.34973,0.2833333,-14.18009,0.0481193110089561,0.1494940100566346,-0.0220894105041153,3.593452,57.35602,0.09628723,0.02791053,0.4796277,-0.01430937,7.47999983280897,1
-10.29784,0.4833333,-14.14485,-0.0329240247578894,0.5915284581755078,-0.0706742551822259,7.185854,57.36514,0.1932986,0.05578549,0.4789199,-0.0286006,7.49999983236194,1
-10.24595,0.6833333,-14.10962,0.0351378409172005,0.1113362193931968,-0.0229800047680068,10.77752,57.38049,0.2915639,0.08359892,0.4777413,-0.04286293,7.5199998319149,1
-10.03512,0.2833333,-13.97091,-0.087111999222075,0.3341829035240372,-0.0994829484709178,3.64155,57.89873,0.1122057,0.02827674,0.4837646,-0.01452297,7.53999983146787,1
-9.982323,0.4833333,-13.93549,-0.2102052420344806,0.567483690457099,-0.1758605822530565,7.282033,57.9095,0.22528,0.05651671,0.4830314,-0.02902715,7.55999983102083,1
-9.929543,0.6833333,-13.90007,-0.1768078264645209,0.1186539735195217,-0.1480238336203854,10.92145,57.92768,0.3401757,0.08469157,0.4818106,-0.04349789,7.5799998305738,1
-9.876781,0.8833333,-13.86466,-0.1396238114942489,-0.3474247900904282,-0.1163225928918887,14.56024,57.95363,0.4577411,0.1127757,0.4801036,-0.05792362,7.59999983012676,1
-9.701412,0.2833332,-13.75038,-0.2470937942624456,0.0742244294232169,-0.1782472553548828,3.604036,59.18767,0.1606791,0.02803587,0.4935652,-0.01431085,7.61999982967973,1
-9.648843,0.4833333,-13.71577,-0.1728811602974369,-0.1616898304171526,-0.1204903325567769,7.206966,59.20293,0.3225656,0.0560355,0.4928317,-0.02860343,7.63999982923269,1
-9.596288,0.6833333,-13.68116,-0.0954277638445688,-0.3892409277501364,-0.0595915143938334,10.80879,59.22869,0.487002,0.08397152,0.4916104,-0.04286355,7.65999982878566,1
-9.404112,0.2833333,-13.55542,-0.1824069410016475,0.0574980055300018,-0.1062150201096496,3.543614,60.64841,0.2413018,0.02775129,0.5045936,-0.01379392,7.67999982833862,1
-9.352292,0.4833333,-13.52145,-0.2605498817774281,0.4869874273655036,-0.1475709790389157,7.086123,60.67094,0.4843938,0.0554678,0.5038667,-0.02757051,7.69999982789159,1
-9.300487,0.6833333,-13.48748,-0.0983162211144046,-0.0057498120876127,-0.0317823733209134,10.62746,60.70895,0.7311692,0.08312286,0.5026565,-0.04131669,7.71999982744455,1
-9.091761,0.2833334,-13.35018,-0.1323571559208289,0.2045517769369703,-0.0449401066609862,3.48221,60.88839,0.2818076,0.02743961,0.506399,-0.01327597,7.73999982699752,1
-9.041083,0.4833333,-13.31632,-0.1738204445745097,0.4253075872436774,-0.0634172130333645,6.963326,60.91424,0.5656403,0.05484584,0.5056932,-0.02653567,7.75999982655048,1
-8.990417,0.6833332,-13.28247,-0.2116927284663603,0.6042469795463183,-0.0802031407571011,10.44284,60.95787,0.8538346,0.0821909,0.5045184,-0.03976357,7.77999982610345,1
-8.939764,0.883333,-13.24864,-0.1139042002829677,-0.1646524863358343,0.0074150908605723,13.92109,61.02007,1.148482,0.1094519,0.5028758,-0.05295075,7.79999982565641,1
-8.765745,0.2833333,-13.1341,-0.1653865589739735,-0.0170751579008305,-0.0021011365302712,3.42714,60.39035,0.2732192,0.02704422,0.5026592,-0.01297972,7.81999982520938,1
-8.716121,0.4833333,-13.10041,-0.2138954571631837,0.1409562856199749,-0.0099871414402095,6.852792,60.41502,0.5484962,0.05405388,0.5019809,-0.0259409,7.83999982476234,1
-8.666511,0.6833333,-13.06672,-0.119325679469834,-0.3831427747298603,0.1063444681266538,10.27732,60.45663,0.8276919,0.08100741,0.5008515,-0.03887504,7.85999982431531,1
-8.475736,0.2833333,-12.94127,-0.1960050641410076,-0.2042032323236366,0.1077351085627444,3.380384,58.73004,0.1725968,0.02644365,0.4901192,-0.01315147,7.87999982386827,1
-8.426891,0.4833332,-12.90808,-0.2738687321045994,-0.0148096933115144,0.1053093893636578,6.75938,58.74541,0.346355,0.05285373,0.4894781,-0.02628603,7.89999982342124,1
-8.378061,0.683333,-12.87491,-0.1777866621213615,-0.5075465509282963,0.2245756154476765,10.13736,58.7713,0.5225151,0.07921032,0.4884106,-0.03939396,7.91999982297421,1
-8.171541,0.2833333,-12.73873,-0.1781861981331776,-0.2972446990699887,0.2753177526508104,3.328692,57.028,0.07412558,0.02582985,0.4771555,-0.01329678,7.93999982252717,1
-8.123526,0.4833333,-12.70604,-0.1769984118430825,-0.0764887438867514,0.3207416493502393,6.656016,57.0345,0.1487556,0.05162746,0.4765515,-0.02657666,7.95999982208014,1
-8.075523,0.6833333,-12.67336,-0.1630484800562222,0.102450542480918,0.3679238749254754,9.982379,57.04544,0.2243653,0.07737411,0.475546,-0.03983048,7.9799998216331,1
-8.027535,0.8833333,-12.64068,-0.1691084526664514,0.0538390480137547,0.4102758316733492,13.30777,57.06103,0.3015167,0.1030482,0.47414,-0.05304692,7.99999982118607,1
-7.853216,0.2833333,-12.5269,-0.1751702503899626,0.0444304429752217,0.4461634116690369,3.278358,55.28876,359.9539,0.02515328,0.4638026,-0.01362826,8.01999982073903,1
-7.805741,0.4833333,-12.495,-0.1704236562516055,0.0209087716071093,0.4825444865953656,6.555754,55.28479,359.9076,0.05027853,0.4632333,-0.02724154,8.039999820292,1
-7.758278,0.6833332,-12.4631,-0.4658949867287045,0.0099320125725819,0.387828324368483,9.831854,55.27807,359.8604,0.07535219,0.4622853,-0.04082829,8.05999981984496,1
-7.57426,0.2833333,-12.3408,-0.7369384949883422,0.0381580378157695,0.2946971444653954,3.228784,52.8582,359.8536,0.02465973,0.4449453,-0.01368323,8.07999981939793,1
-7.527819,0.4833333,-12.30882,-0.9742717292981008,0.0522710111037799,0.2095023234309998,6.456592,52.84576,359.7063,0.04929264,0.4444145,-0.02735134,8.09999981895089,1
-7.481391,0.6833334,-12.27685,-1.302146935984566,-0.6413590979500106,0.1252035763559398,9.683405,52.82482,359.5571,0.07387913,0.4435307,-0.0409937,8.11999981850386,1
-7.275224,0.2833334,-12.14013,-1.7104826148134693,-0.418512315637663,-0.0310753357894633,3.282869,51.37055,359.7934,0.02503305,0.4332955,-0.01403919,8.13999981805682,1
-7.228217,0.4833333,-12.10718,-2.060090891505907,-0.1852115346285952,-0.1682996304420267,6.564775,51.35271,359.5856,0.05003854,0.4327601,-0.02806277,8.15999981760979,1
-7.181224,0.6833333,-12.07423,-2.342837102327016,0.0062725929847159,-0.2804421913851787,9.845648,51.32264,359.375,0.07499563,0.4318687,-0.04205919,8.17999981716275,1
-7.134246,0.8833332,-12.0413,-2.7182373370217805,0.7101284771671349,-0.4708270332755155,13.12601,51.27991,359.1605,0.09988894,0.4306222,-0.05601757,8.19999981671572,1
-6.881551,0.2833332,-11.87309,-3.260255924427785,0.4110358612528402,-0.6731924496888357,3.524967,52.1058,359.8098,0.02690246,0.4390383,-0.01499856,8.21999981626868,1
-6.830933,0.4833332,-11.83791,-3.704725340060556,0.1270667647317894,-0.8390990213160965,7.048925,52.08814,359.6182,0.05377198,0.4384135,-0.0299788,8.23999981582165,1
-6.780341,0.6833332,-11.80274,-4.233476339734757,0.524147935138999,-1.08712077283238,10.57378,52.0583,359.4235,0.08059748,0.4373725,-0.04493558,8.25999981537461,1
-6.729763,0.8833331,-11.76759,-4.884800464159613,0.2704262087996942,-1.3442128404286997,14.0975,52.01574,359.2243,0.1073389,0.435917,-0.05984551,8.27999981492758,1
-6.565735,0.2833333,-11.64279,-5.417996883801529,0.0318282270525648,-1.555833131505949,3.563225,52.07379,359.8613,0.02740364,0.4387711,-0.01473399,8.29999981448054,1
-6.515204,0.4833333,-11.60647,-5.827873420773383,-0.2460071366720272,-1.7173806881193237,7.125731,52.06081,359.722,0.05477709,0.438134,-0.02944736,8.31999981403351,1
-6.464688,0.6833333,-11.57017,-6.460676813828735,-0.2973721817031042,-1.915102171487748,10.68719,52.03889,359.5805,0.08208977,0.4370732,-0.04412811,8.33999981358647,1
-6.292978,0.2833334,-11.42554,-6.955542279899095,-0.3090463237256611,-2.062627866816678,3.589361,53.46053,0.04586227,0.02815106,0.449559,-0.01372925,8.35999981313944,1
-6.243141,0.4833333,-11.38759,-7.308391482860438,-0.3343457457876644,-2.155911572171142,7.177918,53.46495,0.09288043,0.05627135,0.4488976,-0.02743576,8.3799998126924,1
-6.193318,0.6833332,-11.34966,-7.684681715934822,0.2937018306013891,-2.3010059379291192,10.76545,53.4724,0.140639,0.08432853,0.4477963,-0.04111144,8.39999981224537,1
-5.989396,0.2833334,-11.20046,-8.139860190227333,0.0308504862029573,-2.3483958605164386,3.568196,54.05421,0.07894795,0.02804624,0.4541724,-0.01353395,8.41999981179833,1
-5.939803,0.4833333,-11.16279,-8.439900383663222,-0.2168769786581715,-2.344738377203843,7.135244,54.06162,0.1584445,0.05605616,0.4535118,-0.02705077,8.4399998113513,1
-5.890224,0.6833333,-11.12514,-8.771343540316332,0.2164456120617224,-2.409893167712216,10.70126,54.07415,0.2391821,0.08400378,0.4524119,-0.04053741,8.45999981090426,1
-5.840659,0.8833332,-11.0875,-9.085422761554945,-0.0010350243147466,-2.322886466628324,14.26623,54.09202,0.3218156,0.1118621,0.4508742,-0.05398099,8.47999981045723,1
-5.672493,0.2833334,-10.95994,-9.24667501397986,-0.2033920202045423,-2.198859667519738,3.646833,53.53685,0.0889703,0.02875881,0.4501354,-0.01363807,8.49999981001019,1
-5.622233,0.4833334,-10.92086,-9.253432892457845,-0.4449868500377852,-2.0339071126226287,7.292626,53.54541,0.1786478,0.05748039,0.4494513,-0.02725842,8.51999980956316,1
-5.571986,0.6833334,-10.88178,-9.255789487345464,0.1802033916612236,-1.9214025676987152,10.93737,53.55986,0.2697896,0.08613573,0.4483125,-0.0408472,8.53999980911613,1
-5.644528,0.2833334,-10.85613,-9.138957544989411,-0.0855052884726619,-1.6254445270078843,3.619498,53.58852,0.1118275,0.02862971,0.4505355,-0.01336559,8.55999980866909,1
-5.594868,0.4833333,-10.81707,-8.881051676401063,-0.3360902240143713,-1.3034973420381035,7.237927,53.59919,0.2245322,0.05722253,0.4498609,-0.02671385,8.57999980822206,1
-5.545222,0.6833333,-10.77803,-8.645040347631571,0.0943750001304467,-1.0595563920732165,10.85527,53.61721,0.3390317,0.08574995,0.4487377,-0.04003154,8.59999980777502,1
-5.620707,0.2833334,-10.75159,-8.227588241389935,-0.1259627791902851,-0.6812944739532973,3.561236,53.89745,0.1935321,0.02846352,0.4529267,-0.01257711,8.61999980732799,1
-5.572509,0.4833333,-10.71224,-7.690035954292226,-0.3311770540148754,-0.2871206517394054,7.121393,53.91561,0.3885207,0.05689123,0.4522688,-0.02513832,8.63999980688095,1
-5.524324,0.6833333,-10.6729,-7.223943549550951,0.1446589231916878,0.0017691584662458,10.6804,53.94627,0.5865335,0.08525547,0.4511735,-0.03767121,8.65999980643392,1
-5.47615,0.8833331,-10.63358,-6.660256777309402,0.6100058627512601,0.3000841512267609,14.2379,53.99012,0.7897043,0.1135283,0.4496428,-0.05015879,8.67999980598688,1
-5.427989,0.9766704,-10.59426,-5.924359170080734,0.1598868410642051,0.6954698538386772,17.79417,54.04799,0.9993316,0.1416833,0.447678,-0.06259421,8.69999980553985,1
-5.596479,0.2833333,-10.58997,-5.09662355624158,-0.3007210063998939,1.098927644502096,3.491784,53.07088,0.2496054,0.02823002,0.4464835,-0.01166322,8.71999980509281,1
-5.550418,0.4833332,-10.54987,-4.42532996652703,0.1331595897282586,1.3526825644671838,6.982463,53.09384,0.5010369,0.05642545,0.4458587,-0.02331181,8.73999980464578,1
-5.504364,0.6833332,-10.50978,-3.5759888663714445,-0.0837630331380169,1.6964750652119864,10.47149,53.13271,0.7570404,0.08455946,0.444819,-0.03492671,8.75999980419874,1
-5.657728,0.2833333,-10.50936,-2.6829339857834933,-0.2855619001739489,2.0256872418097487,3.432148,48.80959,0.19716,0.02798143,0.4129478,-0.01080725,8.77999980375171,1
-5.614956,0.4833333,-10.46731,-1.7492508263077964,-0.5265984847642446,2.345071133247318,6.862744,48.82756,0.3973651,0.05593151,0.412391,-0.02158654,8.79999980330467,1
-5.572196,0.6833334,-10.42528,-0.7445993210032071,-0.5411643007858647,2.654901233066596,10.29226,48.85786,0.6004122,0.0838232,0.4114637,-0.03234338,8.81999980285764,1
-5.719936,0.2833332,-10.37763,0.2622947989089406,-0.5160393369832171,2.935515499092313,3.380123,42.35487,0.06715398,0.0277127,0.361084,-0.0101083,8.8399998024106,1
-5.681099,0.4833333,-10.33324,1.2679340406723745,-0.5045395496372196,3.19210067917305,6.758865,42.36103,0.1368302,0.05539653,0.3606133,-0.02018688,8.85999980196357,1
-5.642273,0.6833332,-10.28886,2.1232738358067023,0.1603069934502711,3.2998236313436795,10.13665,42.37142,0.2074744,0.08302447,0.3598293,-0.03024505,8.87999980151653,1
-5.603458,0.8833332,-10.24449,2.954242507455338,0.6741772279882137,3.37701045759815,13.51343,42.38621,0.2795938,0.1105722,0.3587328,-0.04027408,8.8999998010695,1
-5.761649,0.2833333,-10.1558,3.959164736724409,0.1610199073240915,3.5053526362692766,3.323046,35.703,359.9592,0.02748987,0.3064319,-0.009227275,8.91999980062246,1
-5.727276,0.4833333,-10.10911,4.72677161082383,0.3581493961878537,3.464522764697945,6.644865,35.69951,359.9191,0.05494908,0.3060457,-0.01843536,8.93999980017543,1
-5.692906,0.6833333,-10.06243,5.417161786052113,0.5729811951483701,3.378588793722046,9.9657,35.69384,359.8798,0.08235762,0.3054032,-0.02761414,8.95999979972839,1
-5.773195,0.2833332,-9.915374,6.19348976717199,0.112930698055478,3.3246810860816245,3.272048,30.64794,359.8654,0.02722471,0.264201,-0.008677726,8.97999979928136,1
-5.742106,0.4833332,-9.86744,6.867117268099799,-0.357120864136893,3.2242326823369405,6.543107,30.63635,359.7299,0.05441924,0.2638775,-0.01734532,8.99999979883432,1
-5.711022,0.6833331,-9.819521,7.291412783112763,0.0678036578925325,2.9750908026532628,9.812963,30.61696,359.5937,0.08156166,0.2633392,-0.02598847,9.01999979838729,1
-5.679942,0.8833331,-9.771619,7.769008559304201,-0.1575869726122122,2.763202296597685,13.08182,30.58952,359.4555,0.1086314,0.262587,-0.03460177,9.03999979794025,1
-5.668979,0.2833333,-9.588076,8.09302248679102,-0.3673662343604557,2.4937124449240478,3.217288,25.88778,359.7573,0.02688479,0.223966,-0.008351619,9.05999979749322,1
-5.640689,0.4833333,-9.539413,8.406603867674274,0.1043927402308385,2.1886864133212534,6.433574,25.86724,359.5131,0.05374048,0.2236997,-0.01669381,9.07999979704618,1
-5.612407,0.6833332,-9.490765,8.575810848579831,0.5661507553962709,1.8398194131103829,9.648813,25.83266,359.266,0.08054595,0.2232565,-0.02501991,9.09999979659915,1
-5.531445,0.2833333,-9.337367,8.740597998563198,0.1129303288511922,1.51548715713104,3.373329,26.69867,359.7986,0.0282326,0.2308376,-0.008505374,9.11999979615211,1
-5.501842,0.4833333,-9.286335,8.887508444308946,0.3699968313593099,1.1644603432123866,6.745681,26.68078,359.5958,0.05643284,0.2305366,-0.01700099,9.13999979570508,1
-5.472248,0.6833332,-9.235316,8.882561112110446,0.6447657629667889,0.7795309929526688,10.11703,26.65063,359.3903,0.08457642,0.2300353,-0.02547944,9.15999979525805,1
-5.442667,0.883333,-9.18432,8.723807241040971,0.8849663648621233,0.3672550497742239,13.48858,26.60768,359.1803,0.1126493,0.2293342,-0.03393639,9.17999979481101,1
-5.342363,0.2833333,-9.055028,8.608788400122862,0.1845763169125998,0.029332484231257,3.537552,31.99354,359.8914,0.0294098,0.2754799,-0.009416669,9.19999979436398,1
-5.307998,0.4833333,-9.003678,8.311858977555536,-0.4244262900808574,-0.3358273190224485,7.074217,31.9834,359.7818,0.0587839,0.2750857,-0.01882342,9.21999979391694,1
-5.273656,0.6833333,-8.952345,8.092239217024312,-0.039332124606245,-0.6790848028577807,10.61106,31.96604,359.6689,0.08809978,0.2744285,-0.0282263,9.23999979346991,1
-5.125225,0.2833332,-8.812896,7.892131157254646,-0.3050408446399801,-0.9483656725351644,3.56321,39.02923,0.01156506,0.02933764,0.3338828,-0.0102904,9.25999979302287,1
-5.086193,0.4833333,-8.764495,7.520591215588555,-0.5556259283686863,-1.231019877613459,7.125712,39.03008,0.02068233,0.05863377,0.333398,-0.02058951,9.27999979257584,1
-5.047172,0.6833332,-8.716107,7.218547018228883,-0.1251607472599517,-1.471827197929124,10.68721,39.03152,0.0299432,0.08786503,0.3325914,-0.03086581,9.2999997921288,1
-4.849152,0.2833333,-8.571127,6.968882629977166,-0.3454986907101948,-1.6132971458502894,3.580383,46.15382,0.1922536,0.02939709,0.3917263,-0.01070215,9.31999979168177,1
-4.806392,0.4833333,-8.525452,6.562310859904825,-0.55071323742874,-1.7547865558378175,7.160088,46.17176,0.383877,0.05875302,0.3911507,-0.02140871,9.33999979123473,1
-4.763644,0.6833333,-8.479789,6.231652845174934,-0.0748771735401883,-1.8950783422185653,10.7387,46.20205,0.5784655,0.08804317,0.3901925,-0.03209143,9.3599997907877,1
-4.720909,0.8833332,-8.434139,5.783490224538841,0.390469745459637,-2.023140930098484,14.31618,46.24529,0.777674,0.1172389,0.3888533,-0.0427397,9.37999979034066,1
-4.678185,0.9766704,-8.388503,5.376621149187328,-0.059649296787164,-2.057996212124216,17.89245,46.30236,0.9832824,0.1463118,0.3871345,-0.05334314,9.39999978989363,1
-4.445743,0.2833334,-8.270591,4.845036020505917,-0.5202572710073368,-2.0756829599728954,3.571465,52.68872,0.2366185,0.02884131,0.443491,-0.01197898,9.41999978944659,1
-4.398636,0.4833334,-8.229584,4.431936589732136,-0.0863770278796011,-2.12158609916764,7.142128,52.71095,0.4746077,0.05764686,0.4428421,-0.02394715,9.43999978899956,1
-4.351553,0.6833333,-8.188575,3.940205560890944,0.3370142832747627,-2.1436919853537715,10.71172,52.74807,0.7136585,0.08637857,0.4417604,-0.03590892,9.45999978855252,1
-4.147308,0.2833334,-8.080055,3.5884831575609333,-0.1550605001945094,-2.0316021235745563,3.629538,56.13169,0.2047353,0.02878456,0.4701993,-0.01332375,9.47999978810549,1
-4.096675,0.4833333,-8.041825,3.287039323133062,0.0626638862799671,-2.0154751096340187,7.258013,56.15127,0.4109999,0.05753183,0.4694897,-0.02663088,9.49999978765845,1
-4.046055,0.6833333,-8.003607,2.92778829471004,0.2976027303517071,-1.982693111784105,10.88535,56.18432,0.6204876,0.08621272,0.4683083,-0.03990798,9.51999978721142,1
-3.825129,0.2833334,-7.884455,2.701500444301326,-0.1428285736067472,-1.836143754450488,3.596488,59.56889,0.2264884,0.02821608,0.4964389,-0.01387314,9.53999978676438,1
-3.773006,0.4833333,-7.849295,2.41665780913399,-0.5937487941187598,-1.6702616436961746,7.191875,59.59035,0.4546612,0.05639588,0.4957027,-0.02772887,9.55999978631735,1
-3.720897,0.6833333,-7.814147,2.109495230314338,-0.1501809013883688,-1.640939079547194,10.7861,59.62658,0.6863492,0.0845115,0.4944771,-0.04155366,9.57999978587031,1
-3.668806,0.8833333,-7.779002,1.7741820504705093,0.2828979552631503,-1.5982088974888944,14.37905,59.67805,0.9225203,0.1125306,0.4927629,-0.05534087,9.59999978542328,1
-3.482313,0.2833333,-7.685421,1.57421736967798,-0.1994891472411376,-1.4636806138968188,3.537778,62.65204,0.2894869,0.02768089,0.5195911,-0.01389151,9.61999978497624,1
-3.4298,0.4833333,-7.652601,1.294826593773958,0.0279228155701155,-1.4367808644470117,7.074431,62.67902,0.581071,0.05532695,0.5188435,-0.02776592,9.63999978452921,1
-3.377302,0.6833333,-7.61979,1.0035636831234434,0.2725492242177568,-1.4032824508580797,10.60986,62.72453,0.8770385,0.08291169,0.5175988,-0.04160989,9.65999978408217,1
-3.32482,0.8833332,-7.586981,0.8771533258890655,-0.158194527448371,-1.2790770851123785,14.14374,62.78925,1.178796,0.1104026,0.5158582,-0.05541648,9.67999978363514,1
-3.085446,0.2833333,-7.465001,0.7472982220187441,-0.5994269683783033,-1.148428998301493,3.472802,64.35852,0.3307063,0.02718274,0.5322492,-0.01369597,9.6999997831881,1
-3.033321,0.4833333,-7.433589,0.5427582891515043,-0.1461712950204208,-1.1002647842849915,6.944458,64.38877,0.6637422,0.05433216,0.5315095,-0.02737531,9.71999978274107,1
-2.98121,0.6833332,-7.402183,0.3466923831373839,0.2965953304977161,-1.046912586221457,10.41451,64.43971,1.001141,0.08141848,0.530278,-0.04102727,9.73999978229403,1
-2.769255,0.2833333,-7.292854,0.3908289073551556,-0.1761042411451707,-0.8751105443597265,3.416331,64.37724,0.2801532,0.02652877,0.5324082,-0.01381118,9.759999781847,1
-2.717626,0.4833333,-7.262676,0.3067886285440232,0.0609954808626486,-0.8080032398995138,6.831173,64.4024,0.5618079,0.05302114,0.5316938,-0.02760715,9.77999978139997,1
-2.666012,0.6833333,-7.232507,0.2242192969797094,0.3153095440786486,-0.7438599506535004,10.24489,64.44482,0.8474436,0.07945868,0.5305046,-0.04137451,9.79999978095293,1
-2.437165,0.2833333,-7.113867,0.3451235962320298,-0.1057465509282996,-0.5829999111369917,3.367076,63.21128,0.1726023,0.02581042,0.5238053,-0.01411439,9.8199997805059,1
-2.386082,0.4833332,-7.084706,0.2791387003984725,0.1829964219938201,-0.5431488638966471,6.732765,63.22656,0.3460583,0.05158686,0.5231254,-0.0282129,9.83999978005886,1
-2.335014,0.6833332,-7.055553,0.2048247313042607,0.4889538433658555,-0.5138046257660029,10.09743,63.25231,0.5218838,0.07731131,0.5219935,-0.04228304,9.85999977961183,1
-2.28396,0.8833331,-7.026409,0.1351288035281681,0.759855061095332,-0.4905133298572339,13.46103,63.28896,0.701373,0.1029615,0.5204108,-0.05631261,9.87999977916479,1
-2.08953,0.2833333,-6.928409,0.2357420579968307,0.0896776350015182,-0.3949057692713529,3.315757,61.9237,0.05477216,0.02505476,0.51424,-0.01447456,9.89999977871776,1
-2.038938,0.4833333,-6.900348,0.3503264884482093,-0.489600117870319,-0.3055515021653994,6.630525,61.92849,0.1098832,0.05008105,0.5135942,-0.0289328,9.91999977827072,1
-1.98836,0.6833332,-6.872292,0.2648131599643824,-0.0752690927752242,-0.3046676629983951,9.943961,61.93649,0.1653917,0.07505398,0.5125189,-0.04336346,9.93999977782369,1
-1.937796,0.8833332,-6.844244,0.1891758051152829,0.3280850058453588,-0.3054792599158711,13.25644,61.94788,0.2220256,0.09995708,0.5110156,-0.05775374,9.95999977737665,1
-1.690313,0.2833334,-6.719416,0.3439273531074441,-0.1845147456082035,-0.2008370448295524,3.260412,60.00555,359.9134,0.02425893,0.4998581,-0.01487946,9.97999977692962,1
-1.640292,0.4833333,-6.692296,0.3198391830295063,0.012196676812726,-0.18235917792083,6.519859,59.99813,359.8263,0.04849106,0.4992509,-0.02974255,9.99999977648258,1
-1.590286,0.6833333,-6.665183,0.2928598711189182,0.2256347731543132,-0.169952190742836,9.778311,59.98562,359.7381,0.07267655,0.4982398,-0.04457732,10.0199997760355,1
-1.371733,0.2833333,-6.5534,0.4543652529639264,-0.2367852895006529,-0.0701197309084245,3.208095,57.54601,359.8088,0.02373351,0.4811924,-0.01493536,10.0399997755885,1
-1.322719,0.4833333,-6.526176,0.4106052377008889,0.0101058211961697,-0.0749932178939358,6.415205,57.52988,359.6165,0.04744134,0.4806249,-0.02985455,10.0599997751415,1
-1.273719,0.6833332,-6.49896,0.3536930572698866,0.2737234985719114,-0.0894776395290888,9.621304,57.50271,359.4219,0.07110503,0.4796799,-0.04474582,10.0799997746944,1
-1.22473,0.8833331,-6.471752,0.295637720499427,0.5017971033403825,-0.1081303862591367,12.82607,57.46415,359.2238,0.09470499,0.4783588,-0.05959424,10.0999997742474,1
-1.034522,0.2833333,-6.376655,0.3878290402087025,-0.2116958185308423,-0.0561751986688738,3.451503,58.26343,359.8022,0.02546609,0.4866428,-0.0161677,10.1199997738004,1
-0.9814401,0.4833333,-6.347895,0.3238814348791448,-0.0024393888181696,-0.0764134591400145,6.902033,58.24544,359.603,0.05090208,0.4859785,-0.03231644,10.1399997733533,1
-0.928375,0.6833333,-6.319142,0.2588821257563254,0.2235434992862756,-0.0983052861175544,10.35189,58.21508,359.4007,0.07628636,0.4848724,-0.04843493,10.1599997729063,1
-0.7217975,0.2833333,-6.216159,0.3644482851082706,-0.2263316541713398,-0.0362897103662396,3.549256,60.19203,359.8457,0.02611838,0.5012457,-0.01669329,10.1799997724593,1
-0.6667061,0.4833333,-6.187714,0.4729027915784494,-0.6871835120407627,0.0259724116088229,7.098236,60.17755,359.6897,0.0522074,0.500523,-0.03337352,10.1999997720122,1
-0.6116304,0.6833333,-6.159277,0.3729621924534092,-0.2540349250007186,-0.012577185298193,10.64615,60.15311,359.5313,0.07823891,0.4993196,-0.05001689,10.2199997715652,1
-0.5565705,0.8833332,-6.130848,0.2766148192050819,0.1681367313831762,-0.0496019815737662,14.19298,60.11824,359.3692,0.1041878,0.4976373,-0.06660755,10.2399997711182,1
-0.296501,0.2833333,-6.000414,0.4138942765670883,-0.325645572162341,0.0286158324023073,3.586471,62.24672,359.9716,0.02666032,0.516636,-0.01638673,10.2599997706711,1
-0.2408856,0.4833333,-5.97171,0.3601462636318275,-0.1101166911179022,0.0128392097067635,7.172222,62.24403,359.943,0.05328919,0.5158769,-0.03275415,10.2799997702241,1
-0.1852861,0.6833333,-5.943014,0.2990681844697862,0.1221386483183104,-0.0065092614669364,10.75695,62.23951,359.9139,0.07985826,0.5146132,-0.04908486,10.2999997697771,1
0.04740046,0.2833333,-5.825118,0.432251271219684,-0.321464053807539,0.0705226287927818,3.553576,63.23363,0.07795303,0.02676017,0.5239657,-0.01567534,10.31999976933,1
0.1021418,0.4833333,-5.795975,0.3468370411560597,-0.0557554651471065,0.0380236323872376,7.105898,63.24096,0.1568556,0.05348692,0.5232099,-0.03132736,10.339999768883,1
0.1568676,0.6833333,-5.76684,0.2453561553096586,0.2266798081494426,-0.0024230133247762,10.65719,63.25334,0.2369659,0.08015461,0.5219516,-0.04694478,10.359999768436,1
0.2115778,0.8833332,-5.737713,0.1406555724930336,0.4735710077933085,-0.04472903994444,14.20744,63.271,0.3189474,0.1067377,0.5201923,-0.06251265,10.3799997679889,1
0.4093365,0.2833333,-5.639255,0.1983863354164441,-0.2211043058735311,-0.0086589826036842,3.623503,64.21144,0.1032314,0.02725927,0.5311931,-0.01604052,10.3999997675419,1
0.4654973,0.4833333,-5.610126,0.0875612007064958,0.0069695196508779,-0.0547819621293212,7.245964,64.22131,0.2072614,0.05448351,0.530396,-0.03206047,10.4199997670949,1
0.5216373,0.6833332,-5.581005,-0.0253384669574243,0.2517699113314997,-0.102146518692165,10.868,64.2379,0.3126579,0.08164888,0.5290686,-0.04804885,10.4399997666478,1
0.5777614,0.8833331,-5.551892,-0.1273147191942105,0.4610263371238804,-0.1444459052102322,14.48897,64.26161,0.4206147,0.1087249,0.5272127,-0.06398465,10.4599997662008,1
0.8290071,0.2833333,-5.426731,0.0044721755346097,-0.2712838693970532,-0.0712309121012633,3.629455,65.01804,0.1285774,0.02730827,0.5371326,-0.01607346,10.4799997657537,1
0.8854669,0.4833333,-5.397954,-0.0894838104360182,-0.0808449495330249,-0.1089448537011281,7.257838,65.03034,0.2581452,0.05458115,0.5363235,-0.0321262,10.4999997653067,1
0.9419109,0.6833333,-5.369184,-0.1852508222161013,0.1263205364872213,-0.1469219008335209,10.88513,65.0511,0.3897815,0.08179133,0.5349766,-0.04814207,10.5199997648597,1
1.166362,0.2833333,-5.25754,-0.087544078549151,-0.3423720180091849,-0.0882893061410916,3.575151,66.81377,0.2098316,0.02704784,0.5502645,-0.01564696,10.5399997644126,1
1.222256,0.4833333,-5.229621,-0.1887351350240362,-0.1017532806738986,-0.1286753188916352,7.149193,66.83353,0.4212378,0.05406123,0.5494586,-0.03127405,10.5599997639656,1
1.278134,0.6833332,-5.201711,-0.2946233311152979,0.1555920222948966,-0.1715867821707273,10.72209,66.8669,0.6359113,0.08101393,0.5481168,-0.04686612,10.5799997635186,1
1.333998,0.8833331,-5.173805,-0.3919122701800774,0.3773934655717753,-0.2107644018397976,14.2935,66.91446,0.8553986,0.1078764,0.546241,-0.06240832,10.5999997630715,1
1.520427,0.2833333,-5.080891,-0.3172797199873263,-0.3423717234646608,-0.1687890334631658,3.512472,67.62054,0.2654991,0.02675294,0.5561227,-0.01512929,10.6199997626245,1
1.575323,0.4833333,-5.053274,-0.3902385399623909,-0.1393877722644397,-0.1993874179548673,7.023831,67.6451,0.5329204,0.05347268,0.5553347,-0.03023988,10.6399997621775,1
1.630205,0.6833332,-5.025663,-0.4522666355199622,0.0803227461374092,-0.2258718500441214,10.53366,67.68656,0.8044013,0.08013195,0.554023,-0.04531536,10.6599997617304,1
1.834512,0.2833333,-4.923207,-0.4911325637490553,0.2644891796484038,-0.242339761156324,3.453221,67.50123,0.2907336,0.02646125,0.5552616,-0.01463124,10.6799997612834,1
1.888228,0.4833333,-4.89546,-0.4788791076554868,0.2273770832859118,-0.235141649691176,6.904915,67.52769,0.5837696,0.05288875,0.5545003,-0.02924086,10.6999997608364,1
1.941928,0.6833333,-4.86772,-0.4657785242117054,0.2357403535577343,-0.2282367542061325,10.35545,67.57233,0.881039,0.07926046,0.5532327,-0.04381958,10.7199997603893,1
1.995614,0.8833332,-4.839988,-0.439776559205133,0.236263034182963,-0.2155275343788982,13.80471,67.63593,1.184838,0.1055523,0.5514606,-0.05835417,10.7399997599423,1
2.253419,0.2833333,-4.711021,-0.218678428452149,-0.4646848918960422,-0.1055796716343921,3.402187,65.9087,0.1994238,0.02585529,0.5436867,-0.01468827,10.7599997594953,1
2.306183,0.4833333,-4.683613,-0.2273080372768499,-0.2428835710193568,-0.10887462038316,6.802935,65.92657,0.4002408,0.05167741,0.5429658,-0.02935708,10.7799997590482,1
2.358932,0.6833332,-4.656214,-0.2357045238599218,-0.004355682941046,-0.1110970820819257,10.20263,65.9567,0.6038733,0.07744655,0.5417654,-0.04399572,10.7999997586012,1
2.588735,0.2833333,-4.540741,-0.041842395333659,-0.4416859538592883,-0.0132741677202696,3.343771,64.26035,0.1092904,0.02521427,0.5315945,-0.01470964,10.8199997581542,1
2.640453,0.4833333,-4.513688,-0.0597179740993185,-0.1697049313777225,-0.0216423640554439,6.686096,64.26997,0.2193596,0.05039662,0.5309151,-0.02939988,10.8399997577071,1
2.692156,0.6833333,-4.486641,-0.0875173104376676,0.1190026583054686,-0.0357326291890776,10.02744,64.2862,0.3309195,0.07552887,0.5297841,-0.04406085,10.8599997572601,1
2.743845,0.8833332,-4.459603,-0.1133027837562075,0.3721661630978091,-0.0497850208279238,13.3678,64.30929,0.4447749,0.1005898,0.5282027,-0.05868018,10.879999756813,1
2.938698,0.2833333,-4.363088,-0.1251304665855546,0.4236857715217292,-0.0580408929881062,3.291653,62.54917,359.9802,0.02445816,0.5189301,-0.01505763,10.899999756366,1
2.989819,0.4833333,-4.336927,-0.0921197173221717,0.3558032224788913,-0.0458737971222094,6.582334,62.54747,359.9604,0.04888889,0.518288,-0.03009844,10.919999755919,1
3.040927,0.6833333,-4.310771,-0.0642417374219928,0.3338839187051303,-0.0368189243748897,9.871692,62.54455,359.9399,0.07326847,0.517219,-0.04511017,10.9399997554719,1
3.09202,0.8833332,-4.284623,-0.029718156436667,0.3046120239675541,-0.0250661657968667,13.16012,62.54039,359.9192,0.09758079,0.5157242,-0.06008045,10.9599997550249,1
3.339722,0.2833333,-4.160893,0.1830735925705937,-0.4256425849877938,0.0723501812934892,3.234978,59.6217,359.8459,0.02382331,0.4969727,-0.01519887,10.9799997545779,1
3.389766,0.4833333,-4.134668,0.1724070836157407,-0.2326602807453388,0.0586648787253945,6.468984,59.60859,359.6909,0.04762062,0.4963775,-0.03038109,10.9999997541308,1
3.439797,0.6833332,-4.10845,0.1576707160352892,-0.0224635168148009,0.0425593261995773,9.701988,59.5865,359.5339,0.07137299,0.4953864,-0.0455345,11.0199997536838,1
3.660415,0.2833333,-3.99746,0.3300040666468993,-0.4870282945691596,0.1176050359203109,3.284214,58.2291,359.7928,0.02415579,0.4864019,-0.01552237,11.0399997532368,1
3.711046,0.4833333,-3.970354,0.2972809820574262,-0.2418669345244127,0.0912749953409233,6.567442,58.21118,359.5842,0.04828479,0.4858005,-0.03102742,11.0599997527897,1
3.761662,0.6833333,-3.943255,0.2510776627035094,0.0204387113914319,0.05891139271551,9.849648,58.18102,359.3729,0.07236719,0.484799,-0.04650242,11.0799997523427,1
3.812262,0.8833333,-3.916166,0.2031120227464695,0.247621211648432,0.026514436255125,13.13129,58.13812,359.1577,0.09638776,0.4833985,-0.06193534,11.0999997518957,1
4.003418,0.2833333,-3.822409,0.3050127130661,-0.4540356828365131,0.0691159404271655,3.534873,59.8237,359.814,0.0259252,0.4984725,-0.01678645,11.1199997514486,1
4.058421,0.4833333,-3.7942,0.2538842137708323,-0.2339930539417005,0.0373767809026643,7.068754,59.80638,359.6266,0.05181865,0.4977593,-0.03355243,11.1399997510016,1
4.113394,0.6833333,-3.766002,0.2020713606179232,0.0017897669079768,0.0069956780986752,10.60354,59.77706,359.4358,0.0776678,0.4965707,-0.05029467,11.1599997505546,1
4.168351,0.8833332,-3.737813,0.1615613325137497,0.2011054892782037,-0.0160051024748217,14.13725,59.73522,359.2406,0.1034358,0.4949089,-0.0669843,11.1799997501075,1
4.410719,0.2833333,-3.618864,0.1635240540319076,0.1924033187438076,-0.0180918733225161,3.566651,61.96964,359.8966,0.02621495,0.5145854,-0.0167939,11.1999997496605,1
4.466507,0.4833333,-3.591216,0.1564352106570741,0.2266852820080687,-0.0229360766061734,7.132511,61.95988,359.7921,0.05239703,0.5138372,-0.03357077,11.2199997492135,1
4.522279,0.6833333,-3.563575,0.1527802502693918,0.2507679462203436,-0.024452921660623,10.69733,61.94342,359.6859,0.07852089,0.5125913,-0.05031028,11.2399997487664,1
4.737456,0.2833333,-3.455975,0.3356357239537546,-0.4176123101492655,0.0664311936690955,3.590151,63.31105,0.05491129,0.02691566,0.5245407,-0.01603193,11.2599997483194,1
4.792993,0.4833333,-3.426971,0.2803749549145866,-0.1666854079805595,0.040888220311364,7.179477,63.3163,0.1108504,0.0538015,0.5237685,-0.03203999,11.2799997478724,1
4.848513,0.6833333,-3.397976,0.218295325094564,0.0977134127959399,0.013347295959019,10.76777,63.32517,0.1676654,0.0806269,0.5224828,-0.04801204,11.2999997474253,1
5.082274,0.2833333,-3.281648,0.3518168326815809,-0.3050463878442023,0.0821726356739853,3.568269,64.1502,0.08606718,0.02678012,0.530753,-0.01589697,11.3199997469783,1
5.137649,0.4833333,-3.253153,0.2673787009702204,-0.002786660295706,0.0436244971151997,7.135376,64.15827,0.1726051,0.05352481,0.5299808,-0.03177465,11.3399997465312,1
5.193008,0.6833333,-3.224666,0.1677514674933338,0.3121529271503067,-0.0017736824759553,10.70144,64.1719,0.260474,0.08020994,0.5286952,-0.04761702,11.3599997460842,1
5.248352,0.8833332,-3.196187,0.0656728952806462,0.5877468998337234,-0.0478589148272661,14.26647,64.19135,0.3504192,0.1068098,0.526898,-0.06340871,11.3799997456372,1
5.30368,0.9766704,-3.167716,-0.0261185121386757,0.6181145709369951,-0.0884658377125549,17.83044,64.21703,0.4432297,0.1332987,0.5245912,-0.07913453,11.3999997451901,1
5.537662,0.2833333,-3.052943,-0.0744334979298306,0.5859314245289411,-0.1086904547001554,3.638214,64.99274,0.1173798,0.02732379,0.5369477,-0.01619086,11.4199997447431,1
5.594341,0.4833333,-3.024247,-0.1300033488020089,0.5946091817566486,-0.1313559458603521,7.275379,65.00399,0.2356689,0.05461221,0.5361352,-0.03236086,11.4399997442961,1
5.651006,0.6833333,-2.995559,-0.1797205834462802,0.591151821366921,-0.1500307315946989,10.91147,65.02299,0.355852,0.08183774,0.5347826,-0.04849367,11.459999743849,1
5.857436,0.2833333,-2.894581,-0.0478059699957098,-0.1071144536772135,-0.0793243744509846,3.603447,66.27146,0.1617776,0.02709916,0.5463163,-0.01600469,11.479999743402,1
5.913857,0.4833332,-2.866703,-0.1405121154437854,0.1124381202115598,-0.1180140111184546,7.205815,66.28682,0.3247821,0.05416352,0.5455046,-0.03198898,11.499999742955,1
5.970261,0.6833332,-2.838833,-0.23375837069484,0.3441590122258407,-0.1557979255550767,10.80707,66.31277,0.4903383,0.08116625,0.5441532,-0.04793701,11.5199997425079,1
6.194944,0.2839036,-2.72875,-0.1275918062461487,-0.0982030037271344,-0.0972162153673914,3.543513,67.75101,0.2418417,0.02684547,0.5570683,-0.01548201,11.5399997420609,1
6.250563,0.4839036,-2.701438,-0.2185339549489366,0.1642172281972784,-0.1359747524542414,7.085915,67.7736,0.4854725,0.05365722,0.5562659,-0.03094457,11.5599997416139,1
6.306165,0.6839035,-2.674133,-0.3126155597244118,0.4392364337024156,-0.1766396607978577,10.62715,67.81169,0.732796,0.08040957,0.5549299,-0.04637301,11.5799997411668,1
6.361754,0.8839034,-2.646835,-0.3972469940107928,0.6663362748870769,-0.2132928439869768,14.16681,67.86603,0.9857614,0.1070741,0.5530621,-0.06175144,11.5999997407198,1
6.548432,0.2954322,-2.554852,-0.2327405551508334,-0.0537685934172936,-0.1330812310399372,3.481968,68.00893,0.2821892,0.02656235,0.5589356,-0.01495037,11.6199997402728,1
6.60291,0.4954322,-2.527532,-0.2273250635551029,0.1473503809649137,-0.1302847411813146,6.962824,68.03481,0.5664001,0.05309223,0.5581567,-0.02988238,11.6399997398257,1
6.657375,0.6954322,-2.500221,-0.2235330689634231,0.3640130969947246,-0.1289446785960666,10.44208,68.0785,0.8549851,0.07956314,0.5568601,-0.04477885,11.6599997393787,1
6.711824,0.8954321,-2.472918,-0.2091544333292372,0.5442915874910692,-0.1230446869593782,13.92009,68.14079,1.150023,0.1059527,0.5550475,-0.05962956,11.6799997389317,1
6.952334,0.3086638,-2.354385,-0.0474174595847625,-0.2261264056858924,-0.0508035812282894,3.424538,67.20535,0.2597641,0.02614108,0.5531255,-0.01464939,11.6999997384846,1
7.005654,0.5086637,-2.327054,-0.0891146972607206,-0.0729139172943088,-0.0789320848794097,6.847571,67.2288,0.5215432,0.05224899,0.5523807,-0.02927765,11.7199997380376,1
7.058959,0.7086637,-2.29973,-0.1235963398452177,0.0982066550855885,-0.1039779627370939,10.26948,67.26833,0.7870346,0.07830254,0.5511406,-0.04387543,11.7399997375906,1
7.2721,0.3191904,-2.19465,0.0253652291074111,-0.4109834448731241,-0.0879030285544459,3.369937,65.45607,0.1566896,0.02547495,0.5403839,-0.01474752,11.7599997371435,1
7.324444,0.5191903,-2.16774,-0.0055302559371526,-0.2083675865123624,-0.1604641480675855,6.738426,65.46998,0.3144304,0.0509172,0.5396818,-0.02947584,11.7799997366965,1
7.376772,0.7191902,-2.140837,-0.0344630063958923,0.0137407056869564,-0.2317627864199043,10.1059,65.49342,0.4743348,0.07630814,0.5385127,-0.04417446,11.7999997362494,1
7.607049,0.3302159,-2.027444,-0.0499459348358044,0.2033421013976376,-0.2958011428074713,3.316915,63.75347,0.04323677,0.02477589,0.5278631,-0.01496354,11.8199997358024,1
7.658615,0.5302159,-2.00118,-0.0043328675479656,0.1695597277224786,-0.4440696295055105,6.632849,63.75725,0.08674561,0.04952369,0.5271998,-0.02991019,11.8399997353554,1
7.710168,0.7302158,-1.974921,0.0265748261535634,0.1854822025759884,-0.5917489677430045,9.947426,63.7636,0.1307234,0.07421948,0.5260955,-0.04482646,11.8599997349083,1
7.761707,0.9302157,-1.94867,0.054189617498217,0.1980382683985446,-0.7325499384070547,13.26105,63.77263,0.1755904,0.09884617,0.5245515,-0.059701,11.8799997344613,1
7.813231,0.986047,-1.922426,0.0899914293695083,0.1541569072038467,-0.8602375298151955,16.57373,63.7845,0.2216851,0.1233832,0.5225695,-0.07452138,11.8999997340143,1
8.044961,0.3445841,-1.809834,0.3045372863189293,-0.727883486428217,-0.9845346593782154,3.260248,61.497,359.9045,0.02402235,0.5110839,-0.01525984,11.9199997335672,1
8.095739,0.5445842,-1.784158,0.3179397477388743,-0.5824918523290032,-1.1898426539839213,6.519522,61.48882,359.8085,0.04801809,0.5104631,-0.03050286,11.9399997331202,1
8.146503,0.7445841,-1.75849,0.330495436777861,-0.4150689372703799,-1.3782726016959763,9.777802,61.47502,359.7112,0.07196769,0.5094293,-0.04571683,11.9599997326732,1
8.349679,0.3545504,-1.658845,0.5319892679822846,-0.9197344455927284,-1.5502448299196478,3.207796,58.87286,359.8036,0.02353437,0.4913061,-0.01524748,11.9799997322261,1
8.399351,0.5545504,-1.632842,0.5533760491097812,-0.7091113685825335,-1.7826564969667489,6.41461,58.85628,359.6061,0.04704335,0.4907266,-0.03047839,11.9999997317791,1
8.44901,0.7545503,-1.606846,0.5660639016092475,-0.4755628033218832,-1.991652823218604,9.620408,58.82838,359.4062,0.07050855,0.4897618,-0.0456808,12.0199997313321,1
8.673691,0.360136,-1.497267,0.5814340842250694,-0.2711377594581819,-2.1714686629362223,3.451193,59.44535,359.7984,0.02527905,0.4956228,-0.0164572,12.039999730885,1
8.727384,0.560136,-1.469667,0.6515420925952782,-0.2840124714910357,-2.4171349186402726,6.901418,59.42702,359.5953,0.0505283,0.4949464,-0.03289508,12.059999730438,1
8.781059,0.7601359,-1.442074,0.6949203780168016,-0.2443892058712916,-2.635522988062548,10.35095,59.39609,359.3892,0.07572633,0.4938199,-0.04930161,12.079999729991,1
8.834709,0.9520311,-1.414495,0.7235344968137625,-0.2053748442775961,-2.8212116408241057,13.80102,59.35197,359.1784,0.1008604,0.492244,-0.06566646,12.0999997295439,1
9.101113,0.3488908,-1.286736,0.9603295962758622,-0.8616042581331309,-2.9670991218542726,3.546907,61.69754,359.8587,0.02593721,0.5125606,-0.01692739,12.1199997290969,1
9.15679,0.5488907,-1.259569,1.02270944807141,-0.6011289080511513,-3.148797493975269,7.093528,61.68428,359.7157,0.05184501,0.5118227,-0.03384164,12.1399997286499,1
9.21245,0.7488906,-1.23241,1.0643994123008902,-0.3175254093221919,-3.292407085620362,10.6391,61.6619,359.5705,0.07769576,0.5105942,-0.05071866,12.1599997282028,1
9.268095,0.9488904,-1.205258,1.0981119469518497,-0.0629213334392968,-3.393138441675143,14.18361,61.62995,359.422,0.1034648,0.5088767,-0.06754228,12.1799997277558,1
9.440451,0.3408014,-1.125854,1.1365842278816043,-0.0369359278111515,-3.4463153635324297,3.590281,66.04322,0.03151242,0.02641553,0.5446806,-0.0168408,12.1999997273088,1
9.497487,0.5408014,-1.099924,1.1803914671778395,-0.1031292374426998,-3.5595467573091177,7.179909,66.04613,0.06249494,0.05279669,0.5438785,-0.03366762,12.2199997268617,1
9.554507,0.7408013,-1.074002,1.2037939111742624,-0.1182128535887211,-3.6298528100640497,10.76852,66.05104,0.09394911,0.07911855,0.5425432,-0.05045676,12.2399997264147,1
9.76581,0.3352404,-1.018083,1.2199650405838938,-0.1354362288894959,-3.653237945366372,3.548435,71.91472,0.1840905,0.02600432,0.5868605,-0.01687999,12.2599997259676,1
9.823675,0.5352405,-0.9958369,1.2296082191905473,-0.1414358387769928,-3.719588339137826,7.095674,71.93177,0.3678236,0.05196643,0.5860141,-0.03375027,12.2799997255206,1
9.881524,0.7352405,-0.9735969,1.2148795660456546,-0.0974966944980906,-3.742445565279384,10.64184,71.96054,0.5543486,0.07787127,0.5846052,-0.0505835,12.2999997250736,1
9.939356,0.9352404,-0.9513631,1.1893282529223956,-0.0569267121655338,-3.7184240745060193,14.18688,72.0016,0.7452189,0.103694,0.5826356,-0.06736333,12.3199997246265,1
10.23156,0.3301676,-0.9222038,1.1538583267806182,-0.0069807166991312,-3.747005857959613,3.610162,78.6821,0.2425939,0.02570254,0.6335676,-0.01833206,12.3399997241795,1
10.29254,0.5301676,-0.905754,1.0860484530488144,0.091483073316149,-3.734655474990758,7.219243,78.70516,0.4869584,0.05137169,0.6326203,-0.03664136,12.3599997237325,1
10.35348,0.7301675,-0.8893039,0.9998275873439706,0.1850959962502015,-3.678589190276591,10.82804,78.74394,0.734009,0.07698187,0.6310423,-0.0549216,12.3799997232854,1
10.41441,0.9301674,-0.8728463,0.9091474830816216,0.2204892837538831,-3.5761457348102343,14.43567,78.7989,0.9851921,0.1024987,0.6288353,-0.07315411,12.3999997228384,1
10.62436,0.327408,-0.8712756,1.0923805234675488,-0.5371304633612267,-3.421139079463053,3.614669,82.36651,0.2161577,0.0249777,0.658096,-0.01934828,12.4199997223914,1
10.68638,0.527408,-0.8592071,1.050219000512875,-0.3270385165099149,-3.3186449087613945,7.228235,82.38709,0.4339035,0.04992274,0.6571106,-0.03867214,12.4399997219443,1
10.74839,0.7274081,-0.8471432,0.9903528000413608,-0.0996382811182202,-3.174011526700304,10.84064,82.42184,0.6550254,0.0748103,0.65547,-0.05795229,12.4599997214973,1
10.9778,0.325754,-0.8410547,0.927432287859677,0.0926684557710196,-2.985453116805148,3.563088,86.35968,0.3011005,0.02446733,0.6838979,-0.01935855,12.4799997210503,1
11.03951,0.5257541,-0.8319122,0.8682171030919346,0.0513971150141083,-2.83942949565858,7.125019,86.38793,0.6043786,0.04890315,0.6828992,-0.038693,12.4999997206032,1
11.1012,0.725754,-0.8227735,0.7973813824465985,0.0544863011094449,-2.6568767458794285,10.68574,86.43562,0.9122517,0.07328407,0.6812367,-0.05798482,12.5199997201562,1
11.16288,0.9257538,-0.8136294,0.7295319834707197,0.0484330794143818,-2.43681005214824,14.24501,86.5034,1.226083,0.09757864,0.6789119,-0.07722175,12.5399997197092,1
11.45195,0.3238996,-0.8063482,0.469179738363632,0.6933172278487989,-2.278712431851938,3.499099,89.30222,0.3416642,0.02381383,0.7023925,-0.01933637,12.5599997192621,1
11.51292,0.5238996,-0.799668,0.4490559007298298,0.449902989265121,-2.094910126895126,6.997025,89.33371,0.6857591,0.04759795,0.701401,-0.03864896,12.5799997188151,1
11.57387,0.7238995,-0.792985,0.4200510395690546,0.2248201063877289,-1.8870669695451072,10.49339,89.38671,1.034233,0.07132429,0.6997503,-0.05792221,12.5999997183681,1
11.83247,0.322762,-0.784624,0.396280459348528,-0.0267831496316632,-1.6551505721007875,3.437965,90.142,0.3301134,0.0232236,0.7075999,-0.01920397,12.619999717921,1
11.89247,0.522762,-0.7790178,0.3382548554929965,-0.0446297693826108,-1.5173931360930042,6.874412,90.17184,0.6620311,0.04641388,0.7066361,-0.03838542,12.639999717474,1
11.95244,0.7227619,-0.7734132,0.2584682874550061,-0.0185921287530637,-1.369706341200886,10.30966,90.22216,0.99869,0.06955551,0.7050316,-0.05752669,12.6599997170269,1
12.0124,0.9227619,-0.7678102,0.1706617015404852,-0.0021487887174854,-1.2129110386676802,13.74357,90.29387,1.342683,0.09262742,0.7027882,-0.07661028,12.6799997165799,1
12.07234,0.9845563,-0.7622088,0.0886244248010221,-0.048778416446661,-1.0479620635188407,17.176,90.38832,1.696818,0.1156088,0.6999087,-0.09561901,12.6999997161329,1
12.33015,0.3214275,-0.7590861,0.0423577613867038,-0.0960011768715859,-0.9364542141381632,3.386473,89.1759,0.204297,0.02229445,0.7016582,-0.01947381,12.7199997156858,1
12.38917,0.5214275,-0.7546793,-0.0071505008442596,-0.0988240193612683,-0.8241420603651903,6.771522,89.19408,0.4094295,0.04455715,0.700736,-0.0389258,12.7399997152388,1
12.44818,0.7214274,-0.7502738,-0.0460372654194927,-0.1106852229428454,-0.7125952168963057,10.15552,89.2247,0.6174026,0.06677452,0.6992007,-0.05833821,12.7599997147918,1
12.67528,0.3207488,-0.7462539,-0.2456400885517116,0.5419406921837364,-0.63952492965224,3.330513,88.00232,0.09252586,0.02146435,0.6943625,-0.0196067,12.7799997143447,1
12.7333,0.5207489,-0.7426201,-0.2074195355990991,0.3081846004872574,-0.5696983499056801,6.65959,88.0104,0.1853106,0.04289939,0.6934823,-0.03919049,12.7999997138977,1
12.79129,0.7207489,-0.7389871,-0.165964879426081,0.0946426111225687,-0.506207650926528,9.987703,88.02402,0.2793417,0.06429215,0.692017,-0.05873561,12.8199997134507,1
13.03756,0.3201073,-0.7343326,-0.1072252355278973,-0.1531426953657778,-0.4506601621777664,3.279396,86.70487,359.9668,0.02060796,0.6862091,-0.0198537,12.8399997130036,1
13.09471,0.5201072,-0.7316326,-0.1084628626543082,-0.1638602149715862,-0.4117361638120909,6.557838,86.702,359.9334,0.041193,0.6853662,-0.03968545,12.8599997125566,1
13.15185,0.7201071,-0.7289304,-0.1227548406937621,-0.1293351756380021,-0.3789555466014945,9.834958,86.69713,359.8992,0.06173363,0.6839629,-0.05947932,12.8799997121096,1
13.20897,0.920107,-0.7262291,-0.1367402345610653,-0.1029552253995588,-0.353425784362782,13.11114,86.69019,359.8642,0.08221784,0.6820009,-0.07921898,12.8999997116625,1
13.51381,0.3194098,-0.7201105,-0.1370506431948239,-0.1381077721947656,-0.3363396144521485,3.224159,83.7404,359.816,0.0198779,0.667214,-0.01997182,12.9199997112155,1
13.57008,0.5194098,-0.7171662,-0.0362002798274865,-0.1786841658581834,-0.3088679596363771,6.447343,83.7248,359.631,0.0397343,0.6664194,-0.03992185,12.9399997107685,1
13.62632,0.7194097,-0.7142227,0.0519283562423211,-0.1738684096863384,-0.2860189100020121,9.669506,83.69852,359.4436,0.0595533,0.6650963,-0.05983432,12.9599997103214,1
13.68255,0.9194097,-0.7112808,0.1411470684005049,-0.1770359363486702,-0.2684358771952769,12.89031,83.66119,359.2528,0.07931817,0.6632466,-0.07969073,12.9799997098744,1
13.90281,0.318797,-0.7076945,0.044302092383976,0.4807120906996018,-0.2496505291518508,3.37323,83.63093,359.8004,0.02077525,0.666482,-0.02092136,12.9999997094274,1
13.96172,0.518797,-0.7046272,0.1085717247651825,0.2530470593459825,-0.2314165045986352,6.745472,83.6132,359.5995,0.04152656,0.6656129,-0.04181872,13.0199997089803,1
14.02062,0.7187968,-0.7015605,0.1720137488897357,0.0462394754125532,-0.2160713464192537,10.11672,83.58332,359.3958,0.06223622,0.6641659,-0.06267408,13.0399997085333,1
14.07949,0.9187967,-0.6984952,0.2485244634803365,-0.1941239210926421,-0.204058628647095,13.48814,83.54074,359.1877,0.08289361,0.6621418,-0.08347694,13.0599997080863,1
14.36044,0.3181083,-0.6953374,0.2571598450639616,-0.2004118353584933,-0.1909763940987053,3.533376,86.06125,359.8517,0.02165345,0.6820934,-0.02198332,13.0799997076392,1
14.42215,0.5181084,-0.6936976,0.2535923977657059,-0.1611444490425738,-0.1786555803160089,7.066237,86.04739,359.7017,0.04327986,0.6811189,-0.04394629,13.0999997071922,1
14.48384,0.7181083,-0.6920576,0.2516304228450714,-0.1296812532562756,-0.167382342138301,10.59881,86.02397,359.5493,0.06486291,0.679496,-0.06586673,13.1199997067451,1
14.73459,0.317757,-0.6884027,0.0278192118584321,0.5622721357916601,-0.1594808302998951,3.577,87.65668,359.9407,0.02215744,0.6921743,-0.02198609,13.1399997062981,1
14.797,0.5177569,-0.6868859,0.0497781376638322,0.3687541080290291,-0.1495591505684961,7.153325,87.65108,359.8809,0.04428877,0.6911625,-0.04394701,13.1599997058511,1
14.85939,0.7177569,-0.6853697,0.0575143090554028,0.1962694128447121,-0.1406733040383043,10.72862,87.64163,359.8202,0.06637064,0.6894779,-0.06585889,13.179999705404,1
14.92177,0.9177568,-0.683854,0.0652524144572055,-0.0095834151660305,-0.1330680261942179,14.30288,87.62815,359.758,0.08838155,0.6871228,-0.08770048,13.199999704957,1
15.1306,0.317397,-0.6802502,0.2979577200917269,-0.7780014639240028,-0.1244138807915021,3.571958,88.85266,0.0693414,0.02268072,0.699638,-0.02138411,13.21999970451,1
15.19289,0.517397,-0.6777841,0.2951830165963969,-0.5563923122226822,-0.1147617099086358,7.142873,88.85923,0.1396435,0.04533548,0.6986184,-0.04273854,13.2399997040629,1
15.25516,0.7173969,-0.6753188,0.2835448402807756,-0.3181840067814874,-0.1056240535979269,10.71278,88.87032,0.2110362,0.0679399,0.6969206,-0.06404548,13.2599997036159,1
15.31741,0.9173968,-0.6728541,0.2775346510090912,-0.1156815771594199,-0.0971549302446705,14.28165,88.88614,0.2841165,0.09047194,0.6945471,-0.08528414,13.2799997031689,1
15.58748,0.3168391,-0.6696523,0.0898315233137942,0.5792484500038456,-0.0890595888570273,3.607942,90.03266,0.1100027,0.02293204,0.7069361,-0.02158782,13.2999997027218,1
15.65044,0.516839,-0.6677741,0.127137647505112,0.3068546850958492,-0.0800779898313491,7.214842,90.04312,0.2208451,0.04583475,0.7058842,-0.04314812,13.3199997022748,1
15.71338,0.7168389,-0.6658946,0.1641739424294428,0.0556241746913938,-0.0717644622142087,10.82105,90.06074,0.3331747,0.06868617,0.7041327,-0.06466335,13.3399997018278,1
15.95437,0.3164724,-0.6627449,-0.0101938540361317,0.4922198490424166,-0.0653820840089367,3.633219,90.48539,0.1133794,0.02302271,0.7097163,-0.02181407,13.3599997013807,1
16.01779,0.5164725,-0.6613073,0.0002674857973019,0.2837603505260264,-0.056582709164658,7.265366,90.49625,0.2276427,0.04601556,0.7086455,-0.04359986,13.3799997009337,1
16.08118,0.7164724,-0.6598703,0.0066409118004564,0.096491838476792,-0.0471655289689237,10.89645,90.51458,0.3437275,0.06895553,0.7068626,-0.06533565,13.3999997004867,1
16.14456,0.9164724,-0.6584322,0.0239604172513914,-0.1239792631423759,-0.0371341632441146,14.52672,90.54073,0.4624445,0.09182014,0.7043698,-0.08700251,13.4199997000396,1
16.44501,0.3160524,-0.6549118,-0.027132612122962,-0.1115610289982098,-0.0281328489012543,3.580185,92.66963,0.2155075,0.02292775,0.7229919,-0.02129921,13.4399996995926,1
16.50758,0.5160524,-0.6540695,-0.0938093815245721,-0.0533341709981152,-0.0191175771031282,7.159266,92.68996,0.4326338,0.04582623,0.7219298,-0.04257137,13.4599996991456,1
16.57013,0.7160524,-0.6532275,-0.1613147871701947,-0.0026453926130308,-0.0101998938033943,10.73719,92.72427,0.6531349,0.06867316,0.7201616,-0.0637956,13.4799996986985,1
16.63266,0.9160526,-0.652384,-0.2149173776984589,-0.012841277265877,-0.0014943040783909,14.3136,92.77319,0.8785592,0.09144255,0.7176897,-0.08495104,13.4999996982515,1
16.84063,0.3158032,-0.6498066,-0.1667823384868434,-0.0305709570042432,0.0077625876187801,3.514057,93.45488,0.2667097,0.02271106,0.7277079,-0.02072967,13.5199996978045,1
16.9021,0.5158033,-0.648852,-0.1289658272670379,-0.0024494009798018,0.0148898454885469,7.026979,93.47957,0.5353691,0.04539389,0.7266759,-0.04143344,13.5399996973574,1
16.96355,0.7158034,-0.6478982,-0.0871962079535002,0.0181770619420864,0.0199072958358824,10.53837,93.52122,0.8080664,0.06802525,0.7249578,-0.06208966,13.5599996969104,1
17.19191,0.3155683,-0.6444657,-0.0271250938765241,-0.022038455788955,0.0228221657606283,3.453722,93.31693,0.2907438,0.02252727,0.7268904,-0.02017564,13.5799996964633,1
17.25236,0.5155683,-0.6428797,-0.0323538297831547,-0.0693281533515783,0.0243241864527954,6.905897,93.3434,0.5837933,0.04502637,0.7258934,-0.04032253,13.5999996960163,1
17.31278,0.7155682,-0.6412942,-0.0443090792269629,-0.0707529762851092,0.0247646780050029,10.35691,93.38804,0.8810678,0.0674779,0.7242336,-0.06042685,13.6199996955693,1
17.3732,0.9155684,-0.6397092,-0.0494167217034551,-0.0796574572647275,0.0243879468480983,13.80664,93.45165,1.184877,0.08986132,0.721913,-0.0804702,13.6399996951222,1
17.6611,0.3151339,-0.6356382,-0.2611040584669304,0.5713233820085819,0.0210153441931028,3.40241,91.70341,0.1991722,0.02192429,0.7171862,-0.02009167,13.6599996946752,1
17.72054,0.515134,-0.6339262,-0.2336339789983021,0.3372537178294086,0.0208661694578952,6.803356,91.72125,0.3997428,0.04382047,0.716235,-0.04015674,13.6799996942282,1
17.77996,0.715134,-0.6322147,-0.2143926424056701,0.1244516366776417,0.0213061318579487,10.20326,91.75134,0.6031175,0.06567174,0.7146513,-0.06018071,13.6999996937811,1
18.03682,0.3147641,-0.6280728,-0.189788487245849,-0.1214723651727375,0.0224355478914135,3.343886,90.03804,0.1090244,0.02129692,0.7070205,-0.01996569,13.7199996933341,1
18.09516,0.514764,-0.6262069,-0.1208829627718799,-0.1348153928918081,0.023307413531721,6.68633,90.04765,0.2188356,0.04256713,0.7061169,-0.03990529,13.7399996928871,1
18.15348,0.7147639,-0.6243416,-0.0633038208104359,-0.1023097390482684,0.0230414244074761,10.02777,90.06384,0.3301239,0.06379486,0.7046125,-0.05980513,13.75999969244,1
18.21179,0.914764,-0.6224771,-0.0032507662069107,-0.0772998460634968,0.0216637415781751,13.36821,90.08687,0.4436909,0.08496208,0.702509,-0.07964836,13.779999691993,1
18.27008,0.9829565,-0.620613,0.0730723319728028,-0.1131300363108583,0.0191938532454825,16.70766,90.11717,0.5604246,0.1060512,0.6998089,-0.09941833,13.799999691546,1
18.52751,0.3142355,-0.617883,0.1959481528380848,-0.1563173905849348,0.0172137325179455,3.286197,87.81489,359.9584,0.02040676,0.6932178,-0.02014617,13.8199996910989,1
18.58483,0.5142355,-0.6164265,0.3019554498061936,-0.1536357764879178,0.0141428320532592,6.571419,87.81129,359.9166,0.04079064,0.6923627,-0.04026987,13.8399996906519,1
18.64213,0.7142355,-0.6149691,0.4049346095396835,-0.158429041602382,0.0101136967997366,9.855286,87.80522,359.8741,0.06113158,0.6909392,-0.06035329,13.8599996902049,1
18.86844,0.3139426,-0.6114572,0.3049419883982907,0.4966870449193153,0.0037329616319382,3.231211,85.392,359.8552,0.0198647,0.6778644,-0.02004705,13.8799996897578,1
18.92484,0.5139426,-0.6094415,0.3701551476823184,0.2667157008519367,-0.002332359561852,6.461447,85.37968,359.7095,0.03970783,0.6770546,-0.0400721,13.8999996893108,1
18.98121,0.7139426,-0.6074262,0.4269360312983608,0.058027228598009,-0.0092803873070588,9.690684,85.35896,359.562,0.05951353,0.6757063,-0.0600593,13.9199996888638,1
19.22778,0.3135478,-0.6031003,0.489043318335117,-0.1837674660287549,-0.0168543741732134,3.282432,83.96772,359.795,0.02009331,0.6686839,-0.02048765,13.9399996884167,1
19.28512,0.5135479,-0.6006355,0.2856036115379439,0.4478310915655504,-0.0272985997589502,6.563866,83.95,359.5887,0.04016432,0.6678579,-0.04095239,13.9599996879697,1
19.34245,0.7135478,-0.5981713,0.313629448868479,0.1944043233836744,-0.0348804991660279,9.84431,83.92019,359.3797,0.06019674,0.6664827,-0.06137779,13.9799996875226,1
19.39976,0.9135478,-0.5957092,0.3264316989412208,-0.0377586343974088,-0.0419816470272035,13.12418,83.87776,359.1668,0.08017808,0.6645595,-0.08174871,13.9999996870756,1
19.71007,0.31292,-0.591698,0.3379097792879584,-0.3030461838148566,-0.0482954729349272,3.525902,86.06602,359.8329,0.02149272,0.6821287,-0.02205985,14.0199996866286,1
19.7717,0.51292,-0.590402,0.3870662372266125,-0.3357087899894022,-0.0528767804651966,7.050794,86.05049,359.6645,0.04295886,0.6811581,-0.04409291,14.0399996861815,1
19.83329,0.7129201,-0.5891026,0.4186866067096524,-0.3225581251080666,-0.0560815149569633,10.57656,86.02419,359.4929,0.0643866,0.6795408,-0.06609362,14.0599996857345,1
19.89487,0.9129201,-0.5878035,0.4471649153044374,-0.3169363763795461,-0.0576918546806599,14.10126,85.98666,359.3173,0.08574728,0.6772795,-0.08802548,14.0799996852875,1
20.11449,0.312598,-0.5857511,0.2865098608296961,0.348384164638029,-0.0604641771655354,3.564389,87.59087,359.8955,0.02181797,0.6917711,-0.02218162,14.0999996848404,1
20.17671,0.512598,-0.5849631,0.3936700892171387,0.128436864063225,-0.0594428530480798,7.128047,87.58105,359.79,0.04360898,0.6907665,-0.04433881,14.1199996843934,1
20.23892,0.712598,-0.5841753,0.4854616447362581,-0.070283321253282,-0.057566257010537,10.69066,87.56445,359.6829,0.06535156,0.6890937,-0.06644678,14.1399996839464,1
20.3011,0.912598,-0.5833876,0.5769374600260377,-0.3021652546362174,-0.0547129306872661,14.25223,87.54076,359.5733,0.08702487,0.6867552,-0.08848412,14.1599996834993,1
20.58091,0.3123282,-0.5791368,0.4100733965486611,0.3393079495656443,-0.0537468931256525,3.57668,89.17113,0.06082146,0.02259836,0.7016199,-0.0215289,14.1799996830523,1
20.6433,0.5123281,-0.5771625,0.411113170948866,0.0955770569763858,-0.0508711872554954,7.152435,89.17691,0.1226585,0.04517228,0.7005946,-0.04302788,14.1999996826053,1
20.70567,0.7123281,-0.5751888,0.4043027196276121,-0.1269279283268826,-0.0471539763943753,10.72717,89.18668,0.1854583,0.06769582,0.6988877,-0.06447884,14.2199996821582,1
20.95652,0.3119447,-0.57185,0.1675838114546621,0.3381366965361297,-0.0454379900578956,3.596968,90.02512,0.09179003,0.02275344,0.7068954,-0.02163091,14.2399996817112,1
21.01928,0.5119447,-0.5702797,-0.0731341419096338,0.7988117065982152,-0.0432528340216086,7.192883,90.03383,0.1842643,0.04547774,0.7058504,-0.04323434,14.2599996812642,1
21.08203,0.7119446,-0.5687082,-0.0705701235591895,0.349640494165486,-0.0392522934570536,10.78797,90.04849,0.2780193,0.06815109,0.7041101,-0.0647914,14.2799996808171,1
21.14476,0.9119446,-0.5671371,-0.0728196735969923,-0.1039162610184507,-0.035266406504303,14.38201,90.06943,0.3740307,0.09075096,0.7016774,-0.08627849,14.2999996803701,1
21.45671,0.3115005,-0.5632682,-0.0645114533568573,-0.459060438079699,-0.0311982085139332,3.63711,90.6977,0.116696,0.02302668,0.7110175,-0.0218605,14.3199996799231,1
21.5202,0.5115005,-0.5620072,-0.0688164816090939,-0.5089394552889067,-0.0255532784083649,7.273139,90.70889,0.2342945,0.04602336,0.7099423,-0.04369263,14.339999679476,1
21.58368,0.7115005,-0.5607465,-0.0833103372065799,-0.5133526694570124,-0.0189569978061374,10.90809,90.72778,0.3537842,0.06896709,0.7081523,-0.06547446,14.359999679029,1
21.64713,0.9115006,-0.5594854,-0.0924515234343381,-0.5256421844211974,-0.011331725171687,14.54235,90.75472,0.47605,0.0918363,0.7056494,-0.08718745,14.379999678582,1
21.86597,0.3111883,-0.557606,-0.2836151877390627,0.1214895256793952,-0.0050657055562935,3.589758,92.39426,0.1883727,0.02286585,0.7213349,-0.02146816,14.3999996781349,1
21.92868,0.5111883,-0.5569436,-0.1930500560260277,-0.1170780909753973,0.0043079144577497,7.178416,92.41209,0.378157,0.04570232,0.7202705,-0.04290898,14.4199996776879,1
21.99138,0.7111883,-0.5562813,-0.1035924587636714,-0.3347450534643146,0.0138784864891735,10.76594,92.44215,0.5709058,0.06848718,0.7184983,-0.06430133,14.4399996772408,1
22.05405,0.9111884,-0.5556176,-0.2277509204067342,0.1348619823253362,0.0208465579848254,14.35204,92.48502,0.7679443,0.0911947,0.716021,-0.08562441,14.4599996767938,1
22.33273,0.3109442,-0.5525586,-0.3488914027245151,0.5997570844881224,0.0271006505071749,3.520644,93.5967,0.2679476,0.02273259,0.7285538,-0.02079226,14.4799996763468,1
22.39432,0.5109441,-0.5517415,-0.2785326177011171,0.1544495875851449,0.031971208338432,7.040184,93.62155,0.5378559,0.045437,0.7275165,-0.0415587,14.4999996758997,1
22.45589,0.7109439,-0.5509253,-0.1929255214519507,-0.2955614615369772,0.0350227337671827,10.55844,93.66348,0.8118768,0.0680915,0.7257897,-0.06227868,14.5199996754527,1
22.70459,0.3107263,-0.5475626,-0.3806672857919366,0.1554274124160942,0.0344130992602575,3.455624,93.45293,0.2909929,0.02251627,0.7277036,-0.02021296,14.5399996750057,1
22.76507,0.5107263,-0.5461178,-0.3725896222156706,-0.0388493197862234,0.0341571525274267,6.909688,93.47943,0.5842902,0.04500424,0.7267045,-0.04039703,14.5599996745586,1
22.82553,0.7107266,-0.5446733,-0.3680270308511773,-0.2121760344779078,0.0328023895482146,10.36255,93.52413,0.881828,0.06744446,0.725041,-0.06053816,14.5799996741116,1
22.88598,0.9107267,-0.5432294,-0.3528439009955058,-0.4189394294149832,0.0305726998784411,13.81416,93.58784,1.185907,0.08981667,0.7227152,-0.08061835,14.5999996736646,1
