pX,pY,pZ,aX,aY,aZ,reX,reY,reZ,rtX,rtY,rtZ,t,ID
-44.00041,0.23,-39.99972,4.766365106293605,-0.0931573094260983,2.801888090521849,0.015688,0.009945458,0.02319611,0.0001369212,8.676278e-05,0.0002024124,1.51999996602535,4
-44.00082,0.43,-39.99944,5.086214523564195,0.0212923650155204,2.964211768904697,0.03141034,0.009954995,0.04639574,0.0002741421,8.676272e-05,0.0004048554,1.53999996557832,4
-44.00122,0.63,-39.99916,5.526704978091416,-0.3187334058443534,3.1568063132535897,0.04725206,0.009971042,0.06977171,0.0004124048,8.676267e-05,0.000608837,1.55999996513128,4
-44.00158,0.2833333,-39.99885,5.884227014482192,-0.4193254420783012,3.3164913657942705,0.02329003,4.812919,0.03418209,0.0002155895,0.04198823,0.0002894981,1.57999996468425,4
-44.00214,0.4833333,-39.99839,6.161229725581066,-0.3058176159580131,3.443423346133443,0.04662173,4.81294,0.06836203,0.0004315415,0.04198823,0.0005789621,1.59999996423721,4
-43.98812,0.2833334,-39.98848,6.475905822434996,-0.6428114907212773,3.564988796696902,0.0563158,10.60931,0.2749031,0.0007111311,0.09245005,0.00234327,1.61999996379018,4
-43.99273,0.4833333,-39.98493,6.70252336930853,-0.73639908639816,3.6503497596597194,0.2000025,10.70867,0.568244,0.002200446,0.09330489,0.004774335,1.63999996334314,4
-43.99734,0.6833334,-39.98106,6.980422624801669,-1.0387896482542578,3.746909094569311,0.3558157,10.81089,0.8633714,0.003800923,0.09417652,0.007208226,1.65999996289611,4
-44.00195,0.8833334,-39.97725,7.161126160207125,-1.0961705667174368,3.802435929396076,0.5173654,10.91384,1.160206,0.005456964,0.09504598,0.009649219,1.67999996244907,4
-43.94281,0.2833333,-39.95954,7.249137126567561,-0.9338764040305928,3.818459273421624,0.5446607,18.88538,359.8164,0.004425775,0.1640664,-0.002360285,1.69999996200204,4
-43.9365,0.4833333,-39.9524,7.368028416029659,-1.216509121036123,3.8311247663241232,1.035404,18.72368,359.6071,0.008357359,0.1626918,-0.00485272,1.719999961555,4
-43.85725,0.2833333,-39.91185,7.392393433444333,-1.2501598045606246,3.804928084458318,1.803395,24.378,359.8008,0.01501517,0.2111374,-0.005021561,1.73999996110797,4
-43.84043,0.4833331,-39.88701,7.32755233590234,-1.060162352488359,3.7418417178362304,3.411424,23.71057,359.4782,0.02819556,0.20548,-0.01056973,1.75999996066093,4
-43.82356,0.6833332,-39.86311,7.362261624552531,-1.3111188862194183,3.707745885018319,4.999,23.02617,359.1283,0.04121512,0.1997211,-0.01615081,1.7799999602139,4
-43.72247,0.2833333,-39.81515,7.302523909437319,-1.3091208516790438,3.6355224266945134,3.159511,29.40314,359.9445,0.02654308,0.2537009,-0.007464411,1.79999995976686,4
-43.69312,0.4833333,-39.77996,7.306146554431471,-1.5063780528178494,3.586499894604671,5.645391,28.56567,359.4188,0.04647272,0.2466483,-0.01705869,1.81999995931983,4
-43.56287,0.2833332,-39.71953,7.212373814566284,-1.449078160233821,3.498638160651353,3.086715,34.38026,359.8805,0.02542214,0.2954629,-0.008955972,1.8399999588728,4
-43.53004,0.4833329,-39.67571,7.028309352787289,-1.162554805579911,3.37492664701832,6.174709,33.59233,359.7214,0.05085902,0.2886728,-0.01788763,1.85999995842576,4
-43.49721,0.6833327,-39.63191,6.885995658078571,-1.31140976500926,3.2589581696419145,9.263141,32.79102,359.5204,0.07628637,0.2816662,-0.02679446,1.87999995797873,4
-43.37078,0.2833337,-39.59514,6.6540199011575965,-1.201734925697628,3.108480922139023,2.510597,39.21227,0.01868612,0.02069189,0.3354685,-0.007197485,1.89999995753169,4
-43.34277,0.4833337,-39.56074,6.340764413185902,-0.8588640403913987,2.927219459644199,5.021359,38.43859,0.003473783,0.04137409,0.3288675,-0.01439154,1.91999995708466,4
-43.1409,0.2833333,-39.5064,6.054207561127107,-0.9473984594129988,2.7425531809409094,3.41619,43.62434,358.0729,0.02142399,0.3718128,-0.02667923,1.93999995663762,4
-43.10806,0.4833335,-39.47536,5.692149512943992,-0.7734299087706803,2.531249222492484,5.97007,42.51938,357.9176,0.04194329,0.3629258,-0.03579089,1.95999995619059,4
-43.07524,0.6833333,-39.44431,5.386885999701356,-0.7891688711480864,2.338369394218816,8.521742,41.40207,357.7101,0.06244326,0.3538331,-0.04489805,1.97999995574355,4
-42.92165,0.2833333,-39.38763,5.010499479926601,-0.5408022301230231,2.122677035998194,2.662766,47.3792,0.05494695,0.02146964,0.4016629,-0.008896383,1.99999995529652,4
-42.88747,0.4833336,-39.35546,4.573738023529657,-0.0536637752926085,1.8891930647609456,5.32595,46.29052,0.05928522,0.0429245,0.392617,-0.0177869,2.01999995484948,4
-42.85328,0.6833337,-39.3233,4.278178737405867,0.0076438271097462,1.7145672173247348,7.988653,45.19721,0.01256526,0.06435138,0.3833324,-0.02666657,2.03999995440245,4
-42.64554,0.2833333,-39.24092,3.921526962036822,0.0969334662164774,1.523628229247599,2.659776,52.9587,0.1335732,0.0212937,0.4457306,-0.009305158,2.05999995395541,4
-42.60928,0.4833331,-39.21117,3.516329858521836,0.161168082385153,1.322211427403445,5.321505,51.8788,0.2170639,0.04257311,0.4368688,-0.0186044,2.07999995350838,4
-42.57301,0.6833328,-39.18142,3.197219625168742,0.1632583265234465,1.1551494240824596,7.984193,50.79802,0.2503226,0.06382424,0.4277404,-0.02789228,2.09999995306134,4
-42.42845,0.2833334,-39.1263,2.846986803447841,0.186779768859453,0.9876467277935744,2.663424,55.35489,0.1746609,0.02128915,0.4643361,-0.009445689,2.11999995261431,4
-42.39135,0.4833332,-39.09747,2.601359034198026,0.2317321549227325,0.8646818466305675,5.32955,54.28112,0.2995195,0.04256398,0.4555721,-0.01888509,2.13999995216727,4
-42.22693,0.2833336,-39.02504,2.337496510959298,0.2981155903869045,0.7413567952748394,2.626146,57.20596,0.2077669,0.02098653,0.4785745,-0.009379048,2.15999995172024,4
-42.18979,0.4833338,-38.99728,2.0703138149490883,0.3326139984003288,0.6236722846054832,5.255539,56.13659,0.3666233,0.04195854,0.4698971,-0.01875193,2.1799999512732,4
-42.15266,0.6833333,-38.96953,1.927380479060233,-0.3584027719943399,0.553052948336834,7.889972,55.06998,0.4766933,0.0629237,0.4609371,-0.02812467,2.19999995082617,4
-42.00415,0.2833333,-38.90949,1.7227322511187635,-0.1507145213675262,0.4805109533094907,2.793852,58.02296,0.2245205,0.0222695,0.484798,-0.01011025,2.21999995037913,4
-41.96438,0.4833333,-38.88056,1.5272219512077072,0.0496558570886478,0.4237544887497364,5.594908,56.95852,0.3973911,0.04455084,0.4761208,-0.02022765,2.2399999499321,4
-41.92463,0.6833332,-38.85165,1.4481496924058064,0.0303156072877118,0.4151630754064968,8.400787,55.89731,0.5187762,0.06681775,0.4671236,-0.03033974,2.25999994948506,4
-41.71321,0.2833335,-38.76302,1.3637289981483462,0.0313611272663846,0.4027391769646087,3.106326,58.11957,0.1686392,0.02440692,0.4855081,-0.01187931,2.27999994903803,4
-41.66837,0.4833335,-38.73227,1.2881543357724468,-0.0005238722196218,0.3920098808919547,6.219647,57.05467,0.2792699,0.04882552,0.4767571,-0.02377049,2.29999994859099,4
-41.48148,0.2833336,-38.64642,1.2360698735406288,-0.0386816397969004,0.3872082476117455,3.261687,57.5686,0.1167541,0.02543361,0.4812929,-0.01281113,2.31999994814396,4
-41.43422,0.4833332,-38.61461,1.1822136576143265,-0.0564536386399792,0.372909204336878,6.525383,56.5016,0.1726214,0.05084641,0.4724886,-0.02561434,2.33999994769692,4
-41.38697,0.6833329,-38.58281,1.151420983505524,-0.053839989319582,0.3674993509905917,9.788591,55.43014,0.1673497,0.07620598,0.4632684,-0.03839095,2.35999994724989,4
-41.22289,0.2833333,-38.51313,1.1130401420541816,-0.0308407585677759,0.3392326161398742,3.282309,56.41455,0.01881068,0.02531604,0.4724646,-0.01339228,2.37999994680285,4
-41.17506,0.483333,-38.48162,1.0799999738824155,-0.0407709822682874,0.2901489710708773,6.563494,55.34232,359.9761,0.05060206,0.4636453,-0.02676894,2.39999994635582,4
-41.12724,0.6833327,-38.45012,1.152640159129298,-0.0569748123053818,0.3065765058001943,9.842543,54.25975,359.8706,0.07583515,0.4544139,-0.04012061,2.41999994590878,4
-40.98634,0.2833335,-38.39662,1.2264649517456618,-0.0527932043937122,0.3092641439904398,3.258947,55.72598,359.9298,0.02485296,0.4671852,-0.01383121,2.43999994546175,4
-40.93837,0.4833338,-38.36606,1.1070956917048989,0.3986502277251491,0.2778130178215647,6.515035,54.6494,359.7982,0.04967597,0.4583791,-0.02764636,2.45999994501472,4
-40.77544,0.2833336,-38.29746,1.1073196187213554,0.1789398347726101,0.2801577350988893,3.229296,55.00601,359.8822,0.02451818,0.4616373,-0.01392366,2.47999994456768,4
-40.72782,0.4833336,-38.26727,1.106067930818341,-0.0459973150365178,0.2757819325282327,6.454919,53.92768,359.7034,0.04900783,0.4528373,-0.02783129,2.49999994412065,4
-40.68021,0.6833336,-38.23709,1.1213444768502328,-0.0371115664264787,0.2943436474899101,9.675643,52.8316,359.4618,0.073447,0.4436471,-0.0417107,2.51999994367361,4
-40.45403,0.2833335,-38.13995,1.126092018827798,-0.007840621096242,0.3021944568992722,3.191314,52.86001,359.7744,0.02405916,0.4449799,-0.014157,2.53999994322658,4
-40.40699,0.4833334,-38.10991,1.134305298334084,-0.0115000249158249,0.3035349960176887,6.376916,51.77608,359.488,0.04809062,0.4361574,-0.02829764,2.55999994277954,4
-40.35996,0.6833334,-38.07987,1.0721525184995355,-0.0214318824193494,0.2828059090272035,9.55555,50.66866,359.1386,0.07207328,0.4269665,-0.04240996,2.57999994233251,4
-40.19874,0.2833329,-38.0134,0.9998922878467836,-0.0109782448249781,0.2549427811926037,3.537076,53.74856,359.759,0.02657841,0.451876,-0.01582599,2.59999994188547,4
-40.14611,0.4833331,-37.98075,0.931331583448781,-0.0334546714188374,0.2244228983482514,7.067997,52.66312,359.4504,0.0531213,0.4429813,-0.03163132,2.61999994143844,4
-39.96228,0.2833332,-37.90107,0.9385251255972094,-0.0622033595152679,0.2351099423966118,3.511762,55.42138,359.7997,0.02631442,0.4648356,-0.01579487,2.6399999409914,4
-39.90952,0.4833332,-37.86965,0.9376972559876792,-0.0705661857488085,0.2413322455414857,7.018516,54.34204,359.5325,0.05259511,0.4560102,-0.03157398,2.65999994054437,4
-39.85677,0.6833333,-37.83824,0.7904724124943598,0.3683324769092937,0.1955680240328021,10.51977,53.23691,359.1956,0.07882283,0.4467247,-0.04732259,2.67999994009733,4
-39.69875,0.2833333,-37.77417,0.7580936845155932,0.1360764851366728,0.1846405441874736,3.556957,56.43441,359.8395,0.02668534,0.4726255,-0.01590726,2.6999999396503,4
-39.64519,0.4833333,-37.74268,0.7287411771845029,-0.101406323429426,0.1745550557105133,7.109653,55.3616,359.612,0.05333691,0.4638348,-0.03179626,2.71999993920326,4
-39.59164,0.6833333,-37.7112,0.5834078566283623,0.3218106226813887,0.1315263957704004,10.6564,54.26508,359.3147,0.07992467,0.454566,-0.04764771,2.73999993875623,4
-39.3693,0.2833332,-37.61795,0.6323379656820052,0.0738744645316239,0.1572092233281452,3.591411,58.29031,359.9917,0.02733316,0.4867867,-0.01532445,2.75999993830919,4
-39.31562,0.4833332,-37.58562,0.6868635495004369,-0.1792883299040071,0.1842466072221995,7.181284,57.23483,359.9174,0.05463228,0.478058,-0.03062734,2.77999993786216,4
-39.26194,0.6833332,-37.5533,0.5558094355471326,0.2282486961110488,0.1460341727562664,10.76815,56.16518,359.7752,0.08186532,0.4688284,-0.04589364,2.79999993741512,4
-39.11333,0.283333,-37.49424,0.5340523176055996,-0.0353694043947585,0.1382037662830484,3.548025,58.88273,0.04862618,0.02716802,0.4912855,-0.01484721,2.81999993696809,4
-39.06048,0.4833332,-37.462,0.3476212807496921,0.1759770711766031,0.0658476104681398,7.094931,57.83588,0.0325821,0.05429758,0.4826145,-0.02967185,2.83999993652105,4
-38.88328,0.2833332,-37.38707,0.1585162047570492,0.3831423992526843,-0.0090774422814874,3.613496,59.98322,0.06156946,0.02757521,0.4996099,-0.01529512,2.85999993607402,4
-38.82891,0.4833329,-37.35509,0.152104603831944,-0.1064575753961082,-0.0240580760446249,7.22652,58.93954,0.05734953,0.05511319,0.4909588,-0.03056946,2.87999993562698,4
-38.77456,0.6833335,-37.32312,0.0078239685009009,0.0923452945181886,-0.0866357805661977,10.83827,57.88605,359.9857,0.08258519,0.481787,-0.04581224,2.89999993517995,4
-38.53314,0.2833335,-37.22001,0.0117207812173205,-0.1399095032209378,-0.0953829688465148,3.647887,60.5202,0.07833944,0.02783603,0.503652,-0.01544899,2.91999993473291,4
-38.4781,0.4833335,-37.18799,0.0095991633393097,-0.377390977320015,-0.1088110018884833,7.295573,59.48119,0.09048425,0.05563339,0.4950252,-0.03087742,2.93999993428588,4
-38.42308,0.6833333,-37.15598,-0.0961973700781229,0.0458265563117303,-0.1485435596430377,10.94185,58.43335,0.03549896,0.08336191,0.4858644,-0.04626792,2.95999993383884,4
-38.25613,0.2833335,-37.08725,-0.1929097444328533,0.4382041426147598,-0.1853291998787725,3.616046,60.89839,0.08831432,0.02758956,0.5065008,-0.01532502,2.97999993339181,4
-38.20146,0.4833336,-37.05571,-0.2406489039574282,0.3749561749806821,-0.2045590717986911,7.23203,59.86355,0.111396,0.05514134,0.4979217,-0.03062888,2.99999993294477,4
-38.00701,0.283333,-36.97143,-0.288316226329087,0.3362756736364556,-0.2223818293486132,3.57223,62.48522,0.1710314,0.02742215,0.5183707,-0.01489049,3.01999993249774,4
-37.95284,0.483333,-36.94048,-0.1771072260381103,-0.1580299072025611,-0.1813618829086039,7.145844,61.46029,0.278306,0.05480672,0.5098704,-0.02976095,3.0399999320507,4
-37.89868,0.6833332,-36.90955,-0.2654245500649637,0.0371130839271284,-0.2141889527786986,10.71973,60.43311,0.321635,0.08212518,0.5008405,-0.04459585,3.05999993160367,4
-37.73171,0.2833328,-36.84065,-0.3487481814043889,0.2291202522226054,-0.2447353629247217,3.521507,62.90123,0.2139401,0.02718576,0.5214673,-0.01443978,3.07999993115664,4
-37.67844,0.4833325,-36.80982,-0.4137290242495339,0.3657201585712111,-0.2685012640601911,7.045207,61.88335,0.3655627,0.0543354,0.5130231,-0.02886036,3.0999999307096,4
-37.62519,0.6833324,-36.77899,-0.4283469526981491,0.2611799571205281,-0.2767775644207901,10.56996,60.86625,0.4550071,0.08142091,0.5040597,-0.04324706,3.11999993026257,4
-37.39566,0.2833331,-36.68272,-0.4366840088558845,0.1822518411426406,-0.2829039859617381,3.466598,63.24467,0.2614313,0.02695171,0.5240179,-0.0139173,3.13999992981553,4
-37.34344,0.4833332,-36.65188,-0.452653165749517,0.1289359327763897,-0.2946331391615828,6.935882,62.23414,0.462213,0.05386657,0.515629,-0.02781343,3.1599999293685,4
-37.29123,0.6833335,-36.62105,-0.4707324584244787,0.1012325793595507,-0.306782294905183,10.40707,61.22761,0.6026635,0.08071919,0.5067326,-0.04167768,3.17999992892146,4
-37.13452,0.283333,-36.55799,-0.4784709384320535,0.0458263454000745,-0.3149698398795877,3.419102,62.65876,0.2353052,0.02655017,0.5196724,-0.01375854,3.19999992847443,4
-37.08315,0.4833327,-36.5274,-0.5898026525400795,0.6296885659922353,-0.3540606024546662,6.840489,61.6488,0.4106579,0.05306444,0.511309,-0.02749768,3.21999992802739,4
-37.03178,0.6833327,-36.49682,-0.5394221316815404,0.308573124401953,-0.3412453631514438,10.26339,60.64138,0.5263034,0.07951887,0.5024559,-0.04120629,3.23999992758036,4
-36.81141,0.2833333,-36.40648,-0.4746661131638561,-0.0114969517562376,-0.3203771145457494,3.378279,61.44304,0.1479099,0.02599911,0.5106107,-0.01394953,3.25999992713332,4
-36.7606,0.4833336,-36.3765,-0.4660157125101207,-0.0914709138810014,-0.3226208102823875,6.757294,60.42825,0.2359764,0.05196254,0.5022523,-0.0278812,3.27999992668629,4
-36.7098,0.6833341,-36.34652,-0.4565686129157242,-0.1447869273981649,-0.3228914323193024,10.13634,59.41082,0.2640407,0.07786876,0.4934252,-0.04178287,3.29999992623925,4
-36.56183,0.283333,-36.28906,-0.434011058689407,-0.2247612671776188,-0.3171503231035473,3.333797,60.22606,0.07380698,0.02548587,0.5014789,-0.01403712,3.31999992579222,4
-36.51172,0.4833327,-36.2595,-0.3082365834421523,-0.3047352481197792,-0.2645899201325221,6.667078,59.20784,0.0883737,0.0509381,0.4931263,-0.02805598,3.33999992534518,4
-36.46162,0.6833327,-36.22995,-0.1782074251895515,-0.3580514640981896,-0.209835034143289,9.999093,58.18278,0.04298516,0.07633543,0.4843256,-0.04204509,3.35999992489815,4
-36.25003,0.2833333,-36.14585,-0.1805495115161903,0.0421664193977376,-0.1999203309615893,3.288265,58.95645,359.9564,0.0247901,0.4918997,-0.01445001,3.37999992445111,4
-36.20023,0.4833335,-36.11737,-0.0616731888536463,-0.2224966728057652,-0.1512144189887294,6.574241,57.93121,359.8539,0.04955031,0.4835513,-0.02888275,3.39999992400408,4
-36.01105,0.2833333,-36.03626,0.066748197117235,-0.4861149242863309,-0.0974357289930836,3.243336,57.58849,359.8961,0.02436399,0.4814951,-0.01442526,3.41999992355704,4
-35.96206,0.4833333,-36.0079,-0.0075230643626724,-0.0827610672427851,-0.1197996469841413,6.48334,56.56034,359.7338,0.04869924,0.4731397,-0.02883367,3.43999992311001,4
-35.91308,0.6833335,-35.97954,0.1053208453347132,-0.3442889184703608,-0.0764000578305754,9.71892,55.51561,359.5114,0.07298429,0.4643763,-0.04321252,3.45999992266297,4
-35.86411,0.8833336,-35.95119,0.2151756203360157,-0.6047710250430373,-0.0340349898875942,12.94869,54.44717,359.2262,0.09719631,0.4552132,-0.05754773,3.47999992221594,4
-35.66119,0.2833329,-35.87083,0.199867076018382,-0.1982808928508228,-0.032607446446498,3.200675,54.59903,359.7752,0.02391752,0.4585109,-0.01455135,3.4999999217689,4
-35.61316,0.4833332,-35.84209,0.2907483399898858,-0.4566722847631793,-0.0001185321580621,6.395761,53.56501,359.4923,0.04780636,0.4501196,-0.02908571,3.51999992132187,4
-35.42944,0.2833331,-35.76406,0.2191487393368589,-0.2338252292501168,-0.0280225791179518,3.438382,55.03595,359.7534,0.02561319,0.4618751,-0.01576857,3.53999992087483,4
-35.37751,0.4833331,-35.73364,0.1463538855462829,-0.0088873885114961,-0.0553766963816073,6.870836,53.99981,359.4443,0.05119403,0.4534268,-0.03151722,3.5599999204278,4
-35.32558,0.6833334,-35.70322,0.2536334911474505,-0.474444044816984,-0.0202170708479059,10.29609,52.9365,359.0695,0.0767171,0.4445415,-0.04723077,3.57999991998076,4
-35.27368,0.883333,-35.67282,0.226201673717945,-0.2453243702708197,-0.029228591276059,13.71465,51.83759,358.6247,0.1021717,0.4352277,-0.06290157,3.59999991953373,4
-35.07588,0.2833337,-35.59752,0.3462946543064227,-0.4409901668652224,0.0177360581540639,3.555313,56.64239,359.7932,0.0264518,0.4742341,-0.01630509,3.61999991908669,4
-35.02179,0.4833335,-35.56689,0.4582824508763323,-0.6356103206451694,0.0628017099590678,7.105551,55.61283,359.5219,0.05286933,0.4658138,-0.03259031,3.63999991863966,4
-34.84492,0.2833333,-35.49454,0.3634869855203249,-0.1632591326227841,0.0318076548623409,3.570116,58.17002,359.8483,0.02657867,0.4859065,-0.01629887,3.65999991819263,4
-34.79033,0.4833333,-35.46442,0.2632886100888676,0.284524722748106,-0.0013716052305809,7.136055,57.1475,359.6322,0.05312113,0.4775354,-0.03257896,3.67999991774559,4
-34.73575,0.6833339,-35.4343,0.331240423615327,-0.1972360505597706,0.0201108919771186,10.69645,56.10232,359.3494,0.07959966,0.468672,-0.0488202,3.69999991729856,4
-34.68119,0.8833337,-35.4042,0.2724686333317656,0.0167245040829878,0.0023629771363857,14.25013,55.0256,358.996,0.1059877,0.4593258,-0.06500647,3.71999991685152,4
-34.49356,0.2833335,-35.333,0.351947731211748,-0.1930547130610553,0.0339622728779218,3.594567,59.54713,359.9868,0.02716633,0.4963323,-0.0156737,3.73999991640449,4
-34.43911,0.4833335,-35.30188,0.4247969725047618,-0.4007429518398789,0.063054298657704,7.187566,58.54165,359.9109,0.05429956,0.4880192,-0.03132441,3.75999991595745,4
-34.27258,0.2833335,-35.23446,0.3015390800879345,0.0595858160388315,0.022338427403497,3.548981,60.6077,0.05687125,0.02698494,0.5043304,-0.0151966,3.77999991551042,4
-34.21885,0.4833335,-35.20367,0.1757231891452875,0.4963926595599889,-0.0195820359923786,7.097072,59.61092,0.05200824,0.05393174,0.4960792,-0.03037178,3.79999991506338,4
-34.16513,0.6833332,-35.17289,0.2144801607290887,0.0047002262441313,-0.0108422178589648,10.64358,58.60514,359.9844,0.08081535,0.487323,-0.04551174,3.81999991461635,4
-33.93174,0.2833333,-35.07757,0.1400639965856385,0.209775269933597,-0.0342016196749028,3.623499,61.54866,0.0738395,0.02749341,0.5113846,-0.01562307,3.83999991416931,4
-33.87647,0.4833333,-35.04679,0.2010628779959447,-0.0078436420724248,-0.0117254071289103,7.24669,60.55634,0.0849314,0.05494923,0.5031502,-0.03122514,3.85999991372228,4
-33.82123,0.6833333,-35.01602,0.2633073839260014,-0.2223265573575567,0.0109658899995004,10.86915,59.55562,0.03197064,0.0823414,0.4943826,-0.04679504,3.87999991327524,4
-33.6623,0.2833333,-34.95361,0.1466641635028551,0.2322527001219291,-0.026896636723773,3.64264,61.5691,0.06891968,0.02761209,0.5115361,-0.01575029,3.89999991282821,4
-33.6067,0.4833334,-34.92278,0.2358394388378428,0.0240416988273596,0.0122860697404298,7.284843,60.57927,0.07489526,0.0551858,0.5033166,-0.0314792,3.91999991238117,4
-33.55112,0.6833334,-34.89194,0.1524605313967519,0.2991594488591609,-0.0123423476642265,10.92557,59.58069,0.0169681,0.08269181,0.494559,-0.0471697,3.93999991193414,4
-33.32724,0.2833331,-34.80277,0.059531655927774,0.5784588312826712,-0.0398800913540604,3.605351,63.09027,0.1305115,0.02740446,0.5228803,-0.01548743,3.9599999114871,4
-33.27191,0.4833332,-34.77275,0.0935525937658852,0.1693546668883161,-0.0248703516090174,7.211298,62.10934,0.1993881,0.05477112,0.5147401,-0.0309539,3.97999991104007,4
-33.2166,0.6833335,-34.74274,0.1291169501324311,-0.2632716954127768,-0.0078878343640766,10.81682,61.12398,0.2062028,0.08207134,0.5060598,-0.04638293,3.99999991059303,4
-33.06773,0.2833335,-34.68625,-0.0044426740075529,0.185558743642386,-0.0466261192281542,3.553846,64.1873,0.1898066,0.02714912,0.531005,-0.0150722,4.019999910146,4
-33.0131,0.4833338,-34.65674,0.0691172724674658,-0.0294468246516973,-0.0114429022549451,7.109329,63.21492,0.3195084,0.05426182,0.5229392,-0.03012424,4.03999990969896,4
-32.95849,0.6833338,-34.62724,-0.014635369373174,0.2378304123098544,-0.0335447270196986,10.6655,62.2422,0.3891149,0.08131051,0.5143385,-0.04514112,4.05999990925193,4
-32.74491,0.2833335,-34.54348,-0.1026160013937165,0.5082439225034843,-0.0581122666625084,3.496811,65.01357,0.2485165,0.02689538,0.5370923,-0.01456831,4.07999990880489,4
-32.6912,0.4833338,-34.51424,-0.070007448538707,0.0892087268286933,-0.0482449205949571,6.996265,64.04946,0.4384843,0.05375551,0.5290954,-0.02911752,4.09999990835786,4
-32.49805,0.2833333,-34.43312,-0.0293344391318086,-0.3543931577858262,-0.0371207553991048,3.444343,64.84138,0.2612761,0.0265906,0.5358303,-0.01418854,4.11999990791082,4
-32.44535,0.4833333,-34.40389,-0.1428124950857352,0.0824145920194717,-0.0744135331778395,6.89121,63.88024,0.4652494,0.05314532,0.5278649,-0.02835594,4.13999990746379,4
-32.39266,0.6833332,-34.37467,-0.064023150610641,-0.1456590475960284,-0.0461052345319359,10.34003,62.92375,0.6123415,0.07964049,0.5193895,-0.04249173,4.15999990701675,4
-32.33998,0.8833331,-34.34546,-0.13088358999698,0.1075046938076481,-0.0681366421602724,13.7898,61.96493,0.7020038,0.1060493,0.5104128,-0.05658279,4.17999990656972,4
-32.13609,0.2833333,-34.26679,-0.2008674993807062,0.3627592954451126,-0.0913437624540165,3.403162,63.40261,0.1884636,0.02612732,0.5252171,-0.01420517,4.19999990612268,4
-32.08422,0.4833331,-34.2377,-0.1614943974549412,-0.0724799437048326,-0.0824443797691536,6.807741,62.43871,0.3199509,0.05222027,0.5172578,-0.02839071,4.21999990567565,4
-31.90124,0.2833328,-34.16199,-0.1136964074317141,-0.5333317541822943,-0.0688381738614971,3.3599,62.36119,0.132339,0.02567904,0.5174854,-0.01419059,4.23999990522861,4
-31.85013,0.4833328,-34.13319,-0.2046191219457007,-0.11481808064321,-0.0957801030280052,6.720172,61.3942,0.2081288,0.0513238,0.5095295,-0.02836172,4.25999990478158,4
-31.79904,0.6833328,-34.10439,-0.108894425681175,-0.3622321437720908,-0.0614348961499615,10.08027,60.4243,0.2270268,0.0769132,0.5011061,-0.04250266,4.27999990433455,4
-31.74797,0.8833329,-34.0756,-0.1408703481257021,-0.1294541593417432,-0.0684887714010571,13.43923,59.4446,0.1877584,0.1024233,0.4922237,-0.05660031,4.29999990388751,4
-31.55213,0.2833333,-34.00214,-0.0162811510536009,-0.3225069148706614,-0.0191975948433835,3.313444,60.47719,0.01271923,0.02503332,0.5033888,-0.0144639,4.31999990344048,4
-31.5017,0.4833332,-33.97388,0.1089743560839906,-0.51555944833688,0.0295572249364894,6.625658,59.50367,359.9691,0.05003645,0.4954286,-0.02891069,4.33999990299344,4
-31.32842,0.2833333,-33.90461,0.0320269036631302,-0.0426854385587969,0.0044946483818399,3.268231,59.60499,359.927,0.02442883,0.4968253,-0.01472573,4.35999990254641,4
-31.27836,0.483333,-33.87729,-0.0453454124621579,0.4045761316135443,-0.0216720127673717,6.533829,58.62617,359.798,0.04882892,0.4888728,-0.0294347,4.37999990209937,4
-31.22831,0.6833328,-33.84997,0.0488502396738574,-0.0787523406752325,0.005427041658411,9.795446,57.63279,359.6111,0.0731749,0.4804955,-0.04411427,4.39999990165234,4
-30.99169,0.2833332,-33.75361,0.022245777859986,0.1325949678272707,-0.005277722104779,3.224487,57.0955,359.825,0.02398501,0.477739,-0.01478647,4.4199999012053,4
-30.94257,0.4833334,-33.72602,0.1366351446371041,-0.0808433632090649,0.0318499330210499,6.444507,56.11116,359.5944,0.04794171,0.4697569,-0.02955548,4.43999990075827,4
-30.89347,0.6833334,-33.69844,0.2471905453170073,-0.2932362788949352,0.0662531166457682,9.659153,55.10682,359.306,0.07185018,0.4613765,-0.04429495,4.45999990031123,4
-30.72905,0.2833332,-33.63259,0.1645390696323474,0.1613432206842922,0.0321922441109876,3.18782,55.14026,359.7697,0.02372691,0.4627035,-0.01465479,4.4799998998642,4
-30.68089,0.4833329,-33.6045,0.0803897640465081,0.5913558197152015,-0.0031162218008731,6.370333,54.15447,359.4843,0.04742697,0.4547061,-0.02929268,4.49999989941716,4
-30.63273,0.6833332,-33.57641,0.1566175555985296,0.0918235295857906,0.0102526409836798,9.546415,53.14594,359.1413,0.07107913,0.4463309,-0.04390156,4.51999989897013,4
-30.39952,0.2833334,-33.4826,0.1238008788551852,0.2880121602194679,-0.007092137276107,3.528156,56.69947,359.7728,0.02615103,0.4746801,-0.01636177,4.53999989852309,4
-30.34557,0.4833332,-33.45254,0.0947912575900673,0.487336624228588,-0.0221024607087159,7.051038,55.71371,359.4845,0.05226843,0.4666198,-0.03270318,4.55999989807606,4
-30.29164,0.6833332,-33.42249,0.2520151079429595,-0.0027874870414711,0.0260171064214347,10.56863,54.70139,359.1313,0.07833208,0.4580899,-0.04901648,4.57999989762902,4
-30.13244,0.2833333,-33.36163,0.2253159580361945,0.2028096363361827,0.0129852754016894,3.558927,57.88381,359.8057,0.02635408,0.4837346,-0.01651033,4.59999989718199,4
-30.07778,0.4833333,-33.33195,0.3471227678427944,-0.015333533733008,0.0547859434192119,7.113242,56.90369,359.5497,0.05267331,0.4757131,-0.03300259,4.61999989673495,4
-30.02314,0.6833335,-33.30227,0.2945668601386231,0.2488064935696433,0.0331688756921906,10.66157,55.89888,359.2296,0.07893011,0.4672063,-0.04945597,4.63999989628792,4
-29.79877,0.2833333,-33.21413,0.2303119244923941,0.5160825443382844,0.0078443191642811,3.584348,59.71583,359.9114,0.02673811,0.4976282,-0.01624033,4.65999989584088,4
-29.74373,0.483333,-33.18439,0.167159853794665,0.7342245379717363,-0.0168452983372802,7.165926,58.74839,359.7619,0.05344208,0.4896646,-0.03246065,4.67999989539385,4
-29.68871,0.683333,-33.15465,0.2800745116751706,-0.0027900996104474,0.0149537405814328,10.74337,57.76284,359.5496,0.08008185,0.4811958,-0.04864248,4.69999989494681,4
-29.5396,0.2833337,-33.09756,0.2178748625846829,0.1693538305595907,-0.0096628114093384,3.588646,60.56377,0.03355272,0.02718697,0.5039994,-0.01553635,4.71999989449978,4
-29.4851,0.4833336,-33.06672,0.1558026142368334,0.3446340211554235,-0.0334209242335674,7.176428,59.61078,0.007945778,0.05434075,0.4960774,-0.03104828,4.73999989405274,4
-29.43062,0.6833341,-33.03589,0.1306375961250623,0.3106589555994477,-0.0468644816275052,10.76219,58.64767,359.9214,0.08142915,0.4876428,-0.04652325,4.75999989360571,4
-29.21563,0.2833333,-32.95323,0.0918399144978856,0.3075235159954496,-0.0647309286417829,3.568151,61.79813,0.06599648,0.02700996,0.5132628,-0.01549367,4.77999989315867,4
-29.16105,0.4833333,-32.92325,0.0528462967314276,0.2819116435251259,-0.0825206163602096,7.135753,60.85102,0.07266316,0.05398151,0.5054021,-0.03096913,4.79999989271164,4
-28.96441,0.2833333,-32.84204,0.1314898673673212,-0.4598070086962941,-0.0675741936691949,3.651963,62.35057,0.07830814,0.02761601,0.5173764,-0.01591026,4.8199998922646,4
-28.90833,0.4833332,-32.81172,0.0500510247765078,-0.2934127054887973,-0.1014208963559895,7.303693,61.40646,0.0964587,0.05519415,0.5095083,-0.03179909,4.83999989181757,4
-28.85227,0.6833331,-32.7814,-0.0229773389638445,-0.1249275540697392,-0.131237026000857,10.95437,60.45472,0.05343506,0.08270526,0.5010956,-0.04765128,4.85999989137053,4
-28.79623,0.8833332,-32.7511,-0.0490876960239958,-0.1667439914139079,-0.1446458409057527,14.6033,59.48726,359.9472,0.1101224,0.4921476,-0.06345029,4.8799998909235,4
-28.59004,0.2833331,-32.67348,-0.0782699233416508,-0.1787658723869071,-0.1564119145340043,3.633634,62.72785,0.08763646,0.02746931,0.5201896,-0.01584841,4.89999989047647,4
-28.53414,0.4833333,-32.64354,-0.0968495061181684,-0.2143090183245277,-0.1617739751784377,7.267091,61.78845,0.1157057,0.05490037,0.5123675,-0.03167538,4.91999989002943,4
-28.34745,0.2833331,-32.56866,-0.1242677419176558,-0.2467163811535504,-0.1719529843728082,3.588949,64.29722,0.1587386,0.02724969,0.5318189,-0.01549061,4.9399998895824,4
-28.29199,0.4833331,-32.53947,-0.1622998430019819,-0.2493297943853156,-0.1838532887616288,7.178917,63.36648,0.2593044,0.0544623,0.5240705,-0.03096065,4.95999988913536,4
-28.23655,0.683333,-32.51029,-0.197044605928955,-0.2754647869019156,-0.1928365656718789,10.76898,62.43385,0.3015428,0.08160953,0.5157797,-0.04639405,4.97999988868833,4
-28.18112,0.8833333,-32.48111,-0.2315082317276946,-0.2984638058708979,-0.2033894835008531,14.35783,61.49167,0.2837705,0.1086588,0.5069554,-0.06177571,4.99999988824129,4
-27.98513,0.2833333,-32.40899,-0.2583685752845568,-0.2916680322929617,-0.209436976518365,3.528957,65.30923,0.2244334,0.02698043,0.539266,-0.01496583,5.01999988779426,4
-27.93059,0.4833333,-32.38015,-0.2643512354023123,-0.308394446429007,-0.2067642005864378,7.060027,64.38834,0.3923985,0.0539253,0.5315977,-0.02991211,5.03999988734722,4
-27.87607,0.6833333,-32.35133,-0.2760188661702365,-0.321984975703127,-0.2102371166034693,10.59228,63.47003,0.5042559,0.08080717,0.5233955,-0.04482384,5.05999988690019,4
-27.66216,0.2833333,-32.26956,-0.2934782650242056,-0.3057810689154479,-0.2159559237199388,3.468566,65.73515,0.2679831,0.02668832,0.5423897,-0.01446103,5.07999988645315,4
-27.60868,0.4833333,-32.24086,-0.3043258057821525,-0.3130986818241819,-0.2198851790214639,6.939644,64.82088,0.4810769,0.05334075,0.534779,-0.02890104,5.09999988600612,4
-27.41534,0.2833333,-32.16204,-0.2216350226474475,-0.3172800881457811,-0.1838435751520712,3.419683,65.28937,0.2417525,0.02626196,0.5391333,-0.01431974,5.11999988555908,4
-27.36267,0.4833331,-32.13369,-0.1469144522714351,-0.2916673215006615,-0.1501617250536249,6.841471,64.37443,0.4291502,0.05248846,0.5315454,-0.02862015,5.13999988511205,4
-27.31002,0.6833329,-32.10535,-0.067430545501157,-0.2895765766976598,-0.1146275026563685,10.26482,63.4635,0.5627083,0.07865692,0.5234544,-0.04288931,5.15999988466501,4
-27.25738,0.883333,-32.07702,-0.1742100875066299,0.3559644391281263,-0.1431898100177342,13.68881,62.55011,0.6420048,0.104742,0.5148686,-0.05711332,5.17999988421798,4
-27.0528,0.2833333,-32.00043,-0.114521123386968,0.1007098739058073,-0.118194871548809,3.378673,63.40424,0.1401144,0.02572377,0.5252436,-0.0144521,5.19999988377094,4
-27.00096,0.4833331,-31.97227,-0.0567943606935301,-0.1493175654298728,-0.0922554391721952,6.757888,62.48385,0.2261824,0.05141424,0.5176506,-0.02888444,5.21999988332391,4
-26.94913,0.6833329,-31.94411,0.0401085833576964,-0.1550678777463805,-0.0469342802296246,10.13708,61.56144,0.2578829,0.07704905,0.5095806,-0.04328611,5.23999988287687,4
-26.72755,0.2833336,-31.85873,0.1313917816878458,-0.1299787118623203,-0.0039395525852867,3.328099,61.98898,0.05048618,0.02511955,0.5147274,-0.01457631,5.25999988242984,4
-26.67648,0.4833336,-31.83109,0.2300006446815246,-0.1273668136923115,0.0407572085575083,6.655271,61.06348,0.04716116,0.05020613,0.5071384,-0.02913415,5.2799998819828,4
-26.62542,0.6833335,-31.80346,0.1561642741390763,0.5197420364950849,0.0289564447106158,9.980999,60.13083,359.9893,0.0752397,0.4990962,-0.04366182,5.29999988153577,4
-26.47655,0.2833333,-31.74946,0.2462203081636715,0.2671015582718629,0.0657897556836175,3.283865,60.69669,359.9461,0.02448932,0.5050601,-0.01488288,5.31999988108873,4
-26.42591,0.4833331,-31.72266,0.1716460169085891,0.5009254309268771,0.0436244047826832,6.565485,59.76504,359.8387,0.04894971,0.4974751,-0.02974865,5.3399998806417,4
-26.37528,0.683333,-31.69585,0.094179666072133,0.742067231246428,0.0204668543896033,9.843633,58.82032,359.6761,0.0733561,0.4894569,-0.0445843,5.35999988019466,4
-26.16286,0.2833333,-31.61559,0.1962471839356538,0.2979417159024045,0.0534983804977358,3.238238,59.01879,359.8679,0.02402207,0.4923976,-0.01492056,5.37999987974763,4
-26.11302,0.4833333,-31.58889,0.2984274232300983,-0.1665691899984225,0.0854813071953124,6.472958,58.08345,359.6826,0.04801619,0.484807,-0.02982412,5.39999987930059,4
-26.0632,0.6833335,-31.56219,0.3829228817909005,-0.1733644566391859,0.1157008173505822,9.703225,57.13092,359.4425,0.07196154,0.476805,-0.04469754,5.41999987885356,4
-25.83455,0.2833335,-31.4728,0.4534787964643882,-0.1493203102433271,0.1400448307180077,3.193085,56.53419,359.7675,0.02357849,0.4734474,-0.01498051,5.43999987840652,4
-25.78563,0.4833335,-31.44584,0.3657109491222208,0.3324401434301651,0.1087434945085199,6.381067,55.59349,359.4824,0.0471306,0.4658312,-0.0299438,5.45999987795949,4
-25.73672,0.6833337,-31.4189,0.2716698784122542,0.7938150783968998,0.0746039112441891,9.562923,54.63031,359.1422,0.07063561,0.4578292,-0.0448776,5.47999987751245,4
-25.57392,0.2833333,-31.35747,0.343561105149675,0.3298270283147438,0.0916347438965203,3.53676,57.28223,359.7581,0.02607182,0.4791496,-0.01664317,5.49999987706542,4
-25.51942,0.4833335,-31.32807,0.4130326238006425,-0.1545469626459433,0.1077419385885676,7.068158,56.34024,359.4576,0.05210963,0.4714453,-0.03326537,5.51999987661839,4
-25.46494,0.6833334,-31.29869,0.3242656772541998,0.2456709212855739,0.0756748476011957,10.59417,55.37127,359.095,0.07809395,0.4632671,-0.04985595,5.53999987617135,4
-25.23968,0.2833333,-31.21329,0.4209156318659168,-0.0148105561239714,0.1057632283817149,3.573493,59.30197,359.8152,0.02629916,0.494518,-0.01682603,5.55999987572432,4
-25.18418,0.4833333,-31.18468,0.512179167759129,-0.2700651121118283,0.1348843078729444,7.142755,58.36771,359.5712,0.05256291,0.4868668,-0.03363512,5.57999987527728,4
-25.12869,0.6833335,-31.15608,0.420038758620155,0.1458341224731567,0.1038534630241088,10.70647,57.40976,359.2657,0.07876429,0.4787179,-0.05040455,5.59999987483025,4
-24.88495,0.2833336,-31.06082,0.4305176177980705,-0.0989667743151679,0.1006376658199457,3.588322,60.76425,359.9084,0.02660524,0.5055381,-0.0165241,5.61999987438321,4
-24.8293,0.4833336,-31.03207,0.2731577072154323,0.1416515015583176,0.038417909992976,7.173848,59.84148,359.7588,0.05317624,0.4979374,-0.03302696,5.63999987393618,4
-24.77367,0.6833336,-31.00334,0.1106951808405867,0.3885425232209781,-0.0248671195486238,10.75545,58.90096,359.5491,0.07968398,0.4898244,-0.04949094,5.65999987348914,4
-24.71805,0.8833333,-30.97461,0.1279620237170213,-0.0508783021483622,-0.0305224440878184,14.33214,57.9347,359.276,0.1061012,0.4812081,-0.06589923,5.67999987304211,4
-24.5123,0.2833331,-30.8977,0.1439909781144273,-0.5117301960844618,-0.0361039626167603,3.575438,61.64865,0.03432234,0.02694318,0.51215,-0.01572824,5.69999987259507,4
-24.45745,0.4833331,-30.86797,-0.0100496395840643,-0.089035915876002,-0.0951390570609369,7.149854,60.74152,0.01259419,0.05385253,0.5046037,-0.03143102,5.71999987214804,4
-24.27011,0.2833333,-30.79397,0.032802337200767,-0.3280862452675582,-0.0876658152242981,3.57663,62.50269,0.0545375,0.02692557,0.5185279,-0.01578326,5.739999871701,4
-24.21496,0.4833331,-30.76475,0.0706931422891052,-0.5629543284369681,-0.0820425586649058,7.152716,61.5992,0.05242522,0.05381481,0.5110152,-0.03154798,5.75999987125397,4
-24.15982,0.6833328,-30.73554,-0.0862508515639,-0.127714934304854,-0.142399008937275,10.72731,60.68757,359.993,0.08064052,0.5029802,-0.04727596,5.77999987080693,4
-24.1047,0.883333,-30.70633,-0.2429751348912354,0.2860931682395057,-0.2028033912998275,14.29941,59.76031,359.8741,0.1073743,0.494432,-0.06295075,5.7999998703599,4
-23.90616,0.2833339,-30.6349,-0.231759452682315,-0.2265064913921317,-0.213581002779847,3.649435,63.06955,0.08095744,0.02750893,0.5227314,-0.01605199,5.81999986991286,4
-23.84978,0.4833338,-30.60524,-0.3307092415963986,-0.040248555242345,-0.2534597002675305,7.298723,62.17213,0.1047664,0.05498074,0.515228,-0.03208286,5.83999986946583,4
-23.79341,0.6833338,-30.57558,-0.4214904161852999,0.1522820396661574,-0.2888496124007602,10.94689,61.26793,0.07071435,0.08238557,0.5071775,-0.04807471,5.85999986901879,4
-23.57713,0.2833333,-30.4958,-0.3173052878524913,-0.3415000561910587,-0.2593687373222018,3.619979,64.32561,0.111701,0.02725658,0.5320349,-0.01598877,5.87999986857176,4
-23.52082,0.4833335,-30.46712,-0.3939466178242661,-0.1364249353154194,-0.2869407879131351,7.240147,63.43386,0.1671282,0.05447571,0.5245952,-0.03195603,5.89999986812472,4
-23.32409,0.2833333,-30.3897,-0.3116050716267224,-0.3519538030308683,-0.256910889161162,3.571826,65.7879,0.1886684,0.02706224,0.5427782,-0.01554345,5.91999986767769,4
-23.26838,0.4833333,-30.36159,-0.2257027339137067,-0.562256043085094,-0.2229816338596819,7.145083,64.90522,0.3225,0.05408829,0.535409,-0.03106649,5.93999986723065,4
-23.21269,0.6833336,-30.33349,-0.3366315815051095,-0.1014043492580634,-0.2557553180794407,10.71887,64.0232,0.4016343,0.08104994,0.5274928,-0.04655308,5.95999986678362,4
-23.15702,0.8833336,-30.30539,-0.4391010163037343,0.3390615213862788,-0.2843107779991776,14.292,63.13478,0.4246026,0.1079143,0.5190384,-0.06198956,5.97999986633658,4
-22.95128,0.2833334,-30.23048,-0.3507496641518415,-0.1458354763678352,-0.2533249119546141,3.513108,66.34614,0.2354956,0.02678099,0.5468588,-0.01505293,5.99999986588955,4
-22.89657,0.4833333,-30.20255,-0.3796945483465528,0.0691707054082143,-0.2558791557131741,7.028386,65.47126,0.4176366,0.05352726,0.5395552,-0.03008636,6.01999986544251,4
-22.84188,0.6833333,-30.17462,-0.3978703760071056,0.2914943395353085,-0.2538721584296048,10.54464,64.60032,0.5470425,0.08020978,0.5317171,-0.04508296,6.03999986499548,4
-22.61817,0.2833336,-30.09044,-0.2103845369690589,-0.1714483023400252,-0.1851417664179493,3.45448,66.5138,0.2682232,0.02648786,0.5480843,-0.01457291,6.05999986454844,4
-22.56454,0.4833335,-30.06253,-0.2132045241802522,0.065511445158397,-0.1789268856906076,6.911271,65.64442,0.484539,0.05294035,0.5408295,-0.02912427,6.07999986410141,4
-22.51093,0.6833335,-30.03464,-0.212870280177885,0.3097893216500717,-0.170554381391355,10.36993,64.78117,0.6494793,0.07933344,0.5330551,-0.04364369,6.09999986365438,4
-22.36159,0.2833331,-29.98127,0.0042542909857168,-0.1311998792552602,-0.0860381540005512,3.410664,65.77876,0.2243881,0.02605226,0.5427283,-0.01451623,6.11999986320734,4
-22.30872,0.4833331,-29.95369,-0.0009903090313407,0.1277133871833924,-0.0785025011328066,6.823,64.90791,0.3971635,0.05206943,0.5354935,-0.02901299,6.13999986276031,4
-22.25586,0.6833331,-29.92612,-0.0155873902441179,0.3939444999187662,-0.073067096201516,10.23658,64.04059,0.5187925,0.07802962,0.5277576,-0.04347837,6.15999986231327,4
-22.04166,0.2833332,-29.84739,-0.0272096414668538,0.6152229120092965,-0.0658186177100255,3.366051,64.36996,0.1338768,0.0254789,0.5323952,-0.01465577,6.17999986186624,4
-21.98952,0.4833331,-29.82029,0.1374170335862956,-0.1144734842850796,-0.0044147789612125,6.732394,63.49362,0.2163137,0.05092365,0.5251636,-0.0292926,6.1999998614192,4
-21.93738,0.6833331,-29.79319,0.1294684172747331,0.0691707772802148,0.00303917504419,10.09865,62.61544,0.247226,0.07631414,0.5174543,-0.04389846,6.21999986097217,4
-21.70619,0.2833333,-29.70602,0.1224813002217892,0.260132831739156,0.0106240841893061,3.315573,62.6958,0.01871745,0.02479168,0.5200114,-0.0149108,6.23999986052513,4
-21.65474,0.4833336,-29.6796,0.1531736932892258,0.2460199107216918,0.0271784185499264,6.630012,61.81204,359.9862,0.04955338,0.5127779,-0.02980377,6.2599998600781,4
-21.60329,0.6833335,-29.65318,0.1707291828289356,0.2669285061772903,0.0388527922180728,9.942269,60.91978,359.9016,0.07426046,0.5050921,-0.04466543,6.27999985963106,4
-21.55187,0.8833332,-29.62677,0.1876279800836435,0.269543023014506,0.0494930628401775,13.2519,60.01273,359.763,0.0988941,0.4969615,-0.05948352,6.29999985918403,4
-21.3556,0.2833336,-29.55787,0.4179239097763059,-0.4397676860006051,0.1306134558449692,3.264817,60.89299,359.9038,0.02413359,0.5065483,-0.01515868,6.31999985873699,4
-21.30482,0.4833338,-29.53202,0.4763836536157271,-0.2367841662937345,0.1590346153101833,6.526792,60.00302,359.7567,0.04823891,0.4993155,-0.03029982,6.33999985828996,4
-21.25405,0.6833338,-29.50618,0.5272710332409964,-0.0275281269549204,0.1832858571712101,9.784849,59.09815,359.5571,0.07229254,0.4916552,-0.04541006,6.35999985784292,4
-21.04092,0.2833333,-29.42803,0.583154910739708,0.1357298840288653,0.2073007664730823,3.214997,58.37623,359.7976,0.02362948,0.4875292,-0.01522177,6.37999985739589,4
-20.99111,0.4833336,-29.402,0.6251882262429014,0.067255566812863,0.2223275899746184,6.425488,57.48019,359.5447,0.04723166,0.4802729,-0.030426,6.39999985694885,4
-20.79835,0.2833333,-29.32635,0.6553843453290398,0.0338022843097305,0.2328370274214819,3.318246,57.85471,359.7701,0.02437045,0.4835474,-0.01576021,6.41999985650182,4
-20.74698,0.4833331,-29.29932,0.5177664534698572,0.4622465028389456,0.184425825495186,6.631617,56.95717,359.4878,0.04871239,0.4762545,-0.03150162,6.43999985605478,4
-20.69562,0.6833332,-29.2723,0.55540596791122,0.234172799366263,0.1913106665142834,9.939133,56.03641,359.1507,0.07300322,0.4685401,-0.04721018,6.45999985560775,4
-20.64427,0.8833329,-29.24529,0.5770715078571875,0.0155074417573245,0.192393276626472,13.2405,55.08567,358.7555,0.09722762,0.4604114,-0.06287277,6.47999985516071,4
-20.43471,0.2833331,-29.1705,0.5957589247688233,-0.2481106185872809,0.191914278060409,3.543294,59.11874,359.7826,0.02595682,0.4931394,-0.01690098,6.49999985471368,4
-20.37944,0.4833332,-29.14244,0.644725274734057,-0.2909725374912731,0.2057458048655895,7.081782,58.22384,359.5095,0.05187958,0.4858149,-0.03378017,6.51999985426664,4
-20.3242,0.683333,-29.11438,0.6717764580520225,-0.2998584910018513,0.2121808578418011,10.61638,57.30397,359.1771,0.07775395,0.4780026,-0.05063247,6.53999985381961,4
-20.0981,0.2833334,-29.03176,0.6903813484841947,-0.3280845421189591,0.2155323668054087,3.566602,61.04381,359.8506,0.02614569,0.5076563,-0.01692686,6.55999985337257,4
-20.04217,0.4833331,-29.00434,0.5110696818725984,0.2913211079785306,0.152605556022916,7.129672,60.15768,359.6454,0.05225669,0.5003856,-0.03383552,6.57999985292554,4
-19.98626,0.6833333,-28.97693,0.4903821499658036,0.0141126457257032,0.1355536496290597,10.68803,59.25079,359.3822,0.0783059,0.4926079,-0.05070459,6.5999998524785,4
-19.74172,0.2833333,-28.88402,0.4583210962263528,-0.2536871306434842,0.1143205613283377,3.59393,62.42272,359.9902,0.02677486,0.517944,-0.01632258,6.61999985203147,4
-19.68584,0.4833333,-28.85556,0.3135713153270743,0.1538490055526528,0.0626165241256906,7.186507,61.5523,359.9261,0.05351772,0.510714,-0.03262164,6.63999985158443,4
-19.62998,0.6833333,-28.8271,0.3542885107683204,-0.0951327614357128,0.0695692907185154,10.77665,60.67,359.8059,0.08019701,0.5029597,-0.04888246,6.6599998511374,4
-19.57413,0.8833333,-28.79865,0.3890016587270022,-0.3347058025534694,0.0746464943139848,14.36348,59.76841,359.6271,0.1067849,0.4946898,-0.06508833,6.67999985069036,4
-19.36747,0.2833336,-28.72481,0.2382336040449768,0.1010567246925565,0.0209495118925282,3.562461,63.08215,0.05175225,0.02672737,0.5228449,-0.01587527,6.69999985024333,4
-19.31224,0.4833334,-28.69628,0.2895698395551562,-0.1196989010120082,0.0342753647301066,7.124117,62.22106,0.05013172,0.05341924,0.5156692,-0.03172795,6.7199998497963,4
-19.25702,0.6833333,-28.66776,0.3305274359463013,-0.3310456904679976,0.0437723478483675,10.68433,61.35231,359.9941,0.08004875,0.5079731,-0.04754398,6.73999984934926,4
-19.03008,0.2833333,-28.58466,0.160699066281996,0.1329427458063738,-0.0179485204699574,3.636336,64.16306,0.08422158,0.02727282,0.5308382,-0.01622896,6.75999984890223,4
-18.97338,0.4833333,-28.55611,-0.0144157198356982,0.5807268396180687,-0.0815509628983512,7.27246,63.30754,0.1141847,0.0545085,0.5236745,-0.03243618,6.77999984845519,4
-18.9167,0.6833335,-28.52757,-0.0169006876979693,0.10732988080551,-0.0939458337639393,10.90822,62.44604,0.08891519,0.08168167,0.5159606,-0.0486098,6.79999984800816,4
-18.67118,0.2833333,-28.43562,-0.0177892956811867,-0.3822706222113777,-0.1052803094990899,3.629175,64.82249,0.0964142,0.02718324,0.535701,-0.01626237,6.81999984756112,4
-18.61437,0.4833333,-28.40759,-0.1763708298914679,0.0169018001102397,-0.1618042659612584,7.258325,63.97073,0.1389205,0.05432956,0.5285749,-0.03250315,6.83999984711409,4
-18.55758,0.6833333,-28.37956,-0.1404821870613641,-0.2404441033600031,-0.1549252008374431,10.88665,63.11391,0.1269968,0.08141037,0.520896,-0.048705,6.85999984666705,4
-18.50081,0.8833334,-28.35154,-0.1020355457053021,-0.4883813737398563,-0.1448353477699555,14.51333,62.2448,0.05871181,0.108396,0.5126727,-0.06485277,6.87999984622002,4
-18.29361,0.2833333,-28.27903,-0.2409989598082926,-0.0609826653450285,-0.1894809970310724,3.576068,66.42216,0.1781761,0.02695663,0.547417,-0.01578983,6.89999984577298,4
-18.23746,0.4833333,-28.25165,-0.2579360365258303,-0.2901024747491986,-0.1996715493043126,7.153314,65.58156,0.3040672,0.05387734,0.540377,-0.031559,6.91999984532595,4
-18.18134,0.6833332,-28.22427,-0.4305194908074146,-0.0296211788055649,-0.2611091896724815,10.73097,64.74152,0.377823,0.08073457,0.5327867,-0.04729127,6.93999984487891,4
-17.95599,0.2833333,-28.14285,-0.5945096325826409,0.2413144759788495,-0.31783712322623,3.514079,67.50747,0.2430364,0.02667065,0.5553078,-0.01527358,6.95999984443188,4
-17.90077,0.4833333,-28.11588,-0.5602751347196904,-0.169880462838481,-0.3140645227491347,7.030289,66.67534,0.4353587,0.05330682,0.5483397,-0.03052726,6.97999984398484,4
-17.84556,0.6833333,-28.08892,-0.5091359853008974,-0.598324310769531,-0.3039420441495153,10.54752,65.84813,0.5775667,0.07987923,0.5408305,-0.04574462,6.99999984353781,4
-17.60254,0.2833333,-27.99841,-0.6171016505220095,-0.1390402504109845,-0.3404208040134939,3.455003,67.43008,0.266897,0.02636786,0.5547506,-0.01479639,7.01999984309077,4
-17.54847,0.4833333,-27.97136,-0.5142594657526356,-0.3373195302796826,-0.3085718118767104,6.912098,66.60249,0.484456,0.05270063,0.5478246,-0.02957043,7.03999984264374,4
-17.49441,0.6833333,-27.94433,-0.4031417821044964,-0.5272352940307591,-0.2732782256468837,10.37095,65.78146,0.6532299,0.07897459,0.5403747,-0.04431197,7.0599998421967,4
-17.44037,0.8833333,-27.9173,-0.4753898598551522,-0.0428615913421297,-0.2957078825605563,13.83085,64.96105,0.7731505,0.1051643,0.5324087,-0.05900691,7.07999984174967,4
-17.23423,0.2833332,-27.84523,-0.5368696041477854,0.4242631695636887,-0.3128063271632761,3.406081,66.1339,0.195457,0.02583597,0.5453344,-0.01478659,7.09999984130263,4
-17.18107,0.4833332,-27.81846,-0.4234293223747194,-0.0308390522829645,-0.2761225273734915,6.813247,65.30309,0.3418016,0.05163741,0.5384235,-0.02955263,7.1199998408556,4
-17.12793,0.6833332,-27.79169,-0.5190930798952031,0.2170975674157167,-0.3082517331922041,10.2212,64.47451,0.4392592,0.07738289,0.5310131,-0.04428707,7.13999984040856,4
-16.90427,0.2833333,-27.71113,-0.6101930699638078,0.4754883024615511,-0.3367305209337417,3.354839,64.72669,0.1105861,0.0252418,0.535033,-0.01485427,7.15999983996153,4
-16.85197,0.4833333,-27.68478,-0.5123609646979368,0.051748426656362,-0.3075187781815423,6.709555,63.89079,0.1722923,0.05045012,0.5281288,-0.02968907,7.17999983951449,4
-16.79969,0.6833335,-27.65844,-0.4059594868354317,-0.3892406161305686,-0.2741010772840475,10.06385,63.05214,0.1848927,0.0756052,0.52075,-0.04449268,7.19999983906746,4
-16.55892,0.2833333,-27.5699,-0.4588383829512885,0.057497963277978,-0.2869547702852664,3.303583,63.03207,359.988,0.02451863,0.5225226,-0.0151572,7.21999983862042,4
-16.50727,0.4833334,-27.54433,-0.3031530202721324,-0.1533268194943486,-0.2327435502384141,6.605642,62.18803,359.9273,0.04900813,0.5156173,-0.03029656,7.23999983817339,4
-16.45563,0.6833334,-27.51877,-0.1418341211595404,-0.3557880840582331,-0.1760214884094288,9.905128,61.33417,359.8166,0.07344358,0.5082628,-0.04540482,7.25999983772635,4
-16.40401,0.8833333,-27.49321,-0.167761653275491,0.1160405841579712,-0.1783092046570047,13.20166,60.46451,359.6541,0.09780705,0.5004662,-0.06046897,7.27999983727932,4
-16.19852,0.2833334,-27.42212,-0.187082824414535,0.5706198826698331,-0.1776843189988746,3.252399,61.02758,359.8842,0.02393547,0.5075657,-0.01527958,7.29999983683228,4
-16.14771,0.4833334,-27.39678,-0.0368304883567862,0.1029727416944255,-0.1298051005479976,6.501807,60.17817,359.7199,0.0478433,0.5006576,-0.03054196,7.31999983638525,4
-16.09692,0.6833333,-27.37144,-0.1005474816853908,0.3383645186664656,-0.1532505048346273,9.747443,59.31327,359.5056,0.07170299,0.4933261,-0.04577355,7.33999983593822,4
-15.8747,0.2833333,-27.29171,-0.1648911117353826,0.5842105012394687,-0.1760997287041767,3.204498,58.64779,359.7853,0.02346073,0.4895995,-0.01532678,7.35999983549118,4
-15.82482,0.4833333,-27.26618,-0.0467764667482626,0.1479255240555559,-0.1443880948488818,6.404518,57.79284,359.5224,0.04689472,0.4826728,-0.03063629,7.37999983504415,4
-15.77496,0.6833333,-27.24066,0.0735219022364308,-0.3056089428807149,-0.1116131561361584,9.599292,56.91713,359.2092,0.07028242,0.4753484,-0.04591607,7.39999983459711,4
-15.62118,0.2833332,-27.18796,0.0283031238687829,0.1285850346812855,-0.1271399561159469,3.430389,58.80318,359.7697,0.02509012,0.4907594,-0.01644383,7.41999983415008,4
-15.56766,0.4833332,-27.16076,0.1820216243313073,-0.0947843397448302,-0.0784526524571802,6.856052,57.94743,359.4878,0.05014917,0.4837706,-0.0328678,7.43999983370304,4
-15.51415,0.6833332,-27.13358,0.3318493754607097,-0.3097903175786358,-0.0295337205883541,10.27615,57.0677,359.1516,0.07515362,0.4763279,-0.04925625,7.45999983325601,4
-15.29549,0.2833333,-27.05797,0.2879020868210045,0.1494935167969197,-0.0410722866679691,3.553855,60.92327,359.8106,0.02589065,0.506761,-0.01714388,7.47999983280897,4
-15.23947,0.4833333,-27.03114,0.2442263697997422,0.5915280748581746,-0.0510001881624226,7.103642,60.07273,359.5679,0.05174765,0.4997868,-0.03426728,7.49999983236194,4
-15.18347,0.6833333,-27.0043,0.3651973300270672,0.1113357676014505,-0.0127400742474854,10.64924,59.19939,359.2689,0.0775485,0.4923107,-0.05135935,7.5199998319149,4
-14.94696,0.2833335,-26.92025,0.2665806003162334,0.3341824316081292,-0.0460955122136468,3.572104,62.53779,359.8729,0.02606446,0.5188323,-0.01712548,7.53999983146787,4
-14.89043,0.4833335,-26.89388,0.1625911119228469,0.5674831133902788,-0.0795813042083182,7.14109,61.69545,359.6926,0.0520944,0.5119044,-0.03423144,7.55999983102083,4
-14.83393,0.6833334,-26.86753,0.2384111148151113,0.1186534191903866,-0.0590991606977731,10.70604,60.83426,359.4574,0.07806362,0.5044588,-0.05129806,7.5799998305738,4
-14.77743,0.8833334,-26.84118,0.3126630710402143,-0.3474255539373295,-0.0379343377294141,14.26597,59.94688,359.1638,0.103945,0.4965037,-0.06830753,7.59999983012676,4
-14.57888,0.2833333,-26.77332,0.2162552423063708,0.0742235829017349,-0.0660684883417168,3.591825,63.73556,0.02737635,0.02674169,0.5276952,-0.01634321,7.61999982967973,4
-14.52269,0.4833333,-26.74555,0.3174089664955968,-0.1616907133537797,-0.0312829718129314,7.182838,62.91112,0.003696823,0.05345244,0.5208105,-0.03266095,7.63999982923269,4
-14.46651,0.6833333,-26.71778,0.4128478822650407,-0.3892418013651845,0.0028274009282043,10.77211,62.0778,359.9273,0.0801003,0.5133943,-0.04894049,7.65999982878566,4
-14.24916,0.2833333,-26.64282,0.3117718059708885,0.0574969596835063,-0.0241245641828378,3.569095,64.89397,0.06567746,0.02658704,0.5362437,-0.01622441,7.67999982833862,4
-14.19306,0.4833334,-26.61577,0.2101919026016414,0.4869864797005165,-0.0503453689053827,7.137576,64.07558,0.08014929,0.05313684,0.5294127,-0.03242883,7.69999982789159,4
-14.13697,0.6833333,-26.58872,0.3740797509194795,-0.0057505383868405,0.0080764787886842,10.70491,63.25087,0.042956,0.07962493,0.5220478,-0.048596,7.71999982744455,4
-13.89934,0.2833332,-26.5043,0.3064132910118182,0.2045514885777941,-0.009938198780361,3.647356,65.60677,0.08867831,0.02716804,0.5414626,-0.01659066,7.73999982699752,4
-13.84181,0.4833333,-26.47701,0.2225965829061902,0.4253075009101599,-0.0330019583917966,7.294536,64.79298,0.125627,0.05429918,0.5346307,-0.03315889,7.75999982655048,4
-13.78429,0.6833332,-26.44973,0.1362109952893391,0.6042468459950763,-0.0569117429151084,10.94086,63.97407,0.1102566,0.08136491,0.5272367,-0.0496876,7.77999982610345,4
-13.72679,0.8833331,-26.42246,0.2253095461755858,-0.1646526906265485,-0.0301526474046376,14.58624,63.14301,0.04067639,0.1083403,0.5192881,-0.06616389,7.79999982565641,4
-13.52804,0.2833335,-26.35713,0.1334365531466339,-0.017075457498173,-0.0559048815349747,3.619463,66.32307,0.1057093,0.02694139,0.5467039,-0.01650272,7.81999982520938,4
-13.47075,0.4833334,-26.33049,0.0394960422543277,0.1409558651034382,-0.0811988685056093,7.239023,65.51422,0.1604172,0.05384677,0.5399247,-0.03298355,7.83999982476234,4
-13.41348,0.6833335,-26.30386,0.1429195451822806,-0.3831433294945812,-0.0458329049939081,10.85791,64.7015,0.1636495,0.08068729,0.5325859,-0.04942556,7.85999982431531,4
-13.1959,0.2833332,-26.23014,0.0448018510799652,-0.2042038023339338,-0.0730020019506305,3.56059,68.47403,0.2076982,0.02670285,0.5622985,-0.01598111,7.87999982386827,4
-13.13926,0.4833331,-26.20438,-0.0570583095300687,-0.0148104802445741,-0.1008432719855143,7.122678,67.6772,0.366133,0.05337055,0.5556123,-0.03194129,7.89999982342124,4
-13.08264,0.6833333,-26.17863,0.0588531842401298,-0.5075473044953251,-0.0606006408256334,10.68552,66.88338,0.4756934,0.07997546,0.5483666,-0.04786446,7.91999982297421,4
-12.847,0.2833334,-26.09623,0.0539535785342266,-0.297245182833886,-0.0524379679190509,3.49893,68.98734,0.2516859,0.02640501,0.5659946,-0.01547971,7.93999982252717,4
-12.79141,0.4833334,-26.07063,0.0485432460412145,-0.0764889476547616,-0.0453088927767382,6.999997,68.19684,0.4554344,0.05277636,0.5593652,-0.03093954,7.95999982208014,4
-12.73583,0.6833333,-26.04504,0.0559766315869403,0.1024509629103377,-0.0353388176639661,10.50211,67.41235,0.6120814,0.07908553,0.5521906,-0.04636199,7.9799998216331,4
-12.68028,0.8833333,-26.01945,0.0551899511673088,0.0538395318647689,-0.0320941235599434,14.00498,66.62804,0.7214109,0.1053088,0.5444784,-0.06173463,7.99999982118607,4
-12.48245,0.2833331,-25.95393,0.0491807820424359,0.0444310025314103,-0.0303710773022451,3.441012,68.60081,0.2653663,0.02610699,0.5632189,-0.01500725,8.01999982073903,4
-12.42806,0.4833332,-25.92809,0.0508542096136803,0.0209093119103135,-0.0262856201876502,6.883887,67.8146,0.4841422,0.05217946,0.5566291,-0.02999135,8.039999820292,4
-12.37369,0.6833331,-25.90226,0.0391522658463063,0.009932317571214,-0.0295299396860571,10.32845,67.03535,0.6568707,0.07819459,0.5495136,-0.04494294,8.05999981984496,4
-12.15761,0.2833333,-25.82929,0.0135092902234976,0.0381581028054803,-0.0356535734647458,3.394477,67.38005,0.1719758,0.02547582,0.5544186,-0.01518094,8.07999981939793,4
-12.10391,0.4833333,-25.80412,-0.0132785079146788,0.0522708426183879,-0.0408472184118835,6.78965,66.58767,0.2970409,0.0509171,0.5478395,-0.03034271,8.09999981895089,4
-12.05024,0.6833332,-25.77895,0.1739570519115094,-0.6413590552623984,0.021611361536781,10.18527,65.79658,0.375519,0.07630385,0.5407581,-0.04547245,8.11999981850386,4
-11.81656,0.2833332,-25.69756,0.1902624408304873,-0.4185119906019889,0.0350808015623584,3.34171,65.76389,0.0852409,0.02489012,0.5426607,-0.01520562,8.13999981805682,4
-11.76383,0.4833331,-25.67264,0.2006907421945314,-0.1852108555470928,0.0460655089431725,6.682899,64.96622,0.1240721,0.04974782,0.5360844,-0.03039088,8.15999981760979,4
-11.71112,0.683333,-25.64772,0.2183844411544839,0.0062736988552226,0.0582681897252612,10.02335,64.16479,0.1160689,0.07455367,0.5290324,-0.04554462,8.17999981716275,4
-11.65842,0.883333,-25.62281,0.0629965353389891,0.7101297506518557,0.0187348001719875,13.36239,63.35395,0.05999896,0.09928508,0.5215116,-0.06065354,8.19999981671572,4
-11.36884,0.2833333,-25.52298,0.1244339370049747,0.4110370570286825,0.0373933201837104,3.285089,63.54129,359.9352,0.02407114,0.5263176,-0.015573,8.21999981626868,4
-11.31686,0.4833333,-25.49882,0.1864218999695115,0.1270681972060864,0.0559869376017232,6.567971,62.73385,359.8239,0.04811407,0.5197366,-0.03112799,8.23999981582165,4
-11.26489,0.6833333,-25.47467,0.0441494833104805,0.5241497063264293,0.009448772262921,9.847598,61.91405,359.6646,0.07210428,0.51271,-0.04665113,8.25999981537461,4
-11.21294,0.8833331,-25.45052,0.0742486326943918,0.2704278753589148,0.0095467534001656,13.12369,61.07613,359.4555,0.09602506,0.5052441,-0.06212961,8.27999981492758,4
-11.00691,0.2833333,-25.38202,0.09572599867706,0.0318297986536301,0.0057237641174658,3.229275,60.89616,359.8286,0.02353335,0.506592,-0.01556788,8.29999981448054,4
-10.95606,0.4833333,-25.35758,0.1214416913401592,-0.2460058776488246,0.0018082124105163,6.454863,60.08313,359.6111,0.04703986,0.4999966,-0.03111802,8.31999981403351,4
-10.90523,0.6833333,-25.33315,0.1868763670972253,-0.2973710275694611,0.0127672723769514,9.676065,59.25199,359.3456,0.07049958,0.4929856,-0.04663765,8.33999981358647,4
-10.68053,0.2833333,-25.2562,0.2392174864186236,-0.3090452006929928,0.0190493904491972,3.282221,59.75605,359.7756,0.02385719,0.4979986,-0.01596396,8.35999981313944,4
-10.6289,0.4833332,-25.23109,0.2916458827408066,-0.3343445933963739,0.0247249872481312,6.56005,58.94046,359.5042,0.0476871,0.4913763,-0.03190938,8.3799998126924,4
-10.57728,0.6833329,-25.20598,0.1648755464495153,0.2937030866625943,-0.02268715032098,9.832717,58.1032,359.1833,0.07146859,0.4843322,-0.04782278,8.39999981224537,4
-10.33114,0.2833333,-25.12022,0.1944456874231104,0.0308517345106976,-0.0280013659927682,3.533423,61.34547,359.7911,0.02558729,0.5099387,-0.01729447,8.41999981179833,4
-10.27506,0.4833333,-25.09423,0.2221428989636926,-0.2168763158676553,-0.0322189194873239,7.062605,60.53154,359.5316,0.05114186,0.503268,-0.0345672,8.4399998113513,4
-10.21901,0.6833333,-25.06826,0.0463541468881096,0.2164457897815758,-0.0992613736243228,10.58866,59.69426,359.2181,0.07664958,0.4960989,-0.05181441,8.45999981090426,4
-10.16297,0.8833334,-25.04229,0.044013446602114,-0.0010350060200566,-0.1160754577485683,14.10874,58.82656,358.8474,0.1020732,0.4884394,-0.06900534,8.47999981045723,4
-9.953418,0.2833333,-24.97441,0.0335811813883051,-0.2033920757855568,-0.1332942988409193,3.56326,62.85075,359.8472,0.02583496,0.5211704,-0.01734752,8.49999981001019,4
-9.896693,0.4833333,-24.94881,0.0285708405320095,-0.4449866799842774,-0.1468835081095321,7.123241,62.04498,359.6436,0.05163641,0.5145422,-0.0346759,8.51999980956316,4
-9.839985,0.6833332,-24.92321,-0.1283392698111489,0.1802038621832495,-0.2007369362732767,10.67897,61.21929,359.3873,0.07737806,0.5073978,-0.05196434,8.53999980911613,4
-9.612049,0.2833332,-24.84598,-0.0371475275119186,-0.085505080348772,-0.1809476736886885,3.593142,64.56136,-0.003150535,0.02649073,0.5338055,-0.01676675,8.55999980866909,4
-9.555224,0.4833331,-24.81948,0.0520593523372046,-0.3360902542441711,-0.1601587195004157,7.1851,63.772,359.9445,0.05294984,0.5272185,-0.03350995,8.57999980822206,4
-9.498416,0.683333,-24.79299,-0.0406907186636793,0.0943744221053317,-0.190780634449208,10.77498,62.97223,359.8413,0.07934702,0.520095,-0.05021402,8.59999980777502,4
-9.251968,0.2833335,-24.70754,0.0737041748524891,-0.1259635490482995,-0.1570339253157122,3.562413,65.48545,0.06028202,0.02642846,0.5405926,-0.01636948,8.61999980732799,4
-9.195671,0.4833335,-24.68118,0.1810080522814798,-0.331177779791399,-0.1234161327705756,7.124074,64.70445,0.07205449,0.05282101,0.5340557,-0.03271659,8.63999980688095,4
-9.13939,0.6833335,-24.65482,0.0796445411295003,0.1446583717374341,-0.1530853821828728,10.68457,63.91734,0.0346288,0.0791527,0.5269844,-0.04902612,8.65999980643392,4
-9.083125,0.8833334,-24.62847,-0.0235740351254367,0.610005710818208,-0.1816783200838436,14.24319,63.11774,359.9463,0.1053963,0.5193862,-0.06528202,8.67999980598688,4
-9.026876,0.9766705,-24.60213,0.05027692412615,0.1598867695406769,-0.1615836755496431,17.79922,62.29879,359.8043,0.1315257,0.5112693,-0.0814677,8.69999980553985,4
-8.778065,0.2833333,-24.52402,0.1291965721014287,-0.300721168874173,-0.1381207606304109,3.634817,66.45765,0.09174745,0.02696729,0.5476871,-0.01670961,8.71999980509281,4
-8.720363,0.4833334,-24.49761,-0.0565673715022176,0.1331590315659526,-0.1968693253683753,7.269498,65.6835,0.134454,0.05389835,0.5411669,-0.033397,8.73999980464578,4
-8.662681,0.6833333,-24.4712,-0.0560664680929843,-0.0837635462605367,-0.2004570449264591,10.90385,64.90497,0.1274019,0.08076718,0.5340831,-0.05004867,8.75999980419874,4
-8.443439,0.2833332,-24.40044,-0.0627580814582469,-0.2855623004792083,-0.203556906061074,3.615757,67.66684,0.1165026,0.02677158,0.5564761,-0.01672131,8.77999980375171,4
-8.385679,0.4833332,-24.37499,-0.0621195889059693,-0.5265987034293603,-0.2018887177407897,7.231678,66.89741,0.1845555,0.05350721,0.5500075,-0.03342041,8.79999980330467,4
-8.327935,0.6833332,-24.34954,-0.0199932745196056,-0.5411646942959553,-0.1831286360593544,10.84713,66.12534,0.2038626,0.08017901,0.542972,-0.05008037,8.81999980285764,4
-8.090102,0.2833333,-24.27082,0.0147552057142448,-0.5160399016793425,-0.1640651499973593,3.559653,69.59143,0.2074446,0.02653777,0.5703298,-0.01623788,8.8399998024106,4
-8.032991,0.4833334,-24.24617,0.0568941051055853,-0.504540281860443,-0.140478606526571,7.12068,68.83285,0.3679755,0.05304042,0.5639452,-0.03245481,8.85999980196357,4
-7.975897,0.6833335,-24.22152,-0.0875525876499301,0.1603063241259362,-0.1712332015431386,10.68247,68.07776,0.4820956,0.07948142,0.5569954,-0.04863448,8.87999980151653,4
-7.918818,0.8833333,-24.19687,-0.220137747693685,0.6741767329861486,-0.1971646365263595,14.2441,67.32025,0.5491872,0.105831,0.5494879,-0.06476064,8.8999998010695,4
-7.719909,0.2833333,-24.13465,-0.1137606427153175,0.1610194995267193,-0.1598512467292288,3.49846,69.9586,0.2497759,0.02625994,0.5729575,-0.01571426,8.91999980062246,4
-7.663901,0.4833332,-24.11001,-0.2223355751556752,0.3581488961329709,-0.1888451345601893,6.998896,69.20685,0.4539716,0.05248648,0.5666306,-0.03140855,8.93999980017543,4
-7.607907,0.6833331,-24.08538,-0.3304247321537827,0.5729806234828386,-0.2167728252300307,10.50027,68.46147,0.6135774,0.07865184,0.5597539,-0.04706433,8.95999979972839,4
-7.390485,0.2833333,-24.01519,-0.2506971096099066,0.1129299553781458,-0.1938962638653407,3.440516,70.02213,0.2736292,0.02595665,0.5734157,-0.01526839,8.97999979928136,4
-7.335539,0.4833333,-23.99056,-0.1651438903541446,-0.357121891078876,-0.1688564337098128,6.882896,69.27464,0.5028585,0.05187864,0.5671326,-0.03051465,8.99999979883432,4
-7.28061,0.6833335,-23.96594,-0.2446711720941943,0.0678026859217402,-0.188118774349995,10.32694,68.53508,0.6885235,0.07774365,0.560316,-0.04572761,9.01999979838729,4
-7.225696,0.8833334,-23.94132,-0.1201381527907266,-0.1575879767293885,-0.1463124959605757,13.77213,67.79821,0.830808,0.1035275,0.5529729,-0.06089341,9.03999979794025,4
-6.9515,0.2833332,-23.8532,0.0041475754337456,-0.3673671176455546,-0.1017411754149328,3.388729,68.23344,0.1575211,0.02524983,0.5606012,-0.01544651,9.05999979749322,4
-6.897452,0.4833332,-23.82909,-0.0639049834708345,0.1043920245599547,-0.1126143374518804,6.777818,67.47841,0.270472,0.05046548,0.5543247,-0.0308728,9.07999979704618,4
-6.843419,0.6833329,-23.80498,-0.1291293208110637,0.5661502546444462,-0.1214246424157075,10.16716,66.72424,0.3390907,0.07562771,0.5475442,-0.04626656,9.09999979659915,4
-6.599735,0.2833333,-23.72394,-0.0278521222683929,0.1129303176130244,-0.0876478254480623,3.331298,66.50284,0.05352665,0.02456391,0.5480709,-0.01554735,9.11999979615211,4
-6.546649,0.4833333,-23.70026,-0.1448797489939992,0.3699968788383896,-0.1199915147379542,6.661604,65.74091,0.0627586,0.04909553,0.5417978,-0.03107446,9.13999979570508,4
-6.493578,0.6833333,-23.6766,-0.2648311295462791,0.6447657446720989,-0.1521782617154166,9.990788,64.97377,0.027158,0.07357636,0.535049,-0.04656974,9.15999979525805,4
-6.440523,0.8833333,-23.65293,-0.3752297577929724,0.8849662619762646,-0.1810061121589861,13.31824,64.19602,359.9454,0.09798457,0.5278311,-0.06201973,9.17999979481101,4
-6.232692,0.2833332,-23.58847,-0.4486121142189012,0.1845758828057213,-0.101678529166385,3.278568,64.62561,359.9302,0.02385168,0.5343371,-0.01580594,9.19999979436398,4
-6.180336,0.4833331,-23.56541,-0.488890083752207,-0.4244268372663495,-0.0222229878788198,6.554921,63.85615,359.8163,0.04767547,0.5280663,-0.03159364,9.21999979391694,4
-6.127993,0.6833331,-23.54235,-0.7147243512763808,-0.0393327678824232,-0.001411426679521,9.82813,63.07447,359.6567,0.07144789,0.5213464,-0.04734907,9.23999979346991,4
-5.903333,0.2833334,-23.47004,-0.9525863230607738,-0.3050415813933169,0.1111678198230805,3.228129,62.4461,359.8358,0.02334475,0.5181993,-0.0158257,9.25999979302287,4
-5.851925,0.4833336,-23.44686,-1.1465281903737856,-0.555626770360054,0.2182525782546172,6.452788,61.67112,359.6277,0.04666262,0.5119177,-0.03163368,9.27999979257584,4
-5.800532,0.6833335,-23.42369,-1.479135687363922,-0.1251615605896388,0.2698644886211276,9.673401,60.87885,359.3738,0.06993482,0.5052127,-0.04741056,9.2999997921288,4
-5.55741,0.2833333,-23.3431,-1.796763959282304,-0.3454992219531708,0.432559697328756,3.281489,61.04947,359.7743,0.02366411,0.5077497,-0.01623892,9.31999979168177,4
-5.505232,0.4833333,-23.31917,-2.0589701160556824,-0.550713352685292,0.5833663625202128,6.558713,60.27111,359.5036,0.04730091,0.501435,-0.03245921,9.33999979123473,4
-5.453068,0.6833333,-23.29524,-2.4712855487599983,-0.0748770980092494,0.6618125160178856,9.830973,59.47139,359.1857,0.07088981,0.4946917,-0.04864683,9.3599997907877,4
-5.400922,0.8833333,-23.27133,-2.83105454605418,0.3904700934072345,0.7289138093654088,13.09805,58.64454,358.8175,0.0944149,0.487526,-0.06478959,9.37999979034066,4
-5.348791,0.9766706,-23.24742,-3.182870470972805,-0.0596490611341218,0.8670659410453005,16.35852,57.78415,358.3948,0.1178512,0.4799443,-0.08087204,9.39999978989363,4
-5.096771,0.2833333,-23.17236,-3.459380156704928,-0.5202570665423869,0.9942603282341338,3.524408,63.16133,359.8102,0.02533047,0.5234935,-0.01751438,9.41999978944659,4
-5.040191,0.4833333,-23.14792,-3.82099022366352,-0.086376640641977,1.06887299478117,7.045021,62.38803,359.5726,0.05062881,0.5171515,-0.035007,9.43999978899956,4
-4.983641,0.6833333,-23.12348,-4.105993412166842,0.3370149610495009,1.134363013720474,10.56299,61.59313,359.2837,0.07588074,0.510302,-0.05247425,9.45999978855252,4
-4.763438,0.2833333,-23.05581,-4.318513415233421,-0.1550596231818748,1.298035794879386,3.563999,65.05625,359.8792,0.02565177,0.5374809,-0.01760977,9.47999978810549,4
-4.705997,0.4833333,-23.03188,-4.630849395489127,0.0626646449869335,1.3940538421564137,7.12536,64.29134,359.7101,0.05127048,0.5311767,-0.03520117,9.49999978765845,4
-4.648571,0.6833333,-23.00796,-4.860961487060187,0.297603372321121,1.4746446735541667,10.68311,63.50901,359.4911,0.07682982,0.5243417,-0.05275234,9.51999978721142,4
-4.409798,0.2833333,-22.93103,-4.98104003313761,-0.1428284079962353,1.6084846333407192,3.589791,66.43549,0.03395268,0.02636581,0.5475458,-0.01691097,9.53999978676438,4
-4.352456,0.4833332,-22.90581,-5.0058958735870185,-0.5937489201778927,1.7271630771420057,7.178914,65.68741,0.02155816,0.05270119,0.5412754,-0.03379704,9.55999978631735,4
-4.29513,0.6833332,-22.88059,-5.189917424732918,-0.1501806691329104,1.7584864628097598,10.76654,64.93185,359.9614,0.07897504,0.534457,-0.05064377,9.57999978587031,4
-4.237821,0.8833332,-22.85538,-5.29039165883879,0.282898637132416,1.7746199147391335,14.35202,64.16257,359.8517,0.1051604,0.5270981,-0.06743419,9.59999978542328,4
-4.038952,0.2833333,-22.79537,-5.300282667782307,-0.1994880157580637,1.8205124255895484,3.568567,66.15086,0.0429442,0.02629541,0.5454683,-0.01667869,9.61999978497624,4
-3.982143,0.4833333,-22.76988,-5.440356958166129,0.0279240652717363,1.7861827343516945,7.13624,65.40664,0.03976691,0.05255677,0.5392236,-0.03333354,9.63999978452921,4
-3.925349,0.6833333,-22.74439,-5.500245326575936,0.272550581422468,1.7368171071138043,10.70255,64.65565,359.9895,0.07875735,0.5324394,-0.04995019,9.65999978408217,4
-3.868571,0.8833332,-22.71891,-5.422151892976112,-0.1581932997003781,1.7165737006074906,14.26688,63.89176,359.8903,0.1048707,0.5251231,-0.06651206,9.67999978363514,4
-3.797772,0.2833332,-22.59825,-5.256975542610185,-0.5994261208985285,1.6842940078886102,3.639379,64.27157,0.03874223,0.02706891,0.5316502,-0.01660481,9.6999997831881,4
-3.740674,0.4833332,-22.57041,-5.1833550511625175,-0.1461703865583432,1.5954823700258878,7.277914,63.5298,0.03037891,0.05410168,0.5253593,-0.03318741,9.71999978274107,4
-3.683592,0.683333,-22.54259,-5.028975376215635,0.2965965416062507,1.4987233616329227,10.91501,62.78067,359.9741,0.08107011,0.5185229,-0.04973048,9.73999978229403,4
-3.665632,0.2833333,-22.42846,-4.694233605777463,-0.1761028176439845,1.4724328367147272,3.604716,61.51007,0.04806694,0.02724293,0.5111042,-0.01572321,9.759999781847,4
-3.610577,0.4833332,-22.39805,-4.486152457498129,0.060996667404029,1.380167335448757,7.208703,60.77148,0.04974129,0.05445009,0.504795,-0.03142527,9.77999978139997,4
-3.555538,0.6833331,-22.36764,-4.21366673171293,0.315310350090459,1.2789826583849404,10.81135,60.02635,0.004243878,0.08159319,0.4979716,-0.04709029,9.79999978095293,4
-3.527862,0.2833333,-22.22945,-3.780278983580313,-0.1057459504268502,1.238363827398313,3.546153,59.33768,0.1088715,0.02735477,0.4947235,-0.01449027,9.8199997805059,4
-3.47543,0.4833332,-22.19656,-3.5076626398004365,0.1829970048103997,1.1244758745393495,7.092371,58.60708,0.1727124,0.05467453,0.4884174,-0.0289613,9.83999978005886,4
-3.423014,0.6833333,-22.16367,-3.1871330433465017,0.488954503455726,1.0022166631624074,10.63805,57.87415,0.1912881,0.08193173,0.4816293,-0.04339872,9.85999977961183,4
-3.370603,0.8833333,-22.13081,-2.81381014379482,0.7598557744140411,0.8760981954560023,14.18235,57.13351,0.1653078,0.1091045,0.4743679,-0.05777363,9.87999977916479,4
-3.369154,0.2833334,-22.02392,-2.2865156846468926,0.0896780450639478,0.7886988118999376,3.4846,56.63412,0.1750568,0.02749018,0.4740896,-0.01307798,9.89999977871776,4
-3.319861,0.4833333,-21.98821,-1.704684017582399,-0.4896001413049462,0.7008073708532052,6.970112,55.91252,0.3065053,0.05494597,0.4677851,-0.02613898,9.91999977827072,4
-3.270571,0.6833333,-21.95252,-1.3034876807022453,-0.0752691074109778,0.5561785875548004,10.45559,55.19331,0.3964452,0.08234504,0.4610352,-0.0391553,9.93999977782369,4
-3.221297,0.8833333,-21.91684,-0.8712217725973752,0.3280850031447148,0.4137395567900341,13.94092,54.47094,0.442533,0.1096565,0.4538458,-0.05213039,9.95999977737665,4
-3.184513,0.2833333,-21.78383,-0.2251966478885718,-0.1845150656781762,0.3258185915969172,3.42667,54.2362,0.1853082,0.02734882,0.4555787,-0.01218997,9.97999977692962,4
-3.137668,0.4833332,-21.74655,0.2441423980345685,0.0121961764093705,0.1882449119073577,6.85398,53.51846,0.3291624,0.05466568,0.449282,-0.02435357,9.99999977648258,4
-3.090837,0.6833332,-21.70927,0.71290631985872,0.2256341094055044,0.0534412139404878,10.28183,52.80368,0.4306941,0.08192343,0.4425705,-0.03649113,10.0199997760355,4
-3.026045,0.2833332,-21.61109,1.3770314128567105,-0.2367862196550074,-0.0431803490534115,3.370781,51.23242,0.09823401,0.02689099,0.4321309,-0.01194307,10.0399997755885,4
-2.981034,0.4833333,-21.57321,1.8063273164140476,0.0101047611495088,-0.1964573986251139,6.741081,50.50895,0.1547114,0.05374873,0.4258292,-0.02386448,10.0599997751415,4
-2.936035,0.6833334,-21.53534,2.1965169940267337,0.2737224451461871,-0.3451050899222174,10.11086,49.78326,0.1684945,0.08055005,0.419148,-0.03576112,10.0799997746944,4
-2.891049,0.8833334,-21.49747,2.5497026380956576,0.5017960735235203,-0.4829752829921929,13.4796,49.05016,0.1385995,0.1072708,0.4120935,-0.04762255,10.0999997742474,4
-2.846741,0.2833334,-21.42116,3.0289822123346264,-0.2116969139472385,-0.5996887463166054,3.316101,48.18723,359.9885,0.02637256,0.4080605,-0.0119037,10.1199997738004,4
-2.803255,0.4833334,-21.383,3.289751441361482,-0.0024406390424988,-0.7391577908284503,6.63082,47.45704,359.9346,0.05271433,0.4017601,-0.02379337,10.1399997733533,4
-2.759776,0.6833334,-21.34486,3.485308395347701,0.2235422179609729,-0.8580445240414392,9.943267,46.71832,359.8381,0.07900125,0.3951139,-0.03565335,10.1599997729063,4
-2.668644,0.2833333,-21.26918,3.796001764132052,-0.2263329629386788,-0.9349148338489676,3.265132,46.37384,359.8983,0.02583906,0.3935953,-0.01203322,10.1799997724593,4
-2.625948,0.4833333,-21.23144,4.025537285887903,-0.6871848445911978,-0.983499669815231,6.527744,45.63821,359.7544,0.05164855,0.3873055,-0.0240526,10.1999997720122,4
-2.583261,0.6833333,-21.1937,4.159418996859645,-0.2540361576272935,-1.111021810747168,9.786953,44.889,359.5671,0.07740414,0.3806918,-0.03604646,10.2199997715652,4
-2.540587,0.8833333,-21.15597,4.214490969480304,0.1681356161910906,-1.212176275435862,13.04249,44.12094,359.334,0.1030863,0.3737603,-0.0480065,10.2399997711182,4
-2.410554,0.2833333,-21.04897,4.433348063246664,-0.325646325119546,-1.254826078463001,3.206939,41.714,359.7473,0.02536352,0.3559542,-0.0120229,10.2599997706711,4
-2.369804,0.4833333,-21.01039,4.596668087012312,-0.1101173023348139,-1.3693925378479683,6.409424,40.96883,359.4525,0.05069865,0.3496516,-0.02403222,10.2799997702241,4
-2.329067,0.6833333,-20.97181,4.6686932217396135,0.1221383990749259,-1.460528969198414,9.606815,40.20184,359.1133,0.0759844,0.3430659,-0.03601808,10.2999997697771,4
-2.203671,0.2833335,-20.87254,4.861354270861699,-0.3214640394331385,-1.49477765851449,3.451188,42.82539,359.775,0.02731763,0.3649718,-0.01282079,10.31999976933,4
-2.159557,0.4833334,-20.83129,4.9778103407264815,-0.0557553911842851,-1.6281460073054568,6.8983,42.08269,359.5049,0.05460202,0.3586305,-0.02562618,10.339999768883,4
-2.115457,0.6833335,-20.79005,4.997113011733895,0.2266799511093843,-1.7429344945436362,10.34097,41.3174,359.1868,0.08182919,0.3519545,-0.03840648,10.359999768436,4
-2.071378,0.8833334,-20.74883,4.924780547822312,0.4735712158300803,-1.8338868987273464,13.7797,40.52328,358.8173,0.1089836,0.34495,-0.05115339,10.3799997679889,4
-1.937054,0.2833333,-20.67207,4.932274816322129,-0.2211042767762598,-1.880902511939329,3.548727,47.4857,359.8699,0.02788599,0.4024713,-0.01350547,10.3999997675419,4
-1.889597,0.4833333,-20.63221,4.899752988142347,0.0069693648429448,-1.9852977678646584,7.095268,46.75385,359.6933,0.05573888,0.3961685,-0.02700397,10.4199997670949,4
-1.842156,0.6833333,-20.59236,4.783342023384855,0.2517696999842615,-2.06663912588828,10.63819,46.00441,359.4684,0.08352568,0.3894756,-0.04047649,10.4399997666478,4
-1.794728,0.8833332,-20.55252,4.590275564243837,0.461025969313477,-2.12051898552443,14.17684,45.23113,359.1928,0.1112211,0.3824,-0.0539051,10.4599997662008,4
-1.579052,0.2833332,-20.46833,4.555949298747758,-0.2712841744828033,-2.112627605460073,3.579685,55.921,0.07739619,0.02790421,0.4686153,-0.01404797,10.4799997657537,4
-1.527821,0.4833332,-20.43256,4.446542756182946,-0.0808450794253296,-2.190399050758085,7.159421,55.21125,0.1079689,0.05576486,0.4624266,-0.02809896,10.4999997653067,4
-1.476604,0.6833333,-20.3968,4.260269555814221,0.126320601389815,-2.247975587904179,10.73823,54.49714,0.09374459,0.08356074,0.4557747,-0.04211782,10.5199997648597,4
-1.24405,0.2833332,-20.33332,4.202899112228912,-0.3423716314685028,-2.2517750205945504,3.545623,61.17984,0.1698996,0.0273852,0.5086064,-0.01446753,10.5399997644126,4
-1.191062,0.4833332,-20.30126,4.040662193786597,-0.101752564654545,-2.305811578614016,7.091935,60.48096,0.2948692,0.05472609,0.5025271,-0.0289303,10.5599997639656,4
-1.13809,0.6833332,-20.26921,3.8050049522426246,0.1555929566308955,-2.3425072176824564,10.63849,59.78387,0.3770521,0.08200448,0.4959525,-0.04336036,10.5799997635186,4
-1.085132,0.8833331,-20.23716,3.50633630791402,0.3773943742080882,-2.358730749185014,14.18477,59.08319,0.415919,0.1091935,0.4888895,-0.05774337,10.5999997630715,4
-0.881312,0.2833332,-20.20119,3.313920062402711,-0.3423710983960558,-2.3358772914013883,3.615699,65.38382,0.1712106,0.02735668,0.5398124,-0.01578278,10.6199997626245,4
-0.824985,0.4833332,-20.17258,3.0606575358884305,-0.1393873300556265,-2.3359627014725284,7.232183,64.68824,0.2986655,0.05467682,0.5337971,-0.03154537,10.6399997621775,4
-0.768683,0.6833332,-20.14397,2.75905071116721,0.0803230117588962,-2.315480862873482,10.84964,63.99426,0.3811088,0.08193057,0.527234,-0.04728618,10.6599997617304,4
-0.545016,0.2833333,-20.10138,2.4207958737198423,0.2644893806286518,-2.2717196747989057,3.631362,68.79996,0.1690966,0.0269764,0.5646438,-0.01668359,10.6799997612834,4
-0.4868303,0.4833333,-20.07611,2.223761888073292,0.2273774377673275,-2.224045008415686,7.263469,68.10632,0.2943611,0.05391644,0.5587007,-0.0333457,10.6999997608364,4
-0.4286606,0.6833333,-20.05085,1.980479572941099,0.2357408534383836,-2.156450620878349,10.89577,67.41442,0.3761,0.08079207,0.5521802,-0.04996876,10.7199997603893,4
-0.3705134,0.8833332,-20.02558,1.7038735507121314,0.2362635651645853,-2.066515575742727,14.528,66.71822,0.4120488,0.1075696,0.5450882,-0.06654845,10.7399997599423,4
-0.08717613,0.2833334,-19.97605,1.599505247988959,-0.4646844441117028,-1.9352243190369367,3.574231,73.7722,0.2670035,0.0263413,0.5998746,-0.01685587,10.7599997594953,4
-0.02845821,0.4833334,-19.95455,1.361032252625308,-0.2428830944862183,-1.8625434760175248,7.150357,73.09052,0.4917808,0.05264773,0.5940783,-0.0336902,10.7799997590482,4
0.03024348,0.6833334,-19.93306,1.097450292375266,-0.0043551724320534,-1.7737599248612457,10.72784,72.41708,0.6753872,0.07889262,0.5876844,-0.05048617,10.7999997586012,4
0.2838902,0.2833333,-19.88581,1.039193579530432,-0.4416852974283569,-1.6502581119445203,3.509462,75.82916,0.310149,0.02582007,0.6141303,-0.01668186,10.8199997581542,4
0.3420574,0.4833333,-19.86596,0.8609440722151209,-0.1697044834191487,-1.5832813705949071,7.021324,75.1533,0.5792856,0.05160687,0.6084247,-0.03334262,10.8399997577071,4
0.40021,0.6833333,-19.84611,0.6629417967736888,0.1190029958860754,-1.5100751476122485,10.53472,74.4884,0.8083869,0.07733084,0.6021271,-0.04996713,10.8599997572601,4
0.4583445,0.8833333,-19.82626,0.4588021866073712,0.372166261105081,-1.429933755787015,14.04948,73.82953,0.9976466,0.1029669,0.5952438,-0.06654412,10.879999756813,4
0.6719368,0.2833333,-19.79247,0.2622383469872971,0.4236856064339256,-1.3422912793479045,3.452399,76.26428,0.2983529,0.02530152,0.6171332,-0.01655334,10.899999756366,4
0.7293276,0.4833332,-19.77347,0.1909550782661169,0.3558031165439194,-1.2822057298887015,6.906709,75.58978,0.5561351,0.05056725,0.6114856,-0.03308627,10.919999755919,4
0.786702,0.6833332,-19.75447,0.1137756877057789,0.333883754488501,-1.2195592024823938,10.36277,74.92556,0.7749031,0.07577734,0.6052619,-0.04958325,10.9399997554719,4
0.84406,0.8833331,-19.73547,0.0446565076215073,0.3046115773157431,-1.1540063717710112,13.82013,74.26697,0.955252,0.1009082,0.5984687,-0.06602873,10.9599997550249,4
1.115142,0.2833334,-19.68836,0.176877211566325,-0.425643099068607,-1.0757263514900544,3.401821,75.55672,0.2023991,0.02454187,0.6122963,-0.01678808,10.9799997545779,4
1.171847,0.4833333,-19.67049,0.1221336973478219,-0.232660647248981,-1.0479289625780268,6.804466,74.87614,0.3642101,0.04904926,0.6066793,-0.03355684,10.9999997541308,4
1.228535,0.6833332,-19.65262,0.0695300216830214,-0.0224637331277415,-1.0187602646199243,10.2078,74.19993,0.4863963,0.07350437,0.6005092,-0.05029014,11.0199997536838,4
1.469567,0.2833334,-19.60665,0.2332780571293784,-0.4876372024283844,-0.9766076677321428,3.343791,74.392,0.1040957,0.02378967,0.6042647,-0.01691482,11.0399997532368,4
1.525369,0.4833334,-19.58954,0.184668385231546,-0.2430113759874992,-0.968691049706127,6.687174,73.70467,0.1679405,0.04754693,0.5986649,-0.03380903,11.0599997527897,4
1.581155,0.6833334,-19.57244,0.1289257614940449,0.0188288070813766,-0.9611250886337288,10.03012,73.01592,0.1916224,0.07125492,0.5925387,-0.0506687,11.0799997523427,4
1.636925,0.8833334,-19.55535,0.0797062640230192,0.2456129214528188,-0.9536347543286858,13.37215,72.32092,0.1743502,0.09489286,0.585892,-0.06747887,11.0999997518957,4
1.841475,0.2833333,-19.52366,0.2097812187653933,-0.4686813791411575,-0.943358826831492,3.291342,73.1634,359.9728,0.02291977,0.595728,-0.01730572,11.1199997514486,4
1.896671,0.4833332,-19.50782,0.1752743248379644,-0.2597386679202382,-0.9383105811181416,6.581147,72.46749,359.9055,0.04581292,0.5901443,-0.0345917,11.1399997510016,4
1.951852,0.6833332,-19.49199,0.1467048509061097,-0.0335815035450515,-0.9301989678226334,9.868555,71.76249,359.7967,0.06865471,0.5840577,-0.05184461,11.1599997505546,4
2.007018,0.8833332,-19.47616,0.1372483554370536,0.1575195696563637,-0.9186516551384508,13.15342,71.0435,359.6452,0.09143065,0.5774744,-0.06904819,11.1799997501075,4
2.271432,0.2833334,-19.43866,0.1793918613967129,0.1278297614544185,-0.9138600839381112,3.235215,71.6747,359.854,0.02213902,0.5852816,-0.01755991,11.1999997496605,4
2.325905,0.4833334,-19.42367,0.2148644291175196,0.1441030889276429,-0.905308997320624,6.467455,70.97161,359.6681,0.04425289,0.5797076,-0.03510012,11.2199997492135,4
2.380361,0.6833333,-19.40868,0.2569262079712517,0.153023715843141,-0.8922918456123767,9.696206,70.25293,359.4406,0.06632318,0.5736552,-0.05260624,11.2399997487664,4
2.615243,0.2833333,-19.37804,0.5075431990172534,-0.5390384815757476,-0.866997640847746,3.284334,71.2664,359.7971,0.02226029,0.582395,-0.01813425,11.2599997483194,4
2.670753,0.4833333,-19.36332,0.4974219191206375,-0.3078636501918129,-0.8669514336856103,6.565021,70.56015,359.5534,0.04449517,0.576804,-0.03624772,11.2799997478724,4
2.726248,0.6833333,-19.34861,0.4793724787726097,-0.0594743640854951,-0.8612587095713593,9.841482,69.83462,359.2667,0.06668516,0.5707224,-0.05432522,11.2999997474253,4
2.984715,0.2833334,-19.31794,0.6772662910725149,-0.4864552437813559,-0.837909909964349,3.534475,73.47813,359.81,0.02372236,0.5979274,-0.01977498,11.3199997469783,4
3.044922,0.4833333,-19.30395,0.6331025660469001,-0.2036369441247675,-0.839290305373698,7.065434,72.77325,359.5762,0.04741466,0.5922831,-0.03952546,11.3399997465312,4
3.105098,0.6833333,-19.28996,0.5688597988964519,0.0963959282113987,-0.8352207994871286,10.59414,72.04748,359.295,0.07106175,0.586057,-0.05924815,11.3599997460842,4
3.165256,0.8833332,-19.27597,0.4979291090297506,0.3613726010866472,-0.824837943877565,14.11803,71.29473,358.9642,0.09463203,0.5792564,-0.07890724,11.3799997456372,4
3.225397,0.9766704,-19.26199,0.4337202975225143,0.425193249694421,-0.8073289664113474,17.63624,70.50809,358.5791,0.1181016,0.5718886,-0.09848307,11.3999997451901,4
3.484422,0.2833334,-19.24127,0.4137803295468858,0.3700996129363793,-0.7948032885059355,3.565814,76.22108,359.891,0.0238933,0.6169049,-0.01995007,11.4199997447431,4
3.545387,0.4833333,-19.22867,0.3803955939399657,0.3614571202063392,-0.7749348970274674,7.129288,75.52692,359.7379,0.04775351,0.611329,-0.03988083,11.4399997442961,4
3.606333,0.6833332,-19.21608,0.3474626474666991,0.3459498285523776,-0.7470136530582181,10.68962,74.81699,359.5394,0.07155913,0.6051447,-0.05976582,11.459999743849,4
3.835226,0.2833334,-19.19449,0.5081739598580732,-0.3700520656450766,-0.7078994035848787,3.59026,78.24583,0.05044379,0.02458,0.6306657,-0.0194248,11.479999743402,4
3.896461,0.4833333,-19.18122,0.4180660839064893,-0.1623292945918047,-0.6940258773964025,7.180065,77.56877,0.0587489,0.04913092,0.6251371,-0.03882382,11.499999742955,4
3.957677,0.6833333,-19.16796,0.3198013074588521,0.0630960216885533,-0.6735255350243285,10.76868,76.8862,0.02403654,0.07362476,0.6189783,-0.05817786,11.5199997425079,4
4.206779,0.2833333,-19.1439,0.4282203543228453,-0.386360949198498,-0.6410731839823534,3.568324,79.47201,0.07679386,0.02437053,0.6389251,-0.01938765,11.5399997420609,4
4.267821,0.4833333,-19.13157,0.3099902140809165,-0.1255312073452965,-0.6358348738542574,7.136154,78.79944,0.1113525,0.0487064,0.6334493,-0.03875241,11.5599997416139,4
4.328846,0.6833332,-19.11925,0.1769487417589941,0.1530008540133599,-0.6264254700346683,10.70312,78.12312,0.1036747,0.07298628,0.6273425,-0.05807297,11.5799997411668,4
4.389853,0.8833332,-19.10693,0.0432843169178784,0.3969646889813113,-0.6122786385880659,14.26872,77.4376,0.0525139,0.09718572,0.6206114,-0.07733001,11.5999997407198,4
4.599898,0.2833335,-19.09208,0.1876689967694611,-0.2996624894372337,-0.586456544873954,3.646563,80.32872,0.09773003,0.02486418,0.6446349,-0.01986991,11.6199997402728,4
4.662425,0.4833334,-19.08008,0.148610009458971,-0.0725644433973345,-0.5738935893579331,7.292999,79.66087,0.1530373,0.04969519,0.6391552,-0.03971368,11.6399997398257,4
4.724934,0.6833334,-19.06809,0.1003964250411071,0.1722361606759379,-0.5570543631013685,10.9388,78.99043,0.1656418,0.07446687,0.6330112,-0.05951064,11.6599997393787,4
4.78742,0.8833334,-19.05609,0.0579573376499373,0.3824684449684669,-0.5353349235113072,14.58415,78.3117,0.1341226,0.09915647,0.6262093,-0.07924569,11.6799997389317,4
5.056239,0.2833334,-19.03817,0.207431142266067,-0.3478901497030822,-0.5100927279393233,3.610064,82.49202,0.1612651,0.02461064,0.6589323,-0.01970915,11.6999997384846,4
5.118382,0.4833333,-19.02753,0.1198842320650808,-0.1545239708367601,-0.5041887437041197,7.220716,81.83292,0.2811605,0.04918862,0.6535393,-0.03939278,11.7199997380376,4
5.180507,0.6833333,-19.01689,0.0342470035887378,0.0565445280577215,-0.4932101432653972,10.83143,81.17554,0.3599895,0.07370862,0.6474795,-0.05903035,11.7399997375906,4
5.419408,0.2833332,-18.9995,0.1625358453953751,-0.407269259692508,-0.47920006027719,3.545971,84.31005,0.233273,0.02430196,0.6707695,-0.01925626,11.7599997371435,4
5.48062,0.4833332,-18.98968,0.0870267137310385,-0.1607959884101162,-0.4781658091311769,7.09333,83.65957,0.4265501,0.04857222,0.6654664,-0.03848803,11.7799997366965,4
5.541814,0.6833332,-18.97986,0.0133592868182841,0.1033795089876845,-0.4728432214604225,10.64157,83.0156,0.5806893,0.0727866,0.6595061,-0.05767614,11.7999997362494,4
5.80046,0.2833333,-18.95966,-0.044217571791675,0.3329866999337318,-0.4629899710165404,3.483942,84.72062,0.2681095,0.02403776,0.6734249,-0.01875408,11.8199997358024,4
5.860608,0.4833332,-18.94976,-0.0718055178554966,0.3422910188746608,-0.4727421128021305,6.969686,84.07511,0.4973145,0.04804527,0.6681772,-0.03748469,11.8399997353554,4
5.920742,0.6833333,-18.93985,-0.1157137525572657,0.398046588039918,-0.4800082935850938,10.4563,83.43841,0.6888074,0.07199703,0.6622912,-0.05617073,11.8599997349083,4
5.980859,0.8833332,-18.92995,-0.1623476548845808,0.446937130468793,-0.4844495650138007,13.94383,82.80592,0.8429007,0.09587264,0.655773,-0.07479791,11.8799997344613,4
6.040959,0.9766705,-18.92006,-0.1981144289382133,0.4356470484563076,-0.4857544120615209,17.43179,82.17301,0.9593047,0.1196489,0.6486295,-0.0933482,11.8999997340143,4
6.29854,0.2833333,-18.90656,-0.0777586337900224,-0.4148449576349632,-0.4952817469432062,3.425485,84.20309,0.2466597,0.02361849,0.6700978,-0.01844227,11.9199997335672,4
6.35762,0.4833332,-18.89658,-0.1730611652525784,-0.2424915199754297,-0.5077096789288085,6.852132,83.55871,0.4552003,0.04720593,0.6648908,-0.03685899,11.9399997331202,4
6.416683,0.6833332,-18.88661,-0.2596549002793082,-0.0529236333432705,-0.5141239804985069,10.27989,82.92182,0.6264288,0.0707424,0.6590697,-0.05523638,11.9599997326732,4
6.643724,0.2833334,-18.87433,-0.1875109210621168,-0.5387256776443062,-0.5307701454956693,3.370302,82.9353,0.1474883,0.02288759,0.6618818,-0.01850931,11.9799997322261,4
6.701817,0.4833333,-18.86488,-0.2990618081804541,-0.3147287863478712,-0.5522064355414535,6.740664,82.28385,0.2566075,0.04574395,0.6566877,-0.03699557,11.9999997317791,4
6.759892,0.6833334,-18.85543,-0.4025489792463137,-0.0735174588850988,-0.5693203173786507,10.11107,81.63387,0.3277731,0.06855243,0.6509081,-0.05544341,12.0199997313321,4
7.006228,0.2833334,-18.84157,-0.4851119408606106,0.1326378794185863,-0.5818997468282205,3.316909,81.51268,0.03182608,0.02210418,0.652564,-0.01868394,12.039999730885,4
7.06343,0.4833333,-18.83281,-0.565849605447525,0.1180022243728223,-0.6727509726596139,6.632988,80.85303,0.02544694,0.04418248,0.6473765,-0.03734628,12.059999730438,4
7.120618,0.6833333,-18.82406,-0.6476694576264741,0.149329832106773,-0.7588277807413739,9.947414,80.18807,359.9801,0.06621176,0.6416305,-0.0559703,12.079999729991,4
7.17779,0.8833333,-18.81531,-0.7178695431759898,0.1733048658648333,-0.8393472715565871,13.26015,79.51312,359.8947,0.08817694,0.6353314,-0.07454082,12.0999997295439,4
7.482767,0.2833333,-18.80055,-0.5920467028643017,-0.5037028114586449,-1.016997144277788,3.260155,79.6285,359.8943,0.02125969,0.6400616,-0.0189228,12.1199997290969,4
7.539093,0.4833333,-18.79245,-0.6294969979315894,-0.2574735996287703,-1.1863071033848662,6.517887,78.95979,359.7502,0.04249479,0.6348733,-0.03782432,12.1399997286499,4
7.595403,0.6833334,-18.78436,-0.66009428125715,0.0059701540410602,-1.343248082969712,9.772729,78.27796,359.5666,0.06368782,0.629155,-0.05668825,12.1599997282028,4
7.6517,0.8833333,-18.77627,-0.6711422438384407,0.2343576902166372,-1.4869372248093278,13.02385,77.57823,359.341,0.08481722,0.6229121,-0.07549893,12.1799997277558,4
7.868405,0.2833334,-18.76997,-0.6499125522521201,0.2615890768496649,-1.6165989995336894,3.206721,77.15548,359.7902,0.0207324,0.6233708,-0.01887886,12.1999997273088,4
7.923812,0.4833333,-18.76141,-0.6726024999293632,0.1699063852824679,-1.8902156334151636,6.40984,76.48087,359.5422,0.04144162,0.6181653,-0.03773685,12.2199997268617,4
7.979204,0.6833333,-18.75286,-0.6873407255534758,0.1246749115318653,-2.136735974497846,9.608835,75.78757,359.2543,0.06211071,0.6124588,-0.05655846,12.2399997264147,4
8.219277,0.2833333,-18.74657,-0.6813658868517027,0.0725784864015788,-2.355495115309491,3.450578,78.24593,359.7885,0.02219302,0.6307428,-0.02042858,12.2599997259676,4
8.279074,0.4833333,-18.73826,-0.715480149392766,0.0402755415661706,-2.6708794780531537,6.897538,77.57127,359.536,0.04435912,0.6254587,-0.04083251,12.2799997255206,4
8.338852,0.6833332,-18.72995,-0.7454004463940755,0.0544236032001134,-2.9462499368317108,10.34064,76.8756,359.2397,0.06647728,0.61959,-0.06119721,12.2999997250736,4
8.398602,0.8833331,-18.72165,-0.7582666747432079,0.0617067293968902,-3.181521090285816,13.78052,76.15327,358.8964,0.08853655,0.613142,-0.08150882,12.3199997246265,4
8.686309,0.2833332,-18.71821,-0.8181270679571391,0.0887831122577278,-3.5120791306282584,3.546207,81.03786,359.8508,0.02267592,0.6494182,-0.02109205,12.3399997241795,4
8.74789,0.4833332,-18.71151,-0.882715936596087,0.162310717639503,-3.792591983084192,7.090169,80.3708,359.6591,0.04532281,0.6441659,-0.04216702,12.3599997237325,4
8.809453,0.683333,-18.70481,-0.9390843507252242,0.2289733640623715,-4.0237746564438,10.63065,79.68588,359.4238,0.06791817,0.63828,-0.06319465,12.3799997232854,4
8.870998,0.883333,-18.6981,-0.9742973784617543,0.2354552163388418,-4.206488551871365,14.16701,78.9773,359.1417,0.09043959,0.6317667,-0.08415377,12.3999997228384,4
9.055888,0.2833334,-18.70229,-0.7617324453767971,-0.5972653432347813,-4.498308847478732,3.590744,82.92303,359.9703,0.02330724,0.6617979,-0.02093824,12.4199997223914,4
9.118175,0.4833333,-18.69543,-0.7669159176046172,-0.4071402398697755,-4.731623226931539,7.18027,82.26968,359.8996,0.04658672,0.6565835,-0.04185138,12.4399997219443,4
9.180443,0.6833332,-18.68858,-0.764760350878694,-0.199800680736976,-4.904588926999654,10.76772,81.60599,359.7866,0.0698121,0.6507086,-0.06271644,12.4599997214973,4
9.371064,0.2833334,-18.69718,-0.7420203315038076,-0.0275171973581371,-5.019287578593794,3.552624,87.5149,0.1291595,0.02316785,0.691249,-0.02062439,12.4799997210503,4
9.43292,0.4833334,-18.6926,-0.7547513333385503,-0.0760245938145438,-5.18824111356367,7.105234,86.8784,0.217949,0.04629833,0.6861762,-0.04122782,12.4999997206032,4
9.49476,0.6833333,-18.68803,-0.760086032094728,-0.0785687468313383,-5.291431838329636,10.65761,86.24192,0.2674834,0.06937624,0.6804266,-0.06178462,12.5199997201562,4
9.556581,0.8833334,-18.68346,-0.7447538658465653,-0.0884658261274982,-5.331839897053825,14.20927,85.60051,0.2770373,0.09237836,0.6740064,-0.0822744,12.5399997197092,4
9.799802,0.2833332,-18.74448,-0.921523409367934,0.5612566597028366,-5.317921270096477,3.607661,96.21178,0.246791,0.02262164,0.7439643,-0.02199383,12.5599997192621,4
9.862846,0.4833332,-18.74745,-0.8902878425723273,0.3263525646540742,-5.390180568590903,7.216787,95.5892,0.4546014,0.04521276,0.7390992,-0.04395966,12.5799997188151,4
9.925867,0.6833332,-18.75041,-0.84862776576953,0.1128445684802743,-5.393460266536888,10.82782,94.97411,0.6233664,0.06774869,0.7334788,-0.06588706,12.5999997183681,4
10.14974,0.2833333,-18.85023,-0.7831298287137436,-0.1336288027259762,-5.3319449260029685,3.604877,103.2086,0.2630332,0.02133334,0.7833055,-0.02322621,12.619999717921,4
10.21196,0.4833333,-18.86056,-0.8156151947034225,-0.1473587170719754,-5.336092027514084,7.211366,102.5895,0.4873436,0.0426376,0.778654,-0.04642272,12.639999717474,4
10.27417,0.6833333,-18.87089,-0.851148265406346,-0.1151253767401961,-5.269799359503448,10.81902,101.9791,0.6741223,0.06389132,0.7732083,-0.06956574,12.6599997170269,4
10.33635,0.8833332,-18.88122,-0.8766932354989372,-0.0902448580595739,-5.138345645942522,14.42779,101.3726,0.8224027,0.0850659,0.7669736,-0.09264161,12.6799997165799,4
10.39852,0.9766704,-18.89152,-0.8792248983818371,-0.1260328910666807,-4.947221280376301,18.03683,100.7646,0.9311122,0.1061331,0.7599566,-0.1156274,12.6999997161329,4
10.60948,0.2833334,-19.04379,-0.9083264966409476,-0.1691737462476521,-4.802693867088756,3.542969,111.3665,0.3690724,0.02008669,0.8254784,-0.02371732,12.7199997156858,4
10.66928,0.4833334,-19.06072,-0.9228308995632356,-0.1663512410772255,-4.599701448060134,7.088662,110.7602,0.7010584,0.04014655,0.821135,-0.04740474,12.7399997152388,4
10.72906,0.6833333,-19.07765,-0.9101864969546458,-0.1708814385553452,-4.344596811140086,10.6366,110.1696,0.9979329,0.06015983,0.8159769,-0.07103881,12.7599997147918,4
10.91877,0.2833335,-19.20403,-1.0796001599525304,0.484207606845117,-4.041219367274241,3.476191,115.2432,0.4303384,0.01941239,0.8440743,-0.02360499,12.7799997143447,4
10.97669,0.4833334,-19.2235,-1.0480024340697849,0.2546700954109321,-3.8375841337903935,6.955774,114.6439,0.8247998,0.0387996,0.83991,-0.04718107,12.7999997138977,4
11.0346,0.6833333,-19.24295,-1.0041456501370938,0.0465288130924876,-3.5880771060156,10.43806,114.0638,1.184666,0.05813437,0.8349393,-0.07070947,12.8199997134507,4
11.24258,0.2833335,-19.3775,-0.9364379191492348,-0.1945774872505859,-3.300037469260974,3.42874,117.3713,0.3645106,0.01826511,0.8538924,-0.02390626,12.8399997130036,4
11.2985,0.4833335,-19.39969,-0.9538091480472256,-0.2029403323015217,-3.089224688415697,6.85998,116.7674,0.6918618,0.03649568,0.8498475,-0.04778859,12.8599997125566,4
11.3544,0.6833335,-19.42187,-0.9759596758926286,-0.165339936003671,-2.8397125555508858,10.29346,116.1786,0.9853577,0.05468675,0.8450115,-0.07161979,12.8799997121096,4
11.41028,0.8833334,-19.44404,-0.9921369192138147,-0.1350921196928207,-2.5596888857055617,13.72874,115.6009,1.246251,0.07282127,0.8393896,-0.0953775,12.8999997116625,4
11.66639,0.2833335,-19.61289,-0.9916451248182998,-0.1655131443871704,-2.257530260281552,3.382995,117.5358,0.2206077,0.01695063,0.8546702,-0.02424217,12.9199997112155,4
11.72037,0.4833334,-19.63708,-0.906386080707266,-0.2032871861373968,-2.077793886777087,6.76689,116.9213,0.4039851,0.03387056,0.8506815,-0.04845868,12.9399997107685,4
11.77433,0.6833333,-19.66126,-0.8256265565783298,-0.195097755590143,-1.873375910588024,10.15158,116.313,0.5520986,0.05075484,0.8459266,-0.07262464,12.9599997103214,4
11.82827,0.8833333,-19.68543,-0.7385198994016857,-0.1942610219416748,-1.654005448324746,13.53666,115.7068,0.6650997,0.06758814,0.8404106,-0.09671824,12.9799997098744,4
12.00625,0.2833334,-19.8103,-0.78837663454863,0.4661949475288497,-1.4110834377207553,3.32922,116.8184,0.09201283,0.01590088,0.8514392,-0.02432366,12.9999997094274,4
12.05867,0.4833333,-19.83537,-0.7033227122540744,0.2420242202539022,-1.266789246894902,6.657887,116.195,0.1471919,0.03177627,0.8474762,-0.04861932,13.0199997089803,4
12.11107,0.6833332,-19.86043,-0.6117055730907914,0.0392498089509166,-1.1220870583271143,9.986016,115.5702,0.1661061,0.04761928,0.8427761,-0.07286577,13.0399997085333,4
12.16346,0.8833333,-19.88548,-0.5029344361890047,-0.1964901065798833,-0.987445738809452,13.31317,114.9396,0.1480208,0.06341593,0.8373436,-0.09704154,13.0599997080863,4
12.39006,0.2833333,-20.04421,-0.4419418019800858,-0.1994865610687914,-0.9029232912237042,3.274564,116.0092,359.9487,0.01475954,0.8477512,-0.02446873,13.0799997076392,4
12.44086,0.4833333,-20.07036,-0.3864837909092387,-0.156519623321268,-0.8194861979539034,6.547394,115.376,359.8611,0.02950177,0.8438074,-0.04890978,13.0999997071922,4
12.49164,0.6833332,-20.0965,-0.3264924895991949,-0.1209053691435437,-0.747263401723572,9.817737,114.7331,359.7355,0.04420847,0.8391532,-0.07330265,13.1199997067451,4
12.69448,0.2833333,-20.23402,-0.4450539606317978,0.5743281341852264,-0.580225843594345,3.219087,113.7777,359.8205,0.01403169,0.8373051,-0.02438249,13.1399997062981,4
12.74447,0.4833333,-20.25981,-0.3663260776062884,0.3849351808645656,-0.5672364911044383,6.43504,113.1358,359.6046,0.02804754,0.8333254,-0.04873793,13.1599997058511,4
12.79444,0.6833333,-20.28558,-0.2996407619706893,0.2169383177942251,-0.555742285294361,9.647393,112.4771,359.3506,0.04203627,0.8286654,-0.07304613,13.179999705404,4
12.84441,0.8833333,-20.31135,-0.2347294912215005,0.0159761916375208,-0.5555977136776491,12.85532,111.797,359.056,0.05598445,0.8233299,-0.0972852,13.199999704957,4
13.0162,0.2833333,-20.4334,0.0091418396040197,-0.7845802598545519,-0.7005059353116465,3.371068,113.7766,359.7902,0.01453496,0.8372726,-0.02563705,13.21999970451,4
13.06843,0.4833333,-20.46077,0.0716774489130465,-0.562779001354051,-0.6908445264810723,6.738678,113.1334,359.5422,0.02905275,0.833208,-0.05124411,13.2399997040629,4
13.12065,0.6833333,-20.48813,0.1248049698777844,-0.3242512682579078,-0.68030747276255,10.10232,112.4705,359.2537,0.04354021,0.828399,-0.07679826,13.2599997036159,4
13.17284,0.8833331,-20.51548,0.1791134218507224,-0.121267367411647,-0.6782330290518495,13.4627,111.7825,358.9215,0.05798823,0.8228495,-0.1022871,13.2799997031689,4
13.39343,0.2833332,-20.67322,0.0891686282583315,0.6003604175194599,-0.5626553175608109,3.532255,116.7374,359.8439,0.01500451,0.8510576,-0.02695513,13.2999997027218,4
13.4471,0.4833332,-20.7037,0.1729644717045158,0.3253124952736353,-0.5828181925801559,7.062099,116.1005,359.6477,0.02998777,0.8469978,-0.05388295,13.3199997022748,4
13.50075,0.6833333,-20.73417,0.2527190179351581,0.0716606585737864,-0.6043221904056892,10.58923,115.4457,359.4094,0.04493768,0.8421102,-0.08075745,13.3399997018278,4
13.69793,0.2833335,-20.87149,0.159172112961226,0.5053313219915521,-0.4984934931793248,3.576558,118.5212,359.928,0.01541087,0.8590921,-0.02714279,13.3599997013807,4
13.752,0.4833335,-20.90269,0.2073348991206725,0.2944714280484863,-0.5019926577217575,7.151468,117.8937,359.8165,0.03080198,0.8550719,-0.05425429,13.3799997009337,4
13.80606,0.6833334,-20.93389,0.2470584140708673,0.105007603708879,-0.5020063351811039,10.72392,117.2537,359.6641,0.04615767,0.8501977,-0.08130383,13.3999997004867,4
13.86009,0.8833332,-20.96507,0.2895177170953662,-0.1174213992130462,-0.5077815247924917,14.29344,116.5955,359.4685,0.06146253,0.8444747,-0.1082644,13.4199997000396,4
14.10668,0.2833333,-21.13592,0.2668624343726353,-0.1071069889206276,-0.4711818892924135,3.563421,120.0483,0.06011207,0.01598868,0.8658092,-0.02667079,13.4399996995926,4
14.16086,0.4833334,-21.16644,0.2235806020460842,-0.0508292608773049,-0.4212447533349035,7.126178,119.4359,0.0824829,0.03195873,0.8618615,-0.05330547,13.4599996991456,4
14.21503,0.6833333,-21.19694,0.1708702697273185,-0.0019043709503605,-0.3669547877115384,10.68798,118.8195,0.06636513,0.04789235,0.8570594,-0.07987987,13.4799996986985,4
14.26918,0.8833333,-21.22743,0.1199270390242972,-0.0136482487627351,-0.3173486636943998,14.24836,118.1941,0.01057618,0.06377354,0.8514084,-0.1063671,13.4999996982515,4
14.43982,0.2833333,-21.35007,0.1464065829462821,-0.0327448318371825,-0.3166673171354297,3.626644,120.9054,0.08196433,0.01622649,0.8695019,-0.02717537,13.5199996978045,4
14.49469,0.4833334,-21.38165,0.1549283370760434,-0.0058780576964666,-0.3048408971624567,7.2529,120.2975,0.1255248,0.03243146,0.8655488,-0.05431491,13.5399996973574,4
14.54955,0.6833333,-21.41322,0.1573627593209821,0.0136362374265177,-0.291103953909019,10.87897,119.6867,0.1301299,0.04859886,0.860707,-0.08139645,13.5599996969104,4
14.73774,0.2833332,-21.54611,0.1655579009479879,-0.027518141799775,-0.2847373405002891,3.638956,121.5959,0.09585748,0.01622062,0.8724514,-0.02730727,13.5799996964633,4
14.79253,0.4833333,-21.57825,0.1178529263600918,-0.0760254648160644,-0.2376639857591911,7.277645,120.9912,0.1533858,0.03241936,0.8685205,-0.05457829,13.5999996960163,4
14.8473,0.6833333,-21.61039,0.0606701083852811,-0.0785695352453974,-0.1832115632807642,10.91568,120.3845,0.1724158,0.04857953,0.8636925,-0.08178499,13.6199996955693,4
14.90206,0.8833332,-21.64251,0.0058607042171949,-0.0884661893206711,-0.1305055694173198,14.55284,119.7709,0.1517191,0.06468334,0.857973,-0.1089018,13.6399996951222,4
15.13868,0.2833334,-21.80996,-0.2173091907364472,0.5612566123979914,0.045026980322568,3.582575,123.9028,0.1993085,0.01623276,0.8820907,-0.0267699,13.6599996946752,4
15.19233,0.4833334,-21.84222,-0.2445382594322005,0.326352818340453,0.0729189702099226,7.165975,123.3102,0.3618179,0.03244418,0.8782872,-0.05350503,13.6799996942282,4
15.24595,0.6833333,-21.87448,-0.2756336496928426,0.1128450959771939,0.1032333862521568,10.74982,122.7227,0.4881998,0.04861794,0.8736016,-0.08017876,13.6999996937811,4
15.45933,0.2833332,-22.02265,-0.2987846139973698,-0.1336280275537883,0.1267582243441509,3.516186,124.6208,0.2476814,0.01616924,0.8850285,-0.02616224,13.7199996933341,4
15.5121,0.4833332,-22.05422,-0.2839517229309436,-0.1473580394714724,0.1270668470675957,7.033677,124.0344,0.4597264,0.03231794,0.8813028,-0.05229101,13.7399996928871,4
15.56486,0.6833331,-22.08578,-0.2743700005468206,-0.1151247823369771,0.1293174599397488,10.55176,123.4561,0.6371869,0.04842915,0.8767227,-0.07835862,13.75999969244,4
15.6176,0.8833331,-22.11733,-0.2586615604219204,-0.0902441062348964,0.1247152910606423,14.07031,122.8819,0.7804381,0.06448797,0.8712932,-0.1043419,13.779999691993,4
15.67033,0.9766703,-22.14888,-0.2253713386728328,-0.126031847398127,0.1044290488424479,17.58911,122.3075,0.8892118,0.0804792,0.8650207,-0.1302169,13.799999691546,4
15.87979,0.2833334,-22.29902,-0.1507919597515119,-0.1691723819864168,0.0587456463087256,3.450779,124.364,0.2737234,0.01616252,0.8839974,-0.02551531,13.8199996910989,4
15.93203,0.4833333,-22.32932,-0.0861498039051973,-0.1663496464771187,0.0196271193623367,6.902736,123.7827,0.513148,0.03230599,0.8803201,-0.05099439,13.8399996906519,4
15.98425,0.6833332,-22.35962,-0.0200865513182471,-0.1708797166764617,-0.0213947262408211,10.35594,123.2113,0.7191463,0.04841445,0.8758189,-0.0764185,13.8599996902049,4
16.16987,0.2833333,-22.49127,-0.1135702786263692,0.4842094330037371,0.0554941918809248,3.397341,123.0464,0.1772206,0.0154927,0.8786012,-0.02531945,13.8799996897578,4
16.22108,0.4833333,-22.52127,-0.0698180897973017,0.2546718694732413,0.0279862772491341,6.794913,122.458,0.3196163,0.03096389,0.8749267,-0.05060586,13.8999996893108,4
16.27228,0.6833333,-22.55126,-0.0271570398911755,0.0465304982077511,0.002732355651517,10.19278,121.8734,0.4278243,0.04640236,0.8704609,-0.07583923,13.9199996888638,4
16.4747,0.2833335,-22.69244,0.0255478475790233,-0.1945760218458458,-0.02874509744872,3.342586,121.3969,0.09054299,0.01496247,0.8716737,-0.02504735,13.9399996884167,4
16.52515,0.4833335,-22.72174,-0.1317745850225442,0.4373749890665088,0.0927451619351487,6.684556,120.8025,0.1465746,0.0299063,0.8679892,-0.05006202,13.9599996879697,4
16.57558,0.6833333,-22.75102,-0.0984849905200349,0.1846991918100126,0.068278940032858,10.026,120.2069,0.1679235,0.04481968,0.8635459,-0.07502589,13.9799996875226,4
16.626,0.8833332,-22.7803,-0.0716515662940509,-0.0465805076169295,0.0472439745227006,13.36651,119.6059,0.15384,0.05968888,0.8583482,-0.09991693,13.9999996870756,4
16.87638,0.2833333,-22.95583,-0.040307141731823,-0.3108253568773925,0.0212246291938313,3.285625,119.1474,359.9405,0.01407133,0.8619343,-0.02498304,14.0199996866286,4
16.92579,0.4833333,-22.98492,0.0278200743214789,-0.3423269770900634,-0.0280445153289292,6.56947,118.5424,359.8463,0.0281264,0.8582217,-0.04993755,14.0399996861815,4
16.97518,0.6833334,-23.01399,0.0862208395622303,-0.3278652374740448,-0.0713431787710732,9.85077,117.9274,359.7159,0.04215055,0.853784,-0.0748401,14.0599996857345,4
17.02455,0.8833335,-23.04306,0.1459282377609341,-0.3207561076392342,-0.1169753387468155,13.12953,117.2982,359.548,0.05613448,0.8486257,-0.09967228,14.0799996852875,4
17.20101,0.2833333,-23.16875,0.0578818232589668,0.3459727986693036,-0.051631668622619,3.229822,116.5432,359.8351,0.01359722,0.8502332,-0.02472642,14.0999996848404,4
17.24999,0.4833333,-23.19675,0.1872673917098062,0.128074551039335,-0.1477418078888313,6.456774,115.9318,359.6355,0.02717924,0.8464781,-0.04942522,14.1199996843934,4
17.29896,0.6833333,-23.22474,0.3054199415540672,-0.0684275971929663,-0.2370477421638526,9.680437,115.3047,359.3995,0.04073481,0.8420297,-0.07407612,14.1399996839464,4
17.34791,0.8833334,-23.25273,0.4238401862846999,-0.2978948931679603,-0.3280548387614637,12.90006,114.6577,359.1252,0.05425406,0.8368928,-0.09865501,14.1599996834993,4
17.57494,0.2833335,-23.41436,0.3357151133236868,0.3456951032950729,-0.2667908672802426,3.337782,115.5925,359.7766,0.01387163,0.8458281,-0.02568175,14.1799996830523,4
17.62566,0.4833335,-23.44331,0.3787491135710823,0.1046583993536962,-0.3068184922634565,6.672076,114.9777,359.5169,0.02772701,0.8419822,-0.05133387,14.1999996826053,4
17.67636,0.6833334,-23.47226,0.4152857979109967,-0.1149820989936877,-0.3414041784973349,10.00246,114.3429,359.2189,0.04155411,0.8374,-0.0769341,14.2199996821582,4
17.88115,0.2833332,-23.61626,0.264967174089854,0.3527002629206046,-0.2397686941148116,3.527187,117.4176,359.8118,0.01458137,0.8541589,-0.02715175,14.2399996817112,4
17.93414,0.4833332,-23.64782,0.1098883762426297,0.8161660764158218,-0.1342008269099111,7.051298,116.8063,359.5854,0.02914374,0.8502547,-0.05427073,14.2599996812642,4
17.98709,0.6833333,-23.67936,0.1456149106880424,0.3704384189377312,-0.1718387383878656,10.57315,116.1755,359.3182,0.04367603,0.8455228,-0.0813417,14.2799996808171,4
18.04004,0.8833333,-23.71089,0.1752499316049238,-0.079505572998672,-0.2034559280794461,14.09083,115.5199,359.0077,0.05816137,0.8399692,-0.1083258,14.2999996803701,4
18.29393,0.2833333,-23.8899,0.2104809151448776,-0.4610261106186594,-0.2377470000960002,3.571836,119.4242,359.9139,0.0150698,0.8630942,-0.0272897,14.3199996799231,4
18.34731,0.4833333,-23.92211,0.2347927298562382,-0.5106830976224607,-0.2609263734417943,7.141916,118.8246,359.7901,0.03012031,0.8592364,-0.05454788,14.339999679476,4
18.40068,0.6833333,-23.95431,0.2467391717130311,-0.5148645037698247,-0.2744510808574887,10.70946,118.2118,359.6272,0.04513615,0.8545243,-0.0817439,14.359999679029,4
18.45404,0.8833333,-23.98649,0.258166471224964,-0.5268862842962595,-0.2871933940381375,14.27404,117.5807,359.4227,0.0601026,0.8489636,-0.1088508,14.379999678582,4
18.63251,0.2833333,-24.11352,0.1207511190172638,0.1202231616011196,-0.1863474475318227,3.570916,120.3939,0.04439075,0.01582168,0.8673115,-0.02684376,14.3999996781349,4
18.68649,0.4833333,-24.14465,0.2018252700128968,-0.1177820709418271,-0.2457309948548918,7.141098,119.8089,0.05290896,0.03162733,0.8634966,-0.05365082,14.4199996776879,4
18.74046,0.6833332,-24.17576,0.2737111912899088,-0.3348789686849629,-0.2971159813603812,10.71018,119.2194,0.02447676,0.04739689,0.8588244,-0.080397,14.4399996772408,4
18.79441,0.8833333,-24.20687,0.1672647084877887,0.1348587500890556,-0.2162732582043496,14.27773,118.6204,359.9578,0.0631144,0.8533002,-0.1070554,14.4599996767938,4
19.02191,0.2833333,-24.37041,0.0563760830810906,0.5998921025301825,-0.1313630154424636,3.607945,121.8109,0.0939282,0.01602315,0.8733724,-0.02710947,14.4799996763468,4
19.07611,0.4833332,-24.40249,0.0862193934095607,0.1552438454043956,-0.1558136868575843,7.215636,121.2329,0.1515437,0.03202523,0.8695863,-0.05418384,14.4999996758997,4
19.13029,0.6833333,-24.43456,0.1180275709620666,-0.2941085128683826,-0.1810005453455581,10.82301,120.6534,0.1723962,0.04798893,0.8649186,-0.0811993,14.5199996754527,4
19.33547,0.2833332,-24.57951,-0.0757690826776382,0.1568121637041388,-0.0406662926313465,3.633614,122.2882,0.0959833,0.01603382,0.875383,-0.02736343,14.5399996750057,4
19.3898,0.4833334,-24.61225,-0.1168354105150655,-0.0372858007937088,-0.0144534940139955,7.266907,121.7123,0.1555399,0.03204612,0.8716013,-0.0546904,14.5599996745586,4
19.44412,0.6833334,-24.64497,-0.164585032860355,-0.2104756583042037,0.0185027799323656,10.89959,121.1348,0.1785353,0.04802065,0.866924,-0.08195349,14.5799996741116,4
19.49841,0.8833336,-24.67769,-0.2066189756102794,-0.4171187898674262,0.0489564359958087,14.53154,120.5511,0.1638622,0.06394026,0.8613564,-0.1091274,14.5999996736646,4
19.7518,0.2833333,-24.8577,-0.3831313802818883,0.2488080434784013,0.1836302242338519,3.581206,124.4508,0.1972296,0.01608294,0.8843293,-0.02684511,14.6199996732175,4
19.8051,0.4833333,-24.89048,-0.3400505194905818,0.0296201962930812,0.1554040077676397,7.163148,123.8867,0.3594768,0.03214502,0.8806629,-0.05365545,14.6399996727705,4
19.85838,0.6833333,-24.92325,-0.2946923442902154,-0.1686593181832485,0.1268172290794247,10.74544,123.3279,0.4874005,0.04816963,0.876115,-0.08040418,14.6599996723235,4
19.91166,0.8833333,-24.95601,-0.2344948748816016,-0.4003921067123048,0.0883338415299128,14.32744,122.77,0.5807631,0.06413747,0.8706912,-0.1070636,14.6799996718764,4
20.08839,0.2833333,-25.08389,-0.3607009567338117,0.2404446038500107,0.1908513652302623,3.515535,125.0698,0.2458815,0.01605006,0.886842,-0.02622759,14.6999996714294,4
20.14089,0.4833333,-25.11588,-0.3461044504971227,-0.0038332860577697,0.1811791886674214,7.032269,124.5123,0.4579045,0.03207982,0.8832505,-0.05242188,14.7199996709824,4
20.19338,0.6833332,-25.14786,-0.3197364780541818,-0.2272027637182131,0.1630516502789838,10.5495,123.9633,0.6371732,0.04807255,0.8788052,-0.07855491,14.7399996705353,4
20.24585,0.8833331,-25.17983,-0.4548741325354903,0.2362629327780979,0.2656717984834849,14.06718,123.4188,0.7841042,0.06401351,0.873511,-0.1046039,14.7599996700883,4
20.47152,0.2833333,-25.34229,-0.5789107341137019,0.6950243829895383,0.3610750570293248,3.450473,125.1344,0.279584,0.01603476,0.887113,-0.02559746,14.7799996696413,4
20.52341,0.4833334,-25.37319,-0.5055626750062352,0.2441037599072083,0.3047263724176368,6.902035,124.582,0.5265291,0.03204985,0.8835773,-0.05115886,14.7999996691942,4
20.57528,0.6833335,-25.40409,-0.4205448420385345,-0.2115212135654952,0.2405702106786407,10.35479,124.0402,0.7418593,0.04802995,0.8792168,-0.07666517,14.8199996687472,4
20.77702,0.2833334,-25.54733,-0.5536403647179036,0.2331270520978144,0.3370924160775281,3.39747,123.6533,0.1766587,0.01535459,0.8811132,-0.02540444,14.8399996683002,4
20.82792,0.4833335,-25.57786,-0.5291402453668788,0.0327564418217715,0.3160323432820391,6.79509,123.0931,0.3202503,0.0306885,0.8775769,-0.05077544,14.8599996678531,4
20.8788,0.6833336,-25.60839,-0.5057127350303894,-0.146705936191846,0.2981110557540987,10.19297,122.5372,0.4313304,0.04598977,0.8732491,-0.07609345,14.8799996674061,4
20.92966,0.8833334,-25.63891,-0.4723351779117983,-0.3596212356933603,0.2749467101900684,13.59081,121.9816,0.5098982,0.06124495,0.8681341,-0.1013358,14.899999666959,4
21.17975,0.2833333,-25.8165,-0.5681966400584315,0.3000333041777476,0.3520317473980299,3.33754,121.4647,0.06135271,0.01470402,0.8719678,-0.02514229,14.919999666512,4
21.22983,0.4833334,-25.84623,-0.4468628351286945,0.074572812782348,0.2652440163403646,6.674079,120.8965,0.08976278,0.02938967,0.868413,-0.05025128,14.939999666065,4
21.27989,0.6833333,-25.87595,-0.3253869937035887,-0.1299792164473417,0.177808644513945,10.00982,120.3258,0.0848925,0.04404575,0.8641036,-0.07530949,14.9599996656179,4
21.32994,0.8833333,-25.90566,-0.1925243363039399,-0.3679848166264602,0.0810527026596652,13.34435,119.7483,0.04584447,0.05865873,0.8590439,-0.1002949,14.9799996651709,4
21.50502,0.2833332,-26.03341,-0.2453934055572197,0.2665791578167354,0.1252722685702743,3.28071,119.6331,359.9373,0.0139195,0.8640734,-0.02501951,14.9999996647239,4
21.55408,0.4833333,-26.06291,-0.166720667957108,0.0160290598094592,0.0642271799978466,6.55962,119.0565,359.8415,0.02782282,0.8605068,-0.05001029,15.0199996642768,4
21.60312,0.6833334,-26.0924,-0.0825870348231987,-0.2136125904065078,-0.0007050338165868,9.836044,118.4701,359.7113,0.04169571,0.8562173,-0.07494937,15.0399996638298,4
21.79485,0.2833333,-26.22944,-0.1634045113058633,0.2435803965415428,0.0576792574908182,3.229031,117.3829,359.8407,0.01345381,0.8540618,-0.02479411,15.0599996633828,4
21.84345,0.4833333,-26.25806,-0.2381576375200929,0.6960688387399074,0.1120071628183723,6.455348,116.8,359.6483,0.02689251,0.8504625,-0.0495607,15.0799996629357,4
21.89204,0.6833333,-26.28666,-0.1240461932327541,0.2388756797346453,0.019381500071379,9.678561,116.202,359.4213,0.04030529,0.8461691,-0.07427923,15.0999996624887,4
21.94062,0.8833334,-26.31526,-0.0055652798223597,-0.223022065575385,-0.0765829524729788,12.89798,115.5849,359.1575,0.05368159,0.8411863,-0.09892641,15.1199996620417,4
22.18247,0.2833333,-26.48813,-0.110704467572976,0.2153534436704092,-0.0073325469406597,3.337255,116.2362,359.7755,0.01371719,0.8488072,-0.02576007,15.1399996615946,4
22.23284,0.4833334,-26.51765,-0.0660693943855399,0.0087110907640763,-0.0518760334208785,6.671126,115.6492,359.5165,0.02741834,0.8451113,-0.05149032,15.1599996611476,4
22.2832,0.6833334,-26.54716,-0.0301277317989381,-0.1770229871922182,-0.0889987141332042,10.00121,115.0425,359.2208,0.04109176,0.8406786,-0.07716839,15.1799996607006,4
22.33354,0.8833334,-26.57665,0.0080855128602657,-0.3962102742986437,-0.1268545240913461,13.32795,114.4114,358.8853,0.05472893,0.8355128,-0.1027791,15.1999996602535,4
22.50349,0.2833334,-26.70252,-0.0886804475151734,0.2571719123350895,-0.0594218964684465,3.526781,117.924,359.8098,0.01444443,0.856445,-0.02722191,15.2199996598065,4
22.55618,0.4833335,-26.73456,0.0249039702867079,0.0254392761746712,-0.1487119579212219,7.050577,117.3409,359.5831,0.0288701,0.8526853,-0.05441101,15.2399996593595,4
22.60885,0.6833335,-26.76659,0.1321405398056327,-0.1853850345946314,-0.2311029956133943,10.57229,116.7386,359.3175,0.04326665,0.8480977,-0.08155224,15.2599996589124,4
22.6615,0.8833336,-26.7986,0.2445046058964379,-0.4296623717413956,-0.3152795254415785,14.08997,116.1119,359.0103,0.05761658,0.8426878,-0.1086064,15.2799996584654,4
22.8787,0.2833334,-26.95853,0.1655239686488308,0.19862949356787,-0.2532647049996051,3.571884,120.2785,359.9202,0.01491319,0.8668274,-0.02737464,15.2999996580184,4
22.93166,0.4833334,-26.99142,0.2128811088923399,-0.0581934171348761,-0.2936628061848907,7.142131,119.7078,359.8043,0.0298066,0.8631206,-0.05471809,15.3199996575713,4
22.98461,0.6833336,-27.02431,0.259078261193018,-0.294108211180218,-0.3336445637646008,10.70999,119.1246,359.6512,0.04466611,0.8585576,-0.08199899,15.3399996571243,4
23.17941,0.2833333,-27.16392,0.1356608913422619,0.156812085211203,-0.2468501420771502,3.57121,121.5059,0.05146232,0.01561551,0.8720906,-0.02696814,15.3599996566772,4
23.23285,0.4833333,-27.19598,0.0143895497141457,0.6030282496160113,-0.1615375729275605,7.14175,120.9493,0.06866817,0.03121411,0.8684297,-0.05390019,15.3799996562302,4
23.28628,0.6833335,-27.22802,0.0376642383994472,0.1395625335182471,-0.2468189365614712,10.71125,120.3888,0.05082882,0.04677727,0.8639084,-0.08077075,15.3999996557832,4
23.33969,0.8833337,-27.26005,0.0655072507857497,-0.3286073407014033,-0.3330325976426671,14.27937,119.82,-0.003215181,0.06228931,0.8585317,-0.1075534,15.4199996553361,4
23.58359,0.2833333,-27.43615,-0.1294141517375351,0.1034958034590247,-0.2521038110337201,3.608085,122.6524,0.09165866,0.01580686,0.8769184,-0.02723698,15.4399996548891,4
23.63731,0.4833334,-27.46904,-0.2543869884775063,-0.1094196960644452,-0.3017014846459567,7.21583,122.1018,0.1487083,0.0315927,0.8732752,-0.05443853,15.4599996544421,4
23.69101,0.6833331,-27.50192,-0.3788863499057342,-0.3014268639243331,-0.3447554348181292,10.82333,121.5497,0.1708226,0.04734172,0.8687486,-0.08158126,15.479999653995,4
23.74469,0.883333,-27.53479,-0.4912800621076201,-0.5268871729826474,-0.389463669345556,14.42982,120.9919,0.1574159,0.06303794,0.8633439,-0.1086335,15.499999653548,4
23.91271,0.2833333,-27.65955,-0.7300572275456929,0.1202221776081041,-0.3263525439085306,3.633367,122.9573,0.09279399,0.01584831,0.8781851,-0.02746796,15.519999653101,4
23.96663,0.4833336,-27.69294,-0.8877333487924837,-0.1177834437405844,-0.4170575777362124,7.266377,122.409,0.1509354,0.03167564,0.8745424,-0.05489951,15.5399996526539,4
24.02054,0.6833332,-27.72633,-1.02374401721082,-0.3348806913479022,-0.5024967984171624,10.8988,121.8594,0.1742593,0.04746565,0.870003,-0.08226751,15.5599996522069,4
24.07442,0.8833332,-27.75971,-1.2979796214670998,0.1348570622731459,-0.4621823823749871,14.53047,121.304,0.1618545,0.06320224,0.8645724,-0.1095456,15.5799996517599,4
24.29015,0.2833333,-27.91981,-1.5470116319491003,0.5998905146381324,-0.42004206035352,3.580923,125.3805,0.2017188,0.01589827,0.8880788,-0.02695455,15.5999996513128,4
24.34296,0.4833333,-27.95338,-1.7229366202318597,0.1552421829396996,-0.4443380632249685,7.162536,124.8447,0.370214,0.03177575,0.8845553,-0.05387427,15.6199996508658,4
24.39575,0.6833332,-27.98693,-1.8529489560806347,-0.2941105583019399,-0.47612775442796,10.74451,124.3149,0.5062755,0.04761656,0.8801484,-0.08073229,15.6399996504188,4
24.58884,0.2833338,-28.12765,-2.1587715028061787,0.1568097849587371,-0.3508995673620561,3.515359,126.208,0.2515421,0.01583209,0.8913771,-0.02636201,15.6599996499717,4
24.64076,0.4833339,-28.16059,-2.427040284919915,0.6030261557450806,-0.2294894735712631,7.031944,125.6783,0.4709095,0.03164425,0.8879312,-0.05269133,15.6799996495247,4
24.69267,0.6833339,-28.19351,-2.595539013874532,0.1395604848613394,-0.1047287245690853,10.54902,125.1577,0.6592974,0.04741983,0.8836287,-0.07895933,15.6999996490777,4
24.74456,0.8833338,-28.22643,-2.708731402586196,-0.3286093868319021,0.0017909631317891,14.06654,124.6426,0.817273,0.06314451,0.8784745,-0.105143,15.7199996486306,4
24.98604,0.2833336,-28.40169,-2.901743632151504,0.1034939018565829,0.1974516802488253,3.450711,126.0063,0.277015,0.01582052,0.8905917,-0.02573074,15.7399996481836,4
25.03744,0.4833336,-28.43341,-2.9618765735719137,-0.1094211259252126,0.4102701429024407,6.902407,125.4807,0.5230629,0.03162228,0.8871929,-0.05142536,15.7599996477365,4
25.08882,0.6833336,-28.46512,-2.9666123285415797,-0.3014277615838335,0.5990479007399543,10.3552,124.966,0.7391534,0.04738981,0.8829678,-0.07706472,15.7799996472895,4
25.14018,0.8833334,-28.49682,-2.9085527070152573,-0.5268875174455417,0.7556512213136166,13.80879,124.4585,0.9260907,0.06310847,0.877921,-0.102625,15.7999996468425,4
25.30547,0.2833333,-28.62228,-2.9778335252931853,0.1202223950535724,1.025560540629204,3.39422,126.8394,0.2171102,0.01494528,0.893889,-0.02563824,15.8199996463954,4
