pX,pY,pZ,aX,aY,aZ,reX,reY,reZ,rtX,rtY,rtZ,t,ID
-45.00041,0.23,-39.99972,4.958872811843676,0.0092943499023674,5.316221118362954,0.01568579,0.009931797,0.02319459,0.0001369019,8.664357e-05,0.0002023992,2.6399999409914,7
-45.00082,0.43,-39.99944,5.344170440329023,-0.0959668906170667,5.913431404509204,0.03140592,0.009941333,0.04639272,0.0002741035,8.664352e-05,0.000404829,2.65999994054437,7
-45.00122,0.63,-39.99917,5.671357352829908,0.0102233052580883,6.403173780414662,0.04721294,0.009957393,0.06979963,0.0004120634,8.664366e-05,0.0006090808,2.67999994009733,7
-45.00151,0.2833333,-39.99889,6.012559915132052,-0.336737370129635,6.779191801556308,0.02328333,4.827804,0.034198,0.0002155745,0.04211801,0.0002896113,2.6999999396503,7
-45.00207,0.4833333,-39.99844,6.288660236247388,-0.4429398840815184,7.05430128221353,0.04664062,4.827824,0.06839722,0.0004317943,0.042118,0.0005792058,2.71999993920326,7
-45.00263,0.6833333,-39.99798,6.500444369349118,-0.3337178148474414,7.232840146235226,0.07002398,4.827858,0.1026268,0.0006482527,0.04211798,0.0008690555,2.73999993875623,7
-44.98117,0.2833333,-39.97089,6.790142289155604,-0.6736740698022605,7.343953256210739,0.9307102,12.78386,0.4186803,0.008478091,0.1112951,0.002726638,2.75999993830919,7
-44.98474,0.4833333,-39.95324,7.001858932271531,-0.7688998291626121,7.362950254139108,1.861327,12.79408,0.8375955,0.01695514,0.1112819,0.005453223,2.77999993786216,7
-44.9883,0.6833333,-39.9356,7.137794426933773,-0.6447288584811627,7.295008119375112,2.794003,12.81114,1.257664,0.02545026,0.1112597,0.00818342,2.79999993741512,7
-44.93335,0.2833333,-39.9044,7.287639653848906,-0.9657632673971308,7.162801126273003,1.716344,19.01945,0.09109145,0.01490286,0.1651847,-0.001690574,2.81999993696809,7
-44.92498,0.4833332,-39.87537,7.356606535231386,-1.0380942771595296,6.950772166648498,3.433205,19.02351,0.1815773,0.02980573,0.1651288,-0.003388128,2.83999993652105,7
-44.84475,0.2833335,-39.81568,7.348157228077397,-0.8870557995043173,6.664833500906411,2.828611,25.32479,0.03706671,0.02415237,0.2191313,-0.005094886,2.85999993607402,7
-44.82405,0.4833333,-39.77048,7.42980390706829,-1.1772501825986348,6.372623057948346,5.659253,25.32747,0.07318886,0.04830515,0.2189306,-0.01020009,2.87999993562698,7
-44.80336,0.6833332,-39.7253,7.421940352357552,-1.2147687528424098,6.010199934853077,8.492126,25.33194,0.109478,0.07244707,0.2185958,-0.01530492,2.89999993517995,7
-44.65644,0.2833331,-39.621,7.473645321718237,-1.4518215281470206,5.641546406678266,4.220826,34.11269,0.1585323,0.0356111,0.2930641,-0.009479591,2.91999993473291,7
-44.61718,0.4833335,-39.55813,7.428496794963472,-1.434595513706414,5.20895755981865,8.445726,34.13022,0.317193,0.07120392,0.2924655,-0.01897008,2.93999993428588,7
-44.57793,0.6833333,-39.49529,7.2929419866830045,-1.1884246074048503,4.719884952546444,12.67249,34.15991,0.4791651,0.1067153,0.2914681,-0.02844135,2.95999993383884,7
-44.45047,0.2833333,-39.43163,7.073714876390426,-0.7375970699747797,4.181907935905244,3.925469,40.56221,0.2344715,0.03283489,0.3463565,-0.009953578,2.97999993339181,7
-44.40892,0.4833335,-39.37685,6.93282287082193,-0.9591077922317576,3.6601497725527703,7.85119,40.58636,0.4698056,0.06562965,0.3457441,-0.01990739,2.99999993294477,7
-44.26472,0.2833337,-39.29872,6.703395808269683,-0.918952501842744,3.0973868647770857,3.652527,47.26598,0.2527462,0.03007979,0.4006076,-0.01075585,3.01999993249774,7
-44.22085,0.4833339,-39.25228,6.526373112399021,-1.0693409643395015,2.553955068255931,7.303947,47.2903,0.5073923,0.06012005,0.3999943,-0.02149844,3.0399999320507,7
-44.17699,0.6833341,-39.20585,6.261499720371518,-0.9564604933121948,1.979271148243896,10.95451,47.33117,0.7648576,0.09008852,0.3989726,-0.03222741,3.05999993160367,7
-44.06357,0.2833333,-39.09792,5.918416672929027,-0.6056447235500064,1.3823536032867525,5.262746,53.58575,4.176089,0.0573604,0.4484991,0.01180834,3.07999993115664,7
-44.03181,0.4833333,-38.97331,5.50701191944566,-0.0411815736746642,0.7723402046036085,10.84549,53.87772,8.704798,0.1182336,0.4433176,0.02466266,3.0999999307096,7
-43.99812,0.6833339,-38.84663,5.179764721582416,-0.140065418417209,0.2134175615259508,16.57636,54.71255,13.47181,0.1804831,0.4365668,0.03730388,3.11999993026257,7
-43.78531,0.2833336,-38.48947,4.786777137579314,0.0317072932218747,-0.3461590383446165,3.494098,61.17258,0.2891423,0.02752841,0.5085311,-0.01334167,3.13999992981553,7
-43.73415,0.4833336,-38.45584,4.461473558963384,0.0219270081034713,-0.8480116719961543,6.988841,60.86406,0.5597966,0.05502328,0.5053113,-0.02666817,3.1599999293685,7
-43.68301,0.6833333,-38.42222,4.079041393063626,0.044310561002135,-1.3368505341012948,10.48404,60.5697,0.8137068,0.08245854,0.5016173,-0.03996694,3.17999992892146,7
-43.56435,0.2833332,-38.39799,3.6522269691807807,0.0458207701365867,-1.8024542676121056,3.476995,64.73773,0.3635705,0.0273216,0.5350375,-0.0135633,3.19999992847443,7
-43.51204,0.4833332,-38.36657,3.193941800251082,0.6296826785864751,-2.234503874102117,6.954923,64.4369,0.7092777,0.0546091,0.5318393,-0.02711112,3.21999992802739,7
-43.45975,0.6833334,-38.33516,2.8571546093224,0.3085683455673416,-2.571057520234092,10.43355,64.15491,1.039465,0.08183699,0.5281448,-0.04063044,3.23999992758036,7
-43.2752,0.2833333,-38.28067,2.5052703955498856,-0.0115009609941838,-2.857105666633423,3.463899,67.03938,0.3961163,0.0271052,0.5518808,-0.01380952,3.25999992713332,7
-43.22213,0.4833331,-38.25093,2.233875634452218,-0.0914747865185914,-3.0675639747752683,6.9289,66.74242,0.7747552,0.05417691,0.5487022,-0.02760308,3.27999992668629,7
-43.16908,0.6833329,-38.22119,1.962712214076824,-0.1447908065695722,-3.236665749011717,10.39487,66.46613,1.137407,0.08118572,0.5450137,-0.04137582,3.29999992623925,7
-43.03433,0.2833331,-38.1752,1.7070166586412512,-0.2247652740633928,-3.355644356419869,3.432827,67.24651,0.3240946,0.0265067,0.5534084,-0.01423154,3.31999992579222,7
-42.9812,0.4833332,-38.14698,1.5872101467766695,-0.3047384424599257,-3.354164498874613,6.86611,66.94369,0.6297569,0.052976,0.5502545,-0.0284502,3.33999992534518,7
-42.92808,0.6833332,-38.11877,1.4718265071090286,-0.3580538542559947,-3.309183115900545,10.29996,66.65704,0.9197174,0.07938969,0.5466012,-0.04263885,3.35999992489815,7
-42.72151,0.2833334,-38.03287,1.2895573730401608,0.0421645033337801,-3.24993392130257,3.398563,66.69643,0.2355778,0.02590066,0.5494322,-0.01458483,3.37999992445111,7
-42.6686,0.4833334,-38.00579,1.2182821895269669,-0.2224979277344414,-3.1146927450062343,6.797145,66.38644,0.4526056,0.05176662,0.5463012,-0.02915482,3.39999992400408,7
-42.48081,0.2833333,-37.92514,1.1577830929361,-0.4861146394989789,-2.942901564092612,3.358089,65.71095,0.1602525,0.02537213,0.5422539,-0.01472196,3.41999992355704,7
-42.42848,0.4833333,-37.89865,0.9706220456434308,-0.0827587889439475,-2.8004465472529034,6.715713,65.39478,0.3020466,0.05071178,0.5391427,-0.0294263,3.43999992311001,7
-42.37617,0.6833332,-37.87216,0.9480854257704864,-0.3442851357381098,-2.5755204316688136,10.07312,65.08462,0.4261942,0.0760001,0.5355664,-0.04410144,3.45999992266297,7
-42.32387,0.8833332,-37.84568,0.9164987533657438,-0.6047653711123794,-2.339851447093793,13.43018,64.77847,0.5332124,0.1012153,0.5315282,-0.05873394,3.47999992221594,7
-42.12634,0.2833335,-37.76542,0.7820963363755311,-0.1982739839043703,-2.092008835448325,3.312993,64.06754,0.03780585,0.02468066,0.5301893,-0.01505341,3.4999999217689,7
-42.07458,0.4833332,-37.7397,0.7382292568878341,-0.4566642285653736,-1.7893638500231503,6.625244,63.74189,0.05687122,0.04933402,0.5271011,-0.0300896,3.51999992132187,7
-41.89862,0.283333,-37.6653,0.5738742667058148,-0.2338173063422015,-1.4900137035784835,3.268544,63.00463,359.944,0.02406088,0.5223323,-0.0153192,3.53999992087483,7
-41.8473,0.4833326,-37.64044,0.40709045593902,-0.0088802304958945,-1.1560055894474883,6.535757,62.67156,359.8688,0.04809505,0.5192624,-0.03062125,3.5599999204278,7
-41.79598,0.6833323,-37.61558,0.4028061790934245,-0.4744379304699377,-0.7274864139979726,9.801206,62.3317,359.7736,0.072079,0.5157687,-0.04589449,3.57999991998076,7
-41.74468,0.8833324,-37.59073,0.3164462737377462,-0.2453194000388948,-0.3377814202443261,13.06503,61.98266,359.6574,0.09599619,0.5118546,-0.06112586,3.59999991953373,7
-41.56004,0.2833333,-37.51443,0.3865194176542559,-0.4409853562326957,0.0410602296232482,3.225079,60.51348,359.8429,0.02361666,0.5037088,-0.01536267,3.61999991908669,7
-41.50965,0.483333,-37.48926,0.4688712001668733,-0.6356069701903266,0.3400649374569582,6.44828,60.17325,359.6665,0.04720783,0.5006548,-0.03070858,3.63999991863966,7
-41.34504,0.283333,-37.41854,0.3623837372572183,-0.1632560312370922,0.2751114582422858,3.198109,59.02111,359.7828,0.02335175,0.4924372,-0.01539408,3.65999991819263,7
-41.29519,0.483333,-37.39321,0.2503400286271144,0.2845279159557253,0.1947051941401198,6.393902,58.67662,359.5462,0.04667789,0.4893917,-0.03077129,3.67999991774559,7
-41.24536,0.683333,-37.36788,0.3026654842084326,-0.19723259913566,0.1546576627908535,9.587241,58.3164,359.2883,0.06996029,0.4859623,-0.0461196,3.69999991729856,7
-41.19553,0.8833327,-37.34256,0.2702940044119017,0.0167276330849516,0.1095797012724304,12.77767,57.93791,359.0076,0.09318078,0.4821527,-0.06142198,3.71999991685152,7
-41.01512,0.2833337,-37.26882,0.3748771381007145,-0.1930514492010857,0.1050805227911837,3.53119,59.841,359.7792,0.0257435,0.4986116,-0.01703726,3.73999991640449,7
-40.95977,0.4833334,-37.24133,0.470584619932346,-0.4007400828838777,0.089484255256572,7.060204,59.4952,359.5368,0.05145649,0.4954507,-0.03405393,3.75999991595745,7
-40.80304,0.2833329,-37.17039,0.4106843434210816,0.0595895728971618,0.0390919648133802,3.508199,61.09298,359.8253,0.02558743,0.5080388,-0.01686941,3.77999991551042,7
-40.74788,0.4833327,-37.14362,0.346769026931625,0.4963975118347164,-0.015594263814421,7.015518,60.75222,359.6291,0.05115065,0.5048949,-0.03372618,3.79999991506338,7
-40.69274,0.6833322,-37.11686,0.4409708469918598,0.004706188048303,-0.0209385698968205,10.52064,60.39634,359.4099,0.07665851,0.5012754,-0.05054646,3.81999991461635,7
-40.47354,0.2833333,-37.0172,0.436668118643766,0.2097812150111928,-0.0483225075067537,3.570015,62.65767,359.9262,0.02627295,0.5197138,-0.01674574,3.83999991416931,7
-40.41753,0.483333,-36.98989,0.5625370990369376,-0.0078387182741695,-0.0303042842522813,7.139069,62.32706,359.8317,0.0525169,0.5165562,-0.03347239,3.85999991372228,7
-40.36154,0.683333,-36.96258,0.6843887395479129,-0.2223223280606112,-0.0126810782210284,10.70644,61.98753,359.7154,0.0787015,0.5128959,-0.0501615,3.87999991327524,7
-40.21078,0.2833333,-36.89684,0.630466906663834,0.2322569880490001,-0.0599987019323435,3.584207,63.55268,0.0528445,0.02682823,0.5263349,-0.01607667,3.89999991282821,7
-40.15512,0.4833335,-36.8683,0.776149394462891,0.0240453881695698,-0.0332760389919428,7.167728,63.235,0.08646011,0.05362573,0.5231805,-0.03212906,3.91999991238117,7
-40.09948,0.6833338,-36.83978,0.7466488917946421,0.2991621768589249,-0.072842899117667,10.75036,62.91661,0.1001314,0.08036235,0.5195131,-0.04814585,3.93999991193414,7
-39.88902,0.2833335,-36.75013,0.6986901611322551,0.5784604747557354,-0.1162258923730661,3.566577,64.7845,0.08534098,0.02667586,0.5354334,-0.01604241,3.9599999114871,7
-39.83328,0.483334,-36.72243,0.766072852960825,0.1693559019541861,-0.1181682484156212,7.132388,64.47075,0.1509296,0.05331526,0.532296,-0.0320663,3.97999991104007,7
-39.77755,0.6833336,-36.69474,0.8242010882897759,-0.2632704306398147,-0.12023580983805,10.6976,64.15839,0.1973121,0.0798959,0.5286416,-0.04805488,3.99999991059303,7
-39.63729,0.2833336,-36.63909,0.7115702072000616,0.1855582794799438,-0.1820549119346211,3.650767,65.5158,0.1015336,0.02726689,0.5407919,-0.0164909,4.019999910146,7
-39.57996,0.4833336,-36.61123,0.7861937198852544,-0.0294481788944103,-0.1733228734007355,7.301045,65.2047,0.1833944,0.05449849,0.5376256,-0.03296047,4.03999990969896,7
-39.52264,0.6833333,-36.58338,0.697371828283849,0.2378284604405721,-0.2234998266203192,10.95089,64.89598,0.2457422,0.08166738,0.5339119,-0.04939406,4.05999990925193,7
-39.32116,0.2833328,-36.50325,0.5906996848253456,0.5082418009291653,-0.2747833995561279,3.632626,66.5936,0.1215248,0.02707405,0.5486719,-0.01651401,4.07999990880489,7
-39.26375,0.4833326,-36.4763,0.5912151856556562,0.0892068409074159,-0.2842167694207873,7.26474,66.28532,0.2235556,0.05411171,0.5455227,-0.03300716,4.09999990835786,7
-39.07688,0.2833333,-36.40039,0.5847721788447444,-0.3543952773564404,-0.2891026802436087,3.586809,68.40077,0.1968012,0.02684878,0.5617684,-0.01617121,4.11999990791082,7
-39.01988,0.483333,-36.37434,0.4245747181478805,0.0824115325373343,-0.3461853739888525,7.173606,68.10017,0.3750722,0.05366332,0.5586479,-0.03232197,4.13999990746379,7
-38.9629,0.6833331,-36.34829,0.4518796314047364,-0.1456623931722839,-0.3314832725386907,10.76015,67.80824,0.5358599,0.08041602,0.5549775,-0.04843632,4.15999990701675,7
-38.90594,0.8833333,-36.32224,0.3376571819025429,0.1075012111954448,-0.3662917097016702,14.34609,67.52276,0.6793505,0.1070759,0.5507608,-0.06450143,4.17999990656972,7
-38.69992,0.2833331,-36.2469,0.2171129932544957,0.3627556807626649,-0.3975598279794923,3.526511,69.91591,0.2581087,0.02650796,0.5726456,-0.01578511,4.19999990612268,7
-38.64362,0.4833328,-36.2217,0.2087346085189523,-0.0724838163424222,-0.3880260289736554,7.053299,69.62203,0.4985331,0.05298283,0.5695652,-0.03155039,4.21999990567565,7
-38.45651,0.2833333,-36.15016,0.2103210108592179,-0.5333352488167236,-0.3693008727282389,3.484003,70.29606,0.2905562,0.02631521,0.57536,-0.01542806,4.23999990522861,7
-38.40093,0.4833332,-36.12505,0.0780092066018838,-0.1148231054107364,-0.3947874766588057,6.968451,70.00555,0.5638212,0.05259775,0.572304,-0.03083752,4.25999990478158,7
-38.34537,0.6833338,-36.09995,0.1277778136091214,-0.3622367574317796,-0.3529712145951222,10.45247,69.72948,0.8214795,0.07881744,0.5687142,-0.0462111,4.27999990433455,7
-38.28982,0.8833337,-36.07485,0.0587297909168071,-0.1294578181056843,-0.3574739474736788,13.93671,69.46619,1.065204,0.1049563,0.5645946,-0.0615375,4.29999990388751,7
-38.09296,0.2833334,-36.0033,0.1415609030422118,-0.3225100030144827,-0.3021073305801565,3.427653,70.05402,0.2732176,0.02585846,0.5736457,-0.01521414,4.31999990344048,7
-38.03831,0.4833336,-35.97857,0.2198287442861684,-0.5155615995311758,-0.2426840402190109,6.855264,69.76283,0.5294258,0.05168305,0.5706241,-0.03040781,4.33999990299344,7
-37.86201,0.2833333,-35.91256,0.1091270035026994,-0.0426872688119432,-0.262250569297862,3.387094,69.13058,0.1845483,0.02525013,0.5670573,-0.01544148,4.35999990254641,7
-37.80788,0.4833334,-35.88865,-0.0047913882371943,0.4045750617225966,-0.2795685676148451,6.773799,68.83185,0.3513824,0.05046673,0.564057,-0.03086536,4.37999990209937,7
-37.75376,0.6833336,-35.86474,0.0481840689992907,-0.0787529674861879,-0.236272805187987,10.16032,68.54079,0.5017678,0.07563157,0.5605613,-0.04625728,4.39999990165234,7
-37.51252,0.2833333,-35.77367,-0.0125603332608932,0.1325942554668542,-0.2350524970357526,3.339237,67.61937,0.1005993,0.02469728,0.5561784,-0.01548331,4.4199999012053,7
-37.45926,0.4833333,-35.75001,0.0679632520803181,-0.0808437164708338,-0.1835678306002179,6.677625,67.31403,0.1835683,0.04936374,0.553201,-0.03094676,4.43999990075827,7
-37.40601,0.6833332,-35.72636,0.144810040142346,-0.293236787225989,-0.132910955368267,10.01546,67.01129,0.2492137,0.07398106,0.5497525,-0.04637924,4.45999990031123,7
-37.23882,0.2833333,-35.66468,0.0447447280958641,0.161342696236488,-0.1523787540988621,3.293002,66.30453,-0.0009843188,0.02405108,0.5466403,-0.01572024,4.4799998998642,7
-37.18614,0.4833333,-35.64176,-0.0553131266860091,0.5913542714616479,-0.1720113444353685,6.584982,65.99126,359.98,0.04807499,0.5436845,-0.03142286,4.49999989941716,7
-37.13348,0.6833331,-35.61884,0.0060445397476627,0.0918219070209445,-0.1384141900438109,9.875557,65.67453,359.9424,0.07204872,0.5402787,-0.04709502,4.51999989897013,7
-36.90253,0.2833335,-35.5328,-0.0276251138903447,0.2880104267539488,-0.1367752993642454,3.250123,64.61514,359.9032,0.02351753,0.5342691,-0.01587019,4.53999989852309,7
-36.85051,0.4833335,-35.51016,-0.0559695140598321,0.4873347843053905,-0.1335649208733329,6.498743,64.29465,359.7881,0.04700923,0.5313305,-0.03172316,4.55999989807606,7
-36.79852,0.6833335,-35.48752,0.1016477418411838,-0.0027891345219448,-0.0675736709625667,9.745699,63.96525,359.6537,0.07045577,0.527963,-0.04754578,4.57999989762902,7
-36.64119,0.2833333,-35.42924,0.0946112639698029,0.2028085222766255,-0.062815413523225,3.209778,62.44016,359.8194,0.02313444,0.5181605,-0.01586398,4.59999989718199,7
-36.59003,0.4833333,-35.40625,0.2382140374447843,-0.0153339170503415,-0.0053303933903308,6.41754,62.11367,359.6203,0.04624365,0.5152354,-0.03171061,4.61999989673495,7
-36.53888,0.683333,-35.38328,0.2208595020166726,0.2488059876778812,-0.0096816897870652,9.623207,61.77362,359.4012,0.06930982,0.5119039,-0.04752758,4.63999989628792,7
-36.31412,0.2833332,-35.29969,0.1933333536764507,0.5160827684918072,-0.0184565378975491,3.371054,62.30305,359.7943,0.02424404,0.5171237,-0.0167515,4.65999989584088,7
-36.26027,0.4833332,-35.27566,0.1678432476194125,0.7342247728407199,-0.0274761254132442,6.739944,61.97433,359.5689,0.04845981,0.5141417,-0.03348385,4.67999989539385,7
-36.20644,0.6833332,-35.25164,0.3150832234354617,-0.0027898012327514,0.0220025804377357,10.10652,61.6296,359.322,0.0726264,0.5107124,-0.05018238,4.69999989494681,7
-36.05358,0.2833331,-35.19703,0.2896949578243522,0.169354577157213,0.0137949548620568,3.543185,63.53085,359.8038,0.02538327,0.5262354,-0.01773037,4.71999989449978,7
-35.9966,0.4833333,-35.1727,0.2638951139390997,0.3446355206231348,0.0056916612950104,7.084172,63.20282,359.5869,0.05073456,0.5231921,-0.03543836,4.73999989405274,7
-35.93966,0.6833332,-35.14837,0.2723121788782485,0.3106598996054968,0.0094167129991689,10.62424,62.85821,359.3468,0.07603753,0.5196455,-0.05311796,4.75999989360571,7
-35.72253,0.2833338,-35.06971,0.2652736014733001,0.3075240449733681,0.0080510753073141,3.566723,65.36884,359.8678,0.02557013,0.5397798,-0.0177759,4.77999989315867,7
-35.66493,0.4833338,-35.04602,0.2556701868128108,0.2819110661969526,0.0059331686381725,7.131882,65.04758,359.715,0.05110783,0.5367376,-0.03553344,4.79999989271164,7
-35.46633,0.2833332,-34.9711,0.356690342335078,-0.4598082976008248,0.0391732193753107,3.601891,66.46088,359.9821,0.02620245,0.5477411,-0.01735304,4.8199998922646,7
-35.40852,0.4833331,-34.94643,0.2985328877711737,-0.2934137167496172,0.0201142634271818,7.202904,66.15099,359.945,0.05237542,0.544691,-0.0346824,4.83999989181757,7
-35.35073,0.6833334,-34.92178,0.2457945732871138,-0.1249285400664582,0.0030459702173075,10.80256,65.83593,359.8878,0.07848789,0.5411018,-0.05197259,4.85999989137053,7
-35.29295,0.8833336,-34.89713,0.2357870376168094,-0.1667445263158216,0.0015085018192309,14.40082,65.51299,359.8092,0.1045146,0.5369776,-0.06920668,4.8799998909235,7
-35.08668,0.2833332,-34.82155,0.2193281144248366,-0.1787664374315024,-0.0013213732368342,3.557551,67.31924,0.07215048,0.02618521,0.5539746,-0.01668062,4.89999989047647,7
-35.02983,0.4833332,-34.7966,0.2096325380810419,-0.2143104703131593,-0.000967405815377,7.114081,67.0191,0.126087,0.05233666,0.5509551,-0.03333631,4.91999989002943,7
-34.84047,0.2833335,-34.72593,0.1857342966364008,-0.246718168719084,-0.0071153889564321,3.615885,68.08459,0.07914829,0.02652899,0.5595078,-0.0170894,4.9399998895824,7
-34.78238,0.4833334,-34.70126,0.146621109997401,-0.249331315980891,-0.0187530948369598,7.231118,67.78573,0.1394864,0.05302363,0.5564677,-0.03415731,4.95999988913536,7
-34.7243,0.6833335,-34.67659,0.1056889258028697,-0.2754661084755379,-0.0313031656636226,10.84608,67.48797,0.1808735,0.07945935,0.5528719,-0.05119125,4.97999988868833,7
-34.66624,0.8833334,-34.65193,0.0514038474754237,-0.2984652211830304,-0.0487527463667412,14.46021,67.18896,0.2034508,0.105808,0.5487247,-0.06816944,4.99999988824129,7
-34.46804,0.2833336,-34.58085,-0.0071326643717561,-0.2916701978616558,-0.0671737228850837,3.647951,68.6031,0.09989793,0.02678442,0.5632397,-0.01721738,5.01999988779426,7
-34.40934,0.4833336,-34.55616,-0.0563962769285488,-0.30839685069986,-0.0818824452710025,7.295346,68.30749,0.1811016,0.05353388,0.5601943,-0.03441253,5.03999988734722,7
-34.35065,0.6833333,-34.53148,-0.1159645919178693,-0.3219869106715994,-0.1003060178931676,10.94211,68.01441,0.2439914,0.08022138,0.5565798,-0.05156786,5.05999988690019,7
-34.13383,0.2833332,-34.45308,-0.1858560608421839,-0.3057830275799006,-0.1212961701223669,3.606256,70.02209,0.1530111,0.02653709,0.5734153,-0.01695962,5.07999988645315,7
-34.07554,0.4833332,-34.42924,-0.2523728562396385,-0.3131007062624041,-0.1402242232013577,7.212173,69.73238,0.2879771,0.05303957,0.5703984,-0.03389757,5.09999988600612,7
-33.87712,0.2833327,-34.35561,-0.2248170269413947,-0.3172820763430917,-0.1228593294934832,3.56202,71.2443,0.2246419,0.02640494,0.5821053,-0.01650904,5.11999988555908,7
-33.81948,0.4833328,-34.33208,-0.2018189714056042,-0.2916693603132848,-0.1069171790484944,7.123964,70.96178,0.4319811,0.05277511,0.5791153,-0.03299715,5.13999988511205,7
-33.76185,0.683333,-34.30855,-0.169484429461221,-0.2895782487452892,-0.0877717327713192,10.68579,70.6899,0.6234682,0.07908589,0.5755626,-0.04944794,5.15999988466501,7
-33.70424,0.8833326,-34.28503,-0.3223273024595059,0.3559633100843446,-0.1335990970987453,14.24703,70.42677,0.7998367,0.1053076,0.5714512,-0.065846,5.17999988421798,7
-33.49815,0.2833332,-34.21038,-0.2998663703363498,0.1007093569501139,-0.1222996164937235,3.498138,71.6578,0.265858,0.02610388,0.585035,-0.01598653,5.19999988377094,7
-33.44163,0.4833329,-34.18692,-0.2713913634976315,-0.1493175612482287,-0.1104601375963021,6.996547,71.37998,0.515138,0.05217554,0.5820836,-0.03195346,5.21999988332391,7
-33.38512,0.6833328,-34.16346,-0.2014801885778148,-0.1550666964320549,-0.0816356498912327,10.49462,71.11532,0.7496188,0.07818789,0.5785858,-0.04788236,5.23999988287687,7
-33.16068,0.2833331,-34.08089,-0.1331728917840067,-0.1299764546459362,-0.0542500744708327,3.439798,71.50242,0.2843336,0.02580672,0.5839413,-0.01552297,5.25999988242984,7
-33.10528,0.4833331,-34.05729,-0.0536394064014871,-0.1273627788417966,-0.0238366841511101,6.879502,71.22684,0.5527673,0.05158032,0.5810223,-0.03102327,5.2799998819828,7
-33.0499,0.683333,-34.03368,-0.1424027462803359,0.5197463421941432,-0.0511664259171951,10.31945,70.96542,0.8068103,0.07729967,0.5775753,-0.04649077,5.29999988153577,7
-32.90055,0.283333,-33.98027,-0.0679443562479882,0.2671050405355967,-0.0220485262174072,3.395915,70.42776,0.2048575,0.02523872,0.5763329,-0.01562594,5.31999988108873,7
-32.84586,0.483333,-33.9572,-0.1548947445311199,0.500928897160977,-0.0499717564673822,6.791432,70.14566,0.3931327,0.05044418,0.5734386,-0.03123252,5.3399998806417,7
-32.79119,0.683333,-33.93413,-0.2411708514905441,0.7420707264035635,-0.0773523836095115,10.18685,69.87267,0.5660627,0.07559762,0.5700381,-0.04680702,5.35999988019466,7
-32.57676,0.2833333,-33.85598,-0.1456154508108547,0.2979452295284649,-0.0425377262516732,3.351633,68.82761,0.1211449,0.02472314,0.5648982,-0.01565611,5.37999987974763,7
-32.52293,0.4833333,-33.83302,-0.0465167431128428,-0.166566377407493,-0.0062652695185079,6.702514,68.53884,0.2256399,0.04941567,0.5620259,-0.03129181,5.39999987930059,7
-32.46913,0.6833332,-33.81008,0.0424910051242477,-0.1733618959922871,0.0277162127696151,10.05294,68.25406,0.313836,0.07405844,0.5586714,-0.04689656,5.41999987885356,7
-32.23689,0.283333,-33.72488,0.1243723004580417,-0.1493177556946576,0.0579834197975479,3.302792,67.11443,0.001688046,0.02402342,0.5525395,-0.01591761,5.43999987840652,7
-32.18376,0.4833333,-33.70258,0.052669387071905,0.3324419085193638,0.0338563988874582,6.604479,66.81606,359.9861,0.04801875,0.5496893,-0.03181706,5.45999987795949,7
-32.13064,0.6833333,-33.68029,-0.020733216349722,0.7938160519358083,0.0084168558715269,9.904795,66.51456,359.9529,0.07196429,0.5463817,-0.04768477,5.47999987751245,7
-31.97271,0.2833329,-33.62324,0.0750609474695771,0.3298277227289399,0.0387911739586606,3.259073,65.85078,359.9269,0.02352301,0.5433418,-0.01599165,5.49999987706542,7
-31.92025,0.4833328,-33.60128,0.1739166145549369,-0.1545460780540807,0.0692678900441023,6.51668,65.54693,359.8365,0.04701932,0.5405114,-0.03196525,5.51999987661839,7
-31.8678,0.6833326,-33.57932,0.1201624133098526,0.2456715710955699,0.0484082312314022,9.772701,65.23568,359.7278,0.07046947,0.5372429,-0.04790796,5.53999987617135,7
-31.6458,0.2833333,-33.4977,0.2536464193941619,-0.0148106615362384,0.0909503743585915,3.213933,63.05922,359.8114,0.02304264,0.522772,-0.01606742,5.55999987572432,7
-31.59427,0.4833331,-33.47535,0.3848475703914964,-0.2700655503132334,0.1315100873584498,6.425904,62.74662,359.6049,0.04606054,0.5199555,-0.03211736,5.57999987527728,7
-31.54275,0.6833333,-33.45301,0.3366232966471258,0.1458335583868556,0.1100184166699236,9.635661,62.42012,359.3792,0.06903453,0.5167279,-0.0481367,5.59999987483025,7
-31.30056,0.2833332,-33.36285,0.3878047939194218,-0.098966631442343,0.1207192427186818,3.371884,62.75292,359.7895,0.02416253,0.5204788,-0.01688596,5.61999987438321,7
-31.24648,0.4833331,-33.33931,0.2717720586192449,0.1416530406645282,0.0721215046394334,6.741632,62.43832,359.5601,0.04829691,0.5176055,-0.03375254,5.63999987393618,7
-31.19242,0.6833329,-33.31577,0.1506090912550703,0.3885450207947534,0.0219325030590518,10.10915,62.10759,359.3101,0.0723827,0.5142818,-0.05058511,5.65999987348914,7
-31.13838,0.8833331,-33.29224,0.2053675752001602,-0.0508760789949497,0.0330123166971105,13.47544,61.75798,359.037,0.09640731,0.5105103,-0.06737483,5.67999987304211,7
-30.92934,0.2833333,-33.21775,0.257434535510967,-0.5117273059588905,0.0441366299928347,3.536628,64.40189,359.8197,0.02527348,0.5326769,-0.01777464,5.69999987259507,7
-30.87223,0.4833333,-33.19407,0.1413876348930074,-0.0890328933317164,-0.0015620442519086,7.071374,64.0902,359.6197,0.05051579,0.5297472,-0.03552886,5.71999987214804,7
-30.6828,0.2833333,-33.12469,0.2186643481907708,-0.3280834888674661,0.0213473081682487,3.565141,65.63154,359.8662,0.02551038,0.5417075,-0.01783837,5.739999871701,7
-30.62511,0.4833333,-33.1013,0.2880353680064544,-0.5629525158686898,0.0426316825857249,7.128727,65.32462,359.713,0.05098922,0.5387722,-0.03565676,5.75999987125397,7
-30.56743,0.683333,-33.07791,0.1611276934707888,-0.1277135581956314,-0.0041020617103981,10.69045,65.00532,359.5388,0.0764112,0.535314,-0.05343574,5.77999987080693,7
-30.50977,0.8833333,-33.05453,0.0308626730939067,0.2860948287004968,-0.0517051174464882,14.25004,64.67072,359.3418,0.1017507,0.5313367,-0.07115762,5.7999998703599,7
-30.31213,0.2833333,-32.98311,0.0603038138461577,-0.226504969796556,-0.0463483883977993,3.593048,67.00506,0.007744436,0.02617894,0.5517007,-0.01724811,5.81999986991286,7
-30.25441,0.4833333,-32.95863,-0.0203077253994301,-0.0402475680259778,-0.0754581774512814,7.185299,66.71265,-0.002411424,0.05232837,0.5487648,-0.03447215,5.83999986946583,7
-30.1967,0.6833333,-32.93416,-0.0970026675272066,0.1522820959441118,-0.1022360990699517,10.77643,66.41698,359.9687,0.07841856,0.5452886,-0.05165728,5.85999986901879,7
-29.98036,0.2833332,-32.85566,0.0141893012776641,-0.3414999298705745,-0.064249935083346,3.562245,68.01408,0.07580256,0.02613534,0.5590073,-0.01683558,5.87999986857176,7
-29.92316,0.4833329,-32.83131,-0.0579459417891889,-0.1364252570406276,-0.0885606608249744,7.123591,67.72892,0.1339752,0.05223621,0.5560931,-0.03364898,5.89999986812472,7
-29.72364,0.2833328,-32.75718,0.0211604671023941,-0.3519549313777073,-0.0598214350911057,3.637926,68.67505,0.09198248,0.02666246,0.5637615,-0.01724188,5.91999986767769,7
-29.66501,0.4833328,-32.73275,0.0962026494324028,-0.5622568713990006,-0.0325852576013971,7.275154,68.3921,0.1660816,0.0532895,0.5608174,-0.03446139,5.93999986723065,7
-29.60641,0.6833329,-32.70832,-0.0330457262603793,-0.1014047948644648,-0.0767622230174467,10.9123,68.11131,0.2224471,0.07985846,0.5573066,-0.05164569,5.95999986678362,7
-29.54782,0.8833328,-32.6839,-0.1622987975906191,0.3390614114438989,-0.1206293896227741,14.54867,67.83043,0.2612437,0.1063392,0.5532336,-0.06877289,5.97999986633658,7
-29.34017,0.2833333,-32.6097,-0.1163814059605137,-0.1458353073597386,-0.1042372507644309,3.641677,69.03915,0.09999347,0.0266741,0.5663787,-0.01728748,5.99999986588955,7
-29.2814,0.4833333,-32.58549,-0.1903951130399583,0.0691708068130734,-0.1264107732939159,7.282746,68.75815,0.1822656,0.05331328,0.5634416,-0.03455245,6.01999986544251,7
-29.22264,0.6833332,-32.56128,-0.2581889736902276,0.2914949626002091,-0.1450282783511305,10.92312,68.47988,0.2472209,0.07989071,0.5599344,-0.05177727,6.03999986499548,7
-28.99595,0.2833331,-32.47973,-0.1248520830558774,-0.1714473240096502,-0.0923760011847676,3.591312,70.84897,0.1796933,0.0264427,0.579304,-0.01688545,6.05999986454844,7
-28.93773,0.4833331,-32.45636,-0.184331712353206,0.0655124426546384,-0.1055436572167529,7.182365,70.57629,0.3425688,0.0528512,0.576399,-0.0337491,6.07999986410141,7
-28.87953,0.6833332,-32.43301,-0.2408724999310116,0.3097897508783649,-0.1167126095581991,10.77306,70.31157,0.4896406,0.07919934,0.5729257,-0.05057436,6.09999986365438,7
-28.72977,0.2833336,-32.37991,-0.0735430717882223,-0.1311993390391743,-0.0494177322459137,3.533716,71.70839,0.2259732,0.02614458,0.5853957,-0.01646182,6.11999986320734,7
-28.67241,0.4833338,-32.35696,-0.1230920379640245,0.1277144535025191,-0.0594496434138456,7.067431,71.44067,0.435735,0.05225614,0.5825248,-0.03290328,6.13999986276031,7
-28.61508,0.6833338,-32.33402,-0.1760338852399421,0.3939462853934804,-0.0714924373093737,10.60105,71.18379,0.6306667,0.07830992,0.579097,-0.04930864,6.15999986231327,7
-28.39924,0.2833333,-32.25616,-0.2195888921484581,0.6152259489279819,-0.0813242045590811,3.479608,72.06768,0.2733858,0.02595445,0.5879316,-0.0159316,6.17999986186624,7
-28.3429,0.4833336,-32.23307,-0.0798629814648776,-0.1144711097213208,-0.0320110046782886,6.95941,71.80491,0.5312303,0.05187688,0.5850917,-0.03184339,6.1999998614192,7
-28.28657,0.6833335,-32.20998,-0.1096793289037307,0.069172175865774,-0.0401956573492725,10.43899,71.55589,0.7754045,0.0777421,0.5817085,-0.04771788,6.21999986097217,7
-28.05256,0.2833333,-32.12453,-0.1345843533228787,0.2601331387414935,-0.0473720983175738,3.427064,71.58603,0.2649012,0.02560617,0.5845397,-0.01561433,6.23999986052513,7
-27.99723,0.4833331,-32.10139,-0.1206129940970512,0.2460200083804956,-0.0413713700147049,6.853983,71.32303,0.5146399,0.05118013,0.5817291,-0.03120681,6.2599998600781,7
-27.94193,0.683333,-32.07825,-0.1174535096937248,0.26692778432106,-0.0385160566266051,10.28098,71.0731,0.7506074,0.0767003,0.5783945,-0.04676652,6.27999985963106,7
-27.88663,0.8833333,-32.05513,-0.1126948515135666,0.2695411238513577,-0.0345069580671122,13.70792,70.83476,0.9741383,0.1021434,0.5745393,-0.06227959,6.29999985918403,7
-27.69029,0.2833333,-31.98553,0.1058673251711894,-0.4397705626229492,0.0455317395600367,3.380257,69.90862,0.1638618,0.02499245,0.5726387,-0.01572629,6.31999985873699,7
-27.63583,0.4833333,-31.96272,0.1578742876077932,-0.2367869950885316,0.0696516081171481,6.759903,69.63747,0.3119233,0.0499529,0.569855,-0.0314325,6.33999985828996,7
-27.58139,0.6833331,-31.93992,0.205401045771179,-0.0275309600184802,0.0921365846912074,10.13927,69.37309,0.4450734,0.07486288,0.5665737,-0.04710654,6.35999985784292,7
-27.36674,0.2833336,-31.86277,0.2612115964064223,0.13572689049473,0.1171884632073485,3.328573,68.30946,0.06727893,0.02436344,0.5611786,-0.01582006,6.37999985739589,7
-27.31315,0.4833335,-31.84035,0.3094007182090728,0.0672525516735709,0.1369941213196632,6.656117,68.03053,0.118427,0.04869654,0.5584202,-0.03162039,6.39999985694885,7
-27.11902,0.2833329,-31.76924,0.3521059715729464,0.0337998153976367,0.1540225146798874,3.284644,67.08896,359.9651,0.02371853,0.5523644,-0.01609097,6.41999985650182,7
-27.06595,0.4833334,-31.74763,0.2310655350791002,0.4622444990475896,0.1127022216860282,6.567973,66.80172,359.9136,0.04740937,0.5496252,-0.03216346,6.43999985605478,7
-27.01289,0.6833334,-31.72603,0.2887097800048401,0.2341710770517917,0.1311295752108385,9.849812,66.50935,359.8447,0.07105099,0.5464337,-0.04820569,6.45999985560775,7
-26.95984,0.8833334,-31.70443,0.3351326365204805,0.0155061938851711,0.144478923658518,13.13032,66.2098,359.7579,0.09462724,0.5427932,-0.06420339,6.47999985516071,7
-26.75498,0.2833334,-31.63097,0.3828490757810883,-0.2481111687347723,0.1570104471532794,3.238451,64.94521,359.8784,0.02326934,0.5367069,-0.01606624,6.49999985471368,7
-26.70285,0.4833332,-31.60909,0.4657568078144116,-0.290973002786245,0.1823445343439935,6.47533,64.6518,359.74,0.04651336,0.5339878,-0.03211495,6.51999985426664,7
-26.65073,0.6833332,-31.58722,0.5295630618108866,-0.2998590830528935,0.1995934309999114,9.710468,64.3484,359.5838,0.06971314,0.5308412,-0.04813258,6.53999985381961,7
-26.42873,0.2833333,-31.50629,0.5870451896401434,-0.328085232438627,0.2132178531925355,3.194171,62.48631,359.7836,0.02284974,0.5185137,-0.01606955,6.55999985337257,7
-26.37751,0.4833335,-31.48401,0.449361593705337,0.2913208413987482,0.1588261429525737,6.38622,62.18597,359.5502,0.04567449,0.51581,-0.03212169,6.57999985292554,7
-26.3263,0.683333,-31.46174,0.4666543801958589,0.0141129934990656,0.1560007892987158,9.576145,61.8704,359.2981,0.06845753,0.5127032,-0.04814424,6.5999998524785,7
-26.08105,0.2833336,-31.37212,0.4725174714410478,-0.2536861219961942,0.1491078376332559,3.530438,63.85519,359.7892,0.02517172,0.5286434,-0.0178507,6.61999985203147,7
-26.024,0.4833338,-31.3484,0.3698960861669391,0.1538498572140721,0.1069906017693753,7.058817,63.55397,359.5596,0.05031274,0.5258128,-0.03567947,6.63999985158443,7
-25.96698,0.6833339,-31.32469,0.4491779759910486,-0.0951327122142821,0.128259504105376,10.58621,63.2357,359.3085,0.07540572,0.5224802,-0.05347876,6.6599998511374,7
-25.90999,0.8833342,-31.30099,0.5208939483015236,-0.3347068447410267,0.148170809701547,14.11258,62.89745,359.0337,0.1004294,0.518649,-0.07122947,6.67999985069036,7
-25.70208,0.2833333,-31.22792,0.40826464403996,0.101054830930698,0.1055128611811007,3.560381,65.57594,359.8433,0.02537547,0.5413056,-0.01797216,6.69999985024333,7
-25.64433,0.4833332,-31.20487,0.4942218309785602,-0.1197013034533907,0.132836130111297,7.119114,65.28067,359.6674,0.05071853,0.5384727,-0.03592578,6.7199998497963,7
-25.58658,0.683333,-31.18183,0.5667327773017945,-0.3310487676350028,0.1563759001557088,10.67589,64.97169,359.4713,0.07600515,0.5351185,-0.0538397,6.73999984934926,7
-25.3597,0.2833336,-31.1,0.4264041088242827,0.1329391186661129,0.1060620329543162,3.595203,67.1431,359.9715,0.02599891,0.5527123,-0.01755356,6.75999984890223,7
-25.30165,0.4833333,-31.07623,0.2770307455457015,0.5807234253931625,0.0528154745340714,7.189542,66.86072,359.9254,0.05196828,0.5498729,-0.03508469,6.77999984845519,7
-25.2436,0.6833332,-31.05246,0.2923721854597119,0.107327109943901,0.0543888266615262,10.78255,66.57284,359.8609,0.07787862,0.5464918,-0.05257596,6.79999984800816,7
-24.99835,0.2833333,-30.96257,0.3047317562836973,-0.3822732903613658,0.0553450030363613,3.556061,68.06843,0.070859,0.02605852,0.5594024,-0.01685352,6.81999984756112,7
-24.94121,0.4833333,-30.93838,0.1588218044944724,0.0168998011974684,0.0046058888128825,7.111108,67.79626,0.1252495,0.05208381,0.5565879,-0.0336821,6.83999984711409,7
-24.88408,0.6833333,-30.9142,0.2003108442322272,-0.2404453841626,0.0176870283804788,10.66537,67.52514,0.1630098,0.07805134,0.5532368,-0.0504733,6.85999984666705,7
-24.82696,0.8833332,-30.89003,0.2392620967215286,-0.4883816181917738,0.0301382468939763,14.21875,67.25296,0.1839157,0.1039357,0.5493528,-0.06721128,6.87999984622002,7
-24.61826,0.2833336,-30.81634,0.0977200459389564,-0.0609829654650772,-0.0183984566118162,3.624801,68.93218,0.09291127,0.02653392,0.565614,-0.0172302,6.89999984577298,7
-24.55975,0.4833336,-30.79223,0.0635782411763443,-0.2901020565848345,-0.0329869741669348,7.249,68.66326,0.1689337,0.05303372,0.5627764,-0.03443841,6.91999984532595,7
-24.50126,0.6833335,-30.76813,-0.1334547432802111,-0.0296197999085775,-0.103834349401449,10.8731,68.39674,0.2281228,0.07947567,0.5593745,-0.05161223,6.93999984487891,7
-24.27374,0.2833334,-30.68675,-0.3292741799082712,0.2413160207477,-0.1733706225464537,3.638097,69.45068,0.1034442,0.02660333,0.5693322,-0.01734064,6.95999984443188,7
-24.21487,0.4833333,-30.66292,-0.3383657265415216,-0.169878893938062,-0.1781978771058163,7.27559,69.18361,0.1900196,0.05317166,0.5664947,-0.03465918,6.97999984398484,7
-24.15602,0.6833333,-30.6391,-0.3406333099174397,-0.5983228738522388,-0.1788768540666261,10.91239,68.91969,0.2602271,0.07967841,0.5630854,-0.05193754,6.99999984353781,7
-23.90947,0.2833334,-30.55051,-0.5038093727954234,-0.1390385695644805,-0.2326667648060301,3.590295,71.17179,0.1792748,0.0263857,0.5815966,-0.01695769,7.01999984309077,7
-23.85114,0.4833333,-30.52748,-0.4583713194900163,-0.3373177493350847,-0.2132717702334865,7.180346,70.91265,0.3426185,0.05273783,0.5787888,-0.03389353,7.03999984264374,7
-23.79282,0.6833332,-30.50445,-0.4053529742709436,-0.5272336368802354,-0.1896858017386762,10.77002,70.66162,0.4910097,0.07902987,0.5754108,-0.05079111,7.0599998421967,7
-23.73452,0.8833332,-30.48143,-0.5339944018144394,-0.0428596026221146,-0.227907949814206,14.35898,70.41685,0.6249508,0.1052328,0.5714666,-0.06763429,7.07999984174967,7
-23.52781,0.2833333,-30.40853,-0.6481396477212087,0.4242651192550294,-0.2608053322794177,3.528269,72.22065,0.245585,0.02613315,0.589008,-0.01641232,7.09999984130263,7
-23.47046,0.4833334,-30.38579,-0.5748839158204184,-0.0308368057820421,-0.2334076388044437,7.056547,71.96854,0.4760042,0.05223333,0.5862375,-0.03280407,7.1199998408556,7
-23.41312,0.6833335,-30.36305,-0.7064425886365129,0.2170995671996635,-0.277640254927789,10.58473,71.7287,0.6927966,0.07827574,0.582908,-0.04915965,7.13999984040856,7
-23.18779,0.2833333,-30.28223,-0.8296388715038283,0.4754900040420385,-0.319025250145085,3.467589,72.32841,0.2825359,0.0258806,0.5897692,-0.01586431,7.15999983996153,7
-23.13159,0.4833331,-30.25929,-0.76090012491672,0.0517493101156966,-0.2970116841962174,6.935082,72.08018,0.5507579,0.05172897,0.5870322,-0.03170563,7.17999983951449,7
-23.07541,0.6833329,-30.23636,-0.6787094663601678,-0.3892410743690155,-0.2711939115139152,10.40256,71.84641,0.8061179,0.07752106,0.5837537,-0.04751267,7.19999983906746,7
-22.83193,0.2833334,-30.14814,-0.7511192866017176,0.057497621515729,-0.2963327682176384,3.416157,71.57072,0.2468012,0.02543877,0.5844371,-0.01568335,7.21999983862042,7
-22.77669,0.4833333,-30.12535,-0.614879603500686,-0.153326892847348,-0.2482637554167226,6.832016,71.31974,0.4790091,0.0508447,0.581729,-0.03134596,7.23999983817339,7
-22.72147,0.683333,-30.10255,-0.47129229339534,-0.3557878555488306,-0.1959553835918797,10.24788,71.08083,0.6980782,0.076198,0.5785007,-0.04697601,7.25999983772635,7
-22.66627,0.883333,-30.07977,-0.5102277079094435,0.1160405493109407,-0.2054771516605775,13.6636,70.85256,0.9052025,0.1014753,0.5747555,-0.06255958,7.27999983727932,7
-22.46059,0.2833334,-30.00704,-0.5392663828860229,0.5706200053313799,-0.2107507182714485,3.367239,69.76403,0.1461556,0.02483081,0.5716103,-0.0157565,7.29999983683228,7
-22.4063,0.4833335,-29.98445,-0.3974803593329667,0.1029732569948838,-0.1594118169634768,6.733737,69.50494,0.2773337,0.04963022,0.5689299,-0.03149235,7.31999983638525,7
-22.35202,0.6833335,-29.96187,-0.4644502445294662,0.3383651035738667,-0.1807470070628163,10.09985,69.25169,0.3941858,0.07437959,0.5657569,-0.04719646,7.33999983593822,7
-22.12828,0.2833333,-29.88208,-0.5272372838735322,0.5842110466826087,-0.2006932119598019,3.315927,68.11357,0.03518508,0.02414228,0.5597724,-0.01594855,7.35999983549118,7
-22.07477,0.4833333,-29.86007,-0.4017231420775751,0.1479261477302802,-0.158667458262208,6.63101,67.84544,0.05487671,0.0482571,0.5571171,-0.03187906,7.37999983504415,7
-22.02128,0.6833333,-29.83807,-0.2666840088626045,-0.3056075758317186,-0.1141227869829784,9.944808,67.57646,0.05889067,0.07232097,0.5539949,-0.04777713,7.39999983459711,7
-21.87189,0.2833335,-29.78621,-0.291242862883216,0.1285863065978909,-0.1222985536612135,3.269135,66.89029,359.9417,0.02352115,0.5509261,-0.01614537,7.41999983415008,7
-21.81898,0.4833334,-29.76489,-0.1127341154074912,-0.0947836546522152,-0.0619223364109196,6.537025,66.61494,359.8676,0.04701629,0.5482932,-0.032273,7.43999983370304,7
-21.76608,0.6833334,-29.74358,0.0675036807269364,-0.3097902329003507,-0.0016514965800666,9.803238,66.33327,359.7768,0.07046283,0.5452135,-0.0483693,7.45999983325601,7
-21.55208,0.2833333,-29.66733,0.0593642507894038,0.1494934389138085,-0.0059092287005348,3.22575,64.54845,359.846,0.02308059,0.5337921,-0.01616477,7.47999983280897,7
-21.50006,0.4833335,-29.64569,0.0547109700286796,0.5915278320614907,-0.0092173705349374,6.449718,64.26589,359.6759,0.04613539,0.531176,-0.03231196,7.49999983236194,7
-21.44806,0.6833337,-29.62405,0.2135038166301335,0.1113356910251031,0.0403374150949211,9.671852,63.97165,359.4884,0.06914666,0.5281377,-0.04842852,7.5199998319149,7
-21.21552,0.2833335,-29.54004,0.1558344557072111,0.3341823737620596,0.0147921810360642,3.282319,63.15078,359.7872,0.02342767,0.5234497,-0.01657771,7.53999983146787,7
-21.16269,0.4833335,-29.5176,0.0943646515300926,0.5674833680349531,-0.0117595833562269,6.562657,62.86367,359.5577,0.04682958,0.5208134,-0.03313694,7.55999983102083,7
-21.10986,0.6833335,-29.49517,0.2096573840076878,0.1186537357756575,0.0216276176780283,9.840836,62.56113,359.3097,0.070186,0.517748,-0.04966402,7.5799998305738,7
-21.05706,0.8833337,-29.47275,0.3234839102639952,-0.3474252776874986,0.0552984038443966,13.11723,62.2408,359.0412,0.0934821,0.5142559,-0.06614672,7.59999983012676,7
-20.85532,0.2833332,-29.4031,0.2704458503374667,0.0742238109755488,0.0338099303708183,3.533726,64.66083,359.8051,0.02514372,0.5345902,-0.01792583,7.61999982967973,7
-20.79803,0.4833333,-29.37991,0.4118275263750561,-0.1616910071142451,0.0802690365096729,7.065474,64.3748,359.5922,0.05025616,0.5318602,-0.03582969,7.63999982923269,7
-20.74078,0.6833335,-29.35673,0.5459609939855028,-0.389242638129499,0.125943309121471,10.59706,64.07287,359.3588,0.07532512,0.5286216,-0.05370761,7.65999982878566,7
-20.52315,0.2833332,-29.28072,0.4843557655371278,0.0574962246725214,0.105616539807027,3.564275,66.44617,359.8679,0.02538461,0.5476649,-0.01800291,7.67999982833862,7
-20.46516,0.4833332,-29.25812,0.419952573200625,0.486985732928658,0.0852339368383674,7.127044,66.16663,359.7179,0.05073701,0.5449291,-0.03598648,7.69999982789159,7
-20.40718,0.6833332,-29.23552,0.6158952986216519,-0.0057507819675811,0.1550503888183101,10.68803,65.87514,359.5488,0.07603275,0.5416651,-0.05393021,7.71999982744455,7
-20.17046,0.2833333,-29.15065,0.5780394712399008,0.2045508928678115,0.144206376322117,3.593082,67.86098,0.009332374,0.02605736,0.5579103,-0.01743185,7.73999982699752,7
-20.1124,0.4833333,-29.127,0.5202071394681447,0.4253068044051439,0.1268181002569477,7.185371,67.59557,0.00244391,0.05208525,0.5551692,-0.03483951,7.75999982655048,7
-20.05435,0.6833333,-29.10336,0.4553691171764527,0.6042467674150223,0.1071727297720528,10.77656,67.32735,359.9786,0.07805423,0.551882,-0.05220789,7.77999982610345,7
-19.99631,0.8833333,-29.07972,0.5571650895567153,-0.1646523359708972,0.1423831971229958,14.36659,67.05407,359.937,0.1039387,0.5480525,-0.06951994,7.79999982565641,7
-19.79896,0.2833336,-29.01087,0.476823815165929,-0.0170747716215006,0.1174485440164332,3.561904,68.68196,0.07341953,0.02602259,0.5638277,-0.01700311,7.81999982520938,7
-19.74148,0.4833335,-28.98722,0.3891189451191614,0.1409566355712763,0.0902170882991448,7.122915,68.42361,0.1309566,0.05201161,0.5611089,-0.03398345,7.83999982476234,7
-19.68401,0.6833335,-28.96357,0.4885363376204417,-0.3831429334580826,0.1250883110988674,10.68312,68.16664,0.172745,0.07794273,0.5578475,-0.05092587,7.85999982431531,7
-19.46546,0.2833333,-28.88686,0.3811693269553444,-0.204203427118535,0.0895540799898029,3.635938,69.56435,0.1004783,0.02655589,0.5701479,-0.01737752,7.87999982386827,7
-19.40655,0.4833336,-28.8632,0.2620836694702468,-0.0148096783272901,0.0497892451734998,7.271216,69.30946,0.1849168,0.05307697,0.5674005,-0.03473244,7.89999982342124,7
-19.34766,0.6833336,-28.83955,0.3448960513170434,-0.5075465328078395,0.0791800668140965,10.90648,69.05764,0.2535169,0.07954056,0.5640808,-0.05205239,7.91999982297421,7
-19.11028,0.2833333,-28.75556,0.3026720615759846,-0.2972446710181297,0.0693629614523523,3.628654,70.21376,0.1143511,0.0264746,0.574789,-0.01739221,7.93999982252717,7
-19.05132,0.4833333,-28.73239,0.2524520548504316,-0.0764886057182779,0.0576906176236953,7.256726,69.96098,0.2128558,0.05291472,0.572051,-0.03476191,7.95999982208014,7
-18.99238,0.6833334,-28.70922,0.2083244850997072,0.1024509048029146,0.0489357368614342,10.88413,69.71223,0.2960697,0.07929382,0.5687385,-0.05209151,7.9799998216331,7
-18.93346,0.8833333,-28.68606,0.1540564121229888,0.0538392159764407,0.0359485361756277,14.51085,69.46557,0.3639837,0.1055845,0.5648553,-0.06936552,7.99999982118607,7
-18.73583,0.2833334,-28.61808,0.0922210974455417,0.0444305572734796,0.0213918688062371,3.574933,71.94157,0.198817,0.02626285,0.5870422,-0.01691788,8.01999982073903,7
-18.67756,0.4833335,-28.59558,0.0371124531169702,0.0209082654539953,0.009902105992495,7.14963,71.69769,0.3827192,0.05249207,0.5843373,-0.03381417,8.039999820292,7
-18.6193,0.6833336,-28.5731,-0.0246058278093421,0.0099312364421005,-0.006540456518703,10.72402,71.46332,0.5529027,0.07866208,0.5810617,-0.05067256,8.05999981984496,7
-18.40292,0.2833335,-28.4974,-0.0934710865399441,0.0381573272848223,-0.0262983916231078,3.513001,72.80589,0.2578508,0.0260053,0.5931244,-0.01638042,8.07999981939793,7
-18.34566,0.4833334,-28.47511,-0.1561131361028902,0.0522703416052114,-0.0450330872430448,7.026058,72.56798,0.5015126,0.05197843,0.5904541,-0.03274052,8.09999981895089,7
-18.2884,0.6833335,-28.45283,0.0029086032168859,-0.6413603112364844,0.0092920128985944,10.53865,72.34325,0.7326485,0.07789212,0.5872258,-0.04906257,8.11999981850386,7
-18.05331,0.2833332,-28.36931,-0.0071750122322242,-0.4185133929336039,0.007723007938118,3.453703,72.6991,0.2831921,0.02573499,0.592379,-0.01587154,8.13999981805682,7
-17.99721,0.4833332,-28.3468,-0.0192357175013242,-0.1852122491669497,0.0042605024715278,6.907131,72.46397,0.5529023,0.05143718,0.5897413,-0.03171967,8.15999981760979,7
-17.94112,0.6833334,-28.32429,-0.0202583384510699,0.0062723095041258,0.0033322298561948,10.36058,72.24342,0.8105992,0.07708436,0.5865641,-0.04753422,8.17999981716275,7
-17.88504,0.8833331,-28.30178,-0.1897860914971634,0.710128268259188,-0.0540586597362242,13.81403,72.03624,1.057945,0.1026541,0.5828506,-0.06330079,8.19999981671572,7
-17.59408,0.2833334,-28.19862,-0.1450616531006776,0.4110358778051782,-0.0400250201555465,3.402548,71.09446,0.1912998,0.02512571,0.5810764,-0.01590238,8.21999981626868,7
-17.53895,0.4833333,-28.17635,-0.0981517222198284,0.1270672520675078,-0.0241182568697908,6.804507,70.85175,0.3684821,0.05021914,0.5784691,-0.0317838,8.23999981582165,7
-17.48384,0.6833333,-28.15409,-0.2506149803823376,0.5241489005759721,-0.0766658796924595,10.20618,70.61782,0.5325763,0.07526061,0.57535,-0.04763239,8.25999981537461,7
-17.42874,0.8833334,-28.13183,-0.2301166939851064,0.2704272215415111,-0.0722992157554287,13.6075,70.3912,0.6844395,0.1002281,0.5717223,-0.0634341,8.27999981492758,7
-17.2231,0.2833335,-28.0601,-0.2150748339900925,0.0318293098369131,-0.0697450939616857,3.343573,69.36475,0.1000194,0.02448681,0.5687632,-0.01588335,8.29999981448054,7
-17.16908,0.4833337,-28.03803,-0.1925022345584466,-0.2460064279705503,-0.0647767437769175,6.686106,69.1148,0.1856761,0.0489426,0.5661877,-0.03174543,8.31999981403351,7
-17.11507,0.6833336,-28.01596,-0.1241942843828241,-0.2973717330475891,-0.0432292307223711,10.02807,68.86803,0.2572897,0.07335,0.5631297,-0.04757592,8.33999981358647,7
-16.89122,0.2833333,-27.93762,-0.0625888381404813,-0.3090460226473202,-0.0247007511156951,3.291611,67.70369,359.9729,0.02372051,0.5568231,-0.01619492,8.35999981313944,7
-16.83786,0.4833333,-27.9164,0.0053865058432247,-0.3343454808631163,-0.004891634435733,6.58208,67.4434,359.9308,0.04741403,0.5542726,-0.03237187,8.3799998126924,7
-16.78451,0.6833334,-27.89518,-0.1005463752918505,0.293702397039866,-0.0432123473363112,9.870996,67.17872,359.873,0.07105746,0.5512646,-0.04851732,8.39999981224537,7
-16.54358,0.2833334,-27.80943,-0.0491094405760677,0.0308506657522823,-0.0319670538633154,3.240962,65.66,359.8828,0.02320803,0.5419554,-0.01619047,8.41999981179833,7
-16.49118,0.4833335,-27.78811,0.0051773452557704,-0.2168771294586948,-0.0202864251531487,6.480393,65.39288,359.7503,0.04639044,0.5394268,-0.0323632,8.4399998113513,7
-16.43879,0.6833335,-27.76679,-0.1391744477110368,0.2164457594646596,-0.0763076347981623,9.718208,65.11627,359.6015,0.06952874,0.536466,-0.04850502,8.45999981090426,7
-16.38641,0.8833334,-27.74547,-0.1108779273613347,-0.0010348023391649,-0.0759703155453834,12.95405,64.82819,359.4352,0.0926033,0.533076,-0.06460047,8.47999981045723,7
-16.18122,0.2833332,-27.67351,-0.0880052601522738,-0.2033917199973777,-0.0777553111111721,3.19454,63.05713,359.783,0.02276945,0.5227644,-0.01618926,8.49999981001019,7
-16.12978,0.4833335,-27.65174,-0.0577629339039642,-0.4449863606983614,-0.077254620268782,6.387038,62.78283,359.5505,0.04551399,0.5202554,-0.03236067,8.51999980956316,7
-16.07835,0.6833332,-27.62997,-0.1739093402168645,0.1802039553119376,-0.1238700763205997,9.577502,62.49353,359.3008,0.06821688,0.5173401,-0.04850202,8.53999980911613,7
-15.84971,0.2833333,-27.5499,-0.0457049467033208,-0.0855046714188729,-0.0875815638183326,3.53053,64.53548,359.7915,0.02507649,0.5336695,-0.01798361,8.55999980866909,7
-15.79241,0.4833335,-27.52681,0.0803745968701843,-0.336089827368049,-0.0507120467806991,7.059087,64.26052,359.5657,0.05012202,0.5310308,-0.0359453,8.57999980822206,7
-15.73513,0.6833335,-27.50373,0.027900640669376,0.0943756757272444,-0.0725218272967787,10.58681,63.96896,359.3201,0.07511987,0.5278856,-0.05387738,8.59999980777502,7
-15.48858,0.2833333,-27.41723,0.1792862021508305,-0.1259624170425226,-0.0234436967702436,3.560705,66.34876,359.846,0.02526935,0.5469593,-0.01812409,8.61999980732799,7
-15.43054,0.4833334,-27.3949,0.3220541104751913,-0.3311770913883158,0.0247565586585096,7.119837,66.07943,359.6746,0.05050615,0.5443138,-0.03622963,8.63999980688095,7
-15.37251,0.6833336,-27.37258,0.2565566168478064,0.1446589860905777,0.0032444153396262,10.67707,65.79692,359.4846,0.07568653,0.5411418,-0.05429476,8.65999980643392,7
-15.3145,0.8833337,-27.35027,0.1868757023920064,0.6100059665082931,-0.0185273470664775,14.23232,65.4986,359.2739,0.1007863,0.5374467,-0.07230236,8.67999980598688,7
-15.2565,0.9766704,-27.32796,0.2867766671319867,0.1598870068489533,0.0155523428646553,17.78542,65.1815,359.0401,0.1257813,0.5332325,-0.0902348,8.69999980553985,7
-15.01079,0.2833334,-27.24318,0.3884958018104996,-0.3007203300190372,0.0514147197458143,3.589498,68.15622,-0.002146222,0.02593037,0.5600481,-0.01756434,8.71999980509281,7
-14.95259,0.4833335,-27.22003,0.2240272103099663,0.1331603074899649,-0.0031268153008312,7.178179,67.90245,359.9801,0.05183122,0.5574006,-0.03510518,8.73999980464578,7
-14.8944,0.6833335,-27.19689,0.23843060301677,-0.0837625025919811,0.0024154132016214,10.76574,67.64529,359.9461,0.07767373,0.554206,-0.05260653,8.75999980419874,7
-14.6773,0.2833333,-27.12122,0.2413548699659369,-0.2855616392568087,0.005071706488092,3.56118,69.12523,0.07302801,0.02594949,0.5670162,-0.01710287,8.77999980375171,7
-14.61965,0.4833334,-27.09801,0.2466856292652384,-0.5265986969826597,0.0093760726466918,7.121412,68.87929,0.1309874,0.05186542,0.5643871,-0.03418239,8.79999980330467,7
-14.56201,0.6833333,-27.07481,0.2883124018900123,-0.5411648582512317,0.0274722399961824,10.68087,68.63486,0.1739701,0.07772385,0.5612128,-0.0512241,8.81999980285764,7
-14.32403,0.2833332,-26.99145,0.3157571649911634,-0.5160404601901198,0.0408390206706457,3.635763,69.9263,0.09917271,0.02649309,0.5727384,-0.01746977,8.8399998024106,7
-14.26497,0.4833333,-26.96818,0.3433343729425555,-0.504541128207689,0.0542293056671034,7.270848,69.68369,0.1830831,0.0529515,0.5700796,-0.03491687,8.85999980196357,7
-14.20594,0.6833333,-26.94491,0.1814341905182654,0.1603055479954563,0.0048052399595199,10.90588,69.44424,0.2519504,0.07935247,0.5668461,-0.05232865,8.87999980151653,7
-14.14692,0.8833334,-26.92165,0.0254803314709768,0.6741760511168832,-0.0419147310478038,14.54012,69.20608,0.3061203,0.1056655,0.5630418,-0.06968263,8.8999998010695,7
-13.94844,0.2833333,-26.85429,0.0922981442273833,0.1610186553574113,-0.0149941543991367,3.628377,70.52228,0.1132486,0.02642015,0.5769888,-0.01746988,8.91999980062246,7
-13.88936,0.4833336,-26.83145,-0.0586005519709935,0.3581484052254315,-0.0614773746829264,7.256102,70.28201,0.2114393,0.05280558,0.5743406,-0.03491697,8.93999980017543,7
-13.8303,0.6833336,-26.80861,-0.2122498985021099,0.5729803354721333,-0.1081270505184086,10.88318,70.04586,0.2951258,0.07913033,0.571116,-0.0523241,8.95999979972839,7
-13.61287,0.2833333,-26.73413,-0.1805745142700896,0.1129294002649529,-0.0932635898947005,3.575004,72.38589,0.2012768,0.02621023,0.5901738,-0.01700263,8.97999979928136,7
-13.55444,0.4833334,-26.71204,-0.144208841731162,-0.3571224645738759,-0.075631419464905,7.149733,72.15455,0.3884073,0.05238675,0.5875558,-0.03398366,8.99999979883432,7
-13.49602,0.6833333,-26.68996,-0.2720640505781944,0.0678022488528636,-0.1113553055360654,10.72416,71.93304,0.5626914,0.07850464,0.5843639,-0.05092645,9.01999979838729,7
-13.43762,0.8833333,-26.66788,-0.1894571442453401,-0.1575886961463265,-0.0782506093760488,14.29784,71.71985,0.7248319,0.1045342,0.580602,-0.06781478,9.03999979794025,7
-13.16382,0.2833336,-26.57343,-0.0980426597287689,-0.3673677532553874,-0.0432893505619311,3.507525,73.31226,0.2715811,0.02596583,0.5966716,-0.01637057,9.05999979749322,7
-13.10652,0.4833336,-26.55144,-0.1963042982013636,0.1043912781365666,-0.0718900419270696,7.015113,73.08811,0.529824,0.05189949,0.5940917,-0.03272116,9.07999979704618,7
-13.04924,0.6833338,-26.52946,-0.2887982130387048,0.5661490678417139,-0.0991505426440397,10.52217,72.87816,0.7766588,0.07777401,0.590952,-0.04903267,9.09999979659915,7
-12.80466,0.2833333,-26.44359,-0.2119722373654653,0.1129286645570279,-0.074064313667602,3.442662,73.02755,0.2847992,0.02562033,0.5946857,-0.01587666,9.11999979615211,7
-12.74862,0.4833332,-26.42142,-0.3487047881507017,0.3699955575261202,-0.1217186990792953,6.884976,72.80496,0.5568987,0.05120791,0.592141,-0.03172999,9.13999979570508,7
-12.6926,0.6833332,-26.39926,-0.485658730830881,0.6447645798229947,-0.1694731912971185,10.32729,72.59718,0.8178502,0.07674143,0.5890582,-0.04754971,9.15999979525805,7
-12.63659,0.883333,-26.3771,-0.6106466911819819,0.8849650644580707,-0.2131589703983678,13.76951,72.40308,1.069235,0.1021976,0.5854404,-0.06332193,9.17999979481101,7
-12.43002,0.2833335,-26.30643,-0.5007084052725883,0.1845747554171761,-0.1789310673358208,3.394548,71.43906,0.1827892,0.02497778,0.5835227,-0.0159974,9.19999979436398,7
-12.37485,0.4833337,-26.28467,-0.379606408015098,-0.4244275660048695,-0.1396369287805505,6.788421,71.20798,0.3520573,0.04992289,0.5810077,-0.03197451,9.21999979391694,7
-12.31969,0.6833336,-26.26292,-0.4594800892728283,-0.0393333158519743,-0.1659107009890128,10.18201,70.98528,0.5089102,0.07481712,0.5779813,-0.04791897,9.23999979346991,7
-12.09538,0.2833332,-26.18503,-0.3475261657586088,-0.3050418468405711,-0.129328245074852,3.341474,69.83137,0.09999732,0.02440681,0.572106,-0.01597261,9.25999979302287,7
-12.04122,0.4833332,-26.1634,-0.2338955364387285,-0.5556266781896586,-0.092046853563307,6.681942,69.59355,0.1863566,0.04878314,0.5696189,-0.03192406,9.27999979257584,7
-11.98707,0.6833331,-26.14179,-0.296243068484971,-0.125160835074468,-0.1128747928667692,10.0218,69.35905,0.2593817,0.07311098,0.5666471,-0.04784379,9.2999997921288,7
-11.74483,0.2833332,-26.05742,-0.1490675352819011,-0.345498479014486,-0.0643921371049174,3.291034,68.09225,359.9719,0.02365629,0.559635,-0.01627986,9.31999979168177,7
-11.69134,0.4833332,-26.03658,-0.0057976206397505,-0.5507123950889001,-0.0178440490743128,6.580935,67.84397,359.9295,0.04728596,0.5571727,-0.0325413,9.33999979123473,7
-11.63785,0.6833332,-26.01573,-0.0697542413141754,-0.0748759281073258,-0.0411868201450822,9.869287,67.59137,359.8721,0.07086563,0.5542508,-0.04877106,9.3599997907877,7
-11.58438,0.8833332,-25.9949,-0.1379467075605198,0.3904712870051394,-0.0663646271169469,13.15643,67.33266,359.7991,0.09437984,0.5508721,-0.06495615,9.37999979034066,7
-11.53093,0.9766706,-25.97406,-0.0392869469945225,-0.0596472459523153,-0.039313374104843,16.44225,67.0659,359.7096,0.1178092,0.5470399,-0.08108272,9.39999978989363,7
-11.28697,0.2833335,-25.89101,0.0599966241988205,-0.520254870134071,-0.0128877820973869,3.234061,65.13323,359.8381,0.02302141,0.5380985,-0.01638006,9.41999978944659,7
-11.23455,0.4833336,-25.86995,0.0053628630019559,-0.0863740888810701,-0.0357796238849132,6.466423,64.87488,359.6613,0.04601759,0.5356629,-0.03274214,9.43999978899956,7
-11.18214,0.6833336,-25.8489,-0.0422771950532165,0.3370174831904339,-0.0563961462558459,9.697008,64.60459,359.4684,0.06897011,0.5327997,-0.04907341,9.45999978855252,7
-10.96642,0.2833332,-25.77426,0.1491078262992395,-0.1550576495331984,0.000597147433222,3.284433,63.84347,359.7871,0.02334233,0.5285874,-0.01672935,9.47999978810549,7
-10.91329,0.4833332,-25.75244,0.1544235412644017,0.0626667224797601,-0.0032289780823191,6.566932,63.58119,359.5589,0.04665857,0.5261349,-0.03343991,9.49999978765845,7
-10.86017,0.6833332,-25.73062,0.1559462214540046,0.2976054328260191,-0.0076504738215348,9.847387,63.30373,359.3137,0.06992948,0.5232485,-0.05011802,9.51999978721142,7
-10.62271,0.2833331,-25.64857,0.3560870879602342,-0.1428260184482538,0.054718679935803,3.534784,65.44745,359.8071,0.02503742,0.5403745,-0.01808809,9.53999978676438,7
-10.56511,0.4833331,-25.62612,0.5536511899435066,-0.5937465076308708,0.1176511620723523,7.067684,65.18613,359.5978,0.05004369,0.5378236,-0.03615394,9.55999978631735,7
-10.50754,0.683333,-25.60368,0.5037361792367365,-0.1501788997749498,0.0989026321814883,10.60055,64.90935,359.3695,0.07500675,0.5347585,-0.05419368,9.57999978587031,7
-10.44999,0.883333,-25.58125,0.4500819018507931,0.2828996409011226,0.0800672112205695,14.13127,64.61454,359.1206,0.09989077,0.5311831,-0.07217669,9.59999978542328,7
-10.25103,0.2833332,-25.51488,0.5550550243363634,-0.1994881703917616,0.1130916633816454,3.56416,67.08731,359.8664,0.02527512,0.5523348,-0.01815545,9.61999978497624,7
-10.19279,0.4833332,-25.49295,0.4377892347113103,0.0279235146886595,0.0722440093707881,7.12689,66.83234,359.7163,0.05051833,0.5497783,-0.03629146,9.63999978452921,7
-10.13457,0.6833331,-25.47102,0.3122411728159653,0.2725496887286704,0.0296274765457731,10.68789,66.56562,359.5487,0.07570508,0.5466892,-0.05438725,9.65999978408217,7
-10.07636,0.883333,-25.44909,0.3620721368415758,-0.1581939353102088,0.0441215238017775,14.24704,66.28471,359.3617,0.100811,0.5430709,-0.07242516,9.67999978363514,7
-9.820672,0.2833333,-25.36187,0.4077886597351501,-0.599426472766416,0.0581448399498008,3.587996,68.97521,0.03378452,0.02597083,0.5659428,-0.01748347,9.6999997831881,7
-9.762398,0.4833332,-25.33897,0.282347115628383,-0.1461711206110348,0.0178825115060696,7.175303,68.737,0.05310202,0.05191232,0.5633829,-0.03494289,9.71999978274107,7
-9.70414,0.683333,-25.31608,0.1603406811242091,0.2965950375213091,-0.0202522140822658,10.76163,68.49787,0.05742345,0.07779516,0.5602707,-0.05236316,9.73999978229403,7
-9.476766,0.2833334,-25.23817,0.2866015459925961,-0.1761049363434226,0.0234722277989227,3.567861,69.82828,0.07473063,0.02590035,0.5720541,-0.01728293,9.759999781847,7
-9.418735,0.4833335,-25.2156,0.2104990722018263,0.0609948071824364,0.0010032895704981,7.134845,69.59458,0.1349258,0.05176669,0.5695084,-0.03454407,9.77999978139997,7
-9.36072,0.6833336,-25.19304,0.1271465735826318,0.3153088893029508,-0.0232745231511195,10.70103,69.36264,0.1808911,0.07757513,0.5664104,-0.05176689,9.79999978095293,7
-9.112519,0.2833334,-25.10727,0.2509070446795984,-0.1057470688422852,0.0207653279125601,3.646688,70.45167,0.1029681,0.02650966,0.5764851,-0.01761898,9.8199997805059,7
-9.053094,0.4833334,-25.08441,0.1438099512703319,0.182995933177103,-0.0122322746116907,7.29275,70.22151,0.1914495,0.05298497,0.5739067,-0.03521512,9.83999978005886,7
-8.993686,0.6833333,-25.06155,0.0210086385826464,0.4889532897336618,-0.0499467885740934,10.9381,69.99495,0.2659145,0.0793988,0.5707468,-0.05277055,9.85999977961183,7
-8.934299,0.8833331,-25.0387,-0.1037748812113852,0.7598546822209955,-0.0878591988212207,14.5834,69.7702,0.3264448,0.105729,0.5670084,-0.07027195,9.87999977916479,7
-8.725945,0.2833336,-24.96888,-0.0540334287523478,0.0896772046406969,-0.0689023533834856,3.618818,71.23815,0.1240968,0.02629782,0.5820751,-0.01750911,9.89999977871776,7
-8.66681,0.4833336,-24.94665,0.000600930942145,-0.489600839290962,-0.0468465702573617,7.237081,71.01091,0.2340414,0.05256188,0.5795165,-0.03499568,9.91999977827072,7
-8.607692,0.6833335,-24.92443,-0.1539185494190293,-0.0752701191073832,-0.0916689636560512,10.85469,70.78867,0.330465,0.07876552,0.5763792,-0.05244222,9.93999977782369,7
-8.54859,0.8833336,-24.90221,-0.299385282701607,0.3280835529855495,-0.132852508191366,14.47145,70.56972,0.413537,0.1048805,0.5726671,-0.06983218,9.95999977737665,7
-8.283486,0.2833333,-24.81322,-0.1939611612388523,-0.1845166547898727,-0.0930930311059974,3.551621,73.47231,0.242041,0.02609707,0.5977899,-0.0168434,9.97999977692962,7
-8.225243,0.4833333,-24.79166,-0.2719054739421871,0.0121949735770049,-0.1130017667337099,7.103113,73.2569,0.4710752,0.05216105,0.5952681,-0.03366577,9.99999977648258,7
-8.167016,0.6833333,-24.77012,-0.3461451091286989,0.2256332727283085,-0.132012642491933,10.65436,73.05404,0.6886977,0.07816669,0.5921719,-0.05045063,10.0199997760355,7
-7.93095,0.2833333,-24.68951,-0.2085632456141093,-0.2367867087330765,-0.0839239062717744,3.484969,73.70049,0.2767421,0.02577979,0.5993877,-0.01630442,10.0399997755885,7
-7.873911,0.4833332,-24.66793,-0.2820122426295208,0.0101046160116275,-0.1064885954275531,6.969954,73.48859,0.5409908,0.05152785,0.5969019,-0.03258898,10.0599997751415,7
-7.816885,0.6833332,-24.64635,-0.3618874649971877,0.2737225351386432,-0.1319626021565767,10.45437,73.29129,0.7946941,0.07721769,0.5938609,-0.04883497,10.0799997746944,7
-7.759875,0.8833331,-24.62477,-0.4354883323398129,0.5017965176489207,-0.1561991647061553,13.9386,73.1075,1.039371,0.1028282,0.5902677,-0.06503064,10.0999997742474,7
-7.562654,0.2833333,-24.55852,-0.3390823827321272,-0.2116961018371979,-0.1278851337236268,3.428395,73.14124,0.2656879,0.02540531,0.5954892,-0.0159618,10.1199997738004,7
-7.506713,0.4833331,-24.53685,-0.3981741445457487,-0.0024395635760287,-0.1481623505610265,6.856402,72.92893,0.5192458,0.05077856,0.5930367,-0.03190122,10.1399997733533,7
-7.450789,0.683333,-24.51518,-0.4500863378701476,0.2235435599201096,-0.1654507550375576,10.28428,72.73035,0.7621098,0.07609829,0.5900502,-0.04780735,10.1599997729063,7
-7.234754,0.2833334,-24.44221,-0.3122313616271581,-0.2263313369762459,-0.1204230603602027,3.380864,71.56097,0.1669011,0.02478289,0.5843915,-0.01606661,10.1799997724593,7
-7.179676,0.4833332,-24.4209,-0.1629588073224637,-0.687182902740439,-0.0697710811360323,6.76101,71.34027,0.3209989,0.04953426,0.5819667,-0.03211268,10.1999997720122,7
-7.124613,0.6833332,-24.3996,-0.2259373293554123,-0.2540342271018192,-0.0875868518565425,10.14074,71.12707,0.4631679,0.0742349,0.5790342,-0.04812629,10.2199997715652,7
-7.069567,0.8833332,-24.37831,-0.2781304925423775,0.1681377545791028,-0.1013839585075864,13.51998,70.92007,0.594149,0.09886339,0.575597,-0.06409325,10.2399997711182,7
-6.797334,0.2833333,-24.28628,-0.0879611194230678,-0.3256441993635828,-0.0418346351498613,3.325347,69.40258,0.04161374,0.02406083,0.5690496,-0.01621978,10.2599997706711,7
-6.743241,0.4833334,-24.2653,-0.0895738739588947,-0.1101152901801699,-0.047931854879561,6.649424,69.17164,0.06987243,0.04809115,0.5666554,-0.0324189,10.2799997702241,7
-6.689163,0.6833333,-24.24433,-0.0899114824421025,0.1221400622365622,-0.0562837645840303,9.97265,68.94063,0.08475579,0.07207388,0.5637841,-0.04858629,10.2999997697771,7
-6.446925,0.2833334,-24.16175,0.1064789523965124,-0.3214629894049986,-0.0486022768946234,3.268627,67.74248,359.9259,0.02331983,0.5571169,-0.01643197,10.31999976933,7
-6.393618,0.4833333,-24.14146,0.0794223494940951,-0.0557546346552587,-0.1128697226247119,6.53597,67.50227,359.838,0.04661381,0.5547497,-0.03284574,10.339999768883,7
-6.340325,0.6833332,-24.12118,0.0423757328793281,0.2266801986104175,-0.1778729198397215,9.801644,67.25522,359.7353,0.06985984,0.5519311,-0.04922758,10.359999768436,7
-6.287046,0.8833333,-24.1009,0.0073616625196293,0.4735712030237952,-0.2395572161998131,13.06581,66.99954,359.617,0.09304124,0.5486638,-0.06556432,10.3799997679889,7
-6.081268,0.2833333,-24.03141,0.1256440428156779,-0.2211039559222282,-0.2544662044685992,3.216393,64.81956,359.8102,0.02280561,0.5357983,-0.01643984,10.3999997675419,7
-6.029039,0.4833333,-24.01063,0.0737292620992944,0.0069696673151684,-0.3190395722772585,6.431016,64.57063,359.6061,0.04558656,0.5334547,-0.03286166,10.4199997670949,7
-5.976825,0.6833331,-23.98986,0.0229258681727357,0.2517697115709002,-0.3784878828061018,9.643765,64.30838,359.3864,0.0683247,0.5306894,-0.04925264,10.4399997666478,7
-5.924623,0.883333,-23.96909,-0.0146755166482952,0.4610257627577057,-0.4288032571416522,12.85424,64.03086,359.1496,0.09100161,0.5275055,-0.06559576,10.4599997662008,7
-5.658761,0.2833333,-23.87998,0.161312056900674,-0.2712848609692989,-0.3970872674076204,3.399908,64.98531,359.7954,0.02406298,0.5369989,-0.01744113,10.4799997657537,7
-5.603412,0.4833334,-23.85823,0.1032570569616173,-0.0808459228105806,-0.4356248682244192,6.797969,64.73492,359.5757,0.04809789,0.5345872,-0.03486195,10.4999997653067,7
-5.548077,0.6833335,-23.83649,0.0441544054510334,0.1263195901289962,-0.4685780494969087,10.19407,64.46932,359.3389,0.07208337,0.5317035,-0.05224729,10.5199997648597,7
-5.310471,0.2833334,-23.75666,0.1545088555038738,-0.3423729421524274,-0.4299321005513334,3.533812,66.81178,359.8365,0.02495408,0.550341,-0.01816666,10.5399997644126,7
-5.252602,0.4833333,-23.73513,0.0541307242803643,-0.101754187306508,-0.4548485635081611,7.06674,66.56503,359.6569,0.04988063,0.5478764,-0.03631886,10.5599997639656,7
-5.194751,0.6833333,-23.7136,-0.0534731712692031,0.1555912485165901,-0.4766491531199079,10.59806,66.30488,359.4601,0.07475396,0.5448895,-0.05443229,10.5799997635186,7
-5.136917,0.8833332,-23.69207,-0.1558339504139989,0.3773926070280683,-0.4916646948953733,14.12742,66.02895,359.2443,0.09954852,0.5413837,-0.0724887,10.5999997630715,7
-4.937573,0.2833333,-23.62634,-0.1254493001824128,-0.3423724447110705,-0.4463357824885783,3.576951,68.29357,359.9296,0.02548442,0.5610573,-0.01802687,10.6199997626245,7
-4.879082,0.4833333,-23.60452,-0.2484048588935907,-0.1393883737241826,-0.445527514333726,7.152908,68.05635,359.8442,0.0509391,0.5585804,-0.03603267,10.6399997621775,7
-4.820608,0.6833333,-23.5827,-0.361332337867807,0.0803224875724425,-0.4381159343171958,10.72745,67.8116,359.743,0.07633662,0.5555592,-0.05399811,10.6599997617304,7
-4.6028,0.2833333,-23.50918,-0.4516159412946925,0.2644895019834332,-0.4205492153218131,3.572213,69.52409,0.06172012,0.02591262,0.5698786,-0.01732899,10.6799997612834,7
-4.544743,0.4833333,-23.48647,-0.5400524186433118,0.2273773067424925,-0.3775730437212132,7.143603,69.30006,0.1099967,0.05179461,0.5674084,-0.03463291,10.6999997608364,7
-4.486702,0.6833333,-23.46378,-0.6227539851915971,0.2357405981838893,-0.331024929555415,10.71413,69.0771,0.144547,0.07761864,0.5643868,-0.05189812,10.7199997603893,7
-4.428679,0.8833333,-23.44109,-0.6868269435476908,0.2362634333556917,-0.2774036348836297,14.28373,68.85349,0.1652344,0.1033595,0.5608172,-0.06910802,10.7399997599423,7
-4.165276,0.2833333,-23.35705,-0.5854940263460395,-0.4646844443730555,-0.1403785781265725,3.603356,74.61076,0.1734467,0.02592479,0.6057249,-0.01785127,10.7599997594953,7
-4.1054,0.4833333,-23.3376,-0.7181721425853156,-0.242883074623412,-0.0818802150658228,7.206313,74.39822,0.3337202,0.05181593,0.6032434,-0.03568026,10.7799997590482,7
-4.045547,0.6833333,-23.31815,-0.8393568640791944,-0.0043552571974538,-0.0226467190549151,10.80924,74.19378,0.4802927,0.07764255,0.6001631,-0.05348251,10.7999997586012,7
-3.814159,0.2833332,-23.28562,-0.7803393691276947,-0.4416853853299904,0.1330612941937801,3.632269,74.5339,0.1165925,0.02583718,0.6051993,-0.01838125,10.8199997581542,7
-3.753573,0.4833331,-23.26689,-0.93095886395033,-0.1697043529170205,0.2132771541227356,7.263906,74.31672,0.2195822,0.05164068,0.6027091,-0.03673874,10.8399997577071,7
-3.693004,0.683333,-23.24816,-1.076799594727465,0.1190032338912908,0.2879842038511526,10.89485,74.1042,0.3095786,0.0773845,0.5996129,-0.05505403,10.8599997572601,7
-3.632455,0.883333,-23.22943,-1.2050640653923963,0.3721667496604474,0.3607125782197151,14.52534,73.89464,0.3865333,0.1030428,0.5959138,-0.07331301,10.879999756813,7
-3.441466,0.2833333,-23.17377,-1.302975026874277,0.4236863695838869,0.4350371120971523,3.589538,75.00776,0.1608811,0.02570045,0.6084809,-0.01795454,10.899999756366,7
-3.381663,0.4833333,-23.15497,-1.3907397240449104,0.355803819234284,0.5520584227984671,7.178607,74.79559,0.3087016,0.05136791,0.6060177,-0.03588626,10.919999755919,7
-3.321877,0.6833332,-23.13618,-1.4611505069357722,0.3338845146764656,0.6614011381139235,10.76713,74.59094,0.4444402,0.07697715,0.6029587,-0.05377738,10.9399997554719,7
-3.262107,0.8833331,-23.11739,-1.5013154502135548,0.3046126330065262,0.7665943126261467,14.35483,74.39243,0.5689661,0.1025021,0.5993078,-0.07160832,10.9599997550249,7
-3.025918,0.2833333,-23.03402,-1.358931748605236,-0.4256418289814719,0.9526132572140183,3.522233,74.88931,0.2312232,0.02562593,0.6076571,-0.01708386,10.9799997545779,7
-2.967615,0.4833332,-23.0142,-1.4294812859238366,-0.2326594834452867,1.0522648304703317,7.044258,74.68433,0.4502344,0.0512201,0.6052314,-0.03414619,10.9999997541308,7
-2.909328,0.6833332,-22.99439,-1.4768524257876612,-0.022462797223625,1.140684569919152,10.56587,74.49133,0.6585714,0.07675766,0.6022316,-0.05116985,11.0199997536838,7
-2.702772,0.2833333,-22.91638,-1.3342469669132928,-0.4876362974510081,1.305907373118746,3.457389,73.66411,0.2562913,0.0254855,0.5991431,-0.01629479,11.0399997532368,7
-2.646111,0.4833333,-22.89522,-1.3822307558135123,-0.243010545582768,1.3865165079192143,6.914189,73.46182,0.5015574,0.0509409,0.596752,-0.03256167,11.0599997527897,7
-2.589467,0.6833333,-22.87406,-1.4181637102144713,0.0188297455119008,1.4482938632735944,10.37081,73.27293,0.7366404,0.0763423,0.593815,-0.04879397,11.0799997523427,7
-2.532838,0.8833332,-22.85291,-1.4312154800080568,0.2456139242632311,1.4948415505632615,13.82718,73.09637,0.9629911,0.1016664,0.5903351,-0.06497704,11.0999997518957,7
-2.368438,0.2833334,-22.78502,-1.2890186442055644,-0.4686806752311484,1.5900219275035532,3.406693,71.31866,0.1871975,0.02510307,0.5826669,-0.01600167,11.1199997514486,7
-2.313142,0.4833334,-22.76298,-1.2862147784938658,-0.2597381603732413,1.6171451047860934,6.812661,71.11076,0.3628706,0.05017652,0.5803062,-0.03197831,11.1399997510016,7
-2.257862,0.6833334,-22.74095,-1.2620308799388396,-0.0335812103944093,1.6268445578619044,10.21826,70.9118,0.527519,0.0751982,0.5774314,-0.04792207,11.1599997505546,7
-2.202597,0.8833334,-22.71893,-1.2060089664588258,0.1575195231355794,1.622940374998585,13.62342,70.72062,0.6820503,0.1001458,0.5740454,-0.06381878,11.1799997501075,7
-1.998529,0.2833333,-22.62825,-1.092373668001034,0.1278294890377609,1.6187471795782216,3.351223,66.94016,0.05257469,0.02464481,0.5512544,-0.01574377,11.1999997496605,7
-1.945055,0.4833332,-22.60459,-0.971187638637204,0.144102597148929,1.5887612142196268,6.701237,66.72107,0.09339806,0.04926307,0.5489255,-0.03146017,11.2199997492135,7
-1.891597,0.6833333,-22.58094,-0.8319610211182593,0.1530230107134839,1.5372818619561135,10.05039,66.50272,0.1216014,0.07383192,0.5461276,-0.04714479,11.2399997487664,7
-1.712699,0.2833333,-22.48907,-0.4769276995638369,-0.539039301177899,1.5131184781701243,3.292455,63.27578,359.9261,0.02412033,0.5243482,-0.01561829,11.2599997483194,7
-1.660776,0.4833333,-22.46448,-0.3492555708859822,-0.3078643786689804,1.39501407820989,6.583619,63.04627,359.8389,0.04821362,0.5220484,-0.03121886,11.2799997478724,7
-1.608863,0.6833333,-22.4399,-0.2220232983352007,-0.0594750082328493,1.256856754322417,9.873073,62.81008,359.7383,0.07226022,0.5193182,-0.04678235,11.2999997474253,7
-1.410788,0.2833334,-22.32887,0.1198038192839391,-0.4864559160676862,1.1564225341901526,3.238493,59.35947,359.8389,0.02385432,0.4949877,-0.01521271,11.3199997469783,7
-1.360707,0.4833334,-22.30257,0.2506519959984232,-0.2036375297291124,1.021357927796018,6.475355,59.12335,359.6643,0.04768267,0.4927145,-0.03040828,11.3399997465312,7
-1.31064,0.6833333,-22.27627,0.3624444672853018,0.0963954384363869,0.8720453290264558,9.710527,58.87554,359.4748,0.07146593,0.4900471,-0.04557494,11.3599997460842,7
-1.260582,0.8833331,-22.24999,0.4648332141111349,0.361372457429764,0.7141761639439395,12.94366,58.61442,359.27,0.09518779,0.4869891,-0.06069127,11.3799997456372,7
-1.210539,0.9766705,-22.22371,0.5674729154737864,0.4251932643301728,0.5534554402407466,16.17487,58.33764,359.047,0.1188262,0.4835423,-0.07575473,11.3999997451901,7
-1.019845,0.2833333,-22.10694,0.7275102041918473,0.3700995857556967,0.396859664049245,3.26338,55.27842,359.7387,0.0241676,0.4637707,-0.01522883,11.4199997447431,7
-0.9703962,0.4833333,-22.07833,0.8651105017314356,0.3614569311612015,0.2359674232632045,6.524721,55.03467,359.4631,0.0483086,0.4614996,-0.03044053,11.4399997442961,7
-0.9209617,0.6833332,-22.04972,0.99035645740772,0.3459495838391089,0.0768855292574173,9.783895,54.77327,359.1714,0.07240336,0.4588526,-0.04562264,11.459999743849,7
-0.7408946,0.2833333,-21.94482,1.2862783384799907,-0.3700524732682134,-0.0325940042105514,3.52863,56.37418,359.7851,0.02625149,0.4721783,-0.01619525,11.479999743402,7
-0.6874439,0.4833332,-21.91393,1.3566055333654543,-0.1623296260741814,-0.2116009161190355,7.055423,56.13336,359.555,0.05247099,0.4698146,-0.03237071,11.499999742955,7
-0.6340206,0.6833332,-21.88305,1.4014488042209237,0.0630955657151645,-0.3863525090639292,10.58219,55.87603,359.3075,0.0786477,0.4670036,-0.04852019,11.5199997425079,7
-0.4350709,0.2833334,-21.77279,1.625321931304518,-0.3863613973313072,-0.5013206937252832,3.562871,58.0493,359.8611,0.02659481,0.484984,-0.01614244,11.5399997420609,7
-0.380974,0.4833334,-21.74206,1.642128688898081,-0.1255315286349157,-0.6765272059383491,7.124389,57.81604,359.7072,0.05315711,0.4826083,-0.03226735,11.5599997416139,7
-0.3268924,0.6833334,-21.71133,1.6225939048137228,0.1530006723732133,-0.8454824222774633,10.68423,57.57099,359.5371,0.07966021,0.479766,-0.04835647,11.5799997411668,7
-0.2728261,0.8833334,-21.68061,1.5774996788289517,0.3969645536005993,-1.0023743285319604,14.24227,57.31188,359.349,0.1060783,0.4764601,-0.06439432,11.5999997407198,7
-0.1048745,0.2833334,-21.59348,1.773640550239881,-0.2996622184144557,-1.0753169947130985,3.592471,61.0392,0.03663805,0.02716468,0.5075749,-0.01564277,11.6199997402728,7
-0.05027611,0.4833334,-21.56268,1.804863905606371,-0.0725641112180189,-1.1893896455441215,7.184289,60.82331,0.05972958,0.05429653,0.5051864,-0.03126723,11.6399997398257,7
0.004306868,0.6833334,-21.53188,1.799342805734736,0.1722363021548806,-1.2898294760482507,10.77514,60.60698,0.06926966,0.08136696,0.5023021,-0.04685659,11.6599997393787,7
0.05887434,0.8833333,-21.50108,1.7688397541750265,0.3824684763307936,-1.3707966031022885,14.36498,60.38842,0.0649592,0.1083495,0.4989247,-0.06239556,11.6799997389317,7
0.307048,0.2833333,-21.40327,1.8900211289443392,-0.3478904818823986,-1.387961788479778,3.565812,65.85937,0.1579471,0.02686286,0.5433097,-0.01575672,11.6999997384846,7
0.3627593,0.4833332,-21.37543,1.8104953565772972,-0.1545242145917358,-1.4620263460880096,7.131092,65.65562,0.301991,0.0536845,0.5409272,-0.03150406,11.7199997380376,7
0.4184547,0.6833332,-21.34761,1.7031093540700075,0.056544398339651,-1.5159707337125177,10.69583,65.45921,0.4345187,0.08044621,0.5380203,-0.04721634,11.7399997375906,7
0.6496248,0.2833333,-21.27811,1.765234051507136,-0.4072693692864181,-1.499172444004703,3.643184,68.52133,0.1641594,0.02707786,0.5626361,-0.0167116,11.7599997371435,7
0.7078067,0.4833333,-21.2523,1.6503427464805824,-0.1607960784025727,-1.539552964863354,7.285898,68.31924,0.3156878,0.05412026,0.5602188,-0.03340182,11.7799997366965,7
0.765973,0.6833333,-21.2265,1.5066416489053611,0.1033796515120383,-1.5600395426584015,10.92809,68.12508,0.4556065,0.08109983,0.5572344,-0.05005388,11.7999997362494,7
1.016493,0.2833333,-21.15125,1.3468547432954687,0.3329870488396221,-1.555397491353176,3.615838,70.84556,0.1705522,0.02657131,0.5792778,-0.01707364,11.8199997358024,7
1.075164,0.4833333,-21.12787,1.2549253605391328,0.3422915490722269,-1.5615457271351971,7.231201,70.64463,0.3286413,0.05310794,0.5768747,-0.03412557,11.8399997353554,7
1.13382,0.6833333,-21.1045,1.1237142858793212,0.3980470487176581,-1.5534170997770786,10.84604,70.45202,0.4753253,0.07958339,0.5738963,-0.05113894,11.8599997349083,7
1.192456,0.8833333,-21.08113,0.9668154695231248,0.4469378310683352,-1.5263175574929342,14.46019,70.26619,0.6104651,0.1059658,0.5703455,-0.06810324,11.8799997344613,7
1.251076,0.9766704,-21.05777,0.7978409873604004,0.4356479665013176,-1.4755858134165043,18.07373,70.08604,0.735689,0.1322344,0.566227,-0.08499534,11.8999997340143,7
1.500941,0.2833333,-20.99171,0.7932970761383942,-0.4148443899768408,-1.3594030442275056,3.547688,74.38461,0.2795105,0.02613236,0.6041405,-0.01676952,11.9199997335672,7
1.559281,0.4833332,-20.97049,0.6200926265541602,-0.2424909511847758,-1.322580204787041,7.095279,74.19469,0.5476626,0.05223158,0.6017724,-0.03351817,11.9399997331202,7
1.617605,0.6833332,-20.94926,0.4422166684141011,-0.052923058193036,-1.2672446627327147,10.64265,74.02,0.8063585,0.07827239,0.5988242,-0.05022975,11.9599997326732,7
1.837976,0.2833333,-20.88896,0.4501891605290473,-0.538725317151777,-1.1488502744985103,3.482454,75.4398,0.3027719,0.0256509,0.6114537,-0.01650079,11.9799997322261,7
1.895488,0.4833333,-20.86868,0.3041623477446644,-0.3147286086280181,-1.1017508019083166,6.964893,75.25223,0.5946008,0.05127027,0.609121,-0.03298128,11.9999997317791,7
1.952986,0.6833332,-20.84841,0.1520476658980065,-0.0735173125275706,-1.0437553773234072,10.44681,75.08108,0.8771475,0.07682971,0.6062219,-0.0494265,12.0199997313321,7
2.192466,0.2833334,-20.78172,0.0066980060729289,0.132637812338051,-0.9716893404588092,3.427076,75.50946,0.2847857,0.02516292,0.6119482,-0.01634464,12.039999730885,7
2.249148,0.4833333,-20.76206,-0.0565937759815931,0.1180020808901751,-0.92004925626836,6.853725,75.3205,0.5584862,0.05029208,0.6096476,-0.03266905,12.059999730438,7
2.305813,0.6833333,-20.7424,-0.1360964565424014,0.1493296020292545,-0.8658838862016935,10.28024,75.14663,0.8231319,0.07536868,0.6067982,-0.04895921,12.079999729991,7
2.362462,0.8833332,-20.72274,-0.2186438242483186,0.173304418428964,-0.8063579713363929,13.70652,74.98704,1.080413,0.1003702,0.6034033,-0.06520059,12.0999997295439,7
2.658987,0.2833334,-20.64117,-0.0860003645742111,-0.503703394623695,-0.6874993945239822,3.376408,73.98261,0.1663475,0.0244039,0.6013979,-0.01656718,12.1199997290969,7
2.714841,0.4833334,-20.62223,-0.0920613375399339,-0.2574739973205023,-0.6310764683143049,6.752006,73.78362,0.3209604,0.0487754,0.5991298,-0.03311464,12.1399997286499,7
2.770679,0.6833334,-20.6033,-0.1021764055822913,0.0059697171464192,-0.5744676767571164,10.12715,73.59232,0.4650239,0.07309751,0.5963407,-0.04962834,12.1599997282028,7
2.826501,0.8833334,-20.58437,-0.1026184656168016,0.2343573229289379,-0.5152427618274231,13.50176,73.40758,0.599244,0.09734873,0.5930333,-0.0660942,12.1799997277558,7
3.036823,0.2833333,-20.52936,-0.0796338753220951,0.2615888885014654,-0.4510252693151422,3.318464,72.52235,0.04565077,0.0235828,0.5912097,-0.01680484,12.1999997273088,7
3.091837,0.4833333,-20.51132,-0.0450737013831794,0.1699061660946491,-0.4136433441213434,6.636084,72.31347,0.07920657,0.04713848,0.5889747,-0.03359087,12.2199997268617,7
3.146839,0.6833332,-20.49329,-0.0109104398231671,0.1246745851023087,-0.3784041366821782,9.952422,72.10494,0.1004933,0.07064329,0.5862459,-0.05034364,12.2399997264147,7
3.375376,0.2833333,-20.43297,0.0363336965541192,0.0725782025725176,-0.3427693980262276,3.266784,71.19402,359.9331,0.02283811,0.5818574,-0.01706607,12.2599997259676,7
3.429734,0.4833333,-20.41581,0.0733550698929681,0.0402748765977144,-0.3149951649657581,6.532314,70.97606,359.8537,0.04565068,0.5796487,-0.03411317,12.2799997255206,7
3.484079,0.6833334,-20.39865,0.102586273404797,0.054422798233714,-0.290688159144608,9.796252,70.75191,359.7608,0.06841576,0.5769689,-0.05112788,12.2999997250736,7
3.538409,0.8833333,-20.3815,0.1371575181580979,0.0617058911515767,-0.2671649501513116,13.05885,70.51994,359.6537,0.09111819,0.5738207,-0.06809634,12.3199997246265,7
3.823873,0.2833334,-20.30563,0.154058166661283,0.0887821334917662,-0.2558673077271436,3.211141,68.0611,359.7926,0.02220762,0.5594562,-0.01717987,12.3399997241795,7
3.877219,0.4833333,-20.28815,0.1513086244641019,0.1623093966757041,-0.2502722598386349,6.420515,67.83224,359.5721,0.04439127,0.5572727,-0.03434097,12.3599997237325,7
3.93055,0.6833333,-20.27067,0.142044510981214,0.2289719506668245,-0.2474115364491069,9.628014,67.5893,359.3369,0.06653336,0.5546502,-0.05146973,12.3799997232854,7
3.983869,0.8833332,-20.2532,0.1394233016846797,0.2354536124171554,-0.2443744348160805,12.83324,67.33042,359.0856,0.08861564,0.5515913,-0.06854945,12.3999997228384,7
4.189789,0.2833333,-20.20086,0.4135750988331024,-0.5972667838110104,-0.1774219992699883,3.452138,68.76435,359.7927,0.02383718,0.5644981,-0.01850225,12.4199997223914,7
4.247326,0.4833333,-20.18251,0.4591638629308594,-0.4071416167630593,-0.1631792775078651,6.90249,68.53487,359.5711,0.04764596,0.5622175,-0.03698252,12.4399997219443,7
4.304846,0.6833333,-20.16417,0.4941815817745167,-0.1998018806944632,-0.1506091347918747,10.35131,68.2899,359.3334,0.07140613,0.5594249,-0.0554274,12.4599997214973,7
4.528397,0.2833333,-20.1076,0.5322498540761229,-0.0275182271749993,-0.1365753296878011,3.549346,70.81016,359.8404,0.02443536,0.5791101,-0.01907682,12.4799997210503,7
4.58785,0.4833332,-20.08998,0.5556967132261192,-0.0760253402379316,-0.1281145230139344,7.09778,70.5851,359.6659,0.04884234,0.5767884,-0.03813787,12.4999997206032,7
4.647287,0.6833332,-20.07238,0.567139861167405,-0.0785693228527482,-0.1203932835747814,10.64447,70.34708,359.4756,0.07319524,0.5739123,-0.0571568,12.5199997201562,7
4.706707,0.8833331,-20.05478,0.5804311753708449,-0.0884657844852976,-0.110248772940352,14.18932,70.09387,359.2676,0.0974706,0.5704852,-0.07611535,12.5399997197092,7
4.988317,0.2833332,-19.98311,0.3909473661722149,0.561256968011936,-0.1502625026703228,3.586585,72.96793,359.9673,0.02499103,0.5943137,-0.01883689,12.5599997192621,7
5.048358,0.4833332,-19.96544,0.4334933041409758,0.3263530159231148,-0.1371331870834105,7.172287,72.75555,359.9211,0.0499521,0.5919799,-0.03765174,12.5799997188151,7
5.108382,0.6833332,-19.94777,0.4661893300113471,0.1128451590503203,-0.1245154694593644,10.75677,72.53835,359.861,0.07485697,0.5890663,-0.05642434,12.5999997183681,7
5.360514,0.2833334,-19.88213,0.5033069413519371,-0.1336279564658472,-0.1091689070317585,3.553747,73.98745,0.07271722,0.02514725,0.6014224,-0.01815136,12.619999717921,7
5.419793,0.4833334,-19.86391,0.4668850535837103,-0.147357845025043,-0.1191119408491481,7.106478,73.78567,0.1333739,0.05026323,0.5991081,-0.03627635,12.639999717474,7
5.479055,0.6833333,-19.84569,0.406645476766001,-0.115124495894391,-0.1332974612110646,10.6584,73.58595,0.1818678,0.07532353,0.5962178,-0.05436149,12.6599997170269,7
5.538301,0.8833333,-19.82748,0.3368071373663346,-0.0902439725965357,-0.1485044787060943,14.20944,73.3868,0.2182489,0.1003038,0.5927548,-0.07238919,12.6799997165799,7
5.597529,0.9766705,-19.80927,0.2715949006573765,-0.1260322191288212,-0.1615276066800532,17.75956,73.18666,0.2423568,0.1251804,0.588723,-0.09034196,12.6999997161329,7
5.850524,0.2833333,-19.74767,0.1858956226877781,-0.1691728272443469,-0.1841791607705047,3.624366,75.21039,0.1067728,0.02562134,0.6098883,-0.01855925,12.7199997156858,7
5.911243,0.4833332,-19.72984,0.0945543369717132,-0.1663502941962951,-0.2064460384940183,7.248045,75.01296,0.2012083,0.05120953,0.6075447,-0.03709466,12.7399997152388,7
5.971939,0.6833332,-19.71201,0.0119098516013149,-0.1708805501303076,-0.2249777327391697,10.87164,74.81976,0.2835484,0.0767418,0.6045928,-0.05559333,12.7599997147918,7
6.195526,0.2833332,-19.65734,-0.2560385634686835,0.4842085762023814,-0.2872416484651872,3.625212,76.01906,0.1202607,0.02556799,0.6154579,-0.01865144,12.7799997143447,7
6.256433,0.4833333,-19.64013,-0.3181034529949293,0.2546714713459228,-0.3052580074035553,7.249748,75.82354,0.2283141,0.0511026,0.6131174,-0.03727883,12.7999997138977,7
6.317323,0.6833333,-19.62294,-0.3765234294035302,0.0465303220560145,-0.3190093599038874,10.87359,75.6332,0.3248583,0.07657853,0.610163,-0.05586347,12.8199997134507,7
6.560709,0.2833333,-19.56333,-0.4167030066045623,-0.1945761188077068,-0.325162308746755,3.574095,77.90466,0.2044916,0.02537277,0.6283236,-0.01821794,12.8399997130036,7
6.620962,0.4833332,-19.54689,-0.5487293527018249,-0.2029393523159148,-0.3635222768268882,7.147818,77.71758,0.3976202,0.05071323,0.6260107,-0.03641286,12.8599997125566,7
6.681197,0.6833333,-19.53045,-0.6792132882209341,-0.1653392343587174,-0.4007405603666711,10.72106,77.54108,0.5807135,0.07599635,0.6230872,-0.05456692,12.8799997121096,7
6.741417,0.8833332,-19.51402,-0.7942732094318448,-0.1350918279360597,-0.4335901936889108,14.29353,77.37405,0.7546951,0.1011946,0.6195566,-0.07266279,12.8999997116625,7
7.042408,0.2833334,-19.44058,-0.8800190918196726,-0.1655129692808422,-0.4588389666378525,3.507134,78.92733,0.2750997,0.02514969,0.6352326,-0.01759689,12.9199997112155,7
7.101559,0.4833333,-19.42422,-0.8993118887643465,-0.2032869283564904,-0.5299040399821635,7.014124,78.74728,0.5395796,0.05026814,0.6329572,-0.03517213,12.9399997107685,7
7.160695,0.6833333,-19.40786,-0.9082297212093948,-0.1950976421630575,-0.5985990622580566,10.52044,78.58216,0.795364,0.07532923,0.6300858,-0.05270629,12.9599997103214,7
7.219814,0.8833333,-19.39151,-0.8936779820812895,-0.194261173700492,-0.6612121278036085,14.02643,78.43114,1.044106,0.1003119,0.6266215,-0.07018571,12.9799997098744,7
7.431889,0.2833334,-19.34074,-1.0418638883741806,0.4661946488026824,-0.7600083197201002,3.442164,78.73897,0.288434,0.02481428,0.6339723,-0.0171061,12.9999997094274,7
7.48983,0.4833333,-19.32417,-1.0474776334368483,0.2420241323522676,-0.9144774426378284,6.88378,78.56052,0.5667876,0.04959676,0.6317347,-0.0341876,13.0199997089803,7
7.547754,0.6833334,-19.30761,-1.029639032684548,0.0392498238480222,-1.0561994521963562,10.32522,78.39763,0.8367248,0.07432692,0.6289234,-0.05123311,13.0399997085333,7
7.605662,0.8833334,-19.29105,-0.9758781434232215,-0.1964897495720601,-1.1812611401517117,13.76638,78.2495,1.100022,0.09898239,0.6255417,-0.0682271,13.0599997080863,7
7.876,0.2833333,-19.2275,-1.0016819023724235,-0.199485981214208,-1.4465526704067742,3.388749,77.01382,0.1747795,0.0240872,0.6223008,-0.01721632,13.0799997076392,7
7.932952,0.4833333,-19.21135,-1.0151217093547729,-0.1565190722154851,-1.690582816572654,6.776657,76.82565,0.3385551,0.04814268,0.6200976,-0.03441099,13.0999997071922,7
7.989888,0.6833332,-19.19519,-1.0041862765459977,-0.1209049650051108,-1.909650405872512,10.1641,76.64584,0.4924592,0.07214901,0.6173509,-0.05157045,13.1199997067451,7
8.230231,0.2833333,-19.13865,-1.1874816861467323,0.5743283793340852,-2.1577670632757417,3.331173,75.50182,0.07393163,0.02337662,0.6119563,-0.01728508,13.1399997062981,7
8.286201,0.4833333,-19.12295,-1.154764763383465,0.3849353478689564,-2.5423254207261508,6.661158,75.30519,0.1364327,0.046723,0.6097853,-0.03454867,13.1599997058511,7
8.342155,0.6833332,-19.10726,-1.112443893671376,0.2169383807802326,-2.8894312267641435,9.990384,75.11077,0.1878434,0.07002299,0.6070991,-0.05177825,13.179999705404,7
8.398094,0.8833331,-19.09157,-1.0482736720268555,0.0159759112931618,-3.1958245504215856,13.31882,74.91727,0.2282608,0.09325701,0.6039005,-0.06895922,13.199999704957,7
8.590967,0.2833333,-19.04935,-0.7790203027546507,-0.7845805769625284,-3.588236470196754,3.279071,73.95815,359.9532,0.02261063,0.6012864,-0.01753675,13.21999970451,7
8.646199,0.4833332,-19.03444,-0.7178733554416841,-0.5627792749032401,-3.9769829702481614,6.556983,73.75184,359.8944,0.04519584,0.5991439,-0.0350541,13.2399997040629,7
8.701418,0.683333,-19.01952,-0.6476038232456727,-0.3242513902225137,-4.312690861532385,9.833369,73.54059,359.823,0.06773374,0.596511,-0.05253752,13.2599997036159,7
8.75662,0.883333,-19.00461,-0.5561433092869006,-0.1212673482457791,-4.592881483499639,13.10851,73.32288,359.7384,0.09020925,0.5933905,-0.06997298,13.2799997031689,7
8.991528,0.2833334,-18.95341,-0.6270111284029589,0.6003607956968561,-4.8595200518442425,3.22354,70.92034,359.8068,0.021932,0.5799451,-0.01769051,13.2999997027218,7
9.045803,0.4833334,-18.9383,-0.5154162120619876,0.3253128927040166,-5.211095425099519,6.445399,70.70253,359.601,0.04384009,0.5778288,-0.03536173,13.3199997022748,7
9.100063,0.6833333,-18.9232,-0.3922240411443276,0.071660843263046,-5.493470285058029,9.665497,70.47146,359.3813,0.06570689,0.5752539,-0.0529997,13.3399997018278,7
9.297491,0.2833333,-18.88246,-0.4642731937517173,0.5053316355277068,-5.75613929751062,3.375133,73.49554,359.8374,0.02274864,0.5980667,-0.01875557,13.3599997013807,7
9.354822,0.4833333,-18.86856,-0.3848808963393217,0.2944716799925159,-6.063214464297202,6.748718,73.28018,359.6619,0.04547098,0.5958885,-0.03748988,13.3799997009337,7
9.412138,0.6833333,-18.85467,-0.3011702016115656,0.1050078442405068,-6.2907007999054905,10.12066,73.05264,359.472,0.06814716,0.5931925,-0.05618658,13.3999997004867,7
9.469427,0.8833333,-18.84078,-0.2008782453515767,-0.1174212394394129,-6.438302670842546,13.49207,72.81081,359.265,0.09076113,0.5899801,-0.07484188,13.4199997000396,7
9.720124,0.2833333,-18.84072,-0.2004249569245058,-0.1071070859696058,-6.694612666538941,3.526175,83.12646,359.9812,0.02291184,0.6631359,-0.02053465,13.4399996995926,7
9.781301,0.4833333,-18.83386,-0.2120790879528584,-0.0508294583728491,-6.865911624438461,7.051803,82.92443,359.9492,0.04579479,0.660893,-0.04105182,13.4599996991456,7
9.842451,0.6833332,-18.82699,-0.2237597802588897,-0.001904753135164,-6.953306486592378,10.57718,82.71825,359.9016,0.06861772,0.6580229,-0.06154721,13.4799996986985,7
9.903584,0.8833331,-18.82012,-0.2233992040981167,-0.0136486874868451,-6.9581508423317295,14.10133,82.50644,359.8401,0.09136862,0.6545299,-0.08197857,13.4999996982515,7
10.07544,0.2833333,-18.87371,-0.1689568907432015,-0.0327452128023402,-7.079365949564775,3.564486,91.25101,0.08989733,0.0223108,0.714421,-0.02168211,13.5199996978045,7
10.13767,0.4833334,-18.87366,-0.1255900848046138,-0.0058783866524326,-7.10880965157385,7.128809,91.05973,0.1649304,0.04457781,0.7121719,-0.04335945,13.5399996973574,7
10.19987,0.6833333,-18.87361,-0.0807007894638651,0.0136356079149161,-7.049366890434513,10.69236,90.87151,0.2285644,0.06679513,0.709233,-0.06498882,13.5599996969104,7
10.39208,0.2833334,-18.96333,-0.0217323373515796,-0.0275192926229487,-6.904197943320124,3.554017,99.54572,0.2353123,0.02159367,0.7630803,-0.02234999,13.5799996964633,7
10.4539,0.4833333,-18.96972,-0.0574212500719966,-0.0760265599711086,-6.836204888333242,7.108096,99.36865,0.457076,0.04314267,0.7608588,-0.04469077,13.5999996960163,7
10.5157,0.6833332,-18.97611,-0.0997500065383647,-0.0785706913827446,-6.683376773052292,10.66181,99.20403,0.6697719,0.06464373,0.7579023,-0.06698203,13.6199996955693,7
10.57749,0.8833332,-18.9825,-0.1363982301238895,-0.0884674035654406,-6.450266597196723,14.21506,99.05092,0.8747998,0.08607581,0.7542139,-0.08920221,13.6399996951222,7
10.82041,0.2833335,-19.13987,-0.3752727572933167,0.5612551289599139,-6.190132915276916,3.579808,108.6993,0.2953073,0.02029769,0.812143,-0.02387958,13.6599996946752,7
10.88119,0.4833334,-19.15522,-0.4213735105119109,0.3263511998701331,-6.004495371434992,7.159536,108.5291,0.5802812,0.04056854,0.8099436,-0.04772999,13.6799996942282,7
10.94196,0.6833332,-19.17055,-0.4741257472557088,0.1128435823093189,-5.742608683523244,10.73991,108.3752,0.8549308,0.06078242,0.8069471,-0.07154411,13.6999996937811,7
11.16293,0.2833334,-19.30749,-0.5210467229028843,-0.1336293033035663,-5.41074866230138,3.615094,113.3824,0.2384056,0.01905935,0.8352695,-0.02521873,13.7199996933341,7
11.22243,0.4833333,-19.32887,-0.5516675210044948,-0.1473588636037377,-5.165364177593112,7.229903,113.2076,0.4660731,0.03809347,0.8330753,-0.05040557,13.7399996928871,7
11.28191,0.6833332,-19.35025,-0.5900149537366737,-0.1151252997282595,-4.851269163680392,10.84433,113.0459,0.6846746,0.05708333,0.8300483,-0.07553519,13.75999969244,7
11.34138,0.8833333,-19.37161,-0.6234603057527348,-0.0902439805242351,-4.476138060440903,14.45886,112.8958,0.8941063,0.07600132,0.8261908,-0.1005941,13.779999691993,7
11.40083,0.9766705,-19.39296,-0.6394153478566853,-0.1260314199121832,-4.047867448857993,18.0729,112.7568,1.096206,0.0948295,0.8215078,-0.1255511,13.799999691546,7
11.61022,0.2833335,-19.54587,-0.6242147770623667,-0.1691721263834509,-3.7747622735512607,3.563774,119.4697,0.3177699,0.01806573,0.8632377,-0.02545957,13.8199996910989,7
11.66702,0.4833333,-19.57178,-0.6145311880970539,-0.1663495972556892,-3.452785941654234,7.127507,119.303,0.6255953,0.03610804,0.8611152,-0.05088752,13.8399996906519,7
11.72379,0.6833333,-19.59769,-0.5978312654575468,-0.1708796692845017,-3.091362719244742,10.691,119.1544,0.9257447,0.05410913,0.8581529,-0.07625848,13.8599996902049,7
11.91161,0.2833331,-19.72786,-0.7335017989830561,0.4842097097762751,-2.730926538967104,3.500083,122.3817,0.3759914,0.01759028,0.8757679,-0.02517882,13.8799996897578,7
11.96662,0.4833332,-19.75516,-0.721951173217505,0.2546725011627824,-2.457950602583807,7.000206,122.2205,0.7426386,0.03515797,0.8737082,-0.05032639,13.8999996893108,7
12.02161,0.6833331,-19.78245,-0.7050209448127056,0.0465311583847391,-2.167695025752181,10.49999,122.0807,1.102191,0.05268276,0.8708238,-0.07541899,13.9199996888638,7
12.22688,0.2833332,-19.92237,-0.6710349280548318,-0.194575339453875,-1.8706622068190484,3.446816,123.8002,0.3455016,0.01682385,0.881682,-0.02511004,13.9399996884167,7
12.28015,0.4833333,-19.95092,-0.8405668819104157,0.4373754606339464,-1.5610014687937586,6.893335,123.6363,0.6807348,0.03361899,0.8796745,-0.05019105,13.9599996879697,7
12.3334,0.6833331,-19.97945,-0.813676730203893,0.184699698660068,-1.394355103426122,10.33978,123.4915,1.008927,0.05037857,0.8768628,-0.07521921,13.9799996875226,7
12.38664,0.8833331,-20.00798,-0.7901343788657407,-0.0465798394251245,-1.226921378121748,13.78597,123.3654,1.33232,0.06708708,0.8732501,-0.1001712,13.9999996870756,7
12.64006,0.2833333,-20.18269,-0.759079341466208,-0.3108245074810308,-1.0696792417896788,3.399029,123.6039,0.2355432,0.01582463,0.8809013,-0.02516708,14.0199996866286,7
12.69167,0.4833333,-20.21219,-0.6796862460568303,-0.3423259394326218,-0.9784002338149485,6.79743,123.4305,0.4603615,0.03162322,0.8789348,-0.05030495,14.0399996861815,7
12.74327,0.6833333,-20.24167,-0.6068532521916605,-0.3278643507913618,-0.8884592472606165,10.19551,123.2693,0.6766695,0.0473892,0.876191,-0.07539129,14.0599996857345,7
12.79485,0.8833331,-20.27115,-0.5298311400086622,-0.3207553520685021,-0.810912443343053,13.59322,123.1194,0.8858215,0.06310879,0.8726729,-0.1004039,14.0799996852875,7
12.97176,0.2833333,-20.39723,-0.5940269228211008,0.3459729884113833,-0.6492037889088493,3.342469,122.6368,0.1274197,0.0149723,0.8769112,-0.02505249,14.0999996848404,7
13.02201,0.4833332,-20.4269,-0.4352514823111306,0.1280750710441435,-0.6587746215960202,6.683925,122.4544,0.2439632,0.02992254,0.874983,-0.05007465,14.1199996843934,7
13.07225,0.6833332,-20.45656,-0.2841180478053413,-0.0684267701858201,-0.6756326565371218,10.02478,122.2775,0.3506681,0.04484279,0.8723089,-0.07504706,14.1399996839464,7
13.12248,0.8833331,-20.48621,-0.129699043628948,-0.2978939948115216,-0.7107948520394416,13.36498,122.105,0.4480724,0.0597206,0.868892,-0.09994829,14.1599996834993,7
13.34777,0.2833333,-20.64697,-0.1785777097543448,0.3456959440667943,-0.5941556216011747,3.28606,121.1719,359.9726,0.01387342,0.8707385,-0.02509361,14.1799996830523,7
13.39651,0.4833334,-20.67714,-0.0921211474487346,0.1046592798510333,-0.5869132064929161,6.571023,120.9767,359.934,0.027731,0.8688414,-0.05015912,14.1999996826053,7
13.44525,0.6833333,-20.70731,-0.0105152046362722,-0.1149808546933536,-0.5868424495979454,9.854511,120.7778,359.8831,0.04155589,0.8662293,-0.07517563,14.2199996821582,7
13.64619,0.2833335,-20.84813,-0.1155094897233564,0.3527015964293368,-0.4578989941315328,3.231403,119.1236,359.8615,0.01324258,0.8618498,-0.02492153,14.2399996817112,7
13.69421,0.4833333,-20.87776,-0.2249260981664989,0.816167438499114,-0.3320043576121669,6.461375,118.9196,359.7113,0.02647074,0.8599735,-0.049816,14.2599996812642,7
13.74222,0.6833335,-20.90738,-0.1434065934124859,0.3704394426563614,-0.3547494237082631,9.689788,118.7056,359.5484,0.03967376,0.8574116,-0.07466299,14.2799996808171,7
13.79021,0.8833334,-20.937,-0.0700155243579168,-0.0795048020952459,-0.3816576209493583,12.91631,118.48,359.3712,0.05283995,0.8541672,-0.09944085,14.2999996803701,7
14.04139,0.2833333,-21.11336,0.0060725828733207,-0.4610256408806904,-0.4222078119982342,3.339243,118.2167,359.7933,0.01341166,0.8578011,-0.0259287,14.3199996799231,7
14.09099,0.4833333,-21.14418,0.0768644119416173,-0.5106830713129523,-0.4452070174859237,6.676793,118.0071,359.574,0.02680804,0.85585,-0.05182798,14.339999679476,7
14.14058,0.6833333,-21.175,0.1340424036027059,-0.5148649174911922,-0.462565647440055,10.01256,117.7829,359.3406,0.04017774,0.853169,-0.0776758,14.359999679029,7
14.19015,0.8833333,-21.2058,0.1888056703026439,-0.526887349134386,-0.4833351047149108,13.34735,117.5422,359.0909,0.05351225,0.8497601,-0.1034577,14.379999678582,7
14.36974,0.2833334,-21.3352,0.0949687683429925,0.1202219260996638,-0.3914284930136134,3.527725,120.112,359.8268,0.01405501,0.8661255,-0.02742566,14.3999996781349,7
14.42143,0.4833332,-21.36881,0.2193105079415147,-0.1177833434682547,-0.4595174121806593,7.053976,119.9051,359.6404,0.02809242,0.8640639,-0.05481911,14.4199996776879,7
14.47311,0.6833333,-21.40241,0.3318971507263324,-0.334880370842343,-0.5217720237494632,10.57988,119.6846,359.4389,0.04210103,0.8611799,-0.08216526,14.4399996772408,7
14.52477,0.8833331,-21.436,0.2640473170337127,0.1348574858387975,-0.4523619926833042,14.104,119.4486,359.2207,0.05606574,0.8574776,-0.1094257,14.4599996767938,7
14.75223,0.2833332,-21.59926,0.1891215847669194,0.5998911113935249,-0.3788188076298802,3.572222,122.3999,359.9324,0.01449862,0.8758891,-0.0275973,14.4799996763468,7
14.80417,0.4833332,-21.63375,0.252786351108849,0.1552432374979517,-0.4099295741425521,7.143505,122.2034,359.8521,0.02897829,0.8738163,-0.05516349,14.4999996758997,7
14.85609,0.6833332,-21.66823,0.3145872979025981,-0.2941089721522404,-0.441846038841664,10.71345,122.0001,359.7586,0.0434254,0.8708937,-0.08266804,14.5199996754527,7
15.06068,0.2833333,-21.81248,0.1460831066759844,0.1568116194806432,-0.3083680874287964,3.570918,123.6415,0.06348844,0.0152015,0.8810382,-0.02720267,14.5399996750057,7
15.11311,0.4833332,-21.84615,0.1267990563358942,-0.0372862233139501,-0.2848497134609751,7.141024,123.458,0.1160713,0.03038733,0.8789772,-0.05436944,14.5599996745586,7
15.16553,0.6833332,-21.87982,0.0955622394030477,-0.2104757647618821,-0.2535887562478329,10.71025,123.2762,0.1575137,0.04553899,0.8760621,-0.08147562,14.5799996741116,7
15.21794,0.8833332,-21.91347,0.0642486893095224,-0.4171183571544283,-0.2236952052133816,14.27855,123.0947,0.1878615,0.06064193,0.8722964,-0.1084947,14.5999996736646,7
15.47185,0.2833335,-22.0937,-0.1057566509979608,0.2488085613052729,-0.0883273773855712,3.607824,124.8534,0.1046655,0.01538034,0.8859663,-0.027481,14.6199996732175,7
15.5245,0.4833334,-22.12827,-0.0631079456522378,0.0296207864275382,-0.1088477306648414,7.214952,124.6745,0.1982192,0.03074096,0.8838889,-0.05492705,14.6399996727705,7
15.57714,0.6833333,-22.16284,-0.0269223538538803,-0.1686588676111474,-0.1258174851848714,10.8217,124.5,0.2809455,0.0460659,0.880934,-0.08231483,14.6599996723235,7
15.62976,0.8833333,-22.19739,0.0152809977334698,-0.4003916340994589,-0.1486579188910042,14.42762,124.3286,0.3535154,0.06134063,0.8771055,-0.1096128,14.6799996718764,7
15.80816,0.2833333,-22.32593,-0.1342063676046123,0.2404450471913538,-0.0293852461062797,3.633005,125.2758,0.1070258,0.01539814,0.8876595,-0.02772312,14.6999996714294,7
15.86093,0.4833335,-22.3611,-0.1467191782441474,-0.0038328299101443,-0.0111835967963465,7.265256,125.098,0.2029234,0.03077602,0.8855695,-0.05541021,14.7199996709824,7
15.91369,0.6833335,-22.39627,-0.1548805182518968,-0.2272023727345337,0.0048828355821761,10.89674,124.9248,0.2883092,0.04611845,0.8825883,-0.08303359,14.7399996705353,7
15.96644,0.8833333,-22.43143,-0.3289922238920688,0.236262926679869,0.1423564607361598,14.52774,124.7548,0.3633932,0.06140986,0.8787195,-0.1105686,14.7599996700883,7
16.19301,0.2833332,-22.59488,-0.4941875937672471,0.6950241927247534,0.2737994936823149,3.580263,127.555,0.2113645,0.01545687,0.8966202,-0.02720902,14.7799996696413,7
16.24471,0.4833335,-22.63012,-0.4558449795082353,0.2441033705787626,0.2552560385644753,7.16005,127.3877,0.4126038,0.0308938,0.8945841,-0.05438301,14.7999996691942,7
16.2964,0.6833336,-22.66534,-0.4052153459421923,-0.2115218179001172,0.2282447986548561,10.73935,127.2317,0.6051242,0.04629567,0.8916713,-0.08149585,14.8199996687472,7
16.49917,0.2833333,-22.81036,-0.5738645095263344,0.2331261357080362,0.3595900856811944,3.51471,128.3501,0.2617064,0.01541391,0.899673,-0.02660961,14.8399996683002,7
16.55003,0.4833333,-22.8449,-0.5794593483327617,0.0327555682938401,0.3693790346425842,7.029143,128.1877,0.5138494,0.03080863,0.8976898,-0.05318615,14.8599996678531,7
16.60088,0.6833333,-22.87944,-0.5834379121821911,-0.1467067720849841,0.3763876784483564,10.54286,128.0396,0.7582217,0.04616842,0.8948576,-0.07970173,14.8799996674061,7
16.65172,0.8833332,-22.91396,-0.574212944982019,-0.3596223593358509,0.3719407182420085,14.05608,127.9051,0.9964831,0.06147986,0.8911794,-0.1061336,14.899999666959,7
16.90344,0.2833333,-23.09323,-0.6962835293841572,0.3000316992106526,0.4657418061662497,3.449796,128.1691,0.2880864,0.01541544,0.8989965,-0.02597535,14.919999666512,7
16.95381,0.4833332,-23.12655,-0.59679921316134,0.0745713173220458,0.3971674852913942,6.898956,128.0094,0.5672755,0.03081281,0.89706,-0.05191468,14.939999666065,7
17.00417,0.6833332,-23.15985,-0.4950759316861806,-0.1299810386856725,0.3262879026891703,10.34784,127.8655,0.839201,0.04617763,0.8943049,-0.07779904,14.9599996656179,7
17.05452,0.8833334,-23.19315,-0.3795141452881019,-0.3679861634641784,0.2446271280745016,13.79635,127.7368,1.105668,0.06149571,0.890734,-0.1036048,14.9799996651709,7
17.2309,0.2833334,-23.32021,-0.4495676267678163,0.2665781697291923,0.2993768392797982,3.396649,126.6099,0.1858045,0.01476215,0.8929949,-0.02574987,14.9999996647239,7
17.28035,0.4833334,-23.35303,-0.3812531601974314,0.0160284082571127,0.2530848507863261,6.79244,126.4414,0.3618218,0.02950487,0.8910921,-0.0514665,15.0199996642768,7
17.32978,0.6833334,-23.38583,-0.3043681100961848,-0.2136130333122615,0.202466263728855,10.18775,126.2822,0.5292207,0.0442173,0.8884037,-0.07713043,15.0399996638298,7
17.52268,0.2833335,-23.52353,-0.3910430674521628,0.2435802483545456,0.2710192320860578,3.342191,124.9839,0.1020071,0.01425834,0.8865563,-0.02545411,15.0599996633828,7
17.57142,0.4833336,-23.55558,-0.4685873972306034,0.6960691791082751,0.332944121054787,6.683288,124.8083,0.1939944,0.02849933,0.8846835,-0.05087548,15.0799996629357,7
17.62015,0.6833335,-23.58762,-0.3491661976912823,0.2388765044767344,0.2477409628684341,10.02372,124.6369,0.2763845,0.04271213,0.8820572,-0.07624637,15.0999996624887,7
17.66887,0.8833336,-23.61965,-0.2209690872070666,-0.2230205184543602,0.1552231168330209,13.36339,124.4685,0.3494748,0.05688413,0.8786803,-0.1015449,15.1199996620417,7
17.90951,0.2833334,-23.7921,-0.3147523595871924,0.2153549138666143,0.2230292000792033,3.285797,122.7815,359.953,0.01336856,0.8775503,-0.02536575,15.1399996615946,7
17.95721,0.4833333,-23.8239,-0.2530368751350806,0.0087118175860092,0.1753215074230993,6.570484,122.5937,359.8952,0.02672222,0.8757031,-0.05070337,15.1599996611476,7
18.0049,0.6833332,-23.8557,-0.1965410837852133,-0.1770229269068546,0.1304012112930301,9.853598,122.4011,359.8259,0.04004689,0.8731355,-0.07598947,15.1799996607006,7
18.05257,0.8833332,-23.88749,-0.1344676680619301,-0.3962106873230693,0.0802961039380676,13.13551,122.2024,359.7444,0.05333477,0.8698503,-0.1012057,15.1999996602535,7
18.22066,0.2833333,-24.00843,-0.2070352233859864,0.257171309481466,0.1298815288191939,3.230553,120.3259,359.8494,0.01288508,0.8671168,-0.0251052,15.2199996598065,7
18.26793,0.4833333,-24.03922,-0.066237208969806,0.0254383914085721,0.0223430359183893,6.459633,120.1301,359.6876,0.02575601,0.8652894,-0.05018298,15.2399996593595,7
18.3152,0.6833334,-24.07001,0.0687447838272916,-0.1853863226279883,-0.0819705821266971,9.687156,119.9237,359.5133,0.03860258,0.8627726,-0.07521313,15.2599996589124,7
18.36244,0.8833335,-24.10079,0.2091465352389576,-0.4296639607659744,-0.1912121800721458,12.91277,119.7051,359.3255,0.0514154,0.8595691,-0.1001724,15.2799996584654,7
18.58107,0.2833334,-24.25821,0.1575321768685782,0.1986278499205721,-0.1594952930269748,3.338588,119.1979,359.7864,0.01313439,0.8621645,-0.0260681,15.2999996580184,7
18.63007,0.4833333,-24.28997,0.2354237573033195,-0.0581949906525264,-0.2233604210810433,6.6755,118.9968,359.5608,0.02625403,0.8602606,-0.05210656,15.3199996575713,7
18.67906,0.6833333,-24.32172,0.3131117091167894,-0.2941098442862913,-0.2861833790015282,10.01064,118.7809,359.3214,0.03934746,0.8576232,-0.07809335,15.3399996571243,7
18.87433,0.2833333,-24.46232,0.2203915499354956,0.1568109415316693,-0.2241737420552922,3.527808,121.0095,359.8236,0.01381574,0.8700064,-0.02754932,15.3599996566772,7
18.92547,0.4833333,-24.49678,0.1298610474587889,0.6030273717322034,-0.1627503192753678,7.054133,120.8112,359.6345,0.02761386,0.8679886,-0.0550662,15.3799996562302,7
18.97659,0.6833332,-24.53123,0.2296150884074599,0.139561964553362,-0.2395873414572307,10.58017,120.5993,359.4308,0.04138437,0.865145,-0.08253543,15.3999996557832,7
19.0277,0.8833333,-24.56566,0.3307646745118333,-0.3286076643431963,-0.3152214790019521,14.10438,120.3718,359.211,0.05511135,0.8614791,-0.1099183,15.4199996553361,7
19.27157,0.2833332,-24.74119,0.2035676825074297,0.1034955276447794,-0.2241995811281398,3.572166,123.0279,359.9268,0.01430395,0.8785155,-0.02769924,15.4399996548891,7
19.32308,0.4833331,-24.77632,0.2254303172564995,-0.1094194561426429,-0.2423493606334616,7.143382,122.8398,359.8415,0.02858996,0.8764839,-0.05536676,15.4599996544421,7
19.37457,0.6833332,-24.81144,0.2354657218392013,-0.3014265335744877,-0.2511318228201133,10.71326,122.6446,359.7435,0.04284386,0.8735999,-0.08297241,15.479999653995,7
19.42605,0.8833331,-24.84655,0.2449581051495322,-0.5268868455947994,-0.2588898345878903,14.28178,122.4407,359.6316,0.05705195,0.869867,-0.1104897,15.499999653548,7
19.59562,0.2833335,-24.96818,0.1138919689707584,0.1202221664570536,-0.1614096320569267,3.570706,124.1194,0.05935945,0.01505523,0.8829998,-0.02728107,15.519999653101,7
19.64774,0.4833336,-25.00234,0.1930331290632274,-0.1177831322081351,-0.2167154234591315,7.140579,123.9446,0.1084142,0.03009548,0.8809792,-0.05452591,15.5399996526539,7
19.69983,0.6833335,-25.0365,0.2632568644209101,-0.3348801967814263,-0.2643868664920568,10.70959,123.7713,0.1468861,0.04510235,0.8781028,-0.0817101,15.5599996522069,7
19.75191,0.8833334,-25.07064,0.1641649780291665,0.1348573857407031,-0.1872580962610932,14.27767,123.5983,0.1747525,0.06006087,0.8743742,-0.1088071,15.5799996517599,7
19.97032,0.2833335,-25.22911,0.0607766793134132,0.599890416979328,-0.1063923827768817,3.607744,125.3314,0.1036598,0.01525745,0.8878888,-0.02754832,15.5999996513128,7
20.02267,0.4833335,-25.26414,0.0910484338787043,0.155242397597406,-0.1261551267713834,7.214781,125.1615,0.1967752,0.03049542,0.8858508,-0.05506167,15.6199996508658,7
20.07501,0.6833333,-25.29914,0.1231150631428938,-0.294109804734911,-0.1471153366898292,10.82143,124.996,0.2796979,0.04569852,0.8829336,-0.08251639,15.6399996504188,7
20.27037,0.2833332,-25.43994,-0.0614952773649406,0.1568110654999807,-0.0095312290264431,3.633259,125.7752,0.1073593,0.01528078,0.8896529,-0.02779061,15.6599996499717,7
20.32285,0.4833332,-25.47557,-0.2458378794275582,0.6030274464790828,0.128391905394249,7.265768,125.6063,0.2041788,0.03054173,0.887601,-0.05554511,15.6799996495247,7
20.37531,0.6833333,-25.51119,-0.2388342448822946,0.1395624294998615,0.1262350745923157,10.89747,125.442,0.2910247,0.04576706,0.8846559,-0.08323565,15.6999996490777,7
20.42775,0.8833334,-25.5468,-0.231224446245907,-0.328606741680955,0.125341988765836,14.52863,125.2812,0.368157,0.06094146,0.8808211,-0.1108374,15.7199996486306,7
20.67117,0.2833333,-25.72275,-0.3556184302546654,0.1034968442527002,0.2238057225903738,3.580519,127.931,0.2093492,0.01535269,0.898065,-0.02726932,15.7399996481836,7
20.72263,0.4833333,-25.75835,-0.3157432174699899,-0.1094184609114597,0.2075991615914922,7.160578,127.7723,0.4091015,0.03068572,0.8960649,-0.05450396,15.7599996477365,7
20.77407,0.6833333,-25.79395,-0.2723338972833815,-0.3014256690196678,0.1890750117283559,10.7401,127.6249,0.6006572,0.04598383,0.8931869,-0.08167725,15.7799996472895,7
20.8255,0.883333,-25.82953,-0.2135179906594402,-0.5268859476739467,0.1592575840315966,14.3188,127.4878,0.7850819,0.06122944,0.8894348,-0.1087617,15.7999996468425,7
20.99353,0.2833332,-25.95155,-0.3331907509102514,0.1202235829888347,0.2612028062425544,3.514524,128.657,0.2600241,0.01532864,0.9008365,-0.02665569,15.8199996463954,7
21.04419,0.4833331,-25.98638,-0.2327854799484434,-0.1177819220578907,0.1988052870025853,7.028707,128.5034,0.5110487,0.03063835,0.8988895,-0.05327801,15.8399996459484,7
21.09484,0.6833334,-26.02121,-0.1314759198400672,-0.3348791838653739,0.1332206670878619,10.5421,128.3641,0.7548704,0.04591344,0.8960927,-0.07983886,15.8599996455014,7
21.14548,0.8833334,-26.05602,-0.1932963809707608,0.1348584378596657,0.1865227194037082,14.05499,128.2385,0.9931137,0.06114049,0.8924491,-0.1063163,15.8799996450543,7
21.36253,0.2833333,-26.21277,-0.2539213276113692,0.5998917463064157,0.2377546925994771,3.449701,128.5111,0.2884078,0.01534003,0.9002964,-0.02601928,15.8999996446073,7
21.41271,0.4833333,-26.24638,-0.1778014137531975,0.1552438045462516,0.1834684556082635,6.898718,128.3603,0.5684932,0.03066234,0.8983962,-0.0520023,15.9199996441603,7
21.46288,0.6833332,-26.27997,-0.094554776927243,-0.2941085982436062,0.1215108365665678,10.34744,128.2255,0.8418431,0.04595216,0.8956761,-0.07793054,15.9399996437132,7
21.65557,0.2833334,-26.41882,-0.2244107018807426,0.1568121402695114,0.2133152070810631,3.39691,126.992,0.1868902,0.0146857,0.8944874,-0.02579677,15.9599996432662,7
21.70482,0.4833331,-26.45195,-0.3519810275437187,0.6030288718097359,0.3019017069931067,6.792967,126.8323,0.3644849,0.02935193,0.8926208,-0.05156057,15.9799996428192,7
21.75405,0.6833332,-26.48507,-0.3368675394779892,0.1395633291630654,0.2454681785744874,10.18848,126.682,0.5339962,0.04398783,0.8899674,-0.07727128,15.9999996423721,7
21.80327,0.8833329,-26.51818,-0.3149870456258945,-0.3286064056684642,0.1877299599199062,13.58348,126.5404,0.6964427,0.05858086,0.8865302,-0.1029068,16.0199996419251,7
22.04417,0.2833331,-26.6914,-0.4173468865144336,0.1034966694077251,0.2247006988687019,3.337302,124.7931,0.0722752,0.01405112,0.8857912,-0.02551272,16.0399996414781,7
22.09265,0.4833331,-26.72366,-0.3687294250160455,-0.1094191497501291,0.1366060299415963,6.673335,124.6238,0.1349466,0.02808546,0.8839566,-0.0509918,16.059999641031,7
22.14112,0.6833329,-26.75591,-0.314842169097794,-0.3014266508347439,0.0480427991340519,10.00861,124.4569,0.1881219,0.04209188,0.8813717,-0.07642061,16.079999640584,7
22.18958,0.8833328,-26.78815,-0.2450394468477768,-0.5268872965153706,-0.0490137854736296,13.34305,124.2913,0.2319501,0.05605829,0.8780397,-0.1017771,16.099999640137,7
22.35682,0.2833333,-26.91037,-0.3483528680072858,0.1202216975902614,-0.013328117882871,3.280839,123.0717,359.9503,0.0132629,0.8787611,-0.02537276,16.1199996396899,7
22.40426,0.4833336,-26.9424,-0.232896197675938,-0.1177836762573933,-0.133703855986603,6.560507,122.8925,359.8903,0.02651092,0.8769556,-0.0507169,16.1399996392429,7
22.45169,0.6833335,-26.97443,-0.1182579969675252,-0.3348806326306577,-0.2496580635041212,9.838658,122.7084,359.8192,0.03973029,0.8744311,-0.07601012,16.1599996387959,7
22.4991,0.8833333,-27.00644,-0.1654213702994766,0.1348571629810638,-0.2422122898389709,13.11567,122.5182,359.7366,0.0529134,0.8711902,-0.1012341,16.1799996383488,7
22.71518,0.2833335,-27.16241,-0.211976872035791,0.5998907543856988,-0.2310101369895001,3.223277,119.4046,359.7962,0.01265352,0.8630982,-0.02518025,16.1999996379018,7
22.76238,0.4833337,-27.19318,-0.1236890895788462,0.1552430589940412,-0.314905494842332,6.444925,119.2131,359.5813,0.02529331,0.8613057,-0.05033295,16.2199996374547,7
22.80956,0.6833336,-27.22394,-0.0305540155201846,-0.2941092663482947,-0.3984689870025342,9.664893,119.008,359.3539,0.03790956,0.8588291,-0.07543831,16.2399996370077,7
23.00286,0.2833333,-27.35704,-0.151204295951743,0.1568115012620944,-0.3211540465125182,3.372832,119.2519,359.7903,0.01330245,0.8623951,-0.02631482,16.2599996365607,7
23.0524,0.4833333,-27.38908,-0.2710225774007995,0.6030277738669328,-0.2399661896571778,6.744037,119.0595,359.5689,0.02658953,0.8605067,-0.0525995,16.2799996361136,7
23.10192,0.6833335,-27.42111,-0.2028825115051091,0.1395621897522931,-0.2912335935707304,10.11349,118.8524,359.3342,0.03984975,0.8578697,-0.07883075,16.2999996356666,7
23.15142,0.8833336,-27.45313,-0.1361336435980149,-0.3286073953241231,-0.3363661865208343,13.48234,118.6287,359.0841,0.05307683,0.8544863,-0.1049954,16.3199996352196,7
23.39468,0.2833331,-27.62927,-0.200080034926728,0.1034958355182925,-0.2796311180377238,3.533191,121.6,359.8435,0.01384837,0.8725268,-0.02757627,16.3399996347725,7
23.44572,0.4833331,-27.664,-0.1115946349612677,-0.1094195535400918,-0.3282432218051418,7.065351,121.4122,359.6746,0.02767707,0.8705462,-0.05512467,16.3599996343255,7
23.49675,0.683333,-27.69872,-0.0263555669102579,-0.3014270412086012,-0.3692044771345912,10.59667,121.2121,359.4922,0.04147773,0.8677355,-0.08261886,16.3799996338785,7
23.54775,0.883333,-27.73343,0.0665848864844136,-0.5268878895247078,-0.410905290986939,14.12631,120.998,359.2948,0.0552351,0.8640984,-0.1100263,16.3999996334314,7
23.71586,0.2833333,-27.85785,-0.021599661645542,0.120221258953268,-0.3153134751603694,3.576777,124.8282,359.9638,0.01417173,0.8858903,-0.02780672,16.4199996329844,7
23.76667,0.4833333,-27.89411,0.1016731975707436,-0.1177839359548854,-0.371294419061968,7.152756,124.6522,359.9158,0.02832199,0.8839016,-0.05558368,16.4399996325374,7
23.81747,0.6833333,-27.93035,0.2169309959004657,-0.334880807824101,-0.4184013750518041,10.72755,124.4716,359.8563,0.04244062,0.8810515,-0.08329846,16.4599996320903,7
23.86825,0.8833335,-27.96658,0.1642909848888223,0.1348569383919525,-0.3389762116627643,14.30107,124.2848,359.7843,0.05651372,0.8773435,-0.1109238,16.4799996316433,7
24.04108,0.2833331,-28.12896,0.107414742374253,0.5998908934253486,-0.2540798902894536,3.562914,126.8727,0.08961907,0.01460115,0.8939947,-0.02745607,16.4999996311963,7
24.0917,0.4833331,-28.16508,0.2925575193689411,0.1552430029774394,-0.3414216368575076,7.124945,126.7093,0.1691958,0.02918343,0.8920302,-0.05487691,16.5199996307492,7
24.1423,0.6833333,-28.2012,0.4883056589730614,-0.2941088894776626,-0.4324895328111964,10.68614,126.5495,0.2391988,0.04373304,0.889203,-0.08223657,16.5399996303022,7
24.3239,0.2833331,-28.34873,0.473678043050036,0.1568119272670394,-0.3665711480406344,3.62673,127.2013,0.09092492,0.01478003,0.8952568,-0.02799135,16.5599996298552,7
24.37522,0.4833331,-28.38581,0.4623434192150029,0.6030283054583783,-0.3010537132002433,7.252632,127.0387,0.1716816,0.02954073,0.8932495,-0.05594638,16.5799996294081,7
24.42652,0.683333,-28.42288,0.6821282126678874,0.1395633369165294,-0.4231264494064817,10.87829,126.8797,0.2425962,0.04426844,0.8903464,-0.08384245,16.5999996289611,7
24.47781,0.8833331,-28.45994,0.9586432134431851,-0.3286058141401257,-0.595156271494961,14.50305,126.7233,0.3041509,0.05894743,0.8865515,-0.1116462,16.6199996285141,7
24.72112,0.2833333,-28.63736,1.1514973943027975,0.1034970966323172,-0.7103171166747373,3.631082,127.3851,0.1097017,0.01489874,0.8959652,-0.02797646,16.639999628067,7
24.77257,0.4833333,-28.67438,1.39067656379342,0.5308951317825189,-0.865959138360008,7.261405,127.225,0.2094502,0.02977832,0.8939578,-0.05591654,16.65999962762,7
24.82401,0.683333,-28.71139,1.8676356899693225,0.0486122316558464,-1.2456491217553776,10.89097,127.0698,0.2998742,0.04462379,0.8910521,-0.08379259,16.6799996271729,7
24.87543,0.8833331,-28.74839,2.345973364661706,-0.4383748161386038,-1.6511589250961691,14.51978,126.9185,0.3814929,0.05942068,0.8872517,-0.1115766,16.6999996267259,7
25.04329,0.2833336,-28.87105,2.6308767077115185,-0.0250897298834879,-1.9362320603008705,3.576158,128.8045,0.1936452,0.01500444,0.9013861,-0.02741043,16.7199996262789,7
25.09397,0.4833335,-28.90759,3.1254236527594905,-0.2568222026113334,-2.431431420160923,7.151817,128.6528,0.3781335,0.02998994,0.8994278,-0.05478624,16.7399996258318,7
25.14464,0.6833335,-28.94411,3.571146371455057,-0.4676472198170575,-2.914242904696639,10.72688,128.5114,0.554765,0.04494161,0.8965909,-0.08210042,16.7599996253848,7
25.1953,0.8833334,-28.98063,3.804288780813597,0.0083629509856659,-3.2668651611463595,14.30099,128.3797,0.7246434,0.05984317,0.8928794,-0.1093243,16.7799996249378,7
25.41213,0.2833333,-29.13812,3.9890423513273054,0.4796678323576701,-3.601850865152162,3.508316,129.4112,0.2651752,0.01517038,0.9036679,-0.02668784,16.7999996244907,7
25.46231,0.4833333,-29.17346,4.496162549188757,0.0412921634253603,-4.247851941925404,7.01629,129.2665,0.521905,0.03032202,0.901762,-0.05334258,16.8199996240437,7
25.51247,0.6833333,-29.20881,4.937633363929628,-0.4017873881630596,-4.859862833364684,10.52339,129.1366,0.7722437,0.0454408,0.8990064,-0.07993481,16.8399996235967,7
25.70102,0.2833331,-29.34395,5.093374246639748,0.055406968273279,-5.270703909998463,3.443006,129.0166,0.2827209,0.01515518,0.9022057,-0.02605535,16.8599996231496,7
25.75075,0.4833331,-29.37799,5.180015158447155,0.5078969563730223,-5.636377712175264,6.885223,128.8736,0.5576169,0.03029295,0.9003453,-0.05207398,16.8799996227026,7
25.80046,0.6833329,-29.41203,5.466967925039924,0.0507034998612422,-6.149714367592168,10.32711,128.7462,0.8262118,0.04539874,0.8976668,-0.07803797,16.8999996222556,7
25.85016,0.8833331,-29.44606,5.671341340588992,-0.4111947462877331,-6.593532399884879,13.76851,128.634,1.090298,0.06045847,0.8941733,-0.1039234,16.9199996218085,7
26.09135,0.2833333,-29.62024,5.666544864669039,0.0271803635239777,-6.868911370050572,3.389332,126.8932,0.1670359,0.01452347,0.8941067,-0.02580239,16.9399996213615,7
