pX,pY,pZ,aX,aY,aZ,reX,reY,reZ,rtX,rtY,rtZ,t,ID
-43.07089,0.2299998,-36.98368,4.052012982279514,0.0224055052207907,5.063211772388158,0.9266469,359.0452,3.872035,0.007800069,-0.008599905,0.03384851,8.55999980866909,20
-43.14095,0.4299998,-36.9692,4.530334548932387,-0.2208849345835851,5.396025121240015,1.825833,358.2675,7.783545,0.01486819,-0.01616276,0.06809597,8.57999980822206,20
-43.14181,0.6299998,-36.96817,4.949963001184074,-0.2417818427808288,5.668581464532103,1.886229,358.1405,7.835655,0.01531057,-0.01731048,0.06857391,8.59999980777502,20
-43.14271,0.2833334,-36.96758,5.488702732199954,-0.7048871124358704,5.996422691008199,0.03219831,2.785377,0.05434677,0.000292427,0.02430447,0.0004672957,8.61999980732799,20
-43.14363,0.4833333,-36.96697,5.9487543580751705,-0.9162928410262978,6.248697313484094,0.06451055,2.657027,0.1085791,0.0005847776,0.02318431,0.0009342247,8.63999980688095,20
-43.14454,0.6833333,-36.96636,6.3311361264575226,-0.9013321122355096,6.42759024075658,0.09692234,2.528836,0.1625206,0.000876896,0.02206524,0.001399249,8.65999980643392,20
-43.14546,0.8833333,-36.96576,6.637089758999046,-0.6842934253238817,6.535492310147397,0.1294134,2.400805,0.2163721,0.001168651,0.02094726,0.001864127,8.67999980598688,20
-43.14637,0.9766707,-36.96515,7.014446829548497,-1.142171562819817,6.659214835442043,0.1620141,2.272931,0.2701829,0.001460321,0.01983036,0.002329281,8.69999980553985,20
-43.11866,0.2833333,-36.91074,7.302326004440566,-1.34096247706651,6.704358579441852,1.253071,11.2779,0.5071604,0.01131672,0.09820441,0.00332967,8.71999980509281,20
-43.12307,0.4833333,-36.8873,7.503232854844093,-1.3059992645536405,6.674781334900999,2.507159,11.16671,1.012023,0.02263175,0.09707437,0.006659,8.73999980464578,20
-43.12749,0.6833333,-36.86388,7.78043058734773,-1.701884937806985,6.676193859272118,3.764383,11.06663,1.515637,0.03396324,0.09593168,0.009990571,8.75999980419874,20
-43.05103,0.2833333,-36.78962,7.957353838505995,-1.834710449230716,6.59729531291601,2.218462,19.09405,0.07814288,0.01920348,0.1658129,-0.002538391,8.77999980375171,20
-43.03947,0.4833334,-36.75232,8.038002472415158,-1.7298094694193458,6.443303132589598,4.438287,18.97083,0.1500436,0.03840784,0.1646228,-0.005090687,8.79999980330467,20
-43.02792,0.6833334,-36.71504,8.20365359788726,-2.051784772370721,6.335738138522281,6.660683,18.85001,0.2166075,0.05761741,0.1633713,-0.00765145,8.81999980285764,20
-42.90822,0.2833332,-36.59449,8.260786044479744,-2.106727205338107,6.1483794562974765,3.772656,27.28595,0.1029851,0.03219977,0.2357144,-0.006891206,8.8399998024106,20
-42.87935,0.4833329,-36.53481,8.214956476077553,-1.919970560009439,5.887831460611572,7.549344,27.16819,0.197042,0.06439412,0.2342524,-0.01379449,8.85999980196357,20
-42.8505,0.6833329,-36.47516,8.071953132505001,-1.5158037507603388,5.560894671382052,11.32821,27.05556,0.2840502,0.09653485,0.2325361,-0.02068838,8.87999980151653,20
-42.82167,0.883333,-36.41553,7.83781840168956,-1.0312980152005078,5.17455502957457,15.10913,26.94724,0.3647709,0.1285865,0.2305671,-0.02756338,8.8999998010695,20
-42.68449,0.2833336,-36.31823,7.698658328371465,-1.3145231679611835,4.84903259418536,4.143195,34.85553,0.2237923,0.0350734,0.2992395,-0.008964426,8.91999980062246,20
-42.64616,0.4833339,-36.25655,7.45927911950357,-1.3194251434393307,4.463826003566481,8.288078,34.75226,0.4385363,0.07010569,0.2975963,-0.01793827,8.93999980017543,20
-42.60785,0.6833341,-36.1949,7.12735778493203,-1.0713372920723674,4.027220174006772,12.43501,34.6636,0.6483327,0.1050595,0.2955628,-0.02689441,8.95999979972839,20
-42.43442,0.2833333,-36.07055,6.86319708436713,-1.2348628531531172,3.64476238682802,3.716953,41.09489,0.249293,0.03113074,0.3507314,-0.009346628,8.97999979928136,20
-42.39497,0.4833333,-36.01893,6.504265677261564,-1.1160925528414103,3.2148619447934834,7.433259,40.99236,0.4922647,0.06221885,0.3491445,-0.01868146,8.99999979883432,20
-42.35554,0.6833333,-35.96731,6.059735476211543,-0.7403601817797734,2.747056863399358,11.14815,40.90476,0.7301321,0.09322368,0.3471895,-0.02799855,9.01999979838729,20
-42.31612,0.8833332,-35.9157,5.706843407918406,-0.7722679803709106,2.362298736636326,14.86211,40.83138,0.9633464,0.1241128,0.3448677,-0.03730103,9.03999979794025,20
-42.07907,0.2833333,-35.74763,5.266462146560357,-0.5179069666185276,1.9455101518264613,3.632942,47.08216,0.2732913,0.03001197,0.3991354,-0.01047506,9.05999979749322,20
-42.0358,0.4833335,-35.70107,4.749377597210724,-0.0026111942602317,1.5073409799486654,7.265298,46.98191,0.5405577,0.05998408,0.3975249,-0.02093738,9.07999979704618,20
-41.99255,0.6833333,-35.65453,4.250739907011294,0.5092350033189522,1.0412604432346733,10.89707,46.89799,0.8039488,0.089887,0.3955138,-0.03137615,9.09999979659915,20
-41.78257,0.2833337,-35.50042,3.8461696754352346,0.1129311792058475,0.6606323516497419,3.549204,51.56454,0.3731375,0.02930044,0.4346508,-0.01053872,9.11999979615211,20
-41.73802,0.4833332,-35.45694,3.394300210668149,0.3699970299002652,0.2789679790791801,7.098138,51.47344,0.7411535,0.05856443,0.433034,-0.02106517,9.13999979570508,20
-41.69348,0.6833333,-35.41346,2.907964384610516,0.6447657265516439,-0.0921926622456901,10.64645,51.40472,1.106736,0.08776174,0.4309982,-0.03156911,9.15999979525805,20
-41.64896,0.8833333,-35.37,2.400206425113211,0.8849659351982404,-0.441130690287089,14.19388,51.35815,1.471296,0.1168581,0.428545,-0.04205044,9.17999979481101,20
-41.46732,0.2833337,-35.24767,2.07787279790341,0.1845760801270308,-0.632032993153139,3.489233,53.96131,0.3477834,0.02850718,0.4533949,-0.01110894,9.19999979436398,20
-41.4216,0.4833333,-35.20702,1.742433411698883,-0.4244262813690994,-0.7902634522452487,6.978158,53.86781,0.690372,0.05697984,0.4517877,-0.02220486,9.21999979391694,20
-41.3759,0.6833335,-35.16638,1.3736928966248456,-0.0393314837693577,-0.9676875336341162,10.4662,53.79457,1.029171,0.08538372,0.4497581,-0.03328399,9.23999979346991,20
-41.17981,0.2833333,-35.03051,1.1807026032650825,-0.3050405964420077,-1.0170445013849907,3.434375,55.14793,0.3352767,0.02791599,0.4626057,-0.0112787,9.25999979302287,20
-41.13394,0.4833332,-34.99153,1.0003164284758412,-0.555625712404217,-1.046067573603782,6.868056,55.05313,0.664684,0.05579344,0.4610142,-0.02254798,9.27999979257584,20
-41.08808,0.6833332,-34.95255,0.7514222292868027,-0.1251604437423193,-1.105541278905907,10.30121,54.97764,0.9912421,0.08361216,0.4590057,-0.03379338,9.2999997921288,20
-40.87634,0.283333,-34.80478,0.6934089978692555,-0.3454989402149307,-1.0287992845754983,3.391195,54.66106,0.2188464,0.02716284,0.4588709,-0.0118893,9.31999979168177,20
-40.83024,0.483333,-34.7675,0.6422912009681809,-0.550714070098528,-0.9395323876861604,6.781455,54.55587,0.4310775,0.05428824,0.457304,-0.02376865,9.33999979123473,20
-40.78415,0.683333,-34.73023,0.4832933231523029,-0.0748785965186671,-0.9290984289066948,10.17111,54.46261,0.638812,0.08135816,0.455336,-0.03562377,9.3599997907877,20
-40.73808,0.8833325,-34.69297,0.3257358211965027,0.3904684278063063,-0.9273404136542248,13.56018,54.38094,0.8434523,0.1083495,0.4529692,-0.04744427,9.37999979034066,20
-40.69202,0.9766703,-34.65573,0.3230031606431254,-0.0596497349885696,-0.8384099038595672,16.94847,54.31069,1.046297,0.1352373,0.4502057,-0.05921971,9.39999978989363,20
-40.47747,0.2833333,-34.51259,0.3299663900566827,-0.5202573346031666,-0.7594914598491478,3.334831,53.43076,0.09875274,0.02637887,0.4493459,-0.0123117,9.41999978944659,20
-40.43173,0.4833332,-34.47659,0.2299810693682502,-0.086377129371576,-0.7304437769154397,6.668489,53.31538,0.1905729,0.0527232,0.4478126,-0.02461052,9.43999978899956,20
-40.38601,0.6833335,-34.44061,0.1402483896488959,0.3370135682137018,-0.7084801206256799,10.0013,53.20454,0.2763125,0.07901464,0.4459009,-0.036885,9.45999978855252,20
-40.19752,0.2833332,-34.31369,0.2684386352682182,-0.1550617699331732,-0.5607200877301075,3.280445,52.3037,359.9687,0.02557263,0.440578,-0.01286128,9.47999978810549,20
-40.15186,0.4833332,-34.27919,0.2462484907051632,0.0626631293153534,-0.5010870182468068,6.559815,52.17735,359.93,0.05111632,0.4390726,-0.02570847,9.49999978765845,20
-40.1062,0.6833332,-34.24469,0.2284840583720466,0.2976019128403767,-0.4460019130872688,9.837746,52.04777,359.8831,0.07660564,0.4372083,-0.03853341,9.51999978721142,20
-39.90328,0.2833335,-34.10596,0.3944598274894915,-0.1428286936547658,-0.279539383227835,3.229608,50.23888,359.861,0.02500009,0.4243687,-0.01306032,9.53999978676438,20
-39.85838,0.4833339,-34.07183,0.5685864302350581,-0.5937481912651354,-0.1200033017415194,6.457885,50.10384,359.7143,0.04997263,0.422893,-0.02610587,9.55999978631735,20
-39.8135,0.6833341,-34.03772,0.5264922718169132,-0.1501795352976638,-0.1007962284912764,9.684896,49.95945,359.5587,0.07489844,0.4210818,-0.03912696,9.57999978587031,20
-39.76862,0.8833344,-34.00361,0.4863425689749547,0.2828998869211556,-0.0858668198628471,12.91022,49.8046,359.3931,0.09975501,0.4189369,-0.05211149,9.59999978542328,20
-39.5947,0.283333,-33.88686,0.5896859498686666,-0.1994876998697359,0.0159839494723748,3.284272,49.08007,359.7984,0.02533781,0.4152036,-0.01350166,9.61999978497624,20
-39.54905,0.4833327,-33.85203,0.5014425189694194,0.0279238861580025,-0.0138260558069802,6.567128,48.93988,359.5885,0.05064749,0.4137203,-0.02698833,9.63999978452921,20
-39.50341,0.683333,-33.8172,0.4093507127258178,0.2725504631167989,-0.050673654062546,9.848399,48.78645,359.3687,0.07590736,0.4118968,-0.04044859,9.65999978408217,20
-39.45778,0.8833327,-33.78239,0.4731405537710529,-0.1581932421156612,0.0105250315074627,13.12875,48.61846,359.1375,0.1011025,0.4097349,-0.05387386,9.67999978363514,20
-39.23081,0.2833335,-33.6315,0.5366744346673826,-0.5994259057181156,0.0657274143474211,3.525879,51.50905,359.8369,0.02709014,0.4343497,-0.01464871,9.6999997831881,20
-39.1808,0.4833337,-33.59548,0.4475093520885593,-0.1461706323170234,0.027178967392377,7.050409,51.37152,359.6651,0.05414704,0.4327751,-0.02927972,9.71999978274107,20
-39.13081,0.6833337,-33.55947,0.3620396838147357,0.2965962142184021,-0.0110824707097947,10.57547,51.22193,359.4822,0.08115711,0.43079,-0.04389284,9.73999978229403,20
-38.93089,0.283333,-33.42543,0.4940667268526937,-0.1761034214559013,0.0922615984127439,3.564749,53.18504,359.8972,0.0274115,0.4474505,-0.01472506,9.759999781847,20
-38.87997,0.4833333,-33.38965,0.4465495254873062,0.0609962849578705,0.0789188099186155,7.128435,53.05332,359.7856,0.05478874,0.4458536,-0.02943516,9.77999978139997,20
-38.82907,0.6833333,-33.35389,0.3915245837252925,0.3153105149169121,0.0594659431404416,10.69089,52.91338,359.6647,0.08210535,0.4438259,-0.04411312,9.79999978095293,20
-38.61289,0.2833328,-33.20662,0.5165841547233825,-0.1057457763659351,0.157948964796148,3.589644,54.58577,0.05409997,0.02805003,0.458301,-0.01394229,9.8199997805059,20
-38.56236,0.4833325,-33.16959,0.4364683580419637,0.1829973442204762,0.1194330823908771,7.178556,54.46926,0.1015643,0.05606829,0.4566883,-0.02786317,9.83999978005886,20
-38.51184,0.6833324,-33.13258,0.3397836609409737,0.488954618450926,0.069245465980078,10.76648,54.35475,0.1420626,0.08402309,0.4546284,-0.04175263,9.85999977961183,20
-38.46133,0.8833324,-33.09558,0.2384012531156898,0.7598558610960295,0.0147866752068068,14.35345,54.24136,0.1757277,0.1118874,0.4521237,-0.0555972,9.87999977916479,20
-38.27884,0.2833333,-32.97357,0.2864295558735676,0.0896796329559981,0.0558324607198095,3.568007,55.43587,0.08320328,0.02789683,0.4648736,-0.0138375,9.89999977871776,20
-38.22836,0.4833329,-32.93711,0.3357802598707593,-0.4895973971884317,0.0956056501115369,7.135092,55.3225,0.1593101,0.05575745,0.4632664,-0.02765863,9.91999977827072,20
-38.17789,0.6833329,-32.90066,0.1968605003848935,-0.0752657207152252,0.0148665010412116,10.70123,55.21294,0.2289352,0.08355536,0.461211,-0.04144902,9.93999977782369,20
-38.12743,0.8833327,-32.86422,0.0616673258726194,0.328088974922104,-0.064538390088046,14.26649,55.10646,0.2925088,0.1112645,0.4587097,-0.05519522,9.95999977737665,20
-37.89344,0.2833332,-32.70766,0.1376296353246218,-0.1845112306753795,-0.0066747221244938,3.63853,56.34742,0.1151416,0.02845963,0.47188,-0.01410384,9.97999977692962,20
-37.84165,0.4833334,-32.67085,0.0454962827093865,0.0122001927038429,-0.0577471394803623,7.276192,56.23774,0.2234903,0.05688194,0.4702425,-0.02818934,9.99999977648258,20
-37.78988,0.6833329,-32.63406,-0.0501403289746065,0.2256384126652706,-0.111229385789656,10.91311,56.13405,0.3257975,0.08523936,0.4681316,-0.04224312,10.0199997760355,20
-37.58127,0.2833337,-32.49418,0.0302592444975857,-0.2367816422362334,-0.0474542414795067,3.603318,57.65667,0.1593906,0.02821366,0.4819098,-0.01394184,10.0399997755885,20
-37.52961,0.4833337,-32.45826,-0.0785610528520805,0.0101092413450709,-0.1086102829962136,7.205933,57.55146,0.312422,0.05639149,0.480279,-0.02786603,10.0599997751415,20
-37.47795,0.6833336,-32.42234,-0.1955262249876881,0.2737262833723337,-0.1751709682282509,10.80775,57.45509,0.4602048,0.08450508,0.4781735,-0.04175863,10.0799997746944,20
-37.42632,0.8833336,-32.38643,-0.3081717766771845,0.5017987896752929,-0.239207020965857,14.40858,57.36699,0.6034771,0.1125242,0.4755956,-0.05560752,10.0999997742474,20
-37.2528,0.2833328,-32.27102,-0.2632785305544729,-0.2116956168536548,-0.202445904327579,3.543279,59.11681,0.2383823,0.02791807,0.4930177,-0.01344249,10.1199997738004,20
-37.20185,0.4833332,-32.23577,-0.3569393069114852,-0.0024391813912239,-0.2550103669776575,7.085821,59.01923,0.4710985,0.05580011,0.491403,-0.02686765,10.1399997733533,20
-37.15092,0.6833332,-32.20053,-0.4404068042151579,0.2235438586462746,-0.3019782484698474,10.62772,58.93544,0.6998773,0.08362071,0.4893173,-0.04026324,10.1599997729063,20
-36.96087,0.2833333,-32.07294,-0.3489354580569568,-0.2263315399601981,-0.2373017770104972,3.482138,59.39402,0.279155,0.0275984,0.4951189,-0.01293681,10.1799997724593,20
-36.91103,0.4833333,-32.03786,-0.2396514338523516,-0.6871832514720932,-0.1637110954549072,6.963747,59.30017,0.553039,0.05516306,0.4935281,-0.02585776,10.1999997720122,20
-36.86121,0.6833333,-32.0028,-0.3178140544883732,-0.2540354039731475,-0.2125498878660039,10.44432,59.2225,0.8238114,0.08266605,0.49148,-0.03874764,10.2199997715652,20
-36.81139,0.8833334,-31.96774,-0.3836405302165389,0.168135252910801,-0.2540080879820543,13.92419,59.16083,1.093245,0.1100843,0.4889768,-0.05159767,10.2399997711182,20
-36.5719,0.2833335,-31.80668,-0.2224203091820769,-0.3256481120752579,-0.1460661623002828,3.424615,58.61877,0.2565821,0.02715141,0.4892471,-0.01267585,10.2599997706711,20
-36.52319,0.4833335,-31.77179,-0.2309118160894954,-0.1101196228856756,-0.1496119086104634,6.848292,58.52297,0.5080684,0.05426857,0.4876877,-0.025333,10.2799997702241,20
-36.47449,0.6833335,-31.73691,-0.2391075152691577,0.1221353416836112,-0.1524473417677398,10.27135,58.44167,0.7559185,0.08132897,0.4856914,-0.03796395,10.2999997697771,20
-36.26103,0.2833333,-31.59251,-0.0602617273167922,-0.3214679707008567,-0.0294984641035362,3.369868,56.84525,0.1526817,0.02649303,0.4757308,-0.01282389,10.31999976933,20
-36.21323,0.4833333,-31.55817,-0.0796538992800535,-0.0557597075116864,-0.0386424119585022,6.738595,56.74022,0.2994152,0.05295203,0.4742072,-0.02563096,10.339999768883,20
-36.16545,0.683333,-31.52384,-0.1093262413663396,0.2266755927913109,-0.055107163316233,10.10665,56.64314,0.4411203,0.07935783,0.4722736,-0.03841239,10.359999768436,20
-36.11768,0.883333,-31.48953,-0.1381222503361208,0.4735672940581774,-0.0717571614867438,13.47393,56.55354,0.5786802,0.1056871,0.4699324,-0.05115677,10.3799997679889,20
-35.93666,0.2833337,-31.36867,-0.0122727581444515,-0.2211075065732565,0.0103534534412759,3.31637,55.07411,0.03794955,0.02581161,0.46212,-0.01308457,10.3999997675419,20
-35.88957,0.4833339,-31.33505,-0.0372282759103974,0.0069662196371124,-0.0061922040089186,6.631845,54.95934,0.06931018,0.05159409,0.4606302,-0.02615429,10.4199997670949,20
-35.84249,0.6833338,-31.30145,-0.0611284862121408,0.25176722026959,-0.0229510817254841,9.946064,54.84555,0.09411728,0.07732285,0.4587556,-0.03919754,10.4399997666478,20
-35.79542,0.8833336,-31.26785,-0.0729494526248899,0.4610242861147973,-0.0327419821205765,13.2594,54.73199,0.1124863,0.1029798,0.4564981,-0.05220421,10.4599997662008,20
-35.56512,0.2833333,-31.11392,0.1326555005319036,-0.2712849126300202,0.0986776161977047,3.260062,52.78994,359.8998,0.02509165,0.4443988,-0.01342843,10.4799997657537,20
-35.51873,0.4833333,-31.08097,0.1291654746230328,-0.0808447725972285,0.091694262624145,6.518935,52.66376,359.7923,0.05015549,0.442944,-0.02684203,10.4999997653067,20
-35.47236,0.6833335,-31.04803,0.1218044140885545,0.126321298069067,0.0812339943367099,9.776561,52.53046,359.6766,0.07517082,0.4411314,-0.04023018,10.5199997648597,20
-35.26918,0.2833334,-30.91036,0.2885904637768668,-0.3423708907077564,0.1843176951610026,3.207323,50.11185,359.7989,0.02460883,0.4233807,-0.01344138,10.5399997644126,20
-35.22397,0.4833334,-30.87721,0.2643567761073093,-0.1017529782887948,0.1603613724287029,6.413247,49.97766,359.59,0.04919116,0.4219589,-0.02686805,10.5599997639656,20
-35.17877,0.6833335,-30.84407,0.2274709680830291,0.1555914126461021,0.1276763477657319,9.617689,49.83068,359.3719,0.07372735,0.4202062,-0.04026969,10.5799997635186,20
-35.13358,0.8833333,-30.81093,0.1888176402786676,0.3773919726378805,0.0936270880037142,12.82039,49.66978,359.1434,0.09819826,0.4181247,-0.05363169,10.5999997630715,20
-34.95649,0.2833336,-30.69311,0.2893870059059225,-0.3423736615693658,0.1509955012615371,3.452216,50.64541,359.7937,0.02645754,0.4275703,-0.01451043,10.6199997626245,20
-34.90754,0.4833336,-30.65772,0.2470828592835019,-0.1393891192763939,0.1156759801294136,6.903055,50.5098,359.5788,0.05288393,0.4260695,-0.02900405,10.6399997621775,20
-34.85862,0.6833333,-30.62235,0.2037985353942168,0.0803216017609336,0.0806997283804733,10.35283,50.35991,359.3535,0.07925758,0.4241814,-0.04347024,10.6599997617304,20
-34.6665,0.2833333,-30.49466,0.1706570059232639,0.2644882768489682,0.0535863169781691,3.54921,52.48473,359.8393,0.027156,0.4419957,-0.01495047,10.6799997612834,20
-34.61562,0.4833334,-30.45923,0.175859955027203,0.2273758078846048,0.0528838269836207,7.097783,52.35312,359.6696,0.05428182,0.4404512,-0.02988937,10.6999997608364,20
-34.56475,0.6833333,-30.4238,0.1720064571694415,0.2357391158783384,0.0478605491673782,10.64494,52.20967,359.49,0.08134789,0.4384842,-0.04479517,10.7199997603893,20
-34.51389,0.8833332,-30.38839,0.1706958168030574,0.2362620967978471,0.0461558760063418,14.19063,52.05293,359.2989,0.1083282,0.4360971,-0.05965368,10.7399997599423,20
-34.27212,0.2833334,-30.2267,0.3420152996033678,-0.4646857466065754,0.1593662457855948,3.586632,54.4334,359.9657,0.02769265,0.4571415,-0.01457844,10.7599997594953,20
-34.22083,0.4833332,-30.19083,0.291547417239844,-0.2428841348443073,0.1267166605523435,7.172515,54.31409,359.924,0.05535319,0.455574,-0.0291394,10.7799997590482,20
-34.16954,0.6833334,-30.15498,0.2344920871252931,-0.0043558810464136,0.090444325783956,10.75721,54.19105,359.8742,0.08295095,0.4535613,-0.04366769,10.7999997586012,20
-33.95359,0.2833333,-30.00885,0.358422257161255,-0.4416863645315388,0.1749957051162738,3.553406,55.33312,0.07220704,0.02775189,0.4640846,-0.01383828,10.8199997581542,20
-33.90329,0.483333,-29.97259,0.2790861279345726,-0.1697052946580141,0.1252608823048397,7.105734,55.2242,0.1381796,0.0554693,0.4625258,-0.02765535,10.8399997577071,20
-33.85299,0.683333,-29.93634,0.1851203703687929,0.1190023878925137,0.0664046228198707,10.65711,55.11849,0.1978931,0.08312489,0.4605233,-0.04144183,10.8599997572601,20
-33.80272,0.8833331,-29.90011,0.0884064278976808,0.3721661766881511,0.0061250886549046,14.20755,55.01525,0.2516484,0.1106925,0.4580793,-0.05518463,10.879999756813,20
-33.61885,0.2833332,-29.77786,0.0008159606512556,0.4236866999337331,-0.047844563066473,3.624087,56.21633,0.09734487,0.0282915,0.4708781,-0.01414884,10.899999756366,20
-33.56718,0.4833333,-29.74133,-0.0469894256542744,0.3558044714835737,-0.0760022267124824,7.247305,56.11034,0.1881067,0.05654635,0.469289,-0.02827971,10.919999755919,20
-33.51554,0.6833335,-29.70482,-0.1016519060310514,0.3338848535638355,-0.1083624944770846,10.87025,56.00919,0.2727194,0.08474024,0.467231,-0.04238247,10.9399997554719,20
-33.46391,0.8833335,-29.66831,-0.1509643828359976,0.3046127938255702,-0.1368908259838512,14.49234,55.91222,0.3519178,0.1128415,0.4647066,-0.05643906,10.9599997550249,20
-33.23021,0.2833337,-29.51274,-0.0319338010823244,-0.4256421665620774,-0.0541775142441416,3.629477,57.01743,0.1243015,0.02834542,0.4770226,-0.0141621,10.9799997545779,20
-33.17822,0.4833342,-29.47649,-0.1222790044758213,-0.2326592423038364,-0.1080242779133051,7.258094,56.91449,0.2422948,0.05665392,0.4754287,-0.02830567,10.9999997541308,20
-33.12626,0.6833339,-29.44026,-0.21353079691999,-0.0224621120438934,-0.1613551487231248,10.88598,56.81822,0.3548182,0.08489822,0.4733583,-0.04241731,11.0199997536838,20
-32.91765,0.2833333,-29.3011,-0.123951113087056,-0.4876355014577196,-0.0939648950890905,3.575139,58.78751,0.2058867,0.02805959,0.4905203,-0.01374557,11.0399997532368,20
-32.86613,0.483333,-29.26576,-0.2187547239364526,-0.2430094117475231,-0.1483217234518683,7.149625,58.69244,0.4061752,0.05608384,0.4889365,-0.02747386,11.0599997527897,20
-32.81463,0.6833329,-29.23043,-0.3170608882018584,0.0188310851188608,-0.2050677861730285,10.72333,58.60925,0.6023467,0.08404474,0.4868763,-0.04117118,11.0799997523427,20
-32.76314,0.8833329,-29.19511,-0.4065643441561164,0.2456155382034369,-0.2563707079223114,14.29592,58.53756,0.7955902,0.111912,0.4843422,-0.05482493,11.0999997518957,20
-32.58978,0.2833334,-29.07977,-0.3346251243463491,-0.4686791575558624,-0.205602627105133,3.512553,59.54142,0.2610783,0.02773373,0.4962351,-0.01324091,11.1199997514486,20
-32.53923,0.4833333,-29.04482,-0.3999126036341849,-0.2597370834257733,-0.2441774793972406,7.024534,59.45161,0.5170874,0.05543337,0.4946733,-0.02646529,11.1399997510016,20
-32.4887,0.6833333,-29.00989,-0.4544233861765043,-0.0335804805233603,-0.2768318299619636,10.53547,59.377,0.769929,0.08306994,0.4926455,-0.03965872,11.1599997505546,20
-32.43818,0.8833332,-28.97496,-0.4868224822445732,0.1575204515475819,-0.296221623615267,14.04567,59.31744,1.021417,0.1106201,0.4901537,-0.05281073,11.1799997501075,20
-32.21515,0.2833328,-28.8258,-0.4711400380042647,0.1278301755242553,-0.2851520550041897,3.448972,59.38,0.2898294,0.02739478,0.4950151,-0.01270923,11.1999997496605,20
-32.16591,0.4833331,-28.79084,-0.4542957327931667,0.1441027469040415,-0.2739716118544919,6.896829,59.29285,0.5751553,0.05475346,0.4934821,-0.0253983,11.2199997492135,20
-32.11669,0.6833333,-28.7559,-0.4251824241895825,0.1530226864618679,-0.2552092738278411,10.34411,59.22245,0.8577218,0.08205467,0.4915001,-0.0380605,11.2399997487664,20
-31.91896,0.2833333,-28.62355,-0.2144967914459492,-0.5390395857910187,-0.1154727957823844,3.396455,57.85477,0.1879407,0.02673075,0.4834451,-0.01289978,11.2599997483194,20
-31.8705,0.4833335,-28.58929,-0.217902879570687,-0.3078646040421479,-0.1160601686124884,6.791783,57.75843,0.3703614,0.05342627,0.4819466,-0.02578306,11.2799997478724,20
-31.82206,0.6833336,-28.55504,-0.2212287933905621,-0.0594746216921655,-0.1155876428823248,10.18645,57.67231,0.54854,0.08006722,0.4800245,-0.03864025,11.2999997474253,20
-31.60876,0.2833331,-28.41131,-0.036726870705646,-0.4864551765265866,0.0094909633060993,3.341967,56.17076,0.1028008,0.0261485,0.4705634,-0.01293702,11.3199997469783,20
-31.56129,0.4833331,-28.37741,-0.0493280011433263,-0.2036366950556189,0.0030045719425118,6.682692,56.06704,0.1997921,0.05226404,0.4690987,-0.02585661,11.3399997465312,20
-31.51384,0.6833331,-28.34351,-0.0712141227908773,0.0963964838472952,-0.0106918267911169,10.02262,55.96827,0.2914788,0.07832763,0.4672357,-0.03875032,11.3599997460842,20
-31.4664,0.8833328,-28.30963,-0.0913538680939893,0.3613737229867871,-0.0244716144681937,13.36178,55.8739,0.3783516,0.1043175,0.4649764,-0.05160756,11.3799997456372,20
-31.41897,0.9766706,-28.27575,-0.098663903864459,0.4251945198686738,-0.0311950179080326,16.70007,55.78342,0.4607901,0.1302106,0.4623231,-0.06441744,11.3999997451901,20
-31.20404,0.2833336,-28.13346,-0.0647324706236709,0.3701013876085128,-0.0120619771736087,3.285254,53.92506,359.9536,0.02536619,0.4532317,-0.01335741,11.4199997447431,20
-31.1572,0.4833333,-28.10041,-0.0359953182881938,0.3614592508408867,0.0028070938220068,6.569509,53.80885,359.9005,0.05070448,0.4518044,-0.02670033,11.4399997442961,20
-31.11038,0.6833335,-28.06737,-0.0015400122180544,0.3459519147569613,0.0205751066874952,9.852243,53.68869,359.8401,0.07598965,0.4500067,-0.0400168,11.459999743849,20
-30.92229,0.2833333,-27.9412,0.1984130662558385,-0.3700507444199253,0.1448464378614318,3.230633,51.53162,359.8516,0.0248235,0.4345536,-0.01341939,11.479999743402,20
-30.87652,0.4833336,-27.90821,0.1893033643197874,-0.1623282081485189,0.1309077390146882,6.459956,51.40717,359.696,0.04961965,0.4331596,-0.02682386,11.499999742955,20
-30.83077,0.6833334,-27.87522,0.1756870789086839,0.0630959891065824,0.1132059006595795,9.688038,51.27294,359.5321,0.07436953,0.4314216,-0.04020317,11.5199997425079,20
-30.6262,0.2833334,-27.73707,0.3353174477469949,-0.3863622022105867,0.2088370239361481,3.284112,50.13215,359.792,0.02518783,0.4235356,-0.01378376,11.5399997420609,20
-30.57985,0.4833336,-27.70316,0.3029062597594176,-0.1255329060509025,0.1775363411084995,6.566803,50.00264,359.5762,0.05034735,0.4221344,-0.02755236,11.5599997416139,20
-30.53351,0.6833336,-27.66926,0.2568900506632694,0.1529990035489357,0.1374276967800476,9.848069,49.85964,359.3513,0.07545848,0.4203861,-0.0412943,11.5799997411668,20
-30.48719,0.8833338,-27.63537,0.2080839447665816,0.3969633280305463,0.0958383237302342,13.1283,49.7019,359.1154,0.1005046,0.4182924,-0.05499911,11.5999997407198,20
-30.3094,0.2833334,-27.51828,0.387347923217245,-0.2996630899386813,0.2063222879981729,3.534378,51.67489,359.8106,0.02703555,0.4356574,-0.01492687,11.6199997402728,20
-30.25888,0.4833333,-27.48266,0.4113785049708411,-0.0725652888734068,0.2163596440145134,7.067386,51.54608,359.6129,0.05403782,0.4341657,-0.02983578,11.6399997398257,20
-30.2084,0.6833334,-27.44706,0.4227465558196641,0.1722346378607151,0.2194041767768091,10.60091,51.40367,359.4047,0.08099441,0.43226,-0.04472387,11.6599997393787,20
-30.15793,0.8833335,-27.41146,0.4329950935510034,0.382466183309087,0.2231431672931521,14.13288,51.2462,359.1846,0.1078657,0.4299428,-0.05956544,11.6799997389317,20
-29.93265,0.2833331,-27.26276,0.594119215188023,-0.3478928680327953,0.3269471823680376,3.566542,53.83594,359.8937,0.02732756,0.4525207,-0.01491479,11.6999997384846,20
-29.88127,0.4833328,-27.22759,0.5521670148594175,-0.1545259453566101,0.2982822417908508,7.132069,53.71517,359.7793,0.05462108,0.4510058,-0.02981471,11.7199997380376,20
-29.82991,0.6833327,-27.19243,0.504194929072991,0.0565430203138391,0.2665817764087563,10.6963,53.5861,359.6562,0.08185363,0.4490545,-0.04468145,11.7399997375906,20
-29.63034,0.2833331,-27.05805,0.6204654343722069,-0.4072702959560692,0.3434800248227496,3.590142,55.16814,0.05199184,0.02797415,0.4628098,-0.01410298,11.7599997371435,20
-29.57941,0.4833333,-27.02157,0.5557162632959596,-0.1607963734698008,0.3026135795508047,7.179488,55.0627,0.09800752,0.05591612,0.4612793,-0.02818438,11.7799997366965,20
-29.52849,0.6833336,-26.98509,0.4810488520643474,0.1033795839959162,0.2563676762547793,10.76788,54.95924,0.1377539,0.08379519,0.459297,-0.04223411,11.7999997362494,20
-29.31186,0.2833336,-26.83953,0.4082997698480106,0.3329870193067654,0.2124590416832816,3.568424,55.96342,0.08185878,0.02783053,0.4689425,-0.01397784,11.8199997358024,20
-29.26103,0.4833334,-26.80354,0.3637212708140787,0.3422914484514261,0.1865403955601294,7.1359,55.86103,0.1573597,0.05562511,0.4674166,-0.02793867,11.8399997353554,20
-29.21021,0.6833333,-26.76757,0.2968084302061484,0.398047288116756,0.146090886293436,10.70247,55.76252,0.2270745,0.08335756,0.4654384,-0.04186859,11.8599997349083,20
-29.15941,0.8833334,-26.73161,0.2197854468472115,0.4469385564092702,0.0990838367391617,14.26809,55.6672,0.2913638,0.1110007,0.46301,-0.05575422,11.8799997344613,20
-29.10862,0.9766704,-26.69566,0.1448899356674253,0.4356493124678624,0.0535025098687427,17.83282,55.57448,0.3505999,0.1385287,0.4601343,-0.06958189,11.8999997340143,20
-28.89129,0.2833336,-26.55201,0.2186121821857796,-0.4148432998746171,0.1040907277393756,3.638382,56.74424,0.112608,0.02839898,0.4749289,-0.01422113,11.9199997335672,20
-28.83923,0.4833336,-26.5156,0.1008704091338472,-0.2424903280327585,0.0309947259133309,7.275964,56.64548,0.2190967,0.05676138,0.4733739,-0.0284243,11.9399997331202,20
-28.78718,0.6833335,-26.47919,-0.0167728600751502,-0.0529226488275488,-0.04122452463168,10.91269,56.55269,0.3202969,0.08505859,0.4713423,-0.04259459,11.9599997326732,20
-28.59563,0.2833332,-26.35239,0.0291687676644762,-0.5387251100733004,-0.0050478798082167,3.603458,58.03954,0.1585731,0.02816453,0.4848331,-0.01404285,11.9799997322261,20
-28.54372,0.4833335,-26.31681,-0.0892556499980408,-0.314728167029027,-0.0755710992556579,7.206046,57.94538,0.3114447,0.0562921,0.4832841,-0.02806764,11.9999997317791,20
-28.49182,0.6833335,-26.28125,-0.2077110031118536,-0.0735169060369633,-0.1453764350330679,10.80787,57.86016,0.4597739,0.08435607,0.4812573,-0.04206087,12.0199997313321,20
-28.28337,0.2833333,-26.14267,-0.3137216628184518,0.1326385538828558,-0.2065085889105233,3.543588,59.49374,0.2382773,0.02787559,0.495875,-0.01353638,12.039999730885,20
-28.23219,0.4833331,-26.10776,-0.3755141592074693,0.1180026754676278,-0.2405561063210228,7.086544,59.40712,0.4716131,0.05571654,0.4943404,-0.02705562,12.059999730438,20
-28.18102,0.683333,-26.07285,-0.4434445418104573,0.1493298338491236,-0.2798145440938775,10.62875,59.33443,0.7016897,0.08349551,0.492332,-0.04054486,12.079999729991,20
-28.12986,0.8833334,-26.03795,-0.5054656782767033,0.1733042835709577,-0.3165798510874609,14.16975,59.27548,0.9301398,0.1111827,0.4898524,-0.05399008,12.0999997295439,20
-27.87251,0.2833336,-25.86604,-0.3707558582093071,-0.5037041417440221,-0.2265597443509719,3.477213,59.71634,0.2872489,0.02755979,0.4975581,-0.01293177,12.1199997290969,20
-27.82262,0.4833333,-25.83116,-0.3835213882240254,-0.2574746978329304,-0.2325482152111675,6.953929,59.63426,0.5699958,0.05508668,0.4960502,-0.02584777,12.1399997286499,20
-27.77275,0.683333,-25.79629,-0.3964294513041793,0.0059696025868063,-0.2399735946518255,10.42955,59.56897,0.8505106,0.0825523,0.4940839,-0.03873214,12.1599997282028,20
-27.72289,0.8833328,-25.76143,-0.3979271418172665,0.2343577365631854,-0.2411865762159166,13.90443,59.52044,1.130582,0.1099334,0.491661,-0.05157675,12.1799997277558,20
-27.54142,0.283333,-25.64065,-0.3764867485336616,0.2615886685295873,-0.2285615232920932,3.418513,58.9095,0.2507005,0.02704759,0.4914593,-0.01276319,12.1999997273088,20
-27.49257,0.4833333,-25.60615,-0.3539071187137708,0.1699063362352737,-0.2141391825125751,6.835906,58.82412,0.4967228,0.05405931,0.4899839,-0.02550863,12.2199997268617,20
-27.44374,0.6833333,-25.57166,-0.3315630635301261,0.124675384667418,-0.1986294837128497,10.25268,58.75298,0.7397412,0.08101527,0.4880712,-0.03822764,12.2399997264147,20
-27.24627,0.2833336,-25.43968,-0.2981046874365525,0.072579887862019,-0.174484943458399,3.368005,57.14823,0.1514455,0.0264396,0.4780541,-0.01289559,12.2599997259676,20
-27.19831,0.4833338,-25.40563,-0.2710170018543536,0.0402771217047572,-0.1558634484163192,6.734879,57.05405,0.2976137,0.0528457,0.476613,-0.02577421,12.2799997255206,20
-27.15037,0.6833338,-25.37159,-0.2485499018069177,0.0544254671677614,-0.1405185586463133,10.10105,56.96788,0.4394215,0.07919881,0.4747605,-0.03862687,12.2999997250736,20
-27.10244,0.8833337,-25.33756,-0.2192837192816981,0.0617087972196651,-0.121139593707678,13.46645,56.8893,0.5777509,0.105476,0.4724986,-0.05144243,12.3199997246265,20
-26.85554,0.2833331,-25.17294,-0.2011524609728496,0.0887842116815328,-0.1106556294398259,3.311205,54.92279,0.007445704,0.02566618,0.4609567,-0.0132658,12.3399997241795,20
-26.80831,0.4833333,-25.13969,-0.195091482154627,0.1623110066085024,-0.1088369019488375,6.621368,54.81628,0.008722705,0.05130271,0.4595537,-0.02651644,12.3599997237325,20
-26.7611,0.6833335,-25.10644,-0.1898796644812748,0.2289730240424747,-0.1083835943558213,9.930158,54.70903,0.003677658,0.07688542,0.4577682,-0.03974021,12.3799997232854,20
-26.71389,0.8833334,-25.0732,-0.1742629417400394,0.2354541994153805,-0.1019793897131897,13.23802,54.60032,359.9922,0.102397,0.4556019,-0.05292713,12.3999997228384,20
-26.54088,0.2833331,-24.95865,0.0846131369933225,-0.5972663144215139,0.0629825311944856,3.25535,53.06995,359.9069,0.02504957,0.4465843,-0.01341608,12.4199997223914,20
-26.49448,0.4833331,-24.92587,0.1500037199318349,-0.4071414964536867,0.101276559981521,6.509514,52.95526,359.8072,0.05007125,0.4452141,-0.02681718,12.4399997219443,20
-26.44809,0.683333,-24.8931,0.2095812345370156,-0.1998020484829136,0.1348110071421189,9.762519,52.834,359.7,0.07504515,0.4434853,-0.0401928,12.4599997214973,20
-26.25995,0.2833333,-24.76708,0.2746238176079139,-0.0275185292116327,0.1710243197530481,3.206115,50.4202,359.8017,0.02457358,0.4258152,-0.01348069,12.4799997210503,20
-26.21461,0.4833333,-24.73415,0.3284178751439093,-0.0760255821634386,0.1990526660697291,6.410872,50.29709,359.5963,0.04912069,0.4244774,-0.02694654,12.4999997206032,20
-26.16928,0.6833335,-24.70122,0.373765770470321,-0.0785697489448113,0.2214215323390078,9.614182,50.16149,359.3823,0.07362171,0.422807,-0.04038719,12.5199997201562,20
-26.12396,0.8833336,-24.66831,0.4220109088739896,-0.0884664517188087,0.2457903916389021,12.81578,50.0123,359.1586,0.09805714,0.420806,-0.05378862,12.5399997197092,20
-25.88189,0.2833331,-24.50733,0.2965726116392169,0.5612562566098133,0.15612204824928,3.463411,51.35426,359.8007,0.02648193,0.4331482,-0.01466071,12.5599997192621,20
-25.83244,0.4833331,-24.47233,0.3687804497817062,0.3263523921612739,0.1972302796404577,6.925436,51.23003,359.5935,0.05293197,0.4317233,-0.02930429,12.5799997188151,20
-25.783,0.6833331,-24.43734,0.4319804177224036,0.1128446634384328,0.2338718186944426,10.38671,51.09201,359.3765,0.07933024,0.4299034,-0.04392233,12.5999997183681,20
-25.56608,0.2833333,-24.29312,0.4978971037000654,-0.1336288682383931,0.2738890766861281,3.541034,53.16153,359.8513,0.0270506,0.4472807,-0.01498448,12.619999717921,20
-25.51503,0.4833335,-24.2582,0.4977092085128269,-0.1473591841964159,0.2707384695636818,7.081312,53.04187,359.6946,0.05407012,0.4458182,-0.02995616,12.639999717474,20
-25.46399,0.6833338,-24.22329,0.4754312929925923,-0.115126127519465,0.2542377909177205,10.62023,52.91132,359.5288,0.08103026,0.44393,-0.04489477,12.6599997170269,20
-25.41297,0.8833339,-24.18839,0.4428489276806147,-0.0902450547710601,0.232095412921538,14.15775,52.76855,359.3526,0.1079053,0.4416186,-0.05978628,12.6799997165799,20
-25.36197,0.9766703,-24.1535,0.4117476569836249,-0.1260322531046743,0.2119977628310074,17.69384,52.61195,359.164,0.1346699,0.4388864,-0.07461668,12.6999997161329,20
-25.14557,0.2833336,-24.00982,0.368502858338477,-0.169172655796958,0.1837338505896895,3.583813,54.96436,0.002547627,0.02775119,0.4612465,-0.01441034,12.7199997156858,20
-25.09436,0.4833335,-23.97393,0.3165401690537166,-0.1663497714037224,0.1506770603844991,7.167001,54.8594,-0.001167694,0.05547162,0.4597597,-0.0288017,12.7399997152388,20
-25.04317,0.6833336,-23.93804,0.2678383254715122,-0.1708797013437696,0.1205941331641611,10.74912,54.75325,359.9884,0.08312963,0.4578243,-0.04316064,12.7599997147918,20
-24.85228,0.2833336,-23.81087,0.05593653137214,0.4842095810164976,-0.0157724366857969,3.559471,55.86221,0.07626898,0.02775104,0.4681652,-0.01395975,12.7799997143447,20
-24.80159,0.4833338,-23.77496,0.0381860117157693,0.2546714633311039,-0.0255056913809745,7.117883,55.76446,0.1467445,0.0554667,0.4666832,-0.0279001,12.7999997138977,20
-24.75092,0.683334,-23.73906,0.0161296100549002,0.046529422567046,-0.0374388565193939,10.6754,55.67031,0.2117105,0.08312093,0.4647518,-0.04180969,12.8199997134507,20
-24.54136,0.2833331,-23.59943,0.0021157200286232,-0.1945777915522762,-0.0435869006427829,3.635245,56.64366,0.103107,0.02834805,0.4741596,-0.01425617,12.8399997130036,20
-24.48932,0.4833331,-23.56309,-0.0706525454779551,-0.2029407489848874,-0.0891024537435321,7.269589,56.54891,0.2003691,0.05665918,0.4726444,-0.02849381,12.8599997125566,20
-24.4373,0.683333,-23.52677,-0.1571923921859088,-0.1653406508033786,-0.1433760848215435,10.90372,56.45954,0.2922808,0.08490948,0.4706539,-0.04270302,12.8799997121096,20
-24.38529,0.883333,-23.49045,-0.2452355746258234,-0.1350932659858807,-0.1983983346503706,14.53695,56.37501,0.3796809,0.1130664,0.4681907,-0.05686498,12.8999997116625,20
-24.12564,0.2833334,-23.31799,-0.322535949057201,-0.1655143501815331,-0.2461500129705207,3.622427,57.60435,0.1373253,0.02827336,0.4815127,-0.01417792,12.9199997112155,20
-24.07353,0.4833334,-23.28216,-0.3157538457950046,-0.2032881323213859,-0.2360604735262939,7.244022,57.51325,0.2691099,0.05651014,0.4799978,-0.02833758,12.9399997107685,20
-24.02142,0.6833336,-23.24633,-0.3169265703276096,-0.1950985078504055,-0.2299443754180039,10.86474,57.42981,0.396323,0.08468197,0.4780037,-0.04246483,12.9599997103214,20
-23.96934,0.8833337,-23.21052,-0.3131619933792571,-0.1942615376777222,-0.2194961903384431,14.48458,57.35352,0.5196811,0.1127601,0.4755327,-0.05654708,12.9799997098744,20
-23.78659,0.2833336,-23.0902,-0.461737725558919,0.4661945924376114,-0.3083644546253303,3.560312,59.40572,0.226115,0.02796012,0.4952087,-0.0136794,12.9999997094274,20
-23.7351,0.4833336,-23.05524,-0.4572742043014308,0.242024057692506,-0.2996648935236692,7.119956,59.32316,0.4474752,0.0558852,0.4937067,-0.02734158,13.0199997089803,20
-23.68363,0.6833338,-23.02029,-0.441146885449367,0.0392496184247793,-0.2836638167505079,10.67881,59.25387,0.6657099,0.08374759,0.4917274,-0.04097322,13.0399997085333,20
-23.63216,0.8833336,-22.98535,-0.4008308315968101,-0.1964903454562762,-0.2524037829837233,14.23654,59.19765,0.8822638,0.1115175,0.489273,-0.05456139,13.0599997080863,20
-23.39997,0.2833335,-22.83142,-0.4068962969702632,-0.1994865085368927,-0.2539590582143454,3.490596,59.8961,0.2805506,0.02761145,0.4989168,-0.01308389,13.0799997076392,20
-23.34971,0.4833334,-22.79668,-0.4121701336457839,-0.1565194716495694,-0.2562358847650472,6.980609,59.81856,0.5568365,0.0551893,0.4974409,-0.02615163,13.0999997071922,20
-23.29947,0.6833333,-22.76195,-0.4051740521943543,-0.12090517670082,-0.2517392936757971,10.46948,59.75752,0.8310371,0.08270498,0.4955019,-0.03918776,13.1199997067451,20
-23.09277,0.2833334,-22.62406,-0.5754855149507669,0.5743283090302004,-0.364111531395249,3.430003,59.37012,0.2700839,0.02716686,0.4949477,-0.01277456,13.1399997062981,20
-23.04365,0.4833332,-22.58956,-0.5315786750014517,0.3849352525623282,-0.3362020482987731,6.858989,59.29153,0.5360575,0.05429895,0.4935018,-0.02553059,13.1599997058511,20
-22.99455,0.6833335,-22.55506,-0.4911198267307171,0.2169380397149249,-0.3101891583822755,10.28727,59.22849,0.7995676,0.08137383,0.4916123,-0.03825996,13.179999705404,20
-22.94546,0.8833336,-22.52058,-0.4427410935248552,0.0159753817925366,-0.2785333843165247,13.71481,59.18095,1.062512,0.1083677,0.4892811,-0.0509512,13.199999704957,20
-22.77213,0.2833333,-22.40623,-0.1989803061910215,-0.7845808390121937,-0.11705611416318,3.380961,57.70156,0.1693358,0.0265513,0.4822815,-0.01294095,13.21999970451,20
-22.72382,0.4833336,-22.37225,-0.1452358185556512,-0.5627796801742019,-0.0789992978227616,6.760775,57.61407,0.3337456,0.05306838,0.4808703,-0.02586506,13.2399997040629,20
-22.67553,0.6833335,-22.33829,-0.0937659533963639,-0.3242519374080062,-0.0419711483917666,10.1399,57.53575,0.4943523,0.07953204,0.4790407,-0.03876287,13.2599997036159,20
-22.62724,0.8833336,-22.30433,-0.0330844064669975,-0.121268691250326,0.0013997877911187,13.51825,57.46628,0.6521155,0.1059185,0.4767945,-0.05162358,13.2799997031689,20
-22.40421,0.2833332,-22.15691,-0.1194354693885983,0.600358811942541,-0.051116106810614,3.325359,55.52724,0.0446274,0.02585618,0.4656186,-0.01317151,13.2999997027218,20
-22.3568,0.4833332,-22.12347,-0.0139038169599032,0.3253106058676546,0.0186365925274749,6.649374,55.429,0.08363499,0.05167969,0.4642458,-0.02632608,13.3199997022748,20
-22.3094,0.6833332,-22.09004,0.0959719533772514,0.0716582949868414,0.0902975065302449,9.972499,55.33233,0.117185,0.07745229,0.462483,-0.03945476,13.3399997018278,20
-22.11234,0.2833334,-21.9595,0.0309245701278833,0.5053296923701839,0.0467514727320335,3.268677,53.89367,359.9298,0.02514658,0.4529947,-0.01347053,13.3599997013807,20
-22.06552,0.4833334,-21.92693,0.1192791369181804,0.2944704635698069,0.1014615541520989,6.536257,53.78581,359.8533,0.05026523,0.4516534,-0.02692627,13.3799997009337,20
-22.01871,0.6833336,-21.89437,0.2041903902438555,0.1050074787822753,0.1528782950139167,9.802396,53.67273,359.7698,0.07533236,0.4499455,-0.04035617,13.3999997004867,20
-21.97191,0.8833337,-21.86182,0.2968387558309828,-0.1174209467243595,0.2083367599672705,13.06735,53.55355,359.6787,0.1003304,0.4478727,-0.05374934,13.4199997000396,20
-21.72636,0.2833334,-21.69793,0.3265295145728366,-0.1071063391106308,0.2206436595050185,3.211257,50.45991,359.7888,0.02456137,0.426131,-0.01361041,13.4399996995926,20
-21.68078,0.4833335,-21.66514,0.3369008880858821,-0.0508282602448307,0.2194864244774486,6.421143,50.34068,359.5706,0.04909614,0.4248302,-0.02720596,13.4599996991456,20
-21.63522,0.6833334,-21.63236,0.3389175031498439,-0.0019031455545415,0.2121736096563289,9.629616,50.20821,359.344,0.07358517,0.4231954,-0.04077601,13.4799996986985,20
-21.58967,0.8833334,-21.59959,0.3435795043798855,-0.013646857930638,0.206056980130814,12.83629,50.06146,359.1078,0.09800818,0.4212284,-0.05430546,13.4999996982515,20
-21.41229,0.2833334,-21.48273,0.4257148519877489,-0.0327435350049513,0.2521262089834089,3.452942,51.01027,359.7914,0.02640842,0.4304453,-0.01461512,13.5199996978045,20
-21.3631,0.4833336,-21.44767,0.4874204311714472,-0.0058768619206227,0.2856292241226903,6.904513,50.89024,359.5752,0.0527855,0.4290653,-0.02921288,13.5399996973574,20
-21.31392,0.6833335,-21.41262,0.5403026116198788,0.013636950570993,0.3143182527093913,10.35505,50.75596,359.3497,0.07910993,0.4272951,-0.04378248,13.5599996969104,20
-21.1213,0.2833334,-21.28601,0.5959328462970213,-0.0275178286120888,0.3459237860693349,3.549495,52.86036,359.8391,0.02710855,0.4449319,-0.01504156,13.5799996964633,20
-21.07018,0.4833333,-21.2509,0.5887534084842017,-0.0760251108573526,0.3367262434818165,7.098443,52.74446,359.6703,0.05418738,0.4435068,-0.03007147,13.5999996960163,20
-21.01908,0.6833332,-21.2158,0.5658095139452115,-0.078568939883885,0.3186341009643811,10.646,52.61692,359.4926,0.08120625,0.4416562,-0.04506829,13.6199996955693,20
-20.968,0.8833331,-21.18071,0.5387647424806552,-0.088465270927189,0.299250762723446,14.19213,52.4764,359.3043,0.1081393,0.4393823,-0.06001756,13.6399996951222,20
-20.72568,0.2833334,-21.02046,0.3314203649618399,0.5612576035346502,0.1623276073945199,3.586687,54.82168,359.9661,0.02764516,0.4601504,-0.01466926,13.6599996946752,20
-20.67415,0.4833335,-20.98493,0.3175363236820629,0.3263536857701543,0.1516839391869489,7.172576,54.71807,359.9258,0.05525772,0.4587009,-0.02932087,13.6799996942282,20
-20.62264,0.6833335,-20.94941,0.2892009924522831,0.1128454426180282,0.1323168135268275,10.75737,54.61097,359.8784,0.08280827,0.4568029,-0.04393972,13.6999996937811,20
-20.40615,0.2833333,-20.80461,0.2584567644271942,-0.1336282812401681,0.1120297436916537,3.553555,55.7336,0.07285503,0.02770715,0.4671754,-0.0139308,13.7199996933341,20
-20.3556,0.4833333,-20.76869,0.2559493376538739,-0.1473580824204369,0.1120963189428252,7.105966,55.64037,0.140439,0.05537946,0.4657337,-0.02784015,13.7399996928871,20
-20.30507,0.6833332,-20.73278,0.2378040969740524,-0.1151249634544172,0.1025710226123983,10.65748,55.55058,0.2027789,0.08299068,0.463845,-0.04171892,13.75999969244,20
-20.25455,0.8833328,-20.69687,0.2164610401576361,-0.0902444419860318,0.091516682153351,14.20811,55.46363,0.2602202,0.1105145,0.4615116,-0.05555386,13.779999691993,20
-20.20404,0.9766701,-20.66098,0.2043590150224972,-0.1260329155467204,0.0869504579859246,17.75777,55.37897,0.3130374,0.1379241,0.4587362,-0.06933136,13.799999691546,20
-19.98628,0.2833335,-20.51839,0.2254750695719423,-0.1691733900238857,0.1051481608696605,3.624484,56.80447,0.10652,0.02825962,0.4753946,-0.01422511,13.8199996910989,20
-19.93433,0.4833336,-20.48225,0.2303417186989627,-0.166350575586063,0.1126494719892114,7.248118,56.71503,0.2075365,0.05648292,0.4739204,-0.02843214,13.8399996906519,20
-19.8824,0.6833335,-20.44612,0.2317476482695077,-0.1708804279914678,0.1177739804282111,10.87153,56.63123,0.3035399,0.08464563,0.4719725,-0.04261136,13.8599996902049,20
-19.69017,0.2833335,-20.31965,0.0628285595890609,0.4842089721517614,0.0122488618176035,3.6252,57.45765,0.1198013,0.02823923,0.480395,-0.01428737,13.8799996897578,20
-19.63793,0.4833335,-20.28391,0.0387266198290952,0.2546716922760927,0.0015527314060115,7.249556,57.36977,0.234236,0.05644212,0.4789175,-0.02855642,13.8999996893108,20
-19.58571,0.6833333,-20.24818,0.0104353875161038,0.046530278235873,-0.0103882917376054,10.87305,57.28847,0.3441418,0.08458045,0.4769614,-0.04279289,13.9199996888638,20
-19.37665,0.2833334,-20.11041,-0.0090977232609006,-0.1945765453353576,-0.0152148145093562,3.573986,59.22321,0.2046725,0.02799316,0.4938284,-0.0138564,13.9399996884167,20
-19.32488,0.4833336,-20.07548,-0.2455249966376396,0.4373744728077552,-0.162247014907674,7.147214,59.14347,0.4046809,0.05595059,0.4923588,-0.02769534,13.9599996879697,20
-19.27312,0.6833336,-20.04057,-0.2727686575273225,0.1846985794605731,-0.1743421577543706,10.71966,59.07572,0.6015321,0.08384522,0.4904097,-0.04150338,13.9799996875226,20
-19.22137,0.8833336,-20.00566,-0.3004701822591205,-0.0465809869378316,-0.1871475614833819,14.291,59.01973,0.7964922,0.111647,0.4879836,-0.05526749,13.9999996870756,20
-18.9628,0.2833333,-19.83477,-0.3159240822517457,-0.3108258208656009,-0.1925911554666974,3.507056,60.09258,0.2747917,0.0276881,0.5004001,-0.0132466,14.0199996866286,20
-18.91213,0.4833334,-19.80015,-0.2932779904333333,-0.3423273171970801,-0.1733318813652111,7.013457,60.01938,0.5455227,0.05534184,0.4989522,-0.02647684,14.0399996861815,20
-18.86147,0.6833335,-19.76553,-0.2735003580451156,-0.3278655852474064,-0.1577372255058158,10.5187,59.96244,0.8143304,0.08293267,0.4970355,-0.03967538,14.0599996857345,20
-18.81083,0.8833334,-19.73093,-0.2445201389619224,-0.3207565951491889,-0.137989265363899,14.02319,59.92175,1.083105,0.1104378,0.494652,-0.05283275,14.0799996852875,20
-18.62919,0.2833335,-19.6107,-0.3664631483863196,0.3459717314790025,-0.2161965337574471,3.441931,59.80608,0.2888681,0.02728992,0.4982417,-0.01278765,14.0999996848404,20
-18.5798,0.4833336,-19.57618,-0.2546433841962194,0.1280739284100216,-0.1417506799442698,6.88278,59.73412,0.5741022,0.05454457,0.4968242,-0.02555594,14.1199996843934,20
-18.53042,0.6833337,-19.54167,-0.1466299088496701,-0.068427683178013,-0.0698268538101345,10.32298,59.67898,0.8574627,0.08174199,0.4949566,-0.03829754,14.1399996839464,20
-18.48106,0.8833336,-19.50717,-0.0303202354883449,-0.2978942416156127,0.0075598018681084,13.76244,59.64073,1.141013,0.1088577,0.4926408,-0.05100077,14.1599996834993,20
-18.24934,0.2833333,-19.35424,-0.1232080350203883,0.3456963362701196,-0.0518885086607028,3.388698,57.82285,0.172428,0.0266097,0.4832061,-0.01297807,14.1799996830523,20
-18.20087,0.4833332,-19.32025,-0.0709360434951946,0.1046597267641964,-0.0166669512424206,6.776253,57.74048,0.340257,0.05318527,0.4818279,-0.02593903,14.1999996826053,20
-18.15242,0.6833331,-19.28626,-0.0198679907298604,-0.1149809235162377,0.0189186356773092,10.16306,57.66755,0.5045911,0.07970659,0.4800283,-0.03887348,14.2199996821582,20
-17.94679,0.2833333,-19.14978,-0.1562016824069072,0.3527014931078907,-0.0686877740854399,3.33111,56.12732,0.07203081,0.02594357,0.4702373,-0.0131194,14.2399996817112,20
-17.89921,0.4833333,-19.11639,-0.2917506973684922,0.8161672349924574,-0.1562571588785815,6.660917,56.03618,0.1388584,0.05185422,0.4688945,-0.02622206,14.2599996812642,20
-17.85165,0.6833333,-19.083,-0.2186762048719952,0.3704393929122247,-0.1106243019623107,9.989871,55.94831,0.200866,0.07771362,0.4671564,-0.03929885,14.2799996808171,20
-17.80409,0.8833331,-19.04963,-0.1445706845797154,-0.0795044036194539,-0.0657760694907274,13.31799,55.86316,0.2583689,0.1035002,0.4650247,-0.05233883,14.2999996803701,20
-17.54915,0.2833333,-18.88091,-0.0575428836190017,-0.4610250050966249,-0.0140874956577299,3.275137,53.97104,359.9308,0.02519158,0.4535953,-0.01350547,14.3199996799231,20
-17.5022,0.4833333,-18.84832,0.0218032641288115,-0.5106821156331475,0.0327677166738809,6.549175,53.86803,359.8555,0.05035505,0.4522883,-0.02699595,14.339999679476,20
-17.45527,0.6833333,-18.81574,0.0931373913936859,-0.5148639727882011,0.0731799657534395,9.821735,53.75989,359.7736,0.07546659,0.4506128,-0.04045998,14.359999679029,20
-17.40834,0.8833333,-18.78317,0.1681131465722813,-0.5268864143627994,0.1147582661592068,13.0932,53.64579,359.6844,0.1005093,0.4485704,-0.05388718,14.379999678582,20
-17.22768,0.2833333,-18.66345,0.089928110584001,0.1202226236500898,0.0566707670085619,3.218529,51.09344,359.8149,0.02464131,0.4311172,-0.01356763,14.3999996781349,20
-17.18194,0.4833333,-18.63073,0.2405525345190131,-0.117782459399097,0.1470535006535236,6.435745,50.98112,359.6233,0.04925583,0.4298481,-0.02712032,14.4199996776879,20
-17.13621,0.6833333,-18.59802,0.3820407030809818,-0.3348791171333111,0.2308320861079664,9.65161,50.85711,359.4238,0.07382414,0.4282398,-0.04064745,14.4399996772408,20
-17.09048,0.8833333,-18.56532,0.3381186001323257,0.1348589593454715,0.1935060207035981,12.86579,50.72042,359.2154,0.09832598,0.4262942,-0.0541345,14.4599996767938,20
-16.85677,0.2833332,-18.41119,0.287904987836912,0.5998923346985223,0.1523911770883348,3.400835,51.19599,359.7987,0.02600216,0.4319103,-0.01440441,14.4799996763468,20
-16.80827,0.4833333,-18.37677,0.3819098176352682,0.1552439652781798,0.2055650446033716,6.800321,51.08165,359.5902,0.05197395,0.4305837,-0.02879208,14.4999996758997,20
-16.75977,0.6833333,-18.34235,0.4743120412242287,-0.2941086681990194,0.2588994610985438,10.19844,50.95383,359.3731,0.07789278,0.4288776,-0.04315037,14.5199996754527,20
-16.55066,0.2833333,-18.20465,0.3289153774788449,0.1568119421641432,0.1572191808586538,3.534163,53.00806,359.8402,0.02697356,0.4460866,-0.0150086,14.5399996750057,20
-16.49968,0.4833335,-18.16981,0.3368704056439338,-0.0372860801797745,0.1567095430412539,7.067841,52.89707,359.6727,0.05391808,0.4447026,-0.03000593,14.5599996745586,20
-16.44871,0.6833334,-18.13498,0.3309851603991944,-0.2104760010247457,0.1489564272811545,10.6004,52.77461,359.4968,0.08080538,0.4428956,-0.04497131,14.5799996741116,20
-16.39775,0.8833332,-18.10016,0.3233557864435088,-0.4171189618375215,0.1418615980576838,14.13157,52.63941,359.3106,0.1076081,0.4406676,-0.05988974,14.5999996736646,20
-16.13821,0.2833336,-17.92888,0.1687892922114979,0.2488074898462097,0.0405203881339222,3.582251,54.94403,359.9658,0.02759391,0.4610982,-0.01468328,14.6199996732175,20
-16.08666,0.4833336,-17.89351,0.2323499791858001,0.0296193601385901,0.0819942868370784,7.163826,54.84511,359.9254,0.05515628,0.4596856,-0.02934941,14.6399996727705,20
-16.03513,0.6833338,-17.85814,0.2868131258377318,-0.1686606994324099,0.1185359891492723,10.7443,54.74275,359.8784,0.08265688,0.4578247,-0.0439827,14.6599996723235,20
-15.98362,0.8833338,-17.82279,0.3448936991410427,-0.4003939380979811,0.1583517877474189,14.32367,54.63602,359.8241,0.1100689,0.4555178,-0.05856893,14.6799996718764,20
-15.80121,0.2833335,-17.70204,0.2003641340494049,0.240442801997194,0.0674623173002455,3.552015,55.84347,0.07259411,0.02768085,0.4680226,-0.01395308,14.6999996714294,20
-15.75062,0.4833334,-17.66623,0.1940095254424925,-0.0038345653793671,0.0653024373831012,7.102934,55.755,0.140249,0.05532747,0.4666174,-0.02788465,14.7199996709824,20
-15.70003,0.6833334,-17.63044,0.187466525078273,-0.2272035990015282,0.0638793804970685,10.65294,55.67002,0.2029674,0.08291304,0.4647647,-0.04178553,14.7399996705353,20
-15.64946,0.8833332,-17.59465,0.0046765760071494,0.2362618910261284,-0.0517061977110344,14.20204,55.58798,0.2611159,0.1104113,0.4624669,-0.05564237,14.7599996700883,20
-15.41458,0.2833333,-17.44068,-0.1737771218726376,0.6950229362279592,-0.1637806849805976,3.624322,56.97057,0.1075827,0.02824215,0.4766682,-0.01425723,14.7799996696413,20
-15.36254,0.4833333,-17.40467,-0.148107022192697,0.2441023872826859,-0.1444128885151343,7.247769,56.88589,0.2099748,0.05644789,0.4752285,-0.02849621,14.7999996691942,20
-15.31052,0.6833332,-17.36868,-0.11735557212066,-0.2115221534770192,-0.1214449408135553,10.871,56.80699,0.3076242,0.08459301,0.4733136,-0.04270775,14.8199996687472,20
-15.10083,0.2833333,-17.23075,-0.3175640183439068,0.2331261175004629,-0.2489770567078935,3.625207,57.6036,0.1198206,0.02822114,0.4815109,-0.01432321,14.8399996683002,20
-15.04851,0.4833333,-17.19514,-0.3552789330471633,0.0327557510665148,-0.2698851528926482,7.249537,57.52039,0.2345652,0.05640576,0.4800678,-0.02862798,14.8599996678531,20
-14.9962,0.6833332,-17.15955,-0.3984725588284252,-0.1467063846731247,-0.292859930612197,10.87299,57.44381,0.3450612,0.08452577,0.4781447,-0.04290026,14.8799996674061,20
-14.94391,0.8833331,-17.12396,-0.4343009685668306,-0.3596216569068384,-0.3096388540829355,14.49561,57.37336,0.4519012,0.1125527,0.475744,-0.05712739,14.899999666959,20
-14.68388,0.2833335,-16.95333,-0.6104527064754084,0.3000327208384624,-0.4165801124440449,3.56741,59.80374,0.2329634,0.02799588,0.4982186,-0.01375552,14.919999666512,20
-14.6321,0.4833335,-16.91856,-0.5534622702428642,0.074572756243042,-0.372362532814261,7.134117,59.73137,0.4617925,0.05595645,0.4967823,-0.02749377,14.939999666065,20
-14.58034,0.6833334,-16.8838,-0.4912547195883832,-0.1299791099896645,-0.3249111662009092,10.70003,59.67286,0.688216,0.0838543,0.4948636,-0.04120131,14.9599996656179,20
-14.52859,0.8833333,-16.84905,-0.4108235921302281,-0.3679840177582912,-0.2659698276916575,14.26479,59.62811,0.9137584,0.1116593,0.4924648,-0.05486498,14.9799996651709,20
-14.34638,0.2833333,-16.72952,-0.5248109722782193,0.2665806070176045,-0.3330685510706725,3.499464,60.23066,0.272937,0.02760672,0.501444,-0.01326071,14.9999996647239,20
-14.29573,0.4833334,-16.69512,-0.4868453070571696,0.0160306791509549,-0.3056024267400037,6.998238,60.16196,0.5420961,0.05517921,0.5000337,-0.02650503,15.0199996642768,20
-14.24509,0.6833333,-16.66072,-0.4360040736117376,-0.2136109209724064,-0.2713612034001933,10.49586,60.1094,0.8095904,0.08268938,0.4981555,-0.03971786,15.0399996638298,20
-14.04628,0.2833333,-16.52946,-0.553053279360828,0.2435824357026345,-0.3465712612985765,3.439998,59.97677,0.2890427,0.027257,0.4995321,-0.01281854,15.0599996633828,20
-13.99682,0.4833333,-16.49509,-0.658327691012305,0.6960710881157105,-0.4142953320590017,6.878942,59.90941,0.5747249,0.05447916,0.4981489,-0.02561794,15.0799996629357,20
-13.94737,0.6833333,-16.46074,-0.5542955585657836,0.2388782204316206,-0.3470185142200641,10.31719,59.85894,0.8588256,0.08164407,0.4963147,-0.03839046,15.0999996624887,20
-13.89793,0.8833332,-16.4264,-0.4383832023316145,-0.2230188846513464,-0.2717609685313356,13.75467,59.82543,1.143392,0.1087273,0.4940317,-0.05112461,15.1199996620417,20
-13.64949,0.2833333,-16.26263,-0.5492470602114956,0.2153564691766909,-0.344660572494897,3.388198,57.98774,0.1725302,0.02658762,0.4844647,-0.01301345,15.1399996615946,20
-13.60093,0.4833333,-16.22878,-0.4961034312069827,0.0087131641623765,-0.3104845915074197,6.775237,57.90996,0.3407434,0.05314116,0.4831204,-0.02600967,15.1599996611476,20
-13.55239,0.6833332,-16.19494,-0.446532572384541,-0.1770219603373542,-0.2775209299906045,10.16153,57.84167,0.5057224,0.07964063,0.4813538,-0.03897955,15.1799996607006,20
-13.50387,0.8833332,-16.16111,-0.3890391889644711,-0.3962105136977424,-0.238399362640914,13.54701,57.78263,0.6685485,0.1060625,0.4791667,-0.05191165,15.1999996602535,20
-13.3304,0.2833335,-16.04777,-0.4692948790489009,0.2571707809391341,-0.2882668045378445,3.330703,56.28065,0.07204264,0.02592291,0.4714172,-0.01315233,15.2199996598065,20
-13.28274,0.4833335,-16.01451,-0.321274477855157,0.0254378491016631,-0.1907137020196554,6.660122,56.19418,0.1391437,0.05181308,0.4701093,-0.02628807,15.2399996593595,20
-13.23509,0.6833333,-15.98125,-0.1731119966072398,-0.1853868700748335,-0.0935260838664735,9.988704,56.11102,0.2017127,0.07765225,0.4684051,-0.03939789,15.2599996589124,20
-13.18746,0.8833332,-15.94801,-0.0129686272130609,-0.4296645042054123,0.0107166727427276,13.31642,56.03067,0.2600553,0.1034185,0.4663065,-0.05247079,15.2799996584654,20
-12.96383,0.2833333,-15.80209,-0.0502785758660131,0.1986271867815846,-0.0124317564403213,3.275047,54.16821,359.9316,0.02517103,0.4551271,-0.01354174,15.2999996580184,20
-12.91678,0.4833334,-15.76966,0.0386941249704726,-0.0581954436639197,0.0560458290785792,6.54899,54.06992,359.8575,0.05031389,0.4538549,-0.02706842,15.3199996575713,20
-12.86975,0.6833334,-15.73722,0.1324239594296141,-0.2941097291168573,0.1266498762126655,9.821486,53.96659,359.777,0.07540491,0.4522127,-0.04056882,15.3399996571243,20
-12.67321,0.2833333,-15.60725,0.052905745758057,0.1568108522361541,0.0841862608680834,3.218864,51.34034,359.8161,0.02461912,0.4330591,-0.01361268,15.3599996566772,20
-12.62733,0.4833333,-15.57471,-0.0214955561270517,0.6030268783853712,0.044544845521095,6.436446,51.23266,359.6259,0.04921155,0.4318239,-0.02721044,15.3799996562302,20
-12.58147,0.6833333,-15.54218,0.0869218921294585,0.1395616530209117,0.1419073347838484,9.652697,51.11339,359.4281,0.07375785,0.4302478,-0.04078249,15.3999996557832,20
-12.53562,0.8833333,-15.50965,0.200273270416579,-0.3286077940612672,0.2400679255803073,12.86724,50.98159,359.2217,0.09823741,0.4283329,-0.05431432,15.4199996553361,20
-12.28628,0.2833335,-15.34529,0.0805248137043577,0.1034953273614727,0.184291333375933,3.400723,51.38828,359.7982,0.02597542,0.4334224,-0.01445103,15.4399996548891,20
-12.23765,0.4833334,-15.31103,0.1045005767236357,-0.1094202194668405,0.2360067132869758,6.800162,51.27842,359.5896,0.05192091,0.4321299,-0.02888542,15.4599996544421,20
-12.18904,0.6833335,-15.27678,0.1195384667707539,-0.3014274474378557,0.2792214737920062,10.19822,51.15511,359.3726,0.07781316,0.4304563,-0.04329045,15.479999653995,20
-12.14045,0.8833333,-15.24255,0.1368517886161608,-0.5268878176527076,0.3213025297266885,13.59636,51.01709,359.1452,0.1036408,0.428403,-0.05766028,15.499999653548,20
-11.96348,0.2833334,-15.12826,0.0110133054724776,0.120221255729918,0.2678169555260314,3.53396,53.16592,359.8395,0.02694873,0.4473185,-0.01505004,15.519999653101,20
-11.9124,0.4833335,-15.09357,0.0867911120957991,-0.1177838876917496,0.3623622627635328,7.067477,53.05946,359.6717,0.05386879,0.445969,-0.03008869,15.5399996526539,20
-11.86134,0.6833335,-15.05889,0.1566758111132458,-0.3348806081506185,0.4483707009719051,10.59988,52.94156,359.4957,0.08073153,0.4441953,-0.04509541,15.5599996522069,20
-11.81028,0.8833334,-15.02422,0.0545124787265578,0.1348575099703664,0.4173042076110693,14.13089,52.81097,359.3098,0.1075097,0.4419994,-0.06005479,15.5799996517599,20
-11.58436,0.2833335,-14.8768,-0.0492250055269565,0.5998911652321866,0.3798114340139804,3.582214,55.16997,359.9669,0.02756901,0.4628455,-0.0147291,15.5999996513128,20
-11.53269,0.4833334,-14.84161,-0.0161552243489726,0.1552432088362703,0.4263736612270019,7.163754,55.07573,359.9279,0.05510642,0.4614663,-0.0294411,15.6199996508658,20
-11.48103,0.6833333,-14.80644,0.0215976204754557,-0.2941089831290556,0.4702395733392812,10.7442,54.97817,359.8825,0.08258211,0.4596371,-0.04412017,15.6399996504188,20
-11.2811,0.2833332,-14.6745,-0.1630838463058097,0.1568117391801916,0.3638252543460556,3.552355,56.10891,0.073742,0.02765578,0.4700669,-0.01400972,15.6599996499717,20
-11.23035,0.4833334,-14.6389,-0.3460422511481784,0.6030280007210971,0.2529801006096548,7.103534,56.02501,0.1427749,0.05527655,0.4686937,-0.02799797,15.6799996495247,20
-11.17961,0.6833332,-14.60332,-0.336877370682231,0.13956266602408,0.2639688066871084,10.65386,55.94474,0.2071941,0.08283687,0.466871,-0.04195547,15.6999996490777,20
-11.12888,0.8833331,-14.56774,-0.3263908146665351,-0.3286069955415677,0.2696756351369025,14.20322,55.86757,0.2673461,0.1103095,0.464601,-0.05586872,15.7199996486306,20
-10.87722,0.2833333,-14.40201,-0.4527934877822934,0.1034959252493952,0.1825593924133937,3.62491,56.27486,0.09066317,0.02826311,0.47133,-0.01421806,15.7399996481836,20
-10.82545,0.4833333,-14.3656,-0.4216003420189258,-0.1094194759183313,0.1904965179166797,7.248918,56.19303,0.1762974,0.05648987,0.4699299,-0.02841785,15.7599996477365,20
-10.7737,0.6833333,-14.32921,-0.3887729262921464,-0.3014265582287619,0.1936630762671374,10.87265,56.11597,0.2575695,0.08465721,0.4680602,-0.04258738,15.7799996472895,20
-10.72197,0.8833331,-14.29284,-0.3422762628953393,-0.5268866622123021,0.2002805970054293,14.49547,56.0432,0.3349623,0.112732,0.4657231,-0.05671036,15.7999996468425,20
-10.55975,0.2833333,-14.17558,-0.4813860014206872,0.1202227723597927,0.0833027492625468,3.625548,56.10331,0.1002655,0.02832866,0.4700074,-0.01410444,15.8199996463954,20
-10.50819,0.4833333,-14.13888,-0.4082347583400505,-0.1177824735992614,0.1016564535889532,7.250183,56.02275,0.1956036,0.05662072,0.4686112,-0.0281906,15.8399996459484,20
-10.45665,0.6833333,-14.10219,-0.3351497394268623,-0.3348796141390794,0.1178679715778212,10.87389,55.94761,0.2867122,0.08484791,0.4667467,-0.04224439,15.8599996455014,20
-10.40512,0.8833331,-14.06552,-0.4293083996979856,0.1348583378486884,0.023173109598181,14.49677,55.87745,0.3743798,0.1129835,0.4644162,-0.05625097,15.8799996450543,20
-10.19686,0.2833334,-13.90944,-0.5182545000540228,0.5998918531125635,-0.0706489213913066,3.568507,57.62536,0.2149539,0.02818499,0.4816619,-0.01336313,15.8999996446073,20
-10.14627,0.4833334,-13.87297,-0.4915119612387872,0.1552437818085645,-0.0857367881781314,7.13626,57.55582,0.425938,0.0563344,0.4802765,-0.02670927,15.9199996441603,20
-10.09569,0.6833334,-13.83651,-0.444991458117383,-0.2941086210684099,-0.08912079199734,10.70318,57.49903,0.6345238,0.08442059,0.4784247,-0.04002554,15.9399996437132,20
-9.909949,0.2833333,-13.69731,-0.6111989486608493,0.1568117794285133,-0.2313349810111855,3.500559,57.70858,0.2616704,0.02785282,0.4822963,-0.01274063,15.9599996432662,20
-9.860744,0.4833333,-13.66086,-0.7655907608284149,0.6030278329326473,-0.3666960833621857,7.000418,57.64324,0.5197634,0.05567133,0.4809374,-0.0254655,15.9799996428192,20
-9.811549,0.6833332,-13.62441,-0.7993887238452837,0.1395623757483173,-0.3528980271295712,10.49904,57.59344,0.776516,0.08342736,0.4791287,-0.0381582,15.9999996423721,20
-9.762367,0.883333,-13.58798,-0.812548936551619,-0.3286074438486125,-0.3317981938726344,13.99687,57.55919,1.033491,0.1110974,0.476872,-0.05081164,16.0199996419251,20
-9.531667,0.2833334,-13.41496,-0.9483343598646554,0.1034957625137632,-0.3923045734927104,3.435304,57.63913,0.2783008,0.02743177,0.4817711,-0.01232223,16.0399996414781,20
-9.483617,0.4833335,-13.37881,-1.148320353972034,-0.1094196954546231,-0.2806531291704583,6.869483,57.57522,0.5533542,0.05482785,0.4804401,-0.02462646,16.059999641031,20
-9.43558,0.6833334,-13.34267,-1.3090878031868929,-0.3014269640224276,-0.1676151737851352,10.30297,57.52758,0.8269538,0.08216676,0.4786756,-0.03690496,16.079999640584,20
-9.387558,0.8833333,-13.30654,-1.4209387763773922,-0.5268872913754341,-0.0460511519499835,13.73566,57.49624,1.101047,0.1094236,0.4764796,-0.0491467,16.099999640137,20
-9.220279,0.2833334,-13.19246,-1.6841190818813567,0.1202218816697001,-0.0441506036320067,3.382355,56.25004,0.1769086,0.02675495,0.471151,-0.01255107,16.1199996396899,20
-9.172901,0.4833334,-13.15715,-1.9331134035578048,-0.1177833182041585,0.1715310913971794,6.763563,56.17707,0.3496131,0.05347505,0.4698544,-0.02508703,16.1399996392429,20
-9.125537,0.6833334,-13.12185,-2.129982799502001,-0.3348802112429435,0.3782668568209271,10.144,56.11387,0.5194177,0.08014072,0.4681486,-0.03759751,16.1599996387959,20
-9.078186,0.8833333,-13.08655,-2.443890509755967,0.1348580711817882,0.4672314731463842,13.52364,56.06027,0.6874662,0.106729,0.4660352,-0.05007164,16.1799996383488,20
-8.862618,0.2833333,-12.9397,-2.707503204180603,0.5998916417653257,0.5480990596584459,3.325654,54.64668,0.0570262,0.02600856,0.4588053,-0.01287753,16.1999996379018,20
-8.815845,0.4833333,-12.90535,-2.9556941432558705,0.1552435918051318,0.7804368249532487,6.649994,54.5633,0.1090928,0.05198355,0.4575441,-0.02574027,16.2199996374547,20
-8.769085,0.6833332,-12.87102,-3.1308130596177897,-0.2941086759524838,1.000919700251357,9.973463,54.48237,0.1566776,0.07790738,0.4558985,-0.03857776,16.2399996370077,20
-8.582739,0.2833334,-12.74784,-3.466462674471056,0.1568118682884406,1.0609750896059025,3.26897,53.30795,359.9387,0.02525221,0.4484322,-0.01327362,16.2599996365607,20
-8.53634,0.4833333,-12.71466,-3.742933102410027,0.6030279556813112,1.1055495028255038,6.536886,53.2146,359.8719,0.05047637,0.4472012,-0.02653283,16.2799996361136,20
-8.489954,0.6833333,-12.6815,-3.873644122086444,0.1395625436238858,1.2455067455192914,9.803388,53.11668,359.7989,0.07564825,0.4456071,-0.03976755,16.2999996356666,20
-8.443581,0.8833333,-12.64834,-3.939273970832919,-0.328607098514542,1.368524785826846,13.06877,53.01343,359.7194,0.1007509,0.4436515,-0.05296625,16.3199996352196,20
-8.211442,0.2833333,-12.4933,-4.066139855067638,0.1034959656719496,1.3854911340496925,3.210833,49.33918,359.7827,0.02466795,0.4172685,-0.01341588,16.3399996347725,20
-8.166461,0.4833332,-12.4597,-4.065521673106951,-0.1094193805245846,1.52336387966462,6.420351,49.23313,359.5592,0.04930934,0.4160827,-0.02681714,16.3599996343255,20
-8.121493,0.6833332,-12.42611,-4.002021573792939,-0.30142650909445,1.636024589812232,9.628473,49.11364,359.328,0.07390459,0.4145698,-0.0401932,16.3799996338785,20
-8.076534,0.8833331,-12.39253,-3.869900867164853,-0.5268865471299846,1.7322835084739907,12.83487,48.97977,359.088,0.09843422,0.4127316,-0.05352829,16.3999996334314,20
-7.939021,0.2833332,-12.29333,-3.851605177916783,0.1202225058671276,1.6776402113873825,3.45076,48.38223,359.7654,0.02662647,0.4096512,-0.01420443,16.4199996329844,20
-7.891227,0.4833332,-12.2564,-3.635586606192031,-0.1177827837378305,1.6946072826860732,6.900171,48.27349,359.524,0.05322156,0.4083993,-0.02839201,16.4399996325374,20
-7.843447,0.6833332,-12.21949,-3.3695778238692533,-0.3348799768095478,1.6896761839765997,10.34852,48.14915,359.2741,0.07976514,0.4067765,-0.04254842,16.4599996320903,20
-7.79569,0.8833331,-12.18259,-3.210443114833269,0.1348578070412989,1.5487798835115356,13.79696,48.0078,359.0132,0.1062413,0.4047837,-0.05666848,16.4799996316433,20
-7.655744,0.2833334,-12.01879,-3.0075964452511075,0.5998911580885451,1.390299135624538,3.542394,46.57836,359.7762,0.02761825,0.3952378,-0.01401286,16.4999996311963,20
-7.608137,0.4833332,-11.97916,-2.524129450615823,0.1552432594515815,1.3500342546358652,7.084233,46.47047,359.5464,0.0552123,0.3939751,-0.02800342,16.5199996307492,20
-7.560543,0.6833333,-11.93954,-1.9912043856696915,-0.2941088462673458,1.3044163427395397,10.62457,46.34719,359.3077,0.08274522,0.3923352,-0.04196321,16.5399996303022,20
-7.593334,0.2833333,-11.74807,-1.6235553362095905,0.1568114305226223,1.097601958059661,3.586217,44.47888,359.8902,0.02860032,0.3783203,-0.01272934,16.5599996298552,20
-7.54811,0.4833333,-11.70477,-1.2237765059547163,0.6030272590891759,0.8831432909933739,7.171666,44.38184,359.7761,0.05717437,0.3770671,-0.02542833,16.5799996294081,20
-7.502899,0.6833333,-11.66148,-0.584314190404422,0.1395619148963427,0.8564998815250799,10.7559,44.27666,359.6546,0.08568428,0.3754452,-0.03809891,16.5999996289611,20
-7.4577,0.8833333,-11.61821,0.1022579011317184,-0.3286079067914095,0.8253446258088086,14.33887,44.16228,359.5248,0.1141021,0.3734565,-0.05072852,16.6199996285141,20
-7.43977,0.2833334,-11.38088,0.6925801612404054,0.1034951823978275,0.7033744592225464,3.561401,42.68193,0.001751805,0.02894893,0.3637411,-0.01129416,16.639999628067,20
-7.397655,0.4833334,-11.33519,1.3141572812030144,0.5308934856959286,0.5817292525186559,7.121661,42.59578,-7.313498e-05,0.05786627,0.3625157,-0.02255934,16.65999962762,20
-7.355552,0.6833335,-11.28952,2.2611252036404954,0.048610638188271,0.5839874045457698,10.6809,42.50874,359.9926,0.0867195,0.3609411,-0.03379957,16.6799996271729,20
-7.313461,0.8833334,-11.24385,3.2603492848549624,-0.4383765719933409,0.5941883499456626,14.23912,42.42013,359.9797,0.1154809,0.3590193,-0.04500398,16.6999996267259,20
-7.311648,0.2833333,-11.05516,4.105016005244105,-0.0250910766340882,0.4854962548202319,3.635086,44.8274,0.1069182,0.02967631,0.381072,-0.01123122,16.7199996262789,20
-7.268207,0.4833333,-11.00888,5.234552412550128,-0.2568236471949741,0.5681446230208849,7.269269,44.75146,0.2091814,0.05931414,0.3798054,-0.02244802,16.7399996258318,20
-7.224783,0.6833333,-10.96262,6.313758361112399,-0.4676477890432968,0.6136037805590409,10.90322,44.68141,0.307331,0.0888885,0.378157,-0.03364312,16.7599996253848,20
-7.181372,0.8833332,-10.91638,7.176588707474435,0.0083625666229235,0.5267546089600703,14.53625,44.61684,0.4022839,0.1183649,0.3761289,-0.04480122,16.7799996249378,20
-7.062815,0.2833334,-10.77285,7.973647095415945,0.4796683568925917,0.4148689795267923,3.615718,50.12214,0.2185626,0.02938529,0.4233179,-0.01163624,16.7999996244907,20
-7.016784,0.4833333,-10.72954,9.22065006351173,0.0412928844104157,0.1175618674221041,7.230663,50.05713,0.4333187,0.05873248,0.4220091,-0.02325808,16.8199996240437,20
-6.970765,0.6833332,-10.68624,10.35438329816989,-0.4017869554500629,-0.1707042131756058,10.8448,50.00533,0.6459593,0.08801249,0.4202796,-0.0348538,16.8399996235967,20
-6.863959,0.2833333,-10.51793,11.155599523992516,0.0554059994387223,-0.5847873573186364,3.544434,56.39583,0.3511596,0.02870299,0.472207,-0.01191362,16.8599996231496,20
-6.81578,0.4833333,-10.47868,11.827455849686798,0.5078944124526965,-0.9843635398962114,7.088204,56.34307,0.6995338,0.05736938,0.4708686,-0.02381287,16.8799996227026,20
-6.767613,0.6833333,-10.43946,12.808522873593557,0.0507016929556044,-1.4334021930933796,10.6312,56.31177,1.047754,0.08597162,0.4690763,-0.03568657,16.8999996222556,20
-6.719464,0.8833331,-10.40023,13.617970640508704,-0.4111952631563093,-1.8351341331843944,14.17319,56.30197,1.397159,0.1144759,0.4668315,-0.04753306,16.9199996218085,20
-6.541752,0.2833333,-10.27984,14.151475058240925,0.0271805872419113,-2.2584357446853707,3.472515,61.84147,0.4051987,0.02780867,0.5135207,-0.01253689,16.9399996213615,20
-6.491623,0.4833332,-10.24509,14.51118478422126,0.4608516684755712,-2.6277805760867707,6.944439,61.79334,0.8080295,0.055583,0.5121695,-0.02505901,16.9599996209145,20
-6.441514,0.6833331,-10.21035,15.097229765639035,-0.0151583833245442,-2.77200986867466,10.41545,61.76937,1.209788,0.0832887,0.5103422,-0.03756629,16.9799996204674,20
-6.39142,0.883333,-10.17562,15.467975968619465,-0.4958726722621874,-2.8491963673670355,13.88559,61.7701,1.614662,0.110907,0.5080411,-0.0500393,16.9999996200204,20
-6.123935,0.2833333,-10.02182,15.523501787655272,-0.0763143953084395,-3.00373692756794,4.83809,60.45368,0.1595242,0.03716931,0.5029249,-0.02004664,17.0199996195734,20
-6.051582,0.4833332,-9.977715,15.373057839103383,0.3385395377887499,-3.096185886251585,9.675373,60.38882,0.3140366,0.07426436,0.5009423,-0.04005382,17.0399996191263,20
-5.97925,0.683333,-9.933616,15.48237633094129,-0.1562880228145955,-2.901004270499349,14.51249,60.33614,0.4649332,0.1112212,0.4980664,-0.05999397,17.0599996186793,20
-5.906955,0.883333,-9.889531,15.441681418259174,0.064468160268219,-2.815225742542492,19.35131,60.29544,0.6142091,0.1479877,0.4943007,-0.07984,17.0799996182323,20
-5.642676,0.2833334,-9.669373,15.183682934627624,0.3082230406819243,-2.6767544068384312,6.662975,56.65851,359.312,0.04830787,0.4740343,-0.03285163,17.0999996177852,20
-5.538433,0.4833332,-9.615425,15.154513362444554,-0.1176075357576548,-2.257151056644924,13.32272,56.44978,358.5951,0.09644163,0.4709586,-0.06558574,17.1199996173382,20
-5.434207,0.6833332,-9.561489,14.889262470447612,-0.5481425792380414,-1.787350187385791,19.97802,56.14531,357.8271,0.1442367,0.466276,-0.09809063,17.1399996168911,20
-5.330014,0.8833328,-9.507559,14.439733495664594,-0.0784049286770843,-1.4970502346035444,26.62848,55.72512,356.9785,0.1915331,0.4600002,-0.1302715,17.1599996164441,20
-4.950111,0.2833333,-9.344572,13.800217429876808,0.3866280644040406,-1.1795499532137983,9.387987,57.07876,358.0597,0.06381782,0.4773092,-0.05391598,17.1799996159971,20
-4.793247,0.4833332,-9.28398,12.991301604446402,0.6819016756192143,-0.832432742614035,18.76826,56.48984,355.9906,0.1272172,0.4716473,-0.1075203,17.19999961555,20
-4.63643,0.6833329,-9.223404,12.488274288207778,-0.0696792242879288,-0.2136887585182618,28.12064,55.47544,353.6595,0.1897289,0.4626815,-0.1603799,17.219999615103,20
-4.231919,0.2833333,-8.990973,11.851411139639117,0.1082494221488787,0.2446777939081839,7.128916,60.97105,358.1846,0.04554864,0.5071245,-0.04516221,17.239999614656,20
-4.107606,0.4833334,-8.958558,11.060533334235297,0.3096647478727834,0.6973400678162847,14.25147,60.53603,356.2936,0.0909064,0.5033556,-0.09020714,17.2599996142089,20
-3.983329,0.6833332,-8.926153,10.140295140670396,0.4822961258811725,1.1472000829398574,21.35331,59.83214,354.2684,0.1358765,0.4975127,-0.1348676,17.2799996137619,20
-3.859088,0.8833329,-8.893757,9.617223686486314,-0.2798780062099896,1.8841874857384184,28.42335,58.80283,352.0252,0.1802738,0.4896216,-0.1789596,17.2999996133149,20
-3.253211,0.2833333,-9.022195,8.86472571493186,-0.1125428229058975,2.462396416335329,7.762421,74.74698,359.3202,0.05019766,0.6059245,-0.04579024,17.3199996128678,20
-3.119286,0.4833333,-8.998237,7.987735324174584,0.0782790221746616,2.9948350698808843,15.52056,74.5187,358.603,0.1001487,0.6011449,-0.09135751,17.3399996124208,20
-2.985396,0.6833331,-8.974288,7.454459069115144,-0.3999965051044696,3.778070577436577,23.27298,74.17402,357.8172,0.1496226,0.5935907,-0.1364916,17.3599996119738,20
-2.851554,0.8833328,-8.950338,6.723695676791499,-0.1622006454543653,4.330527358407291,31.01897,73.68011,356.9188,0.1983916,0.5832948,-0.1810024,17.3799996115267,20
-2.310466,0.2833333,-8.996342,5.888628443453932,0.099081887733078,4.799253544382404,7.873988,83.23746,0.587415,0.05472443,0.6623315,-0.04177782,17.3999996110797,20
-2.17521,0.4833333,-8.97003,4.9802332000734735,0.3315805741742737,5.193705221134336,15.74573,83.27732,1.185774,0.1091736,0.6570735,-0.08334535,17.4199996106327,20
-2.039992,0.6833332,-8.943725,4.63886626101909,-0.3707263614301634,5.962936247361907,23.61434,83.40866,1.820143,0.1630897,0.648702,-0.1245056,17.4399996101856,20
-1.904811,0.8833328,-8.917427,4.0662287842576,-0.143523960208424,6.520317032186712,31.47874,83.65157,2.522606,0.2162176,0.6372591,-0.1650641,17.4599996097386,20
-1.401176,0.2833333,-8.739226,3.431593988800846,0.107165230939737,6.970083162441387,7.559771,80.71436,1.072828,0.05628227,0.6456434,-0.03556842,17.4799996092916,20
-1.274079,0.4833333,-8.699336,2.768478442669383,0.3290705988633949,7.325181389250212,15.11592,80.84869,2.173558,0.1123022,0.6407952,-0.07096057,17.4999996088445,20
-1.147013,0.6833332,-8.659472,2.5063707639519266,-0.3838296312141304,7.951902701868102,22.66526,81.14698,3.346981,0.1678202,0.6331105,-0.1060066,17.5199996083975,20
-1.019977,0.883333,-8.619637,1.9805239734504307,-0.1672205265562978,8.328424168509901,30.20405,81.64504,4.647988,0.2225903,0.622627,-0.1405526,17.5399996079504,20
-0.4670019,0.2833333,-8.375004,1.4310046289926517,0.0728754598498776,8.584442075527514,7.646987,66.79842,0.5472579,0.05829308,0.5489719,-0.03272839,17.5599996075034,20
-0.3481621,0.4833333,-8.313548,0.8899587195983312,0.2841877158988866,8.732665956371562,15.29235,66.82915,1.11402,0.1163629,0.5446912,-0.06522664,17.5799996070564,20
-0.2293562,0.683333,-8.25211,0.9101656025836284,-0.4393059718229435,9.264952114085691,22.93484,66.94324,1.711953,0.173896,0.5379765,-0.09742381,17.5999996066093,20
0.2921191,0.2833332,-7.980456,0.7066930650053607,-0.2332905505310573,9.458015915513348,8.084002,60.79788,0.5160609,0.06306984,0.5044802,-0.031793,17.6199996061623,20
0.4105397,0.4833331,-7.903913,0.4811102294327147,-0.0037882341618361,9.50081722732974,16.14571,60.82799,1.044971,0.125673,0.5001025,-0.06330387,17.6399996057153,20
0.5287246,0.6833329,-7.827537,0.2643104831189999,0.196930137366748,9.4050207723181,24.19039,60.94176,1.607323,0.1875338,0.4932614,-0.09442511,17.6599996052682,20
0.6467367,0.8833326,-7.751272,0.6165699443489485,-0.5371565309435448,9.67145885350118,32.22191,61.1574,2.23163,0.2483791,0.4839969,-0.1250357,17.6799996048212,20
0.7646249,0.9766695,-7.675087,0.6314465619915604,-0.341734211333553,9.644741493407594,40.24231,61.51046,2.962315,0.3079378,0.4723593,-0.1549991,17.6999996043742,20
1.308074,0.2833334,-7.374613,0.5739122258186748,-0.1228251295005248,9.445537400449618,8.121259,50.59019,359.3272,0.06151912,0.4265763,-0.03555087,17.7199996039271,20
1.42508,0.4833332,-7.29378,0.934898868254951,-0.5663769817944239,9.472075220802653,16.23808,50.35996,358.6151,0.1227101,0.4227125,-0.0709114,17.7399996034801,20
1.542053,0.683333,-7.212969,0.9143023245575465,-0.2946541420053823,9.108171444778408,24.34897,50.00719,357.8292,0.1832643,0.4167154,-0.1059033,17.7599996030331,20
1.658992,0.8833327,-7.13218,0.8437645963747347,-0.0002085117358545,8.582304876670687,32.45181,49.4952,356.922,0.2428764,0.4086173,-0.1403503,17.779999602586,20
2.24581,0.2833334,-6.782631,0.7558157802153671,0.2647220137399376,7.90980713650054,7.573557,44.54076,358.072,0.05474648,0.3791251,-0.04056064,17.799999602139,20
2.362557,0.4833333,-6.712286,1.3541445832023582,-0.3601604828581261,7.552513984116146,15.13333,44.06537,356.0644,0.109222,0.375841,-0.08092138,17.819999601692,20
2.479271,0.683333,-6.641961,1.3426216566441118,-0.0616830617300191,7.212123890778326,22.66891,43.28246,353.8969,0.1631737,0.370813,-0.120895,17.8399996012449,20
3.008515,0.2833333,-6.29958,1.2562881601104232,0.2543880032997702,6.74727633172562,7.07843,47.83908,358.132,0.04982579,0.4055462,-0.03989839,17.8599996007979,20
3.121982,0.4833332,-6.241146,1.1263997575504463,0.5360387317769405,6.179559104050732,14.13814,47.40207,356.1912,0.09936705,0.4024332,-0.07963838,17.8799996003509,20
3.235417,0.683333,-6.182729,1.4278537382137415,-0.0550544993616761,5.835775995451632,21.17649,46.69238,354.1158,0.1484896,0.3976839,-0.1190431,17.8999995999038,20
3.348819,0.8833328,-6.124328,1.2066786217809993,0.2701440182456617,5.496305128440017,28.18205,45.65398,351.8223,0.1969943,0.3913188,-0.1579524,17.9199995994568,20
4.03287,0.2833333,-5.654077,0.9264263068055492,0.6061986849599559,5.106089738945986,7.282504,51.76349,358.0902,0.04987114,0.4365256,-0.04268199,17.9399995990098,20
4.153414,0.4833332,-5.601838,0.6174231383392197,0.8625308032063869,4.687622233801633,14.55279,51.30762,356.1031,0.09950352,0.4330796,-0.08520416,17.9599995985627,20
4.273923,0.683333,-5.549614,0.8559113311198683,0.1554624149512206,4.624315147832176,21.80029,50.56215,353.9699,0.1486927,0.4277675,-0.127347,17.9799995981157,20
4.394399,0.8833327,-5.497405,0.6204956475168455,0.3741259186110323,4.343264539925656,29.01242,49.46389,351.5981,0.1972271,0.4206139,-0.1689291,17.9999995976686,20
4.885538,0.2833333,-5.114202,0.3442951101755511,0.6127882874773041,4.016011073865728,7.738319,56.51316,358.7086,0.0541105,0.4729816,-0.04184749,18.0199995972216,20
5.01069,0.4833333,-5.058618,0.466059155880794,0.1495657691521156,3.9723652316390794,15.46911,56.16256,357.3584,0.1079577,0.4690541,-0.08348651,18.0399995967746,20
5.135793,0.6833332,-5.003057,0.5563405630734817,-0.3172316040787505,3.883496173449688,23.18917,55.5976,355.8916,0.1612998,0.4629308,-0.1247339,18.0599995963275,20
5.260861,0.8833329,-4.947511,0.1372274914296412,0.1175173783879731,3.531050339412076,30.88969,54.76333,354.2324,0.2138715,0.4546426,-0.1653857,18.0799995958805,20
5.873465,0.2833333,-4.443068,-0.2958279236247403,0.5489799609536563,3.1342541200534364,7.901597,63.68843,0.3465926,0.06012116,0.5261782,-0.03378893,18.0999995954335,20
5.994361,0.4833332,-4.376474,-0.4029453142095462,0.0428438022811851,2.98510987504041,15.8011,63.68222,0.6957366,0.1199397,0.5218393,-0.06740586,18.1199995949864,20
6.115221,0.683333,-4.309896,-0.9763249816644262,0.2575356730788524,2.5544955626680834,23.69821,63.7282,1.061801,0.1791713,0.5150195,-0.1006911,18.1399995945394,20
6.236046,0.8833327,-4.243334,-1.554998482501727,0.5004711944862574,2.0728505743678816,31.5926,63.8368,1.462851,0.2375348,0.5057535,-0.1334868,18.1599995940924,20
6.852783,0.2833335,-3.718477,-2.10790258626238,0.7193797549205927,1.562591804502827,7.564925,60.6202,0.8144971,0.06052892,0.503163,-0.0271693,18.1799995936453,20
6.960665,0.4833334,-3.641134,-2.2283887922397927,0.008239608353976,1.4248160391312772,15.12776,60.70692,1.648758,0.1207835,0.4992499,-0.05420342,18.1999995931983,20
7.068525,0.6833332,-3.563822,-2.3020255141274752,-0.6009714714335346,1.2634454855687076,22.68568,60.91767,2.536974,0.1804974,0.4931431,-0.08096643,18.2199995927513,20
7.61132,0.2895519,-3.124165,-2.8081641042515777,-0.205545536008563,0.8323422204018921,7.587667,51.89748,0.4640338,0.06126353,0.4363635,-0.02531881,18.2399995923042,20
7.710407,0.4895518,-3.035973,-2.997276334339644,-0.4503807369975222,0.7144539490410265,15.17313,51.91551,0.947293,0.1222876,0.4328808,-0.05041844,18.2599995918572,20
7.809467,0.6895517,-2.947807,-3.1404152067247004,-0.6695509917467413,0.5770007031272131,22.756,52.00359,1.455555,0.1827569,0.4274966,-0.07528909,18.2799995914102,20
7.908498,0.8895514,-2.859666,-3.2059735894392656,-0.9174173857934776,0.441922287900381,30.33561,52.1754,2.011906,0.2424059,0.4202362,-0.09982211,18.2999995909631,20
8.636518,0.3323665,-2.353434,-3.7265422729360136,-0.2879585973724401,0.0085530536463618,7.384633,48.91557,0.03508721,0.05874629,0.4131453,-0.02638429,18.3199995905161,20
8.737047,0.5323665,-2.272405,-3.867433788032711,-0.5388569545092037,0.0115649687171064,14.76695,46.11229,359.5671,0.1167763,0.3888296,-0.05377552,18.3399995900691,20
8.837534,0.7323663,-2.191388,-3.95700191659048,-0.7640900175457419,0.0198827461037458,22.11485,43.12313,358.6879,0.1742302,0.362697,-0.08093048,18.359999589622,20
8.937983,0.9323661,-2.110381,-4.458109593042892,-0.2977318238763959,-0.2701600296713762,29.40353,39.81682,357.3134,0.2308341,0.3348724,-0.1077153,18.379999589175,20
9.454244,0.3955624,-1.743655,-4.896548364197304,0.1686785507814541,-0.5322752947615204,7.956485,40.5638,359.338,0.0630772,0.3461744,-0.02945475,18.399999588728,20
9.555629,0.5955622,-1.647918,-5.113569113861553,-0.269835563746799,-0.50292919440564,15.86854,37.63817,358.2618,0.1257968,0.321438,-0.05874233,18.4199995882809,20
9.656985,0.795562,-1.552204,-5.241482106925355,-0.7082970048108939,-0.4212382980181308,23.71077,34.40573,356.6938,0.1878196,0.2949882,-0.08770552,18.4399995878339,20
9.758314,0.9591157,-1.456513,-5.93233380667645,-0.2417294223933055,-0.7572192494118237,31.4476,30.68875,354.4971,0.2488112,0.2669694,-0.1161896,18.4599995873868,20
10.37132,0.3386838,-1.022992,-6.422909937854746,-0.4154231610789121,-0.7679213144469021,7.459888,33.65403,357.9749,0.05715398,0.2899252,-0.03570795,18.4799995869398,20
10.47503,0.5386837,-0.9366657,-6.853089150904342,-0.5634516995770402,-0.7178769200273796,14.80221,30.48748,355.5217,0.1140005,0.265392,-0.07122488,18.4999995864928,20
10.57871,0.7386835,-0.8503624,-7.191633270729401,-0.7401764707627294,-0.5842325517431388,21.98732,26.85268,352.5316,0.1702498,0.2395304,-0.1063709,18.5199995860457,20
11.06425,0.3109577,-0.4777254,-7.852609996398014,-0.0395758071010299,-0.7409973090249324,6.829711,33.1463,357.7563,0.05150513,0.2857959,-0.03571864,18.5399995855987,20
11.16405,0.5109576,-0.401802,-8.259072092412111,-0.21933227671355,-0.4746226395055273,13.53018,29.99663,355.1225,0.1027476,0.2615978,-0.07127343,18.5599995851517,20
11.26382,0.7109575,-0.3259004,-8.578799527653382,-0.3734238000863263,-0.1312987034289956,20.06541,26.4147,352.0094,0.1535145,0.2362523,-0.106501,18.5799995847046,20
11.36356,0.9109573,-0.2500204,-8.78152445652191,-0.5562115843727562,0.311292462674535,26.38379,22.2697,348.2957,0.203579,0.2098737,-0.141245,18.5999995842576,20
11.75168,0.2833334,0.0771154,-9.312989023190529,-0.5019871567787859,0.6058383619630465,6.98697,34.65996,357.7578,0.05234058,0.2984021,-0.03678998,18.6199995838106,20
11.85507,0.4833333,0.1526501,-9.74926300361003,-0.397530638903129,0.9349498184468884,13.84718,31.50851,355.1153,0.104426,0.2742311,-0.07341418,18.6399995833635,20
11.95842,0.6833332,0.2281633,-10.062319938430502,-0.2961579465170298,1.3200372534788871,20.54099,27.90918,351.9778,0.1560113,0.2488113,-0.1096892,18.6599995829165,20
12.06175,0.8833329,0.3036551,-10.224610319604835,-0.2511849687337517,1.7828771721458456,27.01466,23.72165,348.2145,0.2068572,0.2222618,-0.1454484,18.6799995824695,20
12.51711,0.2833334,0.7340075,-10.746433149462511,-0.2092961355517109,1.9449809772672468,7.537613,38.39428,358.2222,0.05697791,0.3290319,-0.03623028,18.6999995820224,20
12.62451,0.4833332,0.8148441,-11.129869239137925,-0.1171751181752397,2.1309235986698605,14.93435,35.35808,356.0392,0.113341,0.3052083,-0.07208924,18.7199995815754,20
12.7315,0.6833331,0.8953702,-11.348624221827778,-0.0281378467499777,2.3609233878452622,22.17147,31.92713,353.3546,0.1689091,0.2801551,-0.1074772,18.7399995811284,20
13.08641,0.2833335,1.282148,-11.89902213658153,0.7173221046906972,2.220466701309899,7.85324,43.08799,359.4465,0.06192427,0.3666569,-0.02962848,18.7599995806813,20
13.18912,0.4833333,1.373472,-12.229311729341834,0.5815634074817697,2.3057445948765354,15.67024,40.34645,358.5106,0.1235089,0.3432744,-0.05909402,18.7799995802343,20
13.2918,0.6833332,1.464773,-12.38029447919073,0.4705757705982771,2.398498770160508,23.42944,37.33362,357.1241,0.184433,0.3181259,-0.08824416,18.7999995797873,20
13.39444,0.8833328,1.556052,-12.327650887646737,0.3299654829708886,2.518560424662579,31.101,33.88928,355.166,0.2443798,0.2913443,-0.1169287,18.8199995793402,20
13.78194,0.2833333,2.035888,-12.7957702544066,0.3740099940409196,2.360556483463374,7.644058,43.3223,0.5296887,0.06365212,0.3680054,-0.02031772,18.8399995788932,20
13.86877,0.4833333,2.137635,-13.116752348260183,0.461364661365037,2.208499553347293,15.30172,40.82198,0.7284119,0.1269719,0.344847,-0.04052613,18.8599995784461,20
13.95557,0.6833332,2.239359,-13.269299747190754,0.5384573623060804,2.081355179313115,22.95835,38.23433,0.5753922,0.1896456,0.3200018,-0.0605263,18.8799995779991,20
14.04234,0.8833329,2.341061,-13.232597658808272,0.5517156679215085,1.99835844291166,30.59772,35.44524,0.012339,0.2513633,0.2935946,-0.08022057,18.8999995775521,20
14.24935,0.2833331,2.667651,-13.507557229283876,0.4783340086975852,1.841855349889172,7.308684,32.1504,0.05690103,0.0613821,0.2763053,-0.01717254,18.919999577105,20
14.31842,0.4833331,2.774899,-13.63179008585183,0.4384836181494937,1.6911403898847714,14.6138,29.57152,359.7975,0.122525,0.2533499,-0.03415316,18.939999576658,20
14.38748,0.6833329,2.882113,-13.585693342655263,0.3782620724049251,1.563228775369514,21.89676,26.84994,359.1773,0.1830934,0.2292664,-0.05095023,18.959999576211,20
14.58116,0.2833332,3.245595,-13.350260699351283,0.287519542475682,1.4752407251130544,7.699975,23.04422,0.2665741,0.06625473,0.1991417,-0.01113752,18.9799995757639,20
14.6319,0.4833332,3.369771,-13.56153033347491,0.2048096970571059,1.0614961200430644,15.38417,20.53527,0.2070296,0.1320247,0.1764042,-0.02209637,18.9999995753169,20
14.68253,0.683333,3.49369,-13.638132582502282,0.1613538471119035,0.6799094373583001,23.04246,17.91625,359.7824,0.1970047,0.1529494,-0.0329382,19.0199995748699,20
14.7331,0.8833327,3.617442,-13.56345909917577,0.1035466372613437,0.348563094902512,30.66289,15.06074,358.925,0.2609249,0.1288412,-0.04361781,19.0399995744228,20
14.93202,0.2833333,4.06183,-13.832797266953802,0.0910411336956219,-0.2231367069050893,8.114491,10.94677,359.7746,0.07024326,0.09528263,-0.008701583,19.0599995739758,20
14.96555,0.4833332,4.199572,-13.976830383829054,0.1207620020139214,-0.7503265212053485,16.20904,8.363161,359.1793,0.1400834,0.07319452,-0.01735155,19.0799995735288,20
14.99907,0.683333,4.337279,-13.981036368109594,0.1392490378732602,-1.2128315420526672,24.26523,5.552461,358.1547,0.2091387,0.05072788,-0.02590347,19.0999995730817,20
15.13545,0.2833334,4.726868,-13.831576523213762,0.0930418234925873,-1.5909019158916884,7.738631,359.201,358.4046,0.06756964,-0.006016434,-0.01341978,19.1199995726347,20
15.16413,0.4833333,4.861784,-13.972311647452146,0.0684746516601366,-2.130062398052708,15.39236,356.3701,356.4126,0.1347697,-0.0271812,-0.02676417,19.1399995721877,20
15.1928,0.6833331,4.996664,-13.996134810970124,0.0893829197278877,-2.6026642117536056,22.93025,353.1223,353.9212,0.2012514,-0.04818332,-0.03996488,19.1599995717406,20
15.22146,0.8833328,5.13151,-13.890501570736488,0.1024505780248784,-2.9859370814240407,30.30704,349.2834,350.7743,0.26667,-0.06891393,-0.05295463,19.1799995712936,20
15.30446,0.2833333,5.40647,-13.6438499608908,0.0543618303051798,-3.2569821951735403,7.125806,348.1706,357.3047,0.06421531,-0.1013667,-0.01694673,19.1999995708466,20
15.32762,0.4833333,5.537364,-13.728406863477684,-0.0015676200526124,-3.916534841718464,14.11068,345.1802,354.2194,0.128101,-0.1216856,-0.0338037,19.2199995703995,20
15.35078,0.6833332,5.668221,-13.735354498845345,-0.0120216299875018,-4.491246619404942,20.91146,341.6803,350.6317,0.1913471,-0.1413925,-0.05049015,19.2399995699525,20
15.37392,0.883333,5.799045,-13.653182082709115,-0.0303161285997189,-4.957462129992413,27.46778,337.5243,346.3934,0.2536471,-0.1603923,-0.06692617,19.2599995695055,20
15.44761,0.2833334,6.120708,-13.770193566547915,0.6105201370531391,-5.659020953521901,6.559109,343.9294,357.119,0.06013644,-0.1380865,-0.01685706,19.2799995690584,20
15.46672,0.4833333,6.244166,-13.88688666178312,0.3662423661479673,-6.368246290971939,12.97289,340.9706,353.8931,0.1200046,-0.1580744,-0.03355093,19.2999995686114,20
15.48584,0.6833331,6.367588,-13.933389030510034,0.1428728916237562,-6.98483213750219,19.19936,337.5433,350.2216,0.1793394,-0.1773531,-0.05007314,19.3199995681643,20
15.51137,0.2833332,6.656402,-13.90213238561697,-0.1139492797121247,-7.483763478398579,7.116325,341.6559,357.4491,0.06479429,-0.1576897,-0.01204181,19.3399995677173,20
15.51733,0.4833332,6.788207,-14.197985118582404,-0.1385164599949787,-8.397128141244922,14.10606,338.7115,354.5193,0.1293012,-0.1773334,-0.023977,19.3599995672703,20
15.52329,0.6833331,6.919974,-14.411724065539966,-0.1176083172894195,-9.22182272967543,20.92333,335.2784,351.0979,0.1931706,-0.1961081,-0.03579593,19.3799995668232,20
15.52926,0.8833328,7.051703,-14.539777144536504,-0.1045407940246713,-9.934965037977635,27.51149,331.2118,347.0403,0.2560973,-0.2139251,-0.04744332,19.3999995663762,20
15.51461,0.2833333,7.376285,-14.700471454190644,-0.7929436533106295,-10.624901643389093,7.67078,341.21,358.4664,0.06816677,-0.1619767,-0.002255584,19.4199995659292,20
15.49951,0.4833331,7.512008,-14.889679598987035,-0.55859737340534,-11.434380406737764,15.2612,338.4333,356.5476,0.1359678,-0.1814252,-0.00449718,19.4399995654821,20
15.48441,0.683333,7.647693,-14.960327692767338,-0.3075245262984243,-12.108079376311148,22.74212,335.2576,354.1459,0.2030584,-0.1999303,-0.006714271,19.4599995650351,20
15.46932,0.8833328,7.783235,-14.913494608299889,-0.0919959498170298,-12.625279965400258,30.06819,331.5244,351.1174,0.2690648,-0.2173456,-0.008884439,19.4799995645881,20
15.41662,0.2833334,7.939769,-14.90084334169742,0.6421763396502893,-13.273536740098576,7.780003,341.9867,359.7526,0.06734172,-0.1560432,0.008493293,19.499999564141,20
15.38105,0.4833334,8.070922,-14.837234870732823,0.3796732839142027,-13.963063394592083,15.54084,339.5446,359.1701,0.1343262,-0.1749624,0.01694509,19.519999563694,20
15.34549,0.6833332,8.202037,-14.644378389969262,0.1385664233180011,-14.501390777214288,23.26673,336.9003,358.2019,0.2006179,-0.1929836,0.02531175,19.539999563247,20
15.26054,0.2833333,8.365767,-14.326307155669973,-0.135505447723597,-14.87147666033393,7.466422,337.8769,0.152281,0.06364661,-0.1915407,0.01379378,19.5599995627999,20
15.21092,0.4833331,8.486329,-14.152715254468228,-0.1768346413458954,-15.634260032899247,14.93079,335.5302,-0.001087277,0.1269783,-0.210123,0.02752509,19.5799995623529,20
15.16132,0.683333,8.606778,-13.855071993970958,-0.1722004798438489,-16.269296848786745,22.37737,333.0643,359.5136,0.1896728,-0.22767,0.04114189,19.5999995619059,20
15.11183,0.8833327,8.726481,-13.438753260381697,-0.1749189995594272,-16.762613943694422,29.75802,330.4198,358.6539,0.251152,-0.2437859,0.05456895,19.6199995614588,20
14.95874,0.2833333,8.879216,-13.033402786374957,0.4819811847813712,-17.40370209709807,7.253923,316.9536,359.4788,0.06051384,-0.3658714,0.01898544,19.6399995610118,20
14.88048,0.4833333,8.979064,-12.659435120934283,0.2542554714190999,-18.185325261313,14.48181,314.5735,358.669,0.1207078,-0.3816642,0.03803547,19.6599995605648,20
14.80225,0.6833332,9.078898,-12.165081916662642,0.0479260599157447,-18.821638365364542,21.66549,311.9875,357.5078,0.180335,-0.3957584,0.05693199,19.6799995601177,20
14.72404,0.883333,9.178715,-11.561086460715362,-0.1913685893227644,-19.30123196623018,28.78645,309.0835,355.9125,0.239144,-0.4080923,0.07559412,19.6999995596707,20
14.58943,0.2833334,9.186931,-11.050360109216824,-0.197919789541603,-20.049230500041407,7.696319,298.836,359.6241,0.05944229,-0.5074316,0.03132693,19.7199995592237,20
14.47639,0.4833333,9.258898,-10.42272312989676,-0.1585078080000738,-20.613248700645336,15.34402,296.5172,358.9502,0.1183058,-0.520315,0.06250963,19.7399995587766,20
14.3639,0.6833333,9.330408,-9.566894084200078,-0.1668396046084126,-20.95237184743673,22.91968,294.0372,357.9283,0.1762807,-0.530414,0.0932753,19.7599995583296,20
14.25146,0.883333,9.401903,-8.544350024486134,-0.243687488696736,-21.052242389848207,30.44128,291.2359,356.4624,0.233385,-0.5379521,0.1236058,19.7799995578825,20
14.06684,0.2833333,9.371852,-7.4487592366470015,0.4511175764933531,-21.14719857232119,7.731254,271.7607,358.4973,0.05750167,-0.6938806,0.03753626,19.7999995574355,20
13.93313,0.4833333,9.404243,-6.27933831588383,0.1121886533711227,-21.36900935643165,15.3921,269.2506,356.6427,0.1146935,-0.7022467,0.07487812,19.8199995569885,20
13.79945,0.6833333,9.436611,-5.003925204340154,-0.2114961796332004,-21.34996554238937,22.95736,266.3573,354.3406,0.1712868,-0.7070444,0.1118358,19.8399995565414,20
13.60097,0.2833334,9.384323,-3.6786410268084015,0.1536480334947262,-21.29307404123153,6.738314,249.7966,356.9423,0.05545571,-0.8175629,0.03294527,19.8599995560944,20
13.47222,0.4833334,9.395559,-2.332639348923795,-0.0907151067976771,-21.350921643843,13.33512,247.0729,353.5468,0.1106426,-0.8229742,0.06574157,19.8799995556474,20
13.34349,0.6833333,9.406773,-0.9503034566568882,-0.316863529011267,-21.17964008942151,19.74896,243.8494,349.7088,0.165313,-0.8246673,0.09824039,19.8999995552003,20
13.10161,0.2833333,9.314178,0.428095513961912,-0.5736415150097325,-20.79346022734604,5.606479,232.5132,356.2607,0.05084847,-0.8945659,0.02942083,19.9199995547533,20
12.98409,0.4833333,9.307782,1.7997468450314231,0.0463468939968374,-20.435138172834808,11.04379,229.8069,352.2441,0.1014855,-0.8980022,0.05873227,19.9399995543063,20
12.86659,0.6833333,9.301364,3.118207294523325,-0.1996472183360507,-20.373235934435808,16.27065,226.6521,347.8757,0.1517196,-0.8980246,0.08782292,19.9599995538592,20
12.74913,0.8833328,9.294949,4.409579396339453,-0.4294983262102624,-20.106610525200995,21.23923,222.987,343.0759,0.2013631,-0.8946305,0.1166123,19.9799995534122,20
12.63172,0.9766699,9.288539,5.634131429053884,-0.6894702111035549,-19.66016874587674,25.88616,218.7409,337.7587,0.2502291,-0.8878327,0.1449899,19.9999995529652,20
12.45237,0.2833334,9.112067,6.795170733019358,-0.6941117511157865,-19.50640880271221,5.497158,219.7056,356.293,0.04666308,-0.9384679,0.03410837,20.0199995525181,20
12.34087,0.4833333,9.081,7.887900928145383,-0.6578180904875282,-19.14625041337677,10.85104,217.0278,352.328,0.09311053,-0.9398749,0.06830934,20.0399995520711,20
12.22939,0.6833332,9.049945,8.881591429019176,-0.629939526899538,-18.601401314085344,15.99829,213.9164,348.0256,0.1391675,-0.9378105,0.1022539,20.0599995516241,20
12.03673,0.2833332,8.83892,9.815119856355407,0.0576906248418646,-17.93468397228647,6.723991,216.0866,357.0277,0.04277529,-0.9483959,0.04772231,20.079999551177,20
11.92461,0.4833332,8.776375,10.618855362168768,-0.1184267362099601,-17.5252046749071,13.32787,213.4047,353.7338,0.08529764,-0.948095,0.09538165,20.09999955073,20
11.81252,0.683333,8.713859,11.30785573154734,-0.2796818169069709,-16.93998607077455,19.75683,210.2363,350.0072,0.1274064,-0.9435664,0.142613,20.119999550283,20
11.70045,0.8833327,8.651375,11.85517846906042,-0.4768860934216435,-16.2052663375982,25.95799,206.4643,345.7192,0.16892,-0.9348344,0.18921,20.1399995498359,20
11.46796,0.2833333,8.330823,12.368030968550812,0.1970884218997339,-15.39009826950008,7.652729,218.053,358.9996,0.02998891,-0.9430349,0.06024526,20.1599995493889,20
11.37032,0.4833333,8.237902,12.734980886398969,0.0036610614925794,-15.0422702291402,15.25819,215.6899,357.6744,0.05982048,-0.9424437,0.1201829,20.1799995489419,20
11.27271,0.683333,8.144999,12.986386058046776,-0.1755210866351786,-14.531728889237003,22.79773,213.0294,355.9506,0.0893508,-0.937264,0.1795214,20.1999995484948,20
11.05682,0.2833336,7.80183,13.097326596816709,-0.3905202652906768,-13.888557616083236,7.474712,217.4233,359.909,0.02166153,-0.9451139,0.06148345,20.2199995480478,20
10.97477,0.4833336,7.700253,13.05990980716912,-0.3550984035706602,-13.606906831240938,14.93896,215.2574,359.534,0.04321242,-0.9447838,0.122671,20.2399995476007,20
11.01096,0.6454855,7.630041,12.896304725078238,-0.2764331730662649,-13.163431193670908,22.78651,218.0249,355.9677,0.09692036,-0.9239796,0.1754148,20.2599995471537,20
11.01819,0.8335902,7.571211,12.599022671473094,-0.2056406944492717,-12.591813788798865,27.45601,224.3356,355.9531,0.1212519,-0.8959049,0.2066923,20.2799995467067,20
11.01964,0.9577663,7.507783,12.168453976651191,-0.1962898171752868,-11.924786888633797,31.83698,230.3602,357.0963,0.1387048,-0.8670356,0.2377607,20.2999995462596,20
10.9915,0.2274077,7.123381,11.436496714791442,-0.1435853070983951,-11.746638948180328,7.533234,218.7867,358.3442,0.03541064,-0.9408102,0.05717133,20.3199995458126,20
11.0143,0.4149962,7.046599,10.583574059517476,-0.0524055923387598,-11.393623995319588,12.43517,226.8242,359.7461,0.04505512,-0.9121751,0.09851241,20.3399995453656,20
11.01886,0.6085456,6.96814,9.620237038206753,0.0239334903480177,-10.899023305696794,16.55676,234.9517,2.451691,0.04763227,-0.879181,0.1374806,20.3599995449185,20
10.99985,0.2330624,6.594828,8.63515736918385,0.7524038726373724,-10.195124050203503,7.924202,218.7343,357.9661,0.03961384,-0.9406033,0.05930485,20.3799995444715,20
11.01597,0.4250881,6.514475,7.427580413873457,0.5887598476834133,-9.829368610146432,12.37325,226.9227,0.1395805,0.04179455,-0.9120379,0.09934002,20.3999995440245,20
11.0192,0.6215726,6.429152,6.159070246381193,0.439024081388503,-9.331403575656466,16.15619,234.598,3.582764,0.03691382,-0.8813926,0.1390058,20.4199995435774,20
11.01984,0.8192081,6.342142,4.976524113269056,0.9691231083723096,-8.611046466339525,19.33815,242.3833,7.738453,0.02988261,-0.8472353,0.1778012,20.4399995431304,20
10.99672,0.2308566,5.825769,3.5928217905402224,0.8472036587637275,-8.236002180381222,8.044225,212.5503,357.5541,0.04008956,-0.9569251,0.06134881,20.4599995426834,20
11.01534,0.4218244,5.739661,2.2109748526359017,0.7391923605724615,-7.743923360231906,13.00086,221.9074,359.5075,0.04447281,-0.9276832,0.104196,20.4799995422363,20
11.01907,0.619553,5.645591,0.839966638319753,0.5907281266931336,-7.169573705914364,17.04926,230.4312,3.242729,0.03781107,-0.8961446,0.1459767,20.4999995417893,20
11.00397,0.2358107,5.148035,-0.5109999215988896,0.4754959027730848,-6.5481300267299565,7.922855,208.4844,356.5168,0.04637547,-0.9659854,0.0594715,20.5199995413423,20
11.01679,0.4284547,5.060667,-2.009136254506505,0.4642099440354535,-6.248388047993514,12.96758,217.1498,358.043,0.0520496,-0.9410935,0.1016191,20.5399995408952,20
11.01936,0.6241645,4.973128,-3.431886178278626,0.4885514478938901,-5.861582612727893,17.5004,226.1827,0.6588028,0.05443594,-0.9095022,0.1421648,20.5599995404482,20
11.01987,0.8207479,4.884668,-4.771023475577783,0.4953009161282069,-5.42097289702731,21.4905,235.5282,4.196406,0.05496356,-0.8719544,0.1816236,20.5799995400012,20
11.0051,0.2366516,4.418862,-5.920671669543365,1.1515265127529326,-4.744129522841551,7.343458,206.0188,355.9353,0.04888946,-0.9712103,0.05439009,20.5999995395541,20
11.01702,0.4290833,4.335448,-7.1431404884206895,0.947938214298569,-4.343517687831693,12.32658,213.2018,356.8492,0.05685625,-0.9515756,0.09503917,20.6199995391071,20
11.01941,0.6241616,4.252155,-8.23810968800181,0.7516125600891324,-3.8968116942295112,16.96701,220.7208,358.6371,0.06235193,-0.9265887,0.1342053,20.63999953866,20
11.01988,0.8199516,4.167777,-9.1949828247747,0.5084551949079334,-3.4333716111715225,21.29753,228.4264,1.209696,0.06632151,-0.8970692,0.1727768,20.659999538213,20
11.00034,0.2334264,3.542221,-10.06547395707662,0.5113333446003218,-2.9777606494282427,6.54513,203.654,355.7451,0.04796731,-0.9760669,0.04823946,20.679999537766,20
11.01607,0.4259875,3.468004,-10.765725866258292,0.5436152195273605,-2.4616188505024805,10.99302,209.9939,356.3924,0.05503889,-0.9602416,0.08436903,20.6999995373189,20
11.01921,0.6219287,3.39626,-11.286543090971067,0.5523839089479747,-1.911451377852956,15.02185,217.04,357.8025,0.05953872,-0.9391082,0.1178845,20.7199995368719,20
10.96028,0.2369013,2.790264,-11.715466426633352,0.5348329307918359,-1.3371487037788736,6.863392,210.472,354.9379,0.05824734,-0.9614871,0.04611388,20.7399995364249,20
10.93999,0.4348575,2.703046,-11.92703596126867,0.5514655048374192,-0.6881531128863927,11.88691,217.1316,356.2089,0.06413829,-0.9412564,0.08762942,20.7599995359778,20
10.91397,0.6348573,2.613957,-12.055779737153426,0.5946541998509836,-0.029399091016292,16.72143,223.5021,358.4195,0.06655233,-0.9181013,0.1299827,20.7799995355308,20
10.88797,0.8348572,2.524881,-12.07598659260966,0.585422137621155,0.5938864066080973,21.27919,230.2436,1.25361,0.06864455,-0.8906459,0.1717204,20.7999995350838,20
10.62244,0.2833333,1.805562,-12.31589585181403,-0.3412889030505669,0.8251185718981167,6.525116,223.2226,359.6757,0.0235876,-0.928134,0.05187014,20.8199995346367,20
10.54389,0.4833332,1.721905,-12.382122025592675,-0.2044715394723352,1.4077861449070763,13.04852,229.0899,0.02115769,0.04703326,-0.9037535,0.1034325,20.8399995341897,20
10.46535,0.6833332,1.638261,-12.338711016196132,-0.0340020288814498,1.979843854115688,19.50019,235.1902,1.081667,0.07019877,-0.8741438,0.1543889,20.8599995337427,20
10.38683,0.8833331,1.554629,-12.174108895231608,0.1127766798444193,2.509592289135664,25.80238,241.7055,2.944277,0.09296416,-0.8394824,0.2044542,20.8799995332956,20
10.17978,0.2833333,1.050853,-12.071777813597157,-0.0004434898780428,3.1502825977410507,6.595198,234.8085,0.8899582,0.01959133,-0.8864903,0.05463421,20.8999995328486,20
10.09833,0.4833333,0.967147,-11.85872878382556,-0.0543494748554899,3.765690262258344,13.06201,240.8658,2.480035,0.03906156,-0.8576736,0.1089375,20.9199995324016,20
10.01689,0.6833332,0.8834539,-11.530784003300855,-0.1062425747079138,4.326938912110242,19.3194,247.3029,4.833833,0.05829351,-0.8238127,0.1625903,20.9399995319545,20
9.781026,0.2833333,0.384039,-11.354428613249237,-0.850342939120741,4.642231911080604,6.287914,236.7996,1.454975,0.01493141,-0.8785868,0.05427015,20.9599995315075,20
9.706966,0.4833333,0.2983707,-11.037531477326624,-0.678602706830439,5.395769695802709,12.38945,242.9131,3.582921,0.02977271,-0.8494009,0.1082231,20.9799995310605,20
9.632919,0.683333,0.2127257,-10.635982614820776,-0.4734964352361674,6.09384117864848,18.22306,249.4313,6.443161,0.04443143,-0.8154022,0.1615626,20.9999995306134,20
9.558896,0.8833328,0.1271105,-10.44440052741388,-0.9341991926816776,6.564583707445292,23.69111,256.5033,10.1165,0.0588296,-0.776788,0.213998,21.0199995301664,20
9.249654,0.3017615,-0.4620049,-10.127820112664498,-0.6971495528257317,7.440661044069431,6.540645,230.7861,1.210917,0.01493123,-0.9021242,0.05605661,21.0399995297194,20
9.179943,0.5017614,-0.5532521,-9.73022680799859,-0.4285032466980523,8.250069170658318,12.84678,236.5418,3.078668,0.02945888,-0.8762967,0.111138,21.0599995292723,20
9.110812,0.7017614,-0.6437396,-9.254279526328268,-0.1829438795549668,8.959163049516208,18.88366,242.5163,5.631833,0.04359302,-0.8464211,0.1652101,21.0799995288253,20
9.042289,0.9017612,-0.7334325,-8.711542944612773,-0.1267390862588386,9.535667193960704,24.57463,248.8501,8.928783,0.05720818,-0.8128906,0.2180073,21.0999995283782,20
8.800616,0.334426,-1.126975,-8.352373386804125,-0.2000567938643784,10.260512499717374,7.530291,232.1172,1.323025,0.01849559,-0.8966798,0.06404841,21.1199995279312,20
8.717798,0.5344259,-1.226911,-7.938021511075521,-0.2112308970324973,10.86198459482542,14.70797,236.947,3.265691,0.03615728,-0.8731917,0.1259435,21.1399995274842,20
8.635746,0.7344256,-1.325923,-7.475973995407333,-0.2154622912447549,11.307047917019416,21.63092,242.0714,5.895536,0.05333617,-0.8454873,0.1866139,21.1599995270371,20
8.360541,0.3596247,-1.709554,-7.214341858953276,-0.9062696301164516,11.480639958567606,7.896163,228.227,0.5311133,0.02390875,-0.9106924,0.06473264,21.1799995265901,20
8.267416,0.5596246,-1.811841,-6.882434418763781,-0.6797711026648287,12.09314254534986,15.72881,232.6123,1.67331,0.04766523,-0.8887982,0.1290561,21.1999995261431,20
8.174313,0.7596244,-1.914102,-6.540754789292189,-0.4184180817757744,12.525950906285008,23.44576,237.3791,3.518455,0.07112363,-0.8615257,0.1925811,21.219999525696,20
7.857484,0.3316421,-2.282261,-6.496041915753709,-0.8175617574753781,12.70767901903962,7.601755,226.1212,359.438,0.03046804,-0.9179289,0.05907449,21.239999525249,20
7.757907,0.531642,-2.370731,-6.365826731857166,-0.5140176411350783,13.29929192158821,15.22215,230.2564,359.4239,0.06075457,-0.8970894,0.1177954,21.259999524802,20
7.658351,0.731642,-2.459174,-6.212248229338519,-0.1816956958693037,13.721659917640103,22.82096,234.5794,0.002747352,0.09068519,-0.8711367,0.1758281,21.2799995243549,20
7.558817,0.9316418,-2.547592,-6.0502418401354685,0.1252060597240836,13.952035520972956,30.35151,239.2821,1.280309,0.1200876,-0.8402255,0.232843,21.2999995239079,20
7.150623,0.2971275,-2.944146,-6.119083255656609,-0.4990808835292767,13.962726600743096,7.046321,230.7845,358.9624,0.03451488,-0.9014104,0.05163759,21.3199995234609,20
7.04591,0.4971276,-3.011342,-5.917059310519722,-0.2481826711819252,14.49932368343688,14.14608,234.8045,358.4157,0.06884582,-0.8801736,0.1029937,21.3399995230138,20
6.941218,0.6971275,-3.078512,-5.657295275442606,0.0236110540004585,14.861540965908723,21.26415,238.9102,358.3801,0.1028152,-0.8544245,0.1538054,21.3599995225668,20
6.836556,0.8971273,-3.145659,-5.3543874223157655,0.2640297855859842,15.028029309664252,28.36442,243.2489,358.9182,0.1362572,-0.8243009,0.203815,21.3799995221198,20
6.541451,0.2833334,-3.369532,-5.350214476504608,-0.4329483712500521,15.018082861099398,6.881813,242.1212,359.2286,0.03672198,-0.8548498,0.04794552,21.3999995216727,20
6.430566,0.4833333,-3.417286,-5.147224441884,-0.2030083509168098,15.28424401336877,13.791,246.0813,358.9141,0.07334349,-0.8315627,0.09550957,21.4199995212257,20
6.319719,0.6833332,-3.465044,-4.895956571891214,0.0478271796379423,15.359342938599292,20.70282,250.1474,359.0941,0.1096139,-0.8042519,0.1425831,21.4399995207787,20
5.965828,0.2833334,-3.662581,-4.894928487798271,-0.373025827050949,15.30509869811648,7.411142,251.5261,358.8585,0.04583601,-0.809328,0.0466306,21.4599995203316,20
5.839582,0.4833334,-3.688521,-4.650896571577432,-0.0803986116945573,15.527391048147967,14.76241,255.1801,358.1989,0.09070915,-0.7845007,0.09227863,21.4799995198846,20
5.714522,0.6833332,-3.714217,-4.3566403796085496,0.2331241123152245,15.56864374330444,22.0721,258.7774,358.0094,0.1346337,-0.7563415,0.1371042,21.4999995194376,20
5.309312,0.2833334,-3.877571,-4.365655227492457,-0.1250413556716834,15.53838610152498,7.727051,265.4367,359.7214,0.04749241,-0.7329146,0.04785826,21.5199995189905,20
5.174618,0.4833333,-3.887482,-4.310731243065522,-0.4900143433863667,15.29502336014398,15.45426,269.0647,359.9326,0.09471028,-0.7063264,0.09543879,21.5399995185435,20
5.039958,0.683333,-3.897386,-3.933902196027165,0.0210590379255269,15.427959784960663,23.14972,272.8951,0.6831126,0.1413921,-0.6758607,0.1424803,21.5599995180964,20
4.905333,0.8833327,-3.907282,-3.514349494284545,0.5227719368151312,15.39484550395076,30.77484,277.1083,2.080251,0.1872798,-0.6416903,0.1887248,21.5799995176494,20
4.771007,0.9766696,-3.917131,-3.33845114235734,0.110051331243436,15.31419207813924,38.26363,281.9212,4.306445,0.2320244,-0.6042101,0.2338552,21.5999995172024,20
4.398792,0.2833333,-4.05738,-3.1269308214161,-0.312222074722729,15.047738755300678,7.538426,283.8879,1.567248,0.04334527,-0.6157488,0.05126465,21.6199995167553,20
4.264342,0.4833332,-4.056263,-2.699565452882537,0.1216190181149942,14.949862025799026,14.95897,287.7275,3.651791,0.08644539,-0.587743,0.1022377,21.6399995163083,20
4.129927,0.683333,-4.055142,-2.5646832178984766,-0.0991236677547122,14.888490642702976,22.21449,292.0202,6.357127,0.1290667,-0.5565876,0.1526452,21.6599995158613,20
3.778117,0.2833333,-4.132634,-2.386785194631029,-0.3087908877631816,14.672687851630108,7.168056,287.2437,2.007291,0.03995354,-0.5927428,0.05114603,21.6799995154142,20
3.649034,0.4833332,-4.132802,-1.962079771805772,0.1280257294787856,14.636925191268428,14.14944,291.0471,4.485952,0.07946756,-0.5653007,0.101683,21.6999995149672,20
3.520376,0.6833332,-4.132987,-1.8698802320652723,-0.0940330708773535,14.712696425741914,20.92278,295.2732,7.534295,0.118453,-0.535329,0.1515575,21.7199995145202,20
3.112738,0.2833332,-4.169345,-1.72685636930674,-0.3094397725710952,14.64609039145592,7.418791,285.1827,1.454425,0.0436912,-0.6068266,0.04935971,21.7399995140731,20
2.981871,0.4833331,-4.163777,-1.292668798719634,0.1809253780464886,14.753579338849098,14.68187,288.7462,3.370733,0.08682107,-0.5805349,0.09810643,21.7599995136261,20
2.851616,0.6833329,-4.158236,-0.8253505962338801,0.6554082722491668,14.734586072166527,21.77448,292.6614,5.83372,0.1292855,-0.5517133,0.1461656,21.7799995131791,20
2.721734,0.8833327,-4.15271,-0.6579969334450326,0.2087799128647713,14.772979408891633,28.65878,297.1146,8.975519,0.1709601,-0.5203888,0.1933891,21.799999512732,20
2.388317,0.2833334,-4.150412,-0.4722869554508484,-0.2542354236617177,14.661721654991798,7.856075,286.9233,1.322813,0.04817966,-0.5945579,0.05003448,21.819999512285,20
2.252319,0.4833333,-4.136568,0.0747205116057423,0.2125205532137993,14.772540873825912,15.49157,290.1834,3.084275,0.09522691,-0.5698124,0.09896921,21.839999511838,20
2.117794,0.683333,-4.122873,0.2874263531877457,0.0268512964835301,15.007477858198753,22.93149,293.7278,5.362838,0.1412104,-0.5429213,0.1469338,21.8599995113909,20
1.984261,0.8833328,-4.109279,0.5251529870866722,-0.145388789449249,15.079007688998985,30.16074,297.7603,8.290629,0.1860757,-0.5138264,0.1938661,21.8799995109439,20
1.545449,0.2833333,-4.05819,0.7616266541617254,-0.3586331353443584,14.992587868530856,8.06418,283.575,0.2351133,0.05398203,-0.6171609,0.04510357,21.8999995104969,20
1.406971,0.4833332,-4.032243,0.8189740364354665,-0.3306855885752868,15.272949470936682,16.10571,286.3823,0.8697233,0.107653,-0.5940736,0.08994678,21.9199995100498,20
1.268532,0.683333,-4.0063,0.8980912610089846,-0.2630472949123928,15.362920171727865,24.10304,289.4315,1.966289,0.1607177,-0.5677434,0.1342845,21.9399995096028,20
0.8661656,0.2833333,-3.905364,0.9732714576160156,-0.2090342912203494,15.271061350811967,7.710011,282.2152,359.2126,0.0566315,-0.6260649,0.0368751,21.9599995091558,20
0.7366704,0.4833332,-3.866138,1.310701478646287,0.4983252602635347,15.18647472335978,15.44547,284.7914,358.7673,0.1129593,-0.6034901,0.07354953,21.9799995087087,20
0.6072123,0.683333,-3.826916,1.6452648705517583,1.054708079719333,14.93394094177746,23.19058,287.4246,358.6774,0.1686956,-0.5778531,0.1098372,21.9999995082617,20
0.1656808,0.2833334,-3.67063,1.555612738767349,0.5840642502572092,14.908910908341694,7.169453,286.9755,358.9726,0.05557488,-0.5933563,0.0300083,22.0199995078146,20
0.05024208,0.4833333,-3.619147,1.794353425323619,0.8237070828329136,14.852756429365732,14.37535,289.4983,358.255,0.1108846,-0.5709994,0.05986796,22.0399995073676,20
-0.06515972,0.6833332,-3.567669,2.053420836729493,1.0810521975406264,14.61116431394188,21.60315,292.0268,357.8476,0.1656788,-0.5460792,0.08944497,22.0599995069206,20
-0.1801313,0.8833329,-3.516282,1.97923141938934,0.6635154545705764,14.57296242497145,28.81873,294.6165,357.7661,0.2195856,-0.5189465,0.1184928,22.0799995064735,20
-0.5400193,0.2833333,-3.343456,1.923167313677488,0.2359778863357299,14.333263725549688,7.053759,297.5038,359.1724,0.05633044,-0.5173691,0.02574801,22.0999995060265,20
-0.6438445,0.4833332,-3.275785,1.863743466356338,-0.1289206501761206,13.904883630957375,14.13495,300.0237,358.6334,0.1124747,-0.4947174,0.05124196,22.1199995055795,20
-0.7476532,0.683333,-3.208147,1.7021262981306418,-0.1677406434854931,13.901974491713824,21.22989,302.5701,358.4033,0.1681181,-0.4699334,0.07648361,22.1399995051324,20
-1.145473,0.2833334,-2.964499,1.585428391043366,-0.1668698765720505,13.69488798335136,7.451372,306.0587,358.7531,0.06283368,-0.4519184,0.01979123,22.1599995046854,20
-1.239776,0.4833332,-2.872267,1.4908087285717864,-0.1796242657297448,13.298887680095024,14.95078,308.4854,357.8027,0.1254139,-0.4285404,0.03940363,22.1799995042384,20
-1.334052,0.683333,-2.780062,1.6566734702769643,0.4609676943634429,12.824158237229284,22.48059,310.8855,357.1526,0.1873658,-0.4030995,0.05882071,22.1999995037913,20
-1.76501,0.2833334,-2.466722,1.5127564066272026,0.2106611890327154,12.604277583167892,7.83839,318.1591,359.5767,0.06515934,-0.355998,0.02096275,22.2199995033443,20
-1.853066,0.4833333,-2.36171,1.3997577102895296,-0.0245217022079645,12.212929419257854,15.68565,320.7489,359.5061,0.1299617,-0.3321729,0.04180992,22.2399995028973,20
-1.941096,0.683333,-2.256723,1.6277017158163547,0.4213456619800974,11.713139917361245,23.52558,323.4551,359.8172,0.1940703,-0.3066424,0.06243431,22.2599995024502,20
-2.0291,0.8833327,-2.151762,1.526377420954816,0.2164102384928477,11.509525486596123,31.33943,326.4073,0.5821167,0.2571521,-0.2795408,0.08272994,22.2799995020032,20
-2.404696,0.2833333,-1.873491,1.4797086518391138,0.026598562995359,11.139586426646966,7.759145,329.2873,1.055156,0.06280836,-0.2648041,0.02677569,22.2999995015562,20
-2.492045,0.4833332,-1.768354,1.4615649150527616,-0.2024506901456661,10.626251598172692,15.45646,332.164,2.510131,0.1252745,-0.2411504,0.05340494,22.3199995011091,20
-2.579368,0.683333,-1.663243,1.3071743994039062,-0.2050296334791675,10.482178299796663,23.06526,335.3861,4.450425,0.1870754,-0.2162725,0.07975128,22.3399995006621,20
-2.991342,0.2833333,-1.322104,1.2238149280682862,-0.1679179361151729,10.189990493730775,7.45413,330.9945,1.657862,0.05931051,-0.2507814,0.03025342,22.3599995002151,20
-3.081964,0.4833332,-1.224417,1.1837219145146085,-0.1444311685779664,9.773734599703992,14.81563,333.9681,3.716048,0.1183108,-0.2272982,0.06034912,22.379999499768,20
-3.172473,0.683333,-1.12686,1.1599369295076274,-0.1878855673185964,9.257980471202012,22.04602,337.3399,6.266317,0.176657,-0.2027945,0.0901105,22.399999499321,20
-3.619238,0.2833333,-0.7199996,1.1341441674798256,-0.2449649897987652,9.010112849929913,7.473793,325.3234,1.241473,0.05898811,-0.2980362,0.02974128,22.4199994988739,20
-3.713418,0.4833332,-0.6272386,1.1666686588787805,-0.262353653101534,8.653974810127558,14.8767,328.1942,2.870848,0.1176593,-0.2747356,0.05935052,22.4399994984269,20
-3.807571,0.683333,-0.534504,1.2334724169568343,-0.2933674735208451,8.21417545523312,22.18245,331.414,4.968274,0.1757411,-0.2501217,0.08866487,22.4599994979799,20
-3.901697,0.8833328,-0.4417958,1.2378120623883904,-0.31134848624524,8.043674966416322,29.35283,335.137,7.662652,0.2329516,-0.2243151,0.1175431,22.4799994975328,20
-3.995796,0.9766697,-0.3491142,1.2931450164583254,-0.2896387397922323,7.76370221200242,36.33122,339.5788,11.14968,0.2890134,-0.1974424,0.1458464,22.4999994970858,20
-4.462729,0.2833334,0.1063748,1.3757704499816104,-0.281554257174802,7.401239281489055,7.899566,321.2179,0.9941695,0.06209871,-0.3317764,0.03103304,22.5199994966388,20
-4.563669,0.4833333,0.1996348,1.4279312778600095,-0.2604369673851543,7.296828470459193,15.65485,323.9403,2.367652,0.1231396,-0.3092389,0.06160611,22.5399994961917,20
-4.663836,0.6833332,0.2921803,1.5259845923005084,-0.1996288260734773,7.070150035630895,23.2759,326.9241,4.18728,0.1830672,-0.2856768,0.09168469,22.5599994957447,20
-5.076432,0.2833334,0.73893,1.6462867877506344,-0.1524459896297547,6.750618297739704,8.144874,317.923,0.3674239,0.065135,-0.3582997,0.02847994,22.5799994952977,20
-5.178531,0.4833333,0.838146,1.7649602500819306,-0.1722043482126662,6.368092170743104,16.26482,320.4092,1.093889,0.1298956,-0.336512,0.05679683,22.5999994948506,20
-5.280602,0.6833332,0.9373364,1.7956078096573762,-0.2055876264296131,6.177333221677171,24.34199,323.139,2.243448,0.1939276,-0.312904,0.08479688,22.6199994944036,20
-5.723178,0.2833333,1.452707,1.83281961609263,-0.1992801480826882,5.891322709809051,7.83193,314.8477,359.233,0.06562217,-0.382584,0.02005204,22.6399994939566,20
-5.812631,0.4833332,1.556958,1.8529705333536697,-0.2065976160277748,5.541252995101601,15.68561,317.0773,358.766,0.1308901,-0.3610626,0.03999459,22.6599994935095,20
-5.902056,0.683333,1.661183,1.7999235700110905,-0.2008825312710859,5.370747335856668,23.54895,319.3467,358.6078,0.1954699,-0.3377125,0.0597266,22.6799994930625,20
-5.991453,0.8833327,1.765383,1.741545482346467,-0.1554763820770104,5.088329806145133,31.40962,321.7565,358.8011,0.2590314,-0.3126548,0.07914839,22.6999994926155,20
-6.371922,0.2833332,2.243588,1.655109576489286,-0.123695216548389,4.724089690156688,7.385122,315.5646,358.6533,0.0640515,-0.3766151,0.01349382,22.7199994921684,20
-6.447223,0.4833332,2.350773,1.5202640072021492,-0.0788819609994321,4.513030231278702,14.81351,317.6708,357.5692,0.1277844,-0.355405,0.02691743,22.7399994917214,20
-6.522496,0.6833331,2.457932,1.389840477267752,0.0056219357697264,4.181095662066298,22.27331,319.7169,356.7312,0.1909001,-0.3325473,0.04020885,22.7599994912744,20
-6.927566,0.2833333,2.967778,1.241569422256548,0.0765006897967368,3.7571010894040526,6.981697,321.4598,358.9252,0.0605649,-0.3288561,0.01125616,22.7799994908273,20
-6.990597,0.4833332,3.073657,1.0536202126744012,0.080438637167267,3.269332041146036,13.99454,323.6163,358.0945,0.1208696,-0.3079069,0.02234796,22.7999994903803,20
-7.053628,0.6833331,3.179499,0.8346079473910137,0.070751667517288,2.941209231586698,21.03027,325.7461,357.5107,0.1806507,-0.2856878,0.03332047,22.8199994899333,20
-7.476228,0.2833333,3.740087,0.6123486654489767,0.1007554314321432,2.5409206168954315,7.350528,325.2405,358.3966,0.06533971,-0.2972041,0.005820191,22.8399994894862,20
-7.528633,0.4833331,3.860517,0.100105302501543,-0.3097421068865266,2.4272497186086035,14.75592,327.2808,357.0369,0.130396,-0.2760538,0.01155461,22.8599994890392,20
-7.581022,0.683333,3.980913,-0.033245666332931,-0.015668079336461,1.9813817513054683,22.20099,329.2195,355.9018,0.1948195,-0.2536229,0.01723468,22.8799994885921,20
