pX,pY,pZ,aX,aY,aZ,reX,reY,reZ,rtX,rtY,rtZ,t,ID
-42.00041,0.23,-38.99972,4.668310859920865,0.0204205141852115,5.5166727794333,0.01568256,0.009912224,0.02322424,0.0001368737,8.647273e-05,0.0002026579,1.07999997586012,3
-42.00082,0.43,-38.99944,5.029451019903483,-0.0512827895746121,5.803401392504021,0.03139951,0.009921829,0.04645257,0.0002740475,8.647321e-05,0.0004053514,1.09999997541308,3
-42.00138,0.2833333,-38.99899,5.46059899433277,-0.3412681329136952,6.120563093178397,0.02343453,3.778075,0.03407891,0.000214197,0.03296389,0.0002904916,1.11999997496605,3
-42.00195,0.4833333,-38.99854,5.817357323208618,-0.3957224009779638,6.364268107840289,0.04684649,3.778095,0.06815093,0.0004281952,0.03296388,0.0005809297,1.13999997451901,3
-42.00252,0.6833333,-38.99809,6.101243481445458,-0.2399793849326496,6.536434931028282,0.07034317,3.77813,0.1022917,0.0006429522,0.03296387,0.0008719422,1.15999997407198,3
-41.99181,0.2833333,-38.97212,6.314010170123865,0.1016722148073933,6.639241336609359,0.7569603,8.253707,0.4389603,0.006864166,0.07193758,0.003345253,1.17999997362494,3
-41.99755,0.4833333,-38.95779,6.60226956096291,-0.2477621334747416,6.765000479163241,1.513907,8.262403,0.8780362,0.01372818,0.07193125,0.006689964,1.19999997317791,3
-42.00329,0.6833333,-38.94348,6.808244972898315,-0.3542783719294906,6.81247097679627,2.272771,8.276953,1.318474,0.02060951,0.0719207,0.0100422,1.21999997273088,3
-41.9616,0.2833333,-38.90996,7.056623270516312,-0.6700852810501845,6.870042478546452,1.381765,13.39271,0.1165264,0.01209419,0.1165869,-0.0003961661,1.23999997228384,3
-41.9579,0.4833334,-38.88589,7.214292962485956,-0.7413703728808236,6.845326612519351,2.763497,13.39692,0.2329063,0.02418607,0.1165612,-0.0007946878,1.25999997183681,3
-41.89802,0.2833333,-38.82123,7.285183007909111,-0.5934675709182405,6.743040804146666,2.473131,18.8756,0.0384516,0.02134337,0.1639315,-0.003207761,1.27999997138977,3
-41.88457,0.4833335,-38.7799,7.372256519461722,-0.8909794480058012,6.631572550662334,4.947668,18.87802,0.07589857,0.04268725,0.1638166,-0.006425889,1.29999997094274,3
-41.87114,0.6833336,-38.73859,7.369765470792629,-0.9399967820511788,6.443451868427189,7.424511,18.88207,0.1134453,0.0640308,0.163625,-0.009645865,1.3199999704957,3
-41.79408,0.2833329,-38.67236,7.404421835515464,-1.192730814532101,6.269816347455382,3.70833,24.62315,0.0927913,0.03178409,0.2130904,-0.006108396,1.33999997004867,3
-41.76843,0.4833329,-38.61254,7.345372453788933,-1.195367817025408,6.0199274659228905,7.420013,24.63212,0.185282,0.0635615,0.2127548,-0.0122258,1.35999996960163,3
-41.66133,0.2833329,-38.50889,7.198723405199949,-0.9732411410139286,5.700640941443837,4.777184,30.12157,0.1960108,0.04068917,0.2595487,-0.009179087,1.3799999691546,3
-41.62224,0.4833325,-38.43473,7.068454508090973,-1.1909543469929864,5.384836018603842,9.557358,30.14622,0.3933936,0.08132999,0.2588697,-0.01836061,1.39999996870756,3
-41.49268,0.2833333,-38.31216,6.851684357360234,-1.1545976968728526,5.005093808221879,3.525908,35.21339,0.1785924,0.0297945,0.3022921,-0.007820873,1.41999996826053,3
-41.4597,0.4833335,-38.26011,6.677816641914106,-1.316381223984718,4.655468884231887,7.051253,35.22993,0.357922,0.05955471,0.3018616,-0.01563808,1.43999996781349,3
-41.42674,0.6833335,-38.20807,6.417655387281499,-1.222492055138659,4.246355976369095,10.5761,35.25759,0.5383358,0.08925052,0.301144,-0.02345295,1.45999996736646,3
-41.29246,0.2833335,-38.10072,6.079564699627483,-0.8982636629109402,3.7866083559856776,3.632627,39.58652,0.2003965,0.03041464,0.3384044,-0.009088243,1.47999996691942,3
-41.25471,0.4833335,-38.04965,5.769430799913934,-1.0082989685281087,3.352360781774664,7.264211,39.60569,0.4022597,0.06079,0.3378929,-0.01816564,1.49999996647239,3
-41.09378,0.2833333,-37.91267,5.386993772853337,-0.8586888453787034,2.876916377597837,3.594248,42.98079,0.2521282,0.02998594,0.3661,-0.00944251,1.51999996602535,3
-41.05418,0.4833333,-37.86383,4.941832370120935,-0.4747672169595535,2.3701122248772464,7.187416,43.00466,0.5060698,0.05993348,0.3655572,-0.01887394,1.53999996557832,3
-41.01458,0.6833333,-37.81499,4.599996776667304,-0.5211368695520856,1.9541411949557808,10.77942,43.04494,0.7638775,0.08981296,0.3646535,-0.02828496,1.55999996513128,3
-40.87117,0.2833333,-37.70484,4.195781801852945,-0.3038887688894682,1.513467427625912,3.57182,46.63072,0.2947915,0.02963764,0.3955245,-0.009973473,1.57999996468425,3
-40.82935,0.4833335,-37.65836,3.7403278060312672,0.151643401627511,1.0590298064234531,7.142491,46.65844,0.5916684,0.05923712,0.3949443,-0.01993531,1.59999996423721,3
-40.6655,0.2833333,-37.52537,3.3376287380148426,-0.0592395028550393,0.6654118919136565,3.524097,49.82537,0.4067728,0.02938196,0.4209358,-0.009734465,1.61999996379018,3
-40.62303,0.4833333,-37.48034,2.8977246196186077,0.1458350280603761,0.2734957234143209,7.046995,49.86311,0.8163857,0.05872677,0.4203308,-0.01945786,1.63999996334314,3
-40.58058,0.6833333,-37.43533,2.550429071500808,-0.0822389054027057,-0.0229681829029431,10.56851,49.92678,1.232022,0.08800638,0.4193235,-0.02916089,1.65999996289611,3
-40.53814,0.883333,-37.39032,2.18049822543226,-0.3176307136499563,-0.3027222064282497,14.08863,50.01726,1.655544,0.1171888,0.4179142,-0.0388464,1.67999996244907,3
-40.36018,0.2833333,-37.26107,1.7871514033944609,0.1055863513763502,-0.5842068118814439,3.480769,52.47097,0.3642023,0.02864632,0.4417688,-0.01057614,1.69999996200204,3
-40.31587,0.4833328,-37.21906,1.4887429369598593,-0.1444412064392325,-0.7849484350910529,6.960442,52.50436,0.7309287,0.05725776,0.4411508,-0.02114014,1.719999961555,3
-40.15744,0.2833333,-37.0977,1.2026762606520904,-0.4017868524770411,-0.9616464611810258,3.433955,53.45901,0.3544092,0.02815096,0.4494921,-0.01071534,1.73999996110797,3
-40.11298,0.4833335,-37.05707,0.8865295407159053,-0.0005231727526072,-1.126385918647614,6.866505,53.49097,0.7102285,0.05626198,0.4488803,-0.02142487,1.75999996066093,3
-40.06853,0.6833336,-37.01646,0.7410174548945889,-0.2725042625760593,-1.1541602301139662,10.29781,53.54485,1.07112,0.08431401,0.4478617,-0.03211195,1.7799999602139,3
-39.93151,0.2833337,-36.91641,0.5482050207773241,-0.0716111764882112,-1.201514713271436,3.401919,53.72657,0.2851903,0.02760381,0.4515967,-0.0111934,1.79999995976686,3
-39.8866,0.4833341,-36.87729,0.4994369504141147,-0.3038670339255282,-1.1412969541795164,6.802551,53.75205,0.5716162,0.0551707,0.4509956,-0.02237821,1.81999995931983,3
-39.7277,0.2833333,-36.75828,0.4627942701198151,-0.5434406994149488,-1.0704376002783214,3.36589,53.13729,0.1894395,0.02700641,0.4470327,-0.01165776,1.8399999588728,3
-39.6827,0.4833332,-36.72041,0.375868074387462,-0.1244047184623312,-1.0107186154420231,6.730515,53.15403,0.3796341,0.0539777,0.4464525,-0.02330498,1.85999995842576,3
-39.63771,0.6833335,-36.68255,0.408917067569746,-0.3786136512371848,-0.8773272588994132,10.09402,53.18225,0.5724427,0.08089407,0.4454865,-0.03492833,1.87999995797873,3
-39.50124,0.2833329,-36.58302,0.3607897905340422,-0.1599484178579092,-0.7993443008396497,3.329531,52.53182,0.1172067,0.02650441,0.4423241,-0.01193957,1.89999995753169,3
-39.45637,0.483333,-36.54607,0.3148336490062746,0.0524445968806441,-0.7417019289416942,6.657722,52.54207,0.2348711,0.05297475,0.4417635,-0.02386657,1.91999995708466,3
-39.2971,0.283333,-36.42839,0.2527924667857988,0.0461726785342052,-0.7044701857364828,3.29051,51.69507,0.01816645,0.02590792,0.4357941,-0.01237482,1.93999995663762,3
-39.25224,0.483333,-36.39257,0.201466763790691,0.0613314008329941,-0.6671571008508508,6.580006,51.69664,0.03647291,0.0517866,0.4352552,-0.02473544,1.95999995619059,3
-39.2074,0.6833333,-36.35675,0.274862432653201,-0.3822710985702549,-0.551038127862526,9.86822,51.69924,0.05460504,0.07761101,0.434358,-0.03707405,1.97999995574355,3
-39.07142,0.2833333,-36.25806,0.2485716550939329,-0.1395615113681722,-0.4981248987102802,3.255745,50.87344,359.9452,0.02544866,0.4293528,-0.01263343,1.99999995529652,3
-39.02675,0.4833335,-36.22297,0.2365920388641811,0.0968755568117875,-0.4422460653191962,6.510509,50.86874,359.89,0.05086901,0.428833,-0.02525313,2.01999995484948,3
-38.98209,0.6833336,-36.18788,0.2664086128086467,0.1146473770638359,-0.362964280036131,9.764174,50.86081,359.834,0.07623948,0.4279674,-0.03784894,2.03999995440245,3
-38.79104,0.2833335,-36.04768,0.2935504332523848,0.1538501345093408,-0.2928842015606392,3.21384,48.38934,359.8275,0.02496254,0.4097151,-0.01286495,2.05999995395541,3
-38.74712,0.4833335,-36.01269,0.3291560485027389,0.1611677661483528,-0.2255755161126558,6.426735,48.37476,359.6541,0.04989825,0.4092304,-0.02571618,2.07999995350838,3
-38.70321,0.6833336,-35.97771,0.3528627271104128,0.163258903241797,-0.1617835842456827,9.638596,48.3502,359.4784,0.07478699,0.4084234,-0.0385434,2.09999995306134,3
-38.57298,0.2833332,-35.88296,0.3787283883240135,0.1867802588086984,-0.1024250396666559,3.309886,48.0761,359.8111,0.02570419,0.4072163,-0.01326927,2.11999995261431,3
-38.52779,0.4833332,-35.84681,0.3912378623602635,0.2317327655298187,-0.0578179486444696,6.618774,48.05964,359.6209,0.05137949,0.4067052,-0.02652341,2.13999995216727,3
-38.37241,0.2833333,-35.73368,0.3951257019664211,0.2981162099671038,-0.0251367745784136,3.526347,49.27177,359.8014,0.02724536,0.4167006,-0.01440067,2.15999995172024,3
-38.32346,0.4833333,-35.69614,0.401463732098442,0.3326146358396284,0.0023926493828483,7.051725,49.25331,359.6013,0.05445763,0.416107,-0.02878403,2.1799999512732,3
-38.27453,0.6833333,-35.6586,0.5144653420313716,-0.3584021606903109,0.098903825696567,10.57755,49.22209,359.3976,0.08162062,0.4151179,-0.04314587,2.19999995082617,3
-38.14396,0.2833333,-35.56517,0.477228014589464,-0.1507144070692669,0.0943521414523971,3.55952,50.77786,359.841,0.02746326,0.4285923,-0.01456954,2.21999995037913,3
-38.09407,0.4833331,-35.52805,0.4431743641016652,0.0496556144661998,0.0887668768676164,7.11826,50.76291,359.6803,0.05489254,0.4279708,-0.02912533,2.2399999499321,3
-38.04421,0.6833335,-35.49095,0.4409283423256269,0.0303162124063913,0.1051590331494054,10.67586,50.73766,359.5172,0.08226048,0.4269361,-0.04364845,2.25999994948506,3
-37.85676,0.2833335,-35.35527,0.4281355357980629,0.0313621468033727,0.1112192453330962,3.584664,52.42979,359.9398,0.02782791,0.4415376,-0.01428752,2.27999994903803,3
-37.80654,0.4833334,-35.31796,0.4159104657990795,-0.0005223502755767,0.11417312354612,7.168524,52.4241,359.8791,0.0556224,0.4408895,-0.02855785,2.29999994859099,3
-37.63554,0.2833333,-35.19217,0.3913832006114077,-0.0386804057764416,0.1111748850634661,3.588507,53.41567,0.06561598,0.02822721,0.4492047,-0.01356096,2.31999994814396,3
-37.58595,0.4833335,-35.15393,0.3652370295159599,-0.0564534572611869,0.1049592289897844,7.175992,53.42192,0.132225,0.05642067,0.448544,-0.02710097,2.33999994769692,3
-37.53638,0.6833335,-35.11569,0.3245014609778351,-0.0538398020167956,0.0878938716421053,10.76247,53.43248,0.1999017,0.08455114,0.447444,-0.04061047,2.35999994724989,3
-37.39014,0.2833332,-35.00956,0.274316789140947,-0.0308401059700177,0.0627306307288471,3.556074,54.06218,0.08169869,0.02796202,0.4542352,-0.01346647,2.37999994680285,3
-37.34074,0.4833331,-34.972,0.2258440212238639,-0.0407712687979938,0.0370317212666897,7.110879,54.06981,0.163734,0.05588615,0.4535789,-0.02691726,2.39999994635582,3
-37.29136,0.6833328,-34.93444,0.25280742487287,-0.0569749101384189,0.0679133772671782,10.66469,54.08269,0.2470796,0.08374903,0.4524863,-0.04033806,2.41999994590878,3
-37.16748,0.2833337,-34.84568,0.2702601679437748,-0.0527931965531308,0.0902141959981364,3.635562,54.76833,0.1010708,0.02857184,0.4596979,-0.0138074,2.43999994546175,3
-37.11666,0.4833337,-34.80763,0.1524729282292511,0.3986502203201552,0.0150355091388121,7.270134,54.77802,0.2029323,0.05710722,0.4590035,-0.02759719,2.45999994501472,3
-36.96984,0.2833337,-34.70148,0.1366122240057024,0.1789400124053465,0.0125132985127507,3.645633,55.11406,0.1053122,0.02862505,0.462371,-0.01390139,2.47999994456768,3
-36.9187,0.4833336,-34.6636,0.1163278809504504,-0.0459975508637952,0.0062457029404896,7.290245,55.12417,0.2114541,0.05721319,0.4616687,-0.02778484,2.49999994412065,3
-36.86759,0.6833336,-34.62572,0.123268285559341,-0.037111735260341,0.0225707874008378,10.93378,55.14127,0.3193036,0.08573515,0.4604994,-0.0416362,2.51999994367361,3
-36.66255,0.2833333,-34.47771,0.1206230474930905,-0.00784060210461,0.0323746770264001,3.605207,56.46204,0.1601619,0.02837517,0.4727545,-0.01364882,2.53999994322658,3
-36.61166,0.4833333,-34.44063,0.1202995102407058,-0.0115001230973323,0.0439376360271204,7.20934,56.47725,0.3215458,0.05671395,0.4720514,-0.02728021,2.55999994277954,3
-36.56079,0.6833332,-34.40356,0.066246582828775,-0.0214316562621219,0.0165125440745086,10.81237,56.50293,0.4854463,0.08498825,0.4708809,-0.04088085,2.57999994233251,3
-36.42274,0.2833337,-34.3042,0.0072892930914036,-0.0109774779289598,-0.014880413689152,3.552162,57.70607,0.2228704,0.02808401,0.4822791,-0.01325368,2.59999994188547,3
-36.37243,0.4833333,-34.26781,-0.0449302536532627,-0.0334539045228204,-0.0422642206226768,7.103312,57.72694,0.4474153,0.05613343,0.4815815,-0.02649093,2.61999994143844,3
-36.20971,0.2833333,-34.15003,-0.0138625754936185,-0.0622026916719323,-0.0099620689929373,3.511513,58.12823,0.2645077,0.0279015,0.4854969,-0.01286733,2.6399999409914,3
-36.16013,0.4833333,-34.11376,0.0178063794612874,-0.0705659279679019,0.0198479362864461,7.021909,58.1527,0.5309381,0.05576841,0.4848094,-0.02571869,2.65999994054437,3
-36.11056,0.6833333,-34.0775,-0.0708726828749135,0.3683324938101027,-0.0373647543050701,10.53056,58.19398,0.801308,0.08357014,0.483665,-0.03853993,2.67999994009733,3
-35.97375,0.2833329,-33.97807,-0.0608948804331497,0.1360770177735317,-0.0268255662060106,3.459006,58.13301,0.2915312,0.02761517,0.4855345,-0.01243993,2.6999999396503,3
-35.92519,0.4833328,-33.94189,-0.0476673484914584,-0.1014053817755514,-0.0164872102540769,6.916473,58.15959,0.5852961,0.05519438,0.4848666,-0.02486158,2.71999993920326,3
-35.87664,0.6833323,-33.90571,-0.1184938852020103,0.3218120298915871,-0.0657716613349634,10.37285,58.20441,0.8833076,0.08271573,0.4837545,-0.03725729,2.73999993875623,3
-35.68304,0.2833337,-33.76517,-0.0221807968316802,0.0738761973873214,0.005264367009488,3.413159,57.39232,0.2553532,0.02719271,0.4798923,-0.01234594,2.75999993830919,3
-35.63528,0.4833338,-33.72933,0.0780075165197367,-0.1792872885876237,0.0790947612861607,6.824926,57.41528,0.5125526,0.05435117,0.4792505,-0.02467516,2.77999993786216,3
-35.58753,0.683334,-33.69349,0.0278189853743136,0.2282488674713211,0.0452555768459816,10.23558,57.45399,0.7733736,0.08145344,0.4781818,-0.03697888,2.79999993741512,3
-35.45814,0.2833332,-33.60018,0.067659420822757,-0.0353689234186237,0.0767862500731801,3.369507,56.0863,0.1685084,0.0266395,0.4698946,-0.01252481,2.81999993696809,3
-35.41099,0.4833332,-33.56494,-0.0321787060100327,0.1759783103370003,0.0072109743895971,6.737642,56.10125,0.3380405,0.05324498,0.4692839,-0.0250344,2.83999993652105,3
-35.25819,0.2833335,-33.45392,-0.1319875352021888,0.3831435693288414,-0.0630514237481385,3.330979,54.88771,0.100893,0.02619899,0.4606616,-0.01261403,2.85999993607402,3
-35.21166,0.4833339,-33.41905,-0.0742215957348904,-0.1064574340042832,-0.0227627683731128,6.660635,54.89656,0.2024588,0.05236562,0.4600775,-0.02521222,2.87999993562698,3
-35.16515,0.6833339,-33.38419,-0.1289306404558772,0.092344991784612,-0.063322986654974,9.989397,54.91147,0.3054195,0.07848127,0.4591049,-0.03778555,2.89999993517995,3
-34.95713,0.2833333,-33.23351,-0.0517586337724367,-0.1399098794817485,-0.0105293873575433,3.287965,53.16119,359.9771,0.02556747,0.4472772,-0.01301541,2.91999993473291,3
-34.91098,0.4833332,-33.19944,0.0222316561026261,-0.3773913355474855,0.0382690347689802,6.574982,53.15921,359.9542,0.05110662,0.446725,-0.02601621,2.93999993428588,3
-34.86485,0.6833332,-33.16538,0.0144258603445308,0.0458257489931558,0.0292450303920794,9.86073,53.15585,359.9306,0.07659304,0.4458055,-0.03899229,2.95999993383884,3
-34.72124,0.2833333,-33.06101,0.0130333904392543,0.4382030321270245,0.0238457966782341,3.24361,51.75161,359.9218,0.02516701,0.4362643,-0.01296505,2.97999993339181,3
-34.67596,0.4833333,-33.02704,0.0500593357955807,0.3749552274028107,0.0448259652333646,6.486263,51.74494,359.8432,0.05030649,0.4357399,-0.02591585,2.99999993294477,3
-34.50944,0.2833331,-32.90526,0.083807386539938,0.3362748636172366,0.0624185058780391,3.218662,49.57813,359.8232,0.02485002,0.4191522,-0.01317528,3.01999993249774,3
-34.46469,0.4833331,-32.87119,0.2443434732531848,-0.158030696313561,0.1699362038135135,6.436307,49.56315,359.6453,0.04967264,0.4186549,-0.02633638,3.0399999320507,3
-34.41997,0.683333,-32.83714,0.2227488034548344,0.0371130943812368,0.1460193801899763,9.652934,49.53794,359.4652,0.0744487,0.4178268,-0.03947265,3.05999993160367,3
-34.27428,0.2833333,-32.73081,0.1938220222924691,0.2291205922425031,0.1166286369550952,3.311651,49.03226,359.806,0.02558815,0.4148201,-0.01353008,3.07999993115664,3
-34.22841,0.4833335,-32.69547,0.1678555399084302,0.3657213750810377,0.0893620815666231,6.622297,49.01536,359.6107,0.05114751,0.4142988,-0.02704469,3.0999999307096,3
-34.18256,0.6833335,-32.66013,0.1774806991157653,0.2611794280554917,0.0885804626780277,9.931958,48.98687,359.4129,0.07665697,0.4134309,-0.04053305,3.11999993026257,3
-33.97881,0.2833332,-32.51285,0.1830695180976214,0.1822504997062124,0.0858741987500515,3.54261,50.55852,359.8171,0.02726883,0.4268706,-0.01464216,3.13999992981553,3
-33.92899,0.4833332,-32.47603,0.1712895840629578,0.1289336295619273,0.0718476679634676,7.084191,50.54145,359.6328,0.05450373,0.4262572,-0.02926655,3.1599999293685,3
-33.87921,0.6833333,-32.43922,0.1476548384375142,0.1012290950921149,0.0507571388636698,10.62653,50.51253,359.445,0.08169077,0.425235,-0.04387069,3.17999992892146,3
-33.74032,0.2833332,-32.33982,0.1229963131986728,0.045821509416334,0.0304153156320978,3.563256,51.78888,359.8497,0.02739619,0.4365397,-0.01475704,3.19999992847443,3
-33.68984,0.4833333,-32.30343,0.0034010527433778,0.6296833751786084,-0.0571752910023981,7.125582,51.77473,359.6978,0.05475741,0.4359055,-0.02949912,3.21999992802739,3
-33.63937,0.6833334,-32.26705,0.0143786339063254,0.308568653092385,-0.0508445090525171,10.68685,51.75086,359.5437,0.08205821,0.4348497,-0.04420795,3.23999992758036,3
-33.44373,0.2833337,-32.12534,0.0302639662684356,-0.0114998677557291,-0.0399006249676077,3.595985,53.25714,359.9779,0.02796136,0.4479897,-0.01423505,3.25999992713332,3
-33.39322,0.4833336,-32.08811,-0.008622610132825,-0.0914739951425335,-0.0681841473752626,7.191248,53.25508,359.9559,0.05589077,0.4473281,-0.02845084,3.27999992668629,3
-33.34272,0.6833336,-32.05088,-0.0524123466370163,-0.1447902973673425,-0.0993761336037053,10.78548,53.2516,359.9337,0.08375724,0.4462266,-0.04263457,3.29999992623925,3
-33.21371,0.2833334,-31.95675,-0.0899742567421704,-0.2247651868587001,-0.1255814139742419,3.56335,53.98025,0.07471327,0.02800054,0.4535993,-0.01352957,3.31999992579222,3
-33.16419,0.4833333,-31.91913,-0.044404350985971,-0.3047389432988693,-0.090144963632138,7.12547,53.9873,0.1504412,0.0559662,0.4529415,-0.02703788,3.33999992534518,3
-33.11469,0.6833332,-31.88152,-0.001360863634698,-0.358055002552759,-0.055725436750329,10.68656,53.99921,0.2272768,0.08386954,0.4518462,-0.04051663,3.35999992489815,3
-32.92711,0.2833333,-31.74623,-0.0760105725748054,0.0421626476423015,-0.1049871065851739,3.593722,54.84949,0.09611306,0.02821821,0.4603333,-0.01369792,3.37999992445111,3
-32.87679,0.4833333,-31.70875,-0.0475437722117177,-0.2225006184478818,-0.0811196089329939,7.1864,54.8586,0.192949,0.05640052,0.4596538,-0.02737851,3.39999992400408,3
-32.70399,0.2833336,-31.5834,-0.0127727868946365,-0.4861184811227093,-0.0527661746711025,3.650408,55.24615,0.1088723,0.0286603,0.4633906,-0.01392617,3.41999992355704,3
-32.65273,0.4833337,-31.54552,-0.1538857139232661,-0.0827632729726817,-0.1505773455836241,7.299785,55.25662,0.2185811,0.05728342,0.4626848,-0.02783449,3.43999992311001,3
-32.60148,0.6833336,-31.50766,-0.131720606951557,-0.3442903273357939,-0.1298585123319569,10.9481,55.27431,0.3300879,0.08584043,0.4615098,-0.04171048,3.45999992266297,3
-32.55025,0.8833335,-31.4698,-0.1104905154955986,-0.6047719229638897,-0.1085179209430293,14.59586,55.29957,0.4442502,0.1143058,0.4598668,-0.05554301,3.47999992221594,3
-32.37066,0.2833334,-31.34088,-0.195429446075078,-0.1982815390889996,-0.1625399913095826,3.619483,56.11586,0.1329012,0.02841432,0.4700968,-0.01383145,3.4999999217689,3
-32.31953,0.4833336,-31.30375,-0.1817945610616114,-0.456671913032485,-0.1452826181137467,7.237855,56.12853,0.2667825,0.05679151,0.4693926,-0.02764528,3.51999992132187,3
-32.15631,0.2833334,-31.18627,-0.3037928814348198,-0.2338245790045312,-0.2248281779921619,3.570905,57.53639,0.2085416,0.02818677,0.480983,-0.01340033,3.53999992087483,3
-32.10571,0.4833339,-31.14977,-0.4200882326667532,-0.0088862008375871,-0.2997020840132869,7.140637,57.55602,0.4186593,0.05633726,0.4802803,-0.0267833,3.5599999204278,3
-32.05511,0.6833339,-31.11328,-0.3657354204243788,-0.4744418350796771,-0.2534302371032346,10.7093,57.58914,0.632018,0.08442523,0.4791103,-0.04013665,3.57999991998076,3
-32.00453,0.8833339,-31.07679,-0.4183052582288731,-0.2453219333308761,-0.2840862411595353,14.27634,57.63631,0.8500204,0.112418,0.4774746,-0.05344807,3.59999991953373,3
-31.83495,0.2833333,-30.95451,-0.3294287003489629,-0.4409881534038139,-0.2153736124214944,3.511066,58.33305,0.2650242,0.02787726,0.4870577,-0.01291135,3.61999991908669,3
-31.78525,0.4833333,-30.91841,-0.2335410506591593,-0.6356089730233913,-0.1441175599279844,7.021021,58.35757,0.532012,0.05572015,0.4863681,-0.02580642,3.63999991863966,3
-31.63157,0.2833328,-30.80691,-0.3087385984737203,-0.1632573917522704,-0.1966208660399928,3.459739,58.2873,0.2908138,0.02760093,0.4867105,-0.01248568,3.65999991819263,3
-31.5829,0.4833325,-30.77085,-0.3806007105173776,0.2845267548526762,-0.24768831769412,6.917974,58.31381,0.583904,0.05516638,0.4860407,-0.02495281,3.67999991774559,3
-31.53424,0.6833327,-30.73482,-0.2998995882688362,-0.1972332433701309,-0.1910263147217179,10.37497,58.35854,0.8812219,0.08267274,0.4849255,-0.03739331,3.69999991729856,3
-31.48559,0.8833328,-30.69879,-0.317961091534908,0.0167278509660095,-0.2049811651670161,13.83069,58.42228,1.185102,0.1100955,0.4833663,-0.04979601,3.71999991685152,3
-31.32372,0.2833333,-30.58203,-0.2098143524329287,-0.193051248569309,-0.1263702897573573,3.413144,57.52583,0.2547155,0.02717553,0.4809138,-0.01238244,3.73999991640449,3
-31.27587,0.4833334,-30.54631,-0.1005668740512035,-0.4007394998930613,-0.0451431951459895,6.824873,57.54874,0.5112198,0.0543164,0.4802706,-0.0247484,3.75999991595745,3
-31.13127,0.2833333,-30.44175,-0.1537410551895135,0.0595896839720712,-0.0800375389502683,3.369753,56.19045,0.1678,0.02662708,0.4706963,-0.01255548,3.77999991551042,3
-31.08405,0.4833333,-30.4066,-0.2044799864660511,0.4963971862763355,-0.1124769443205728,6.738148,56.20533,0.3366365,0.05322035,0.4700845,-0.02509562,3.79999991506338,3
-31.03684,0.683333,-30.37146,-0.1141034991512555,0.0047052035325806,-0.0445750317413349,10.10556,56.23042,0.5078195,0.07976037,0.4690659,-0.03761038,3.81999991461635,3
-30.83616,0.2833332,-30.22599,-0.1113719711265268,0.2097800376171584,-0.0396454227424492,3.32551,54.48534,0.07246047,0.02608718,0.457551,-0.01272063,3.83999991416931,3
-30.78967,0.4833329,-30.19126,0.0119735528596081,-0.0078397056647709,0.0498309919162629,6.649721,54.49169,0.1454669,0.05214257,0.456973,-0.02542495,3.85999991372228,3
-30.74319,0.6833328,-30.15653,0.1412311455918882,-0.2223231710102733,0.1419340450387558,9.972948,54.50238,0.2194215,0.07814636,0.4560106,-0.03810435,3.87999991327524,3
-30.60657,0.2833336,-30.05847,0.1213774595601258,0.2322559617168429,0.1269454922881614,3.283511,53.26419,359.9724,0.02550236,0.4480821,-0.01305821,3.89999991282821,3
-30.56037,0.4833337,-30.0246,0.2821585557431021,0.0240456205992601,0.2404484812921801,6.566055,53.26181,359.9446,0.0509764,0.4475303,-0.02610166,3.91999991238117,3
-30.51418,0.683334,-29.99074,0.2926740739967961,0.2991630847982973,0.2447907958667237,9.847353,53.25775,359.9162,0.07639799,0.4466117,-0.03912071,3.93999991193414,3
-30.32228,0.2833331,-29.8516,0.2926274748055562,0.5784622214631256,0.2405107355115809,3.238821,51.20718,359.8876,0.02506152,0.4319945,-0.01309674,3.9599999114871,3
-30.27702,0.4833331,-29.81772,0.3942768021707472,0.1693578641904595,0.3072000324205248,6.476644,51.19761,359.7745,0.05009527,0.4314764,-0.02617925,3.97999991104007,3
-30.23177,0.683333,-29.78386,0.4928419757001734,-0.2632682646355313,0.3700721420770705,9.713494,51.18148,359.6599,0.07508185,0.4306138,-0.03923666,3.99999991059303,3
-30.10368,0.2833335,-29.69057,0.4447594248278683,0.1855615557977269,0.3274689905117363,3.198263,49.15489,359.8191,0.02472167,0.4158004,-0.01304225,4.019999910146,3
-30.05941,0.4833335,-29.65645,0.5599754241448025,-0.0294451379683171,0.401682222974479,6.395585,49.13966,359.6371,0.04941698,0.4153132,-0.02607064,4.03999990969896,3
-30.01515,0.6833337,-29.62235,0.5305814662714035,0.2378309698623376,0.3718747441048258,9.591867,49.11403,359.4528,0.07406619,0.4145019,-0.03907473,4.05999990925193,3
-29.82704,0.2833335,-29.48653,0.487006448455709,0.5082429701341483,0.3320422189322514,3.44982,49.69054,359.8021,0.02658937,0.4200254,-0.01421416,4.07999990880489,3
-29.77886,0.4833338,-29.4502,0.5323707567334779,0.0892067456007889,0.3569930149254077,6.898665,49.67256,359.6028,0.05314743,0.4194527,-0.02841146,4.09999990835786,3
-29.60804,0.2833333,-29.32678,0.5719799908479288,-0.3543967298677771,0.3788315442414038,3.490105,50.99571,359.8281,0.02684059,0.4303184,-0.01446259,4.11999990791082,3
-29.55878,0.4833333,-29.29076,0.4738023337182326,0.0824106364459509,0.3025045344823702,6.97958,50.97987,359.6545,0.05365012,0.4297182,-0.02891242,4.13999990746379,3
-29.50955,0.6833332,-29.25476,0.5303609891107968,-0.1456633521625571,0.3390298151316067,10.46969,50.95312,359.4783,0.08041522,0.4287183,-0.04333806,4.15999990701675,3
-29.46033,0.8833329,-29.21877,0.4532277584599242,0.1075005159971926,0.2805457219297231,13.95874,50.91499,359.2981,0.1070982,0.4273202,-0.05771951,4.17999990656972,3
-29.28084,0.2833333,-29.09005,0.3652568139137386,0.3627554297769294,0.2152416118967188,3.554092,52.51127,359.8942,0.02740254,0.4421896,-0.01454624,4.19999990612268,3
-29.2305,0.4833333,-29.05377,0.3633392863801781,-0.0724832282116687,0.2112377491034003,7.107665,52.50133,359.7873,0.05477405,0.441551,-0.02907793,4.21999990567565,3
-29.06726,0.2833331,-28.93461,0.3613337178246851,-0.5333346112031883,0.207896615843147,3.593824,53.53822,0.03641943,0.02813941,0.4501659,-0.01383941,4.23999990522861,3
-29.01721,0.4833332,-28.89682,0.234608955350744,-0.1148217150142281,0.1163669270444032,7.186882,53.54173,0.07373448,0.05624755,0.449502,-0.02765751,4.25999990478158,3
-28.96717,0.6833334,-28.85905,0.2623403701227431,-0.3622357897297489,0.1360603777194065,10.77891,53.54766,0.1116587,0.08429246,0.4483965,-0.04144428,4.27999990433455,3
-28.91715,0.8833334,-28.82128,0.1739950377952368,-0.1294576652143386,0.0739152555194735,14.36993,53.55611,0.1504458,0.1122466,0.4468508,-0.05518686,4.29999990388751,3
-28.74656,0.2833331,-28.69842,0.2137535217402906,-0.3225100222674666,0.1043607486659041,3.56202,54.42316,0.08835614,0.02799214,0.4570353,-0.01352656,4.31999990344048,3
-28.69691,0.4833333,-28.66101,0.2477644846160274,-0.5155620311987625,0.1311865936628002,7.122739,54.43145,0.1773208,0.05594689,0.4563728,-0.02703551,4.33999990299344,3
-28.54134,0.2833331,-28.54865,0.1036872601122453,-0.042687609354546,0.0304037028576651,3.637697,55.06684,0.1018639,0.02855548,0.4620078,-0.01388426,4.35999990254641,3
-28.4903,0.483333,-28.51084,-0.0427512688552624,0.4045743014475151,-0.0718492360537652,7.274328,55.0766,0.2045132,0.05707388,0.4613091,-0.02775059,4.37999990209937,3
-28.43929,0.6833327,-28.47305,-0.0407294354484655,-0.0787533008851514,-0.0685592582339502,10.91059,55.09306,0.3085781,0.08553098,0.4601454,-0.04158953,4.39999990165234,3
-28.22588,0.2833336,-28.31895,-0.1440802126245088,0.132593768828077,-0.1394564995687979,3.641676,55.5066,0.110821,0.02856908,0.4654029,-0.01394076,4.4199999012053,3
-28.1746,0.4833335,-28.28137,-0.1245422755338374,-0.0808440714749552,-0.1204449268700571,7.282318,55.51723,0.2225349,0.05710139,0.4646975,-0.02786336,4.43999990075827,3
-28.12333,0.6833337,-28.2438,-0.106436011257518,-0.293236966339725,-0.1007092503062772,10.92185,55.5352,0.3360472,0.08556755,0.4635229,-0.04175366,4.45999990031123,3
-27.97626,0.2833333,-28.13842,-0.2524550865218593,0.1613432307899311,-0.1979529634664913,3.596566,56.67334,0.1520902,0.0282502,0.4743808,-0.01372731,4.4799998998642,3
-27.92528,0.4833332,-28.10173,-0.3945340254995244,0.5913561400465266,-0.2916889919853034,7.192056,56.68776,0.305346,0.05646431,0.4736788,-0.02743705,4.49999989941716,3
-27.87432,0.6833334,-28.06505,-0.3871888900579208,0.0918246280513011,-0.2787583480296476,10.78641,56.71208,0.4609775,0.08461413,0.4725101,-0.04111579,4.51999989897013,3
-27.67066,0.2833331,-27.91869,-0.4674530305471336,0.2880134812703844,-0.3277217098621072,3.541449,58.1426,0.2389645,0.02801985,0.4856082,-0.01319246,4.53999989852309,3
-27.62038,0.4833328,-27.88254,-0.5340478310219439,0.4873388272578386,-0.3672858170724744,7.0818,58.1649,0.4796953,0.05600464,0.4849097,-0.02636842,4.55999989807606,3
-27.57012,0.683333,-27.8464,-0.4219635430251429,-0.0027854058897076,-0.2817969567968923,10.6209,58.20252,0.7240647,0.08392685,0.4837464,-0.03951503,4.57999989762902,3
-27.43285,0.2833333,-27.74728,-0.4590846381975986,0.2028116316771355,-0.3036385874985292,3.488794,58.40179,0.2730125,0.02773392,0.4875824,-0.01277245,4.59999989718199,3
-27.38351,0.4833333,-27.71133,-0.3549349231592522,-0.0153314952688567,-0.2263836884417998,6.976478,58.42687,0.5479877,0.05543384,0.4869006,-0.02552918,4.61999989673495,3
-27.33418,0.6833333,-27.67538,-0.3911341052994288,0.2488087974810486,-0.2510576422032784,10.46265,58.46922,0.8271431,0.08307204,0.4857656,-0.038256,4.63999989628792,3
-27.1403,0.2833333,-27.53494,-0.4274034780704276,0.5160855238464896,-0.2766556869364294,3.436689,58.14976,0.2910991,0.0274414,0.4856656,-0.01235265,4.65999989584088,3
-27.09205,0.4833331,-27.49898,-0.4531471398312554,0.7342282328894694,-0.2954412592205315,6.871944,58.17612,0.5845118,0.05484857,0.485006,-0.02468684,4.67999989539385,3
-27.04382,0.6833329,-27.46303,-0.3205609849048656,-0.0027862727967015,-0.2003808431818114,10.30604,58.22059,0.8820934,0.08219823,0.4839078,-0.03699536,4.69999989494681,3
-26.91494,0.2833333,-27.37049,-0.3289955430532494,0.1693575936032703,-0.2052958164281051,3.394655,57.09847,0.213612,0.02690852,0.4776548,-0.01251887,4.71999989449978,3
-26.86724,0.4833332,-27.33519,-0.3301956137927639,0.3446379249811051,-0.2039514702716331,6.787954,57.11755,0.4285666,0.05378264,0.4770238,-0.02502251,4.73999989405274,3
-26.81955,0.6833332,-27.2999,-0.29540884277095,0.3106623921264547,-0.1771700900852941,10.18018,57.14972,0.6464996,0.08060165,0.4759732,-0.03750065,4.75999989360571,3
-26.63441,0.2833331,-27.166,-0.2672930565435649,0.3075260222809818,-0.1553110010215626,3.351254,55.37483,0.1277924,0.02641075,0.4644197,-0.01259968,4.77999989315867,3
-26.58757,0.4833331,-27.13094,-0.2350983905785035,0.2819127662964397,-0.1308883030599403,6.701137,55.38611,0.2565428,0.05278875,0.4638233,-0.02518249,4.79999989271164,3
-26.41981,0.2833333,-27.00929,-0.1011591603145802,-0.4598068347224964,-0.0365674368324988,3.308178,54.10325,0.04153081,0.0258721,0.4545943,-0.01280509,4.8199998922646,3
-26.37348,0.4833333,-26.97486,-0.0954045478745797,-0.2934124623436451,-0.0339251781874594,6.615387,54.10686,0.08330177,0.05171498,0.454026,-0.02559598,4.83999989181757,3
-26.32716,0.6833332,-26.94045,-0.0783357929416332,-0.1249276767312843,-0.0244054051113593,9.921335,54.11294,0.1255389,0.07750465,0.45308,-0.0383613,4.85999989137053,3
-26.28086,0.8833329,-26.90604,-0.0201627966023494,-0.1667436886803321,0.0136455133692869,13.22636,54.1216,0.1686437,0.1032228,0.4517573,-0.05109107,4.8799998909235,3
-26.10374,0.2833331,-26.77881,0.036998198419706,-0.1787654976070963,0.0501229403341909,3.263483,52.44548,359.9306,0.02527727,0.4416981,-0.01312536,4.89999989047647,3
-26.05787,0.4833331,-26.74507,0.103527451630395,-0.21430911058204,0.0924573080434711,6.525965,52.43951,359.8607,0.05052632,0.4411607,-0.02623606,4.91999989002943,3
-25.89931,0.2833336,-26.62954,0.1584305071922287,-0.2467174677710705,0.1249664074742895,3.220397,50.43816,359.8651,0.02491976,0.425942,-0.01303745,4.9399998895824,3
-25.85451,0.4833336,-26.59556,0.2007345144264114,-0.2493318332850544,0.1474197080978427,6.439861,50.42673,359.7293,0.04981276,0.4254367,-0.02606083,4.95999988913536,3
-25.80971,0.6833336,-26.5616,0.240743731465848,-0.2754679402967995,0.1673239658822218,9.658336,50.40749,359.5919,0.07465917,0.4245953,-0.03905948,4.97999988868833,3
-25.76492,0.8833335,-26.52764,0.2664233966556288,-0.2984670406335975,0.1768379195042264,12.87559,50.3802,359.4523,0.09943901,0.4234191,-0.05201967,4.99999988824129,3
-25.59467,0.2833335,-26.40468,0.2858061337852433,-0.2916715029700557,0.1818502292176802,3.28074,49.0023,359.7977,0.02531648,0.4145869,-0.01347708,5.01999988779426,3
-25.54914,0.4833335,-26.36978,0.3092988864741528,-0.3083980951744275,0.1900329565901373,6.56054,48.98483,359.5942,0.05060528,0.4140753,-0.02693921,5.03999988734722,3
-25.50362,0.6833338,-26.33489,0.3178188024230088,-0.3219883583914705,0.1883439384575069,9.839289,48.95541,359.388,0.07584497,0.4132237,-0.04037532,5.05999988690019,3
-25.31459,0.2833331,-26.1993,0.3113627715345402,-0.3057842467903701,0.1771010581412895,3.533895,50.56698,359.815,0.02719131,0.4269387,-0.01462802,5.07999988645315,3
-25.26487,0.4833332,-26.16261,0.3005127392138504,-0.3131019285219902,0.1640376644238941,7.066744,50.54976,359.6287,0.0543488,0.4263282,-0.02923821,5.09999988600612,3
-25.09301,0.2833333,-26.03914,0.3631581950739395,-0.3172835844354439,0.2053635765012842,3.559671,51.81784,359.8494,0.02736327,0.4367674,-0.01475251,5.11999988555908,3
-25.04255,0.4833333,-26.00282,0.4097644950685399,-0.2916708228431447,0.2369182419087856,7.118533,51.80369,359.6974,0.05469284,0.4361341,-0.02949002,5.13999988511205,3
-24.99211,0.6833335,-25.9665,0.4515420159462628,-0.289579518919542,0.266731871279223,10.67628,51.7798,359.5429,0.0819613,0.4350798,-0.04419487,5.15999988466501,3
-24.94169,0.8833337,-25.9302,0.3261689000816368,0.3559620220509905,0.1773977806036875,14.23294,51.74571,359.3849,0.1091431,0.433606,-0.05885262,5.17999988421798,3
-24.76271,0.2833333,-25.80087,0.3375221148072036,0.1007075899443268,0.1856771997734263,3.594685,53.28654,359.9777,0.02794657,0.4482191,-0.01423912,5.19999988377094,3
-24.7122,0.4833331,-25.76368,0.3411530446827626,-0.1493197343090363,0.1889083906531539,7.188679,53.28445,359.9554,0.05586144,0.4475577,-0.0284592,5.21999988332391,3
-24.6617,0.6833333,-25.7265,0.3720900377673359,-0.1550695622518224,0.2137938136177268,10.78156,53.28093,359.9329,0.08371282,0.4464564,-0.04264681,5.23999988287687,3
-24.46704,0.2833336,-25.58524,0.3920596685803978,-0.1299797540498767,0.2319616525965671,3.555701,54.219,0.07889286,0.02792952,0.4554541,-0.01352503,5.25999988242984,3
-24.41751,0.4833333,-25.54784,0.4127769162922732,-0.1273661459360944,0.251710266120309,7.110161,54.22643,0.1587436,0.05582393,0.4547963,-0.02702946,5.2799998819828,3
-24.36801,0.683333,-25.51046,0.2809256765220098,0.5197435282964511,0.1629703260223465,10.66359,54.23896,0.2398066,0.08365662,0.4537012,-0.04050413,5.29999988153577,3
-24.23711,0.2833331,-25.417,0.2861675323353765,0.2671026845278804,0.1711556843455532,3.61467,54.90615,0.08653169,0.02833504,0.4607715,-0.01387027,5.31999988108873,3
-24.18636,0.4833331,-25.37951,0.1473455884634873,0.5009261865847283,0.0761664956367589,7.228277,54.9144,0.1737174,0.05663358,0.4600836,-0.02772281,5.3399998806417,3
-24.13563,0.6833329,-25.34202,0.0052568574703002,0.7420676881781123,-0.0209144383334134,10.84137,54.92827,0.2619755,0.0848706,0.4589379,-0.04154832,5.35999988019466,3
-23.94764,0.2833336,-25.20683,0.0186736262096438,0.2979424631098501,-0.0067407833852541,3.647769,55.44469,0.1093156,0.02861755,0.4649245,-0.01396167,5.37999987974763,3
-23.89629,0.4833335,-25.16916,0.0328848201211897,-0.1665678975220708,0.0082933144337715,7.294509,55.4552,0.2195176,0.05719822,0.4642174,-0.02790511,5.39999987930059,3
-23.84496,0.6833331,-25.13149,0.0317107975368173,-0.1733626968641592,0.0145165932953261,10.94021,55.47295,0.3314692,0.08571291,0.4630402,-0.04181667,5.41999987885356,3
-23.64034,0.2833331,-24.98462,0.0215467028712623,-0.149317627544704,0.0157584891829287,3.606076,56.73061,0.1599177,0.02834876,0.4748171,-0.01372076,5.43999987840652,3
-23.58926,0.4833328,-24.94778,-0.1207675581016154,0.3324425927408041,-0.0775817467663344,7.211066,56.74581,0.3210772,0.05666115,0.4741107,-0.02742379,5.45999987795949,3
-23.53821,0.683333,-24.91095,-0.262134293475043,0.7938171353299782,-0.1703448810477077,10.81489,56.77147,0.4847463,0.08490853,0.4729345,-0.04109563,5.47999987751245,3
-23.40035,0.2833333,-24.81222,-0.2475249461076814,0.3298288503788384,-0.1528430123757225,3.552624,57.94748,0.2221132,0.02805636,0.4841225,-0.01332055,5.49999987706542,3
-23.34988,0.4833336,-24.77604,-0.2234624967449008,-0.1545447803506746,-0.1288533061884571,7.104104,57.96827,0.4458787,0.05607707,0.483422,-0.02662415,5.51999987661839,3
-23.29942,0.6833335,-24.73987,-0.3284486102033348,0.2456732857436939,-0.1968004153660416,10.65448,58.00335,0.6730724,0.08403592,0.4822558,-0.03989834,5.53999987617135,3
-23.10481,0.2833333,-24.59973,-0.2585335062808127,-0.0148086011184563,-0.1427506416104229,3.495257,58.4214,0.2726681,0.02777947,0.487731,-0.01280734,5.55999987572432,3
-23.05536,0.4833331,-24.56374,-0.17776588718678,-0.2700638139728332,-0.0835682574811436,6.989433,58.44651,0.5473221,0.05552509,0.4870464,-0.02559886,5.57999987527728,3
-23.00592,0.6833332,-24.52776,-0.2466393262576751,0.1458353396799244,-0.131844958582544,10.48198,58.48889,0.8262361,0.08320817,0.4859069,-0.03835932,5.59999987483025,3
-22.79552,0.2833333,-24.37551,-0.2200943483246327,-0.0989651565417886,-0.1141461519191366,3.438555,58.1877,0.2913259,0.02745249,0.4859545,-0.01236792,5.61999987438321,3
-22.74722,0.4833335,-24.33956,-0.3297645298950336,0.1416533888734755,-0.1947865619292628,6.875571,58.21411,0.5849854,0.05486999,0.4852938,-0.02471679,5.63999987393618,3
-22.69894,0.6833338,-24.30362,-0.4359850035707602,0.3885444161987792,-0.2733191447737617,10.31143,58.25863,0.882785,0.08222973,0.4841938,-0.0370402,5.65999987348914,3
-22.65067,0.8833337,-24.26769,-0.382747853848862,-0.0508768279447472,-0.2365638388778634,13.74606,58.32208,1.187107,0.1095077,0.4826558,-0.04932647,5.67999987304211,3
-22.47322,0.2833333,-24.14015,-0.3234862362845341,-0.5117292736835708,-0.1943255182956633,3.393071,56.69273,0.1914655,0.02684881,0.4745483,-0.01258697,5.69999987259507,3
-22.42558,0.4833331,-24.10485,-0.4016884692823765,-0.0890349601090782,-0.2504462597707544,6.784789,56.70984,0.3841629,0.05366344,0.4739224,-0.02515834,5.71999987214804,3
-22.26504,0.2833333,-23.98842,-0.3066382285765101,-0.3280854036246594,-0.182284928474889,3.343369,55.45986,0.133041,0.02636181,0.4650761,-0.01254675,5.739999871701,3
-22.21831,0.4833332,-23.95343,-0.211746367623089,-0.5629544281865928,-0.1138789971618763,6.685371,55.47158,0.267087,0.05269114,0.4644817,-0.02507661,5.75999987125397,3
-22.17159,0.6833333,-23.91846,-0.279032280537006,-0.1277156453585068,-0.1623481932583672,10.02636,55.49132,0.4029151,0.07896777,0.4634918,-0.03758164,5.77999987080693,3
-22.12489,0.8833334,-23.88349,-0.3432102042463754,0.2860924411562198,-0.2095996424592101,13.36632,55.51944,0.5415456,0.1051697,0.4621079,-0.050051,5.7999998703599,3
-21.95547,0.2833332,-23.76221,-0.2637667200311782,-0.2265069583423374,-0.157205729886968,3.300232,53.72452,0.01100204,0.02573212,0.4516574,-0.01292576,5.81999986991286,3
-21.90916,0.4833332,-23.728,-0.2721881844081437,-0.0402493775451407,-0.1668483997271117,6.599467,53.72548,0.02204215,0.051435,0.4510956,-0.02583716,5.83999986946583,3
-21.86287,0.6833333,-23.69379,-0.2726537233087711,0.1522806856847985,-0.1714456551749172,9.897429,53.72707,0.03308955,0.07708484,0.4501603,-0.03872322,5.85999986901879,3
-21.67834,0.2833333,-23.56089,-0.1087829761709819,-0.341501359905578,-0.0602132725267239,3.252543,51.87492,359.9102,0.02517875,0.4372334,-0.01311743,5.87999986857176,3
-21.63274,0.4833333,-23.52709,-0.0984162460246196,-0.1364271002742911,-0.0593880687152825,6.504112,51.86723,359.8199,0.05032982,0.4367049,-0.02622021,5.89999986812472,3
-21.46643,0.2833333,-23.40597,0.0436713611516523,-0.3519561836928582,0.0346135987151683,3.222382,49.70597,359.8258,0.0248742,0.4201635,-0.01319623,5.91999986767769,3
-21.42159,0.4833335,-23.37193,0.1825464815916646,-0.5622579811026802,0.1252794819044105,6.443753,49.6912,359.6505,0.04972108,0.4196638,-0.02637809,5.93999986723065,3
-21.37677,0.6833335,-23.3379,0.1450671850834837,-0.1014059307034145,0.089407469819438,9.664135,49.66632,359.4731,0.07452145,0.4188319,-0.03953514,5.95999986678362,3
-21.33195,0.8833334,-23.30388,0.10522290774988,0.3390609061619604,0.0518580523746408,12.88306,49.63104,359.2926,0.09925362,0.417669,-0.05265244,5.97999986633658,3
-21.15282,0.2833335,-23.17473,0.2091306624336795,-0.1458347511140179,0.1173761754438196,3.37376,49.37799,359.7997,0.02601652,0.4175577,-0.01388343,5.99999986588955,3
-21.10584,0.4833336,-23.13904,0.2096474438922335,0.0691719511895457,0.1095961577764015,6.746557,49.36019,359.598,0.05200328,0.417013,-0.02775107,6.01999986544251,3
-21.05887,0.6833335,-23.10336,0.210542925451989,0.2914961289303124,0.1030216121380007,10.11836,49.3302,359.3936,0.07793782,0.4161061,-0.04159082,6.03999986499548,3
-20.86247,0.2833333,-22.96263,0.3762463476046065,-0.171446610081118,0.2164023054893675,3.537884,51.10952,359.8306,0.02721167,0.4312086,-0.01464919,6.05999986454844,3
-20.81254,0.4833333,-22.92617,0.3705986632768017,0.0655134404993499,0.2083257657298141,7.074874,51.09372,359.6598,0.05439027,0.4305909,-0.02928176,6.07999986410141,3
-20.76262,0.6833331,-22.88972,0.3593140362184286,0.3097915826996268,0.1977080934068169,10.61201,51.06698,359.4859,0.08151701,0.4295616,-0.04389039,6.09999986365438,3
-20.63223,0.2833332,-22.79673,0.5252333357233923,-0.1311975607081025,0.3158366336472582,3.56543,52.24831,359.8741,0.0274475,0.4401351,-0.01468413,6.11999986320734,3
-20.58169,0.4833332,-22.76038,0.4922881344208001,0.1277158100102897,0.292235323747299,7.130007,52.23647,359.747,0.05486114,0.4394953,-0.02935232,6.13999986276031,3
-20.53116,0.6833332,-22.72404,0.4445209317487126,0.393946835279618,0.2588335915014319,10.69355,52.21646,359.6179,0.08221404,0.43843,-0.04398777,6.15999986231327,3
-20.34395,0.2833334,-22.58863,0.3930062445965845,0.6152248219750227,0.2234688650593206,3.593317,53.65646,0.01689695,0.02804431,0.4510913,-0.01401839,6.17999986186624,3
-20.29362,0.4833334,-22.55123,0.4868179085944746,-0.1144725787849989,0.2919782659169243,7.185847,53.6581,0.03438538,0.05605672,0.4504262,-0.02801637,6.1999998614192,3
-20.24331,0.6833333,-22.51383,0.4265183983694562,0.0691709092633424,0.2519594920792798,10.77736,53.66088,0.05216143,0.08400619,0.4493188,-0.04198276,6.21999986097217,3
-20.03986,0.2833334,-22.36673,0.3618681667238448,0.2601325519175038,0.2098172273358933,3.562077,54.52749,0.08235885,0.02795629,0.4578459,-0.01359877,6.23999986052513,3
-19.99008,0.4833334,-22.32949,0.3240617262956604,0.2460193529949734,0.1866196638402364,7.122918,54.53522,0.1654331,0.05587633,0.4571822,-0.02717891,6.2599998600781,3
-19.94031,0.6833332,-22.29226,0.2705147864746955,0.2669276705455066,0.1523579678700883,10.68274,54.54829,0.2497886,0.08373459,0.4560772,-0.04072898,6.27999985963106,3
-19.89056,0.8833331,-22.25504,0.2128524210930287,0.2695412019958217,0.1152598978729138,14.24153,54.56692,0.3361096,0.111504,0.4545324,-0.05423595,6.29999985918403,3
-19.71895,0.2833335,-22.13242,0.3351496767151367,-0.439770096369686,0.2065241132832618,3.635555,55.31606,0.107337,0.02853083,0.4639332,-0.01389537,6.31999985873699,3
-19.66784,0.4833334,-22.09478,0.3080488712260276,-0.2367859178797093,0.1922193550954603,7.270092,55.32634,0.2155228,0.05702511,0.4632324,-0.02777286,6.33999985828996,3
-19.61675,0.6833334,-22.05714,0.2748668582175781,-0.02752915468096,0.1738232767802294,10.90422,55.34368,0.3252352,0.08545803,0.4620651,-0.04162263,6.35999985784292,3
-19.42881,0.2833333,-21.92258,0.2475514821396593,0.135729302606166,0.1598692626636442,3.628388,55.94633,0.121925,0.02845844,0.4687929,-0.01391038,6.37999985739589,3
-19.37754,0.4833332,-21.88537,0.2113546521739593,0.0672550100444371,0.1405496683527793,7.255722,55.958,0.2447951,0.05688019,0.4680873,-0.02780287,6.39999985694885,3
-19.20521,0.2833334,-21.76183,0.1687040825121109,0.0338019847123873,0.117821781842526,3.583251,57.2899,0.1883246,0.02822551,0.4791004,-0.01354606,6.41999985650182,3
-19.15438,0.4833332,-21.72528,-0.013168109035087,0.4622463476825434,-0.0046094780343821,7.165455,57.30769,0.3780612,0.05641534,0.478396,-0.02707516,6.43999985605478,3
-19.10357,0.6833332,-21.68875,-0.0336477696947703,0.2341723168220101,-0.012154583159269,10.7465,57.3377,0.5707339,0.08454134,0.4772232,-0.04057378,6.45999985560775,3
-19.05276,0.8833331,-21.65223,-0.0572966196556876,0.0155070793482099,-0.0220693211879243,14.32615,57.38046,0.7676379,0.1125733,0.4755836,-0.05403034,6.47999985516071,3
-18.87456,0.2833336,-21.52455,-0.0720104297080386,-0.2481109458880132,-0.025945417344932,3.525661,58.41297,0.2553757,0.02793829,0.4876665,-0.01306638,6.49999985471368,3
-18.8245,0.4833337,-21.48854,-0.0506730878046965,-0.2909732476737509,-0.0049732897421144,7.050231,58.43669,0.5126271,0.05584195,0.4869706,-0.02611652,6.51999985426664,3
-18.77445,0.6833337,-21.45253,-0.0353092325383901,-0.2998596967962146,0.0095774623439552,10.57363,58.47671,0.7737413,0.08368438,0.485812,-0.03913811,6.53999985381961,3
-18.58019,0.2833336,-21.31252,-0.0143073717070087,-0.3280861449081158,0.0259106226036038,3.466463,58.43169,0.289615,0.02763126,0.4878094,-0.0125582,6.55999985337257,3
-18.53132,0.4833336,-21.27655,-0.1554137300703928,0.2913196987646282,-0.0738858358927565,6.931508,58.45816,0.5815623,0.0552278,0.4871356,-0.02509767,6.57999985292554,3
-18.48245,0.6833336,-21.24059,-0.153558535162336,0.0141115814973994,-0.0733161217951838,10.39531,58.50279,0.8777509,0.08276508,0.4860135,-0.03761018,6.5999998524785,3
-18.27238,0.2833333,-21.08891,-0.1523573406061604,-0.253687590188696,-0.074302118516055,3.415464,57.67207,0.254582,0.02717686,0.4820313,-0.01242789,6.61999985203147,3
-18.22441,0.4833333,-21.05329,-0.2373403004084142,0.1538484926043675,-0.136664215749807,6.829474,57.69498,0.5109986,0.05431894,0.4813858,-0.02483873,6.63999985158443,3
-18.17645,0.6833333,-21.01768,-0.1581784324682509,-0.095133226033744,-0.080012510074841,10.24237,57.7336,0.771054,0.08140488,0.4803109,-0.03722369,6.6599998511374,3
-18.1285,0.8833333,-20.98207,-0.0778597476648759,-0.3347062370959358,-0.0208089912217523,13.65408,57.78861,1.036675,0.1084104,0.4788082,-0.0495721,6.67999985069036,3
-17.95124,0.2833333,-20.85463,-0.1490717186652315,0.1010558617058536,-0.0698293540838825,3.366846,55.92624,0.1551488,0.02658183,0.4686652,-0.01257964,6.69999985024333,3
-17.9041,0.4833331,-20.81948,-0.0420830596312704,-0.1197004129375332,0.0081362327313243,6.73233,55.93999,0.3113863,0.05313042,0.4680573,-0.02514284,6.7199998497963,3
-17.85698,0.6833331,-20.78433,0.0600795993364862,-0.3310478348671201,0.0821530150610456,10.09677,55.96318,0.469744,0.0796252,0.4670452,-0.03768074,6.73999984934926,3
-17.66417,0.2833332,-20.64564,-0.0148742631955283,0.1329401156396483,0.0287036382129706,3.315928,54.17902,0.04178726,0.02592483,0.4551819,-0.01285099,6.75999984890223,3
-17.61769,0.4833333,-20.61119,-0.0921166086097624,0.5807242279202698,-0.0273700423477016,6.630842,54.18267,0.0838233,0.05181997,0.4546103,-0.02568746,6.77999984845519,3
-17.57122,0.6833333,-20.57675,-0.02199065401898,0.1073275778524001,0.0194181591446955,9.944417,54.1888,0.1263292,0.07766102,0.4536586,-0.0384979,6.79999984800816,3
-17.36318,0.2833334,-20.42707,0.0523408405527217,-0.3822728992034512,0.0677625244670494,3.266005,52.52719,359.9308,0.02528842,0.4423372,-0.01315152,6.81999984756112,3
-17.31722,0.4833334,-20.39337,-0.0040720671358283,0.0168995987362234,0.02315717579636,6.531054,52.52124,359.8611,0.05054888,0.4417981,-0.02628862,6.83999984711409,3
-17.27127,0.6833335,-20.35967,0.1026747622199888,-0.2404455002032104,0.0932594779653328,9.794821,52.5112,359.7905,0.07575791,0.4409006,-0.03940041,6.85999984666705,3
-17.22534,0.8833334,-20.32599,0.2097837567611336,-0.4883819153498246,0.1622445494975544,13.05763,52.49692,359.7184,0.1008983,0.4396457,-0.05247626,6.87999984622002,3
-17.04892,0.2833334,-20.1985,0.1642714357224157,-0.0609828858396126,0.121897612464366,3.215991,49.65952,359.8171,0.02479705,0.4197983,-0.0132317,6.89999984577298,3
-17.0041,0.4833334,-20.1646,0.2060753270902307,-0.2901016682146848,0.1426933008413335,6.431013,49.64405,359.6331,0.04956739,0.4193009,-0.02644889,6.91999984532595,3
-16.95928,0.6833334,-20.13072,0.1064132213190234,-0.0296196904889022,0.0619142693447685,9.64502,49.61799,359.4468,0.07429135,0.4184727,-0.03964119,6.93999984487891,3
-16.76512,0.2833333,-19.9904,0.0054122142397794,0.2413165953752285,-0.0198958335062258,3.372193,49.37111,359.7978,0.02599804,0.4175037,-0.01389115,6.95999984443188,3
-16.71814,0.4833334,-19.95475,0.058678417673164,-0.1698779621284744,0.0091539576729253,6.743374,49.35315,359.5942,0.05196597,0.4169596,-0.02776634,6.97999984398484,3
-16.67117,0.6833332,-19.9191,0.1132445198760123,-0.5983216651829949,0.0399177697289445,10.1136,49.32289,359.3878,0.07788213,0.4160536,-0.04161368,6.99999984353781,3
-16.45907,0.2833331,-19.76669,0.0274839573055434,-0.1390379508554581,-0.028779761533265,3.537465,51.11107,359.8301,0.02720652,0.431221,-0.01465143,7.01999984309077,3
-16.40913,0.4833332,-19.73024,0.111807297672124,-0.3373175238747978,0.0259713784001718,7.073957,51.09523,359.6589,0.05437936,0.4306033,-0.02928599,7.03999984264374,3
-16.35922,0.6833332,-19.6938,0.1932528657396783,-0.527234104091794,0.0807443499981026,10.61061,51.06843,359.4846,0.0815006,0.4295744,-0.04389653,7.0599998421967,3
-16.30932,0.8833332,-19.65737,0.1103789440374019,-0.0428607988335447,0.0191117143603598,14.14617,51.03019,359.3063,0.1085363,0.4281357,-0.05846103,7.07999984174967,3
-16.12986,0.2833333,-19.52943,0.0294106408960832,0.4242629939346554,-0.0400112817176712,3.567626,52.63774,359.8952,0.02749629,0.4431769,-0.01462072,7.09999984130263,3
-16.07927,0.4833333,-19.49311,0.0905243084240314,-0.0308394380395892,0.0025496265353268,7.134463,52.62786,359.7894,0.05495904,0.4425321,-0.02922583,7.1199998408556,3
-16.02869,0.6833332,-19.45679,-0.0340986379970171,0.2170970610012486,-0.0869478531532728,10.70026,52.6112,359.6819,0.0823608,0.4414586,-0.04379837,7.13999984040856,3
-15.83331,0.2833334,-19.31536,-0.1603839707077341,0.4754877904715596,-0.1768229788203932,3.590372,53.97839,0.05483516,0.0281321,0.4535863,-0.01379059,7.15999983996153,3
-15.78321,0.4833334,-19.27774,-0.1307003991659758,0.0517480103214683,-0.1549539670647952,7.179922,53.98364,0.1106982,0.05623256,0.4529186,-0.02755982,7.17999983951449,3
-15.73312,0.6833333,-19.24012,-0.098988486534477,-0.3892410623467902,-0.1306879413511659,10.76844,53.9925,0.1674316,0.08426984,0.4518067,-0.04129812,7.19999983906746,3
-15.52098,0.283333,-19.08714,-0.2085776748949133,0.0574979480324021,-0.205860364456857,3.568466,54.80672,0.08578983,0.02798632,0.4600079,-0.01366594,7.21999983862042,3
-15.47096,0.483333,-19.05004,-0.1451051334835966,-0.1533261681162351,-0.1575138211951774,7.135722,54.81477,0.1720392,0.05593535,0.4593386,-0.02731541,7.23999983817339,3
-15.42096,0.683333,-19.01294,-0.0815998532873791,-0.3557871013719797,-0.108992955664668,10.70195,54.82836,0.2595969,0.08382212,0.4582243,-0.04093471,7.25999983772635,3
-15.37097,0.883333,-18.97586,-0.1807530181818215,0.1160418973683064,-0.1759405039147346,14.26713,54.84775,0.3492569,0.1116199,0.4566666,-0.05451017,7.27999983727932,3
-15.19092,0.2833332,-18.84709,-0.2748625458826534,0.5706215000076259,-0.2389213188822836,3.646378,55.46585,0.1122488,0.02861614,0.4650874,-0.01393867,7.29999983683228,3
-15.1396,0.4833331,-18.8094,-0.221377834146013,0.1029743309803563,-0.1970682670665411,7.291703,55.47664,0.2253757,0.05719511,0.4643806,-0.02785928,7.31999983638525,3
-15.0883,0.683333,-18.77172,-0.3501709682357266,0.338365880575525,-0.2847432993436118,10.93595,55.49486,0.3402928,0.08570783,0.4632038,-0.04174797,7.33999983593822,3
-14.89199,0.2833333,-18.63149,-0.4767849955592957,0.5842116349875964,-0.3699911924051111,3.618764,56.31587,0.1333296,0.02838637,0.4716356,-0.01387477,7.35999983549118,3
-14.84074,0.4833333,-18.59454,-0.4420529430866864,0.147926734118682,-0.3388361614522797,7.236437,56.32859,0.2676856,0.05673599,0.4709294,-0.02773162,7.37999983504415,3
-14.78951,0.6833332,-18.55761,-0.4009149436199148,-0.3056072719656157,-0.3013170347885623,10.85302,56.35005,0.4041619,0.08502073,0.4697535,-0.04155688,7.39999983459711,3
-14.66004,0.2833333,-18.46551,-0.4976763913049566,0.1285867660559842,-0.3613464282585816,3.564941,57.74183,0.1995337,0.02807922,0.4825561,-0.01349453,7.41999983415008,3
-14.6093,0.4833335,-18.42937,-0.4109812139597455,-0.0947828144031969,-0.2909933320128424,7.128755,57.76057,0.4005212,0.05612248,0.4818536,-0.02697217,7.43999983370304,3
-14.55858,0.6833335,-18.39325,-0.3143869797493934,-0.3097892519564512,-0.2138549004429091,10.69146,57.79219,0.6046159,0.08410336,0.480684,-0.04041972,7.45999983325601,3
-14.3719,0.2833333,-18.25955,-0.3750196275835922,0.14949444102728,-0.2492385575341504,3.509805,58.51892,0.2620436,0.02783398,0.4884737,-0.01297386,7.47999983280897,3
-14.32207,0.4833333,-18.22367,-0.4247145418338327,0.591528615771203,-0.2777487947205301,7.018499,58.54316,0.5259935,0.05563351,0.4877827,-0.02593161,7.49999983236194,3
-14.27225,0.6833332,-18.1878,-0.3199897114081764,0.1113363625273735,-0.2001666733378844,10.5257,58.58404,0.7940075,0.08337058,0.4866325,-0.0388588,7.5199998319149,3
-14.06977,0.2833335,-18.04209,-0.3940428130552877,0.3341831854365123,-0.2512937743960997,3.452312,58.40765,0.2898857,0.02752731,0.4876285,-0.01249011,7.53999983146787,3
-14.02112,0.4833333,-18.00622,-0.4635385416806183,0.5674840125307763,-0.2999633322047259,6.903146,58.43404,0.5821061,0.05501982,0.4869603,-0.02496126,7.55999983102083,3
-13.97248,0.6833331,-17.97036,-0.371590287778222,0.118654118134698,-0.2344082712834332,10.35284,58.47853,0.878527,0.08245436,0.4858478,-0.03740624,7.5799998305738,3
-13.92386,0.8833329,-17.93451,-0.2716041568962843,-0.3474251472724868,-0.1636745931968359,13.80125,58.54195,1.181469,0.1098058,0.4842924,-0.04981342,7.59999983012676,3
-13.75428,0.2833333,-17.81314,-0.3081668109855595,0.0742233779140789,-0.1897230880664899,3.404187,57.27951,0.2228769,0.02700042,0.4790379,-0.01253029,7.61999982967973,3
-13.70642,0.4833331,-17.77776,-0.1701350670833594,-0.1616909843765592,-0.0895594551242098,6.806971,57.29949,0.447289,0.05396637,0.4784013,-0.02504419,7.63999982923269,3
-13.65857,0.6833332,-17.7424,-0.0310760588647056,-0.3892419657560499,0.0131414336492845,10.20865,57.33317,0.6748247,0.08087654,0.4773415,-0.03753236,7.65999982878566,3
-13.47342,0.2833333,-17.60934,-0.0537400969037449,0.0574968360636659,0.0001017881829028,3.354123,55.55421,0.1305059,0.02642417,0.4658037,-0.01263174,7.67999982833862,3
-13.42645,0.4833333,-17.57437,-0.0726897202945107,0.4869861057918822,-0.0107045024030174,6.706851,55.56575,0.2619793,0.05281531,0.4652046,-0.02524652,7.69999982789159,3
-13.3795,0.6833333,-17.5394,0.140051399375336,-0.0057511730383801,0.1423338885701639,10.05859,55.58518,0.395211,0.0791536,0.4642068,-0.03783629,7.71999982744455,3
-13.17874,0.2833334,-17.39528,0.1576167419128875,0.2045508500059652,0.1549546291740764,3.303613,53.81938,0.01029836,0.02574493,0.4523951,-0.01296588,7.73999982699752,3
-13.13232,0.4833333,-17.36112,0.1635096883512083,0.4253069033707099,0.1582364702123708,6.606256,53.82027,0.02065203,0.05146088,0.4518313,-0.02591727,7.75999982655048,3
-13.08592,0.6833333,-17.32696,0.1682844110123742,0.6042464560568074,0.159594685486855,9.907574,53.82177,0.03098926,0.0771232,0.4508926,-0.03884311,7.77999982610345,3
-13.03953,0.8833333,-17.29281,0.3200503365407972,-0.1646529444000475,0.2631264668495792,13.20795,53.82388,0.04152858,0.1027143,0.4495801,-0.0517331,7.79999982565641,3
-12.8704,0.2833332,-17.17184,0.3197976084538414,-0.0170755515851552,0.257885978782026,3.253317,51.97957,359.9102,0.02517281,0.4380542,-0.0131434,7.81999982520938,3
-12.82472,0.4833332,-17.13811,0.3151790614704168,0.1409560625118635,0.2484056438323811,6.505652,51.97188,359.8199,0.05031784,0.4375243,-0.0262722,7.83999982476234,3
-12.77906,0.6833333,-17.1044,0.4710546366641903,-0.383142920129093,0.3512147500582827,9.756994,51.95894,359.7284,0.07541475,0.4366421,-0.03937593,7.85999982431531,3
-12.59505,0.2833334,-16.97158,0.4502355310828854,-0.2042033923586224,0.3273985907933951,3.205676,49.28176,359.8041,0.02471145,0.4168092,-0.01321546,7.87999982386827,3
-12.55043,0.4833335,-16.93769,0.4178475337939193,-0.0148097602178127,0.2947098723451589,6.410373,49.26524,359.607,0.04939635,0.4163183,-0.02641643,7.89999982342124,3
-12.50583,0.6833335,-16.9038,0.5564785159400039,-0.5075466298568194,0.383485826848851,9.614073,49.23743,359.4075,0.07403547,0.4155008,-0.03959275,7.91999982297421,3
-12.30279,0.2833334,-16.75759,0.5887522106137997,-0.2972447751236322,0.3970158397248315,3.451365,49.82672,359.7979,0.02656956,0.4211037,-0.01428399,7.93999982252717,3
-12.25445,0.4833333,-16.72141,0.6096129583961911,-0.0764890555934378,0.4030332771787215,6.901759,49.80836,359.5945,0.05310783,0.420529,-0.02855107,7.95999982208014,3
-12.20613,0.6833333,-16.68524,0.6300056948811505,0.1024500890339373,0.4095980395132503,10.35148,49.77736,359.3879,0.07959265,0.4195718,-0.04279122,7.9799998216331,3
-12.15784,0.8833332,-16.64908,0.6339147746232978,0.0538384528264785,0.4054550935104313,13.80176,49.73314,359.1766,0.1060103,0.4182326,-0.05699537,7.99999982118607,3
-11.98555,0.2833332,-16.52717,0.6238514018140648,0.0444297188539321,0.3929192141368958,3.548965,51.59777,359.8418,0.02727853,0.4350429,-0.01471914,8.01999982073903,3
-11.93529,0.4833333,-16.49087,0.6109765383708012,0.0209080508834065,0.3800336361029988,7.097622,51.58292,359.6819,0.054527,0.4344156,-0.02942652,8.039999820292,3
-11.88504,0.6833333,-16.45458,0.5778157742102437,0.0099309607149727,0.3531371997345349,10.64524,51.55788,359.5196,0.08171543,0.4333713,-0.04410165,8.05999981984496,3
-11.69746,0.2833332,-16.32053,0.5248948543182905,0.03815698569681,0.3131935822294061,3.581591,53.10995,359.9369,0.02770747,0.4468532,-0.01446281,8.07999981939793,3
-11.64681,0.4833331,-16.2839,0.4636012201737234,0.0522701962059779,0.2682659159524458,7.162416,53.10399,359.8734,0.05538198,0.4461984,-0.02890843,8.09999981895089,3
-11.59618,0.6833329,-16.24727,0.5775842548970225,-0.6413593037217222,0.3492182155950623,10.74221,53.09394,359.8088,0.08299451,0.4451081,-0.0433217,8.11999981850386,3
-11.39243,0.2833334,-16.10027,0.5392297978747091,-0.4185124714910057,0.3234278413901936,3.57333,54.24131,0.06715222,0.02801705,0.4556279,-0.01369171,8.13999981805682,3
-11.34252,0.4833334,-16.06288,0.4902280084796544,-0.1852114127511064,0.290973051056044,7.145581,54.24768,0.1352757,0.0560003,0.4549634,-0.02736241,8.15999981760979,3
-11.29263,0.6833334,-16.0255,0.4423810557653205,0.0062730080128479,0.2601878690586936,10.71682,54.25843,0.2044638,0.08392132,0.453857,-0.04100263,8.17999981716275,3
-11.24275,0.8833332,-15.98813,0.2426528991905829,0.7101289617150905,0.1220975647221092,14.28704,54.27378,0.2752936,0.111753,0.4523103,-0.05459913,8.19999981671572,3
-10.98901,0.2833332,-15.80607,0.2236381440867649,0.4110364184568541,0.1114930907118552,3.608765,55.36903,0.1085273,0.02832231,0.4643458,-0.01379079,8.21999981626868,3
-10.93826,0.4833333,-15.76873,0.2010519185950734,0.1270675044471245,0.0984895554806328,7.216445,55.37935,0.2178687,0.05660804,0.4636546,-0.02756397,8.23999981582165,3
-10.88754,0.6833332,-15.7314,0.0023797333203283,0.5241488476956034,-0.0393935571258214,10.82346,55.39673,0.3286937,0.08483157,0.4625036,-0.04130929,8.25999981537461,3
-10.83682,0.8833331,-15.69408,-0.0481608686970052,0.2704271783311932,-0.0730331029296493,14.42939,55.42155,0.4421944,0.1129629,0.4608944,-0.05500969,8.27999981492758,3
-10.6572,0.2833333,-15.5662,-0.1052772325139672,0.031829137692583,-0.1117629461006295,3.632966,55.79711,0.1124702,0.02847324,0.4676447,-0.01396489,8.29999981448054,3
-10.60587,0.4833334,-15.52894,-0.1568001383381547,-0.2460066414086106,-0.1468185445374175,7.264852,55.80788,0.2258208,0.05690952,0.4669392,-0.02791161,8.31999981403351,3
-10.55455,0.6833334,-15.4917,-0.1688568292293766,-0.2973714332760117,-0.1743958396064275,10.89569,55.82607,0.3409662,0.08528049,0.4657646,-0.04182651,8.33999981358647,3
-10.35841,0.2833333,-15.35217,-0.188463787832898,-0.3090455329594277,-0.204134513014857,3.588611,57.4962,0.1874082,0.02823822,0.4806784,-0.01362635,8.35999981313944,3
-10.30737,0.4833333,-15.31577,-0.2030271371203689,-0.3343447900207413,-0.227182844103476,7.176131,57.51393,0.3762492,0.05644043,0.4799696,-0.02723525,8.3799998126924,3
-10.25634,0.6833333,-15.27939,-0.3660557508881252,0.2937027144091942,-0.3537148415178599,10.76252,57.54384,0.5680075,0.08457883,0.4787894,-0.04081364,8.39999981224537,3
-10.04392,0.2833333,-15.12798,-0.3789273918522626,0.030851260678206,-0.3752629556837537,3.527649,58.59359,0.2546848,0.02792984,0.4890409,-0.01312414,8.41999981179833,3
-9.993715,0.4833333,-15.09211,-0.3801171609384592,-0.2168767248846728,-0.3869669667511779,7.054184,58.61725,0.511238,0.05582484,0.4883423,-0.0262319,8.4399998113513,3
-9.943521,0.6833333,-15.05626,-0.5476266036125166,0.2164456386325834,-0.5152418906540106,10.57954,58.65719,0.7716637,0.08365855,0.4871792,-0.03931078,8.45999981090426,3
-9.89334,0.8833332,-15.02041,-0.5564004124103947,-0.0010350120311686,-0.5306256958452238,14.10329,58.71416,1.038089,0.1114019,0.4855534,-0.05234681,8.47999981045723,3
-9.715473,0.2833333,-14.89287,-0.5603364698522695,-0.203392142256267,-0.5425018338185854,3.466773,58.62545,0.2896173,0.02761235,0.4892839,-0.01260621,8.49999981001019,3
-9.666471,0.4833333,-14.85706,-0.5480112329360693,-0.4449870930958202,-0.5428130526457267,6.932107,58.65193,0.5815624,0.05518984,0.4886079,-0.02519359,8.51999980956316,3
-9.617481,0.6833333,-14.82126,-0.656878663507733,0.1802030542548539,-0.6264681750721071,10.39618,58.69657,0.8777393,0.08270788,0.4874823,-0.03775387,8.53999980911613,3
-9.423596,0.2833333,-14.68224,-0.5516987378364941,-0.0855056001793475,-0.562402336835488,3.415593,57.84045,0.2541856,0.02715789,0.4833176,-0.01247138,8.55999980866909,3
-9.375513,0.4833333,-14.64677,-0.4392828411440259,-0.3360906428756755,-0.4905380555642775,6.829738,57.86333,0.5102078,0.05428107,0.4826703,-0.02492565,8.57999980822206,3
-9.327443,0.6833333,-14.6113,-0.4730775128589126,0.0943747947943194,-0.520088833785584,10.24276,57.90189,0.7698367,0.08134796,0.4815925,-0.03735409,8.59999980777502,3
-9.117981,0.2833335,-14.46076,-0.3496522022412316,-0.1259628756294417,-0.4368154692874224,3.367207,56.07617,0.154771,0.02656657,0.46982,-0.01261879,8.61999980732799,3
-9.070744,0.4833334,-14.42573,-0.2247306925633587,-0.3311766516187953,-0.3461755994062763,6.73304,56.0899,0.3106186,0.05309979,0.4692105,-0.02522113,8.63999980688095,3
-9.02352,0.6833333,-14.39071,-0.2704921994883769,0.1446594032966475,-0.3728154570910238,10.09787,56.11303,0.4686078,0.07957967,0.4681958,-0.03779805,8.65999980643392,3
-8.976309,0.8833332,-14.3557,-0.3118307819460941,0.6100064001795846,-0.3925807274952788,13.46167,56.14598,0.6299022,0.1059833,0.4667769,-0.05033872,8.67999980598688,3
-8.929111,0.9766704,-14.3207,-0.2603960399797067,0.1598871891860385,-0.3088035794808128,16.8244,56.18932,0.7957399,0.1322878,0.4649556,-0.06283239,8.69999980553985,3
-8.718935,0.2833333,-14.17115,-0.1926659180325343,-0.3007207345930575,-0.2113468899835648,3.310786,53.85739,0.0109672,0.02579905,0.4526898,-0.01299756,8.71999980509281,3
-8.672404,0.4833333,-14.13693,-0.341974043314619,0.1331596847735325,-0.2666670906328043,6.620585,53.85835,0.02200591,0.05156891,0.4521231,-0.02598039,8.73999980464578,3
-8.625885,0.6833333,-14.10272,-0.4261083089222248,-0.0837631091045416,-0.2158332621812935,9.929038,53.85995,0.033078,0.07728486,0.4511798,-0.03893714,8.75999980419874,3
-8.440593,0.2833333,-13.97136,-0.4994577105116375,-0.2855620352061918,-0.158679837676507,3.256028,53.30971,359.9321,0.02512528,0.4484488,-0.01327482,8.77999980375171,3
-8.39433,0.4833333,-13.93838,-0.551247846885528,-0.5265985669161188,-0.0885692244907829,6.511096,53.30389,359.8637,0.05022283,0.4479057,-0.02653517,8.79999980330467,3
-8.348081,0.6833333,-13.90541,-0.6850121720641171,-0.5411643376366009,-0.0062882337200331,9.765189,53.29408,359.7945,0.07527241,0.4470013,-0.03977021,8.81999980285764,3
-8.14343,0.2833333,-13.77942,-0.8028691920855042,-0.5160393489183253,0.0802171754102136,3.206543,50.42347,359.8072,0.02459706,0.4258398,-0.01343945,8.8399998024106,3
-8.098172,0.4833332,-13.74637,-0.894220592152112,-0.5045397832865578,0.1774439267783343,6.412118,50.40721,359.6133,0.04916771,0.425338,-0.02686435,8.85999980196357,3
-8.052928,0.6833333,-13.71332,-1.1223681579999507,0.1603067711262176,0.1691070884145187,9.616645,50.37983,359.417,0.07369232,0.4245025,-0.04026403,8.87999980151653,3
-8.007693,0.8833332,-13.68029,-1.322677071696134,0.6741769170655855,0.171403978142802,12.81989,50.34095,359.2173,0.09815128,0.4233345,-0.05362494,8.8999998010695,3
-7.833273,0.2833335,-13.55861,-1.606273363623684,0.1610192878310118,0.2482630323595351,3.450954,50.66355,359.7939,0.02644632,0.4277134,-0.01450773,8.91999980062246,3
-7.784379,0.4833334,-13.5232,-2.025494945434941,0.3581486072510891,0.2049501513290064,6.90095,50.64481,359.5864,0.05286157,0.4271296,-0.02899848,8.93999980017543,3
-7.735499,0.6833333,-13.4878,-2.3984613816466265,0.5729803753719833,0.1706174632465043,10.35028,50.61322,359.3758,0.07922405,0.4261575,-0.04346105,8.95999979972839,3
-7.546957,0.2833333,-13.35449,-2.7942924362746027,0.1129298526665234,0.2017746285799546,3.54909,52.52852,359.8423,0.02716092,0.4423375,-0.01493695,8.97999979928136,3
-7.496117,0.4833332,-13.31901,-3.121155360254125,-0.3571217299113597,0.2494201802693965,7.097908,52.51372,359.6828,0.054292,0.4416997,-0.02986225,8.99999979883432,3
-7.445291,0.683333,-13.28353,-3.523633751610687,0.0678028970076272,0.2095693255588582,10.64567,52.48875,359.521,0.08136332,0.4406377,-0.04475467,9.01999979838729,3
-7.39448,0.883333,-13.24806,-3.9216769941617393,-0.1575876095288074,0.295303770280082,14.19233,52.45311,359.3553,0.1083487,0.4391531,-0.05959986,9.03999979794025,3
-7.161429,0.2833334,-13.08878,-4.2381919348259975,-0.3673666209882557,0.3914848580997923,3.586505,54.47752,359.9688,0.02769821,0.4574829,-0.01456497,9.05999979749322,3
-7.110177,0.4833334,-13.05286,-4.638938968908179,0.1043925044906791,0.3803428338009507,7.172301,54.47458,359.9374,0.05536413,0.4568108,-0.02911221,9.07999979704618,3
-7.058938,0.6833334,-13.01695,-4.960867933237053,0.566150571665305,0.3781247332079882,10.75706,54.4696,359.9055,0.08296782,0.4556917,-0.04362691,9.09999979659915,3
-6.870296,0.2833333,-12.88483,-5.216155730504021,0.1129302049699998,0.4916604871322025,3.553016,53.07442,0.03360157,0.02786577,0.4465561,-0.01358836,9.11999979615211,3
-6.821104,0.4833333,-12.8471,-5.573568000491872,0.3699966551204551,0.4768406201433084,7.104783,53.07769,0.06868006,0.05569972,0.4459126,-0.02714937,9.13999979570508,3
-6.771927,0.6833333,-12.80938,-5.853112616887084,0.6447654216401284,0.4627190702169912,10.65552,53.08319,0.1042992,0.08347221,0.4448411,-0.04068038,9.15999979525805,3
-6.722764,0.8833332,-12.77167,-6.048011277367276,0.88496609148717,0.4551691562020448,14.20526,53.09105,0.1407629,0.1111568,0.443343,-0.05416844,9.17999979481101,3
-6.601089,0.2833333,-12.65013,-6.131649020708479,0.1845761044328343,0.6021136640486784,3.623313,50.43764,0.02534948,0.02869509,0.4258572,-0.01327,9.19999979436398,3
-6.552639,0.4833333,-12.60949,-6.120703928302904,-0.4244263420029326,0.7500619754487037,7.245576,50.44007,0.05094252,0.05735335,0.4252187,-0.02652252,9.21999979391694,3
-6.504201,0.6833332,-12.56887,-6.204162134517174,-0.0393319157854169,0.768408248645903,10.86747,50.44436,0.07820722,0.08595597,0.4241561,-0.03973744,9.23999979346991,3
-6.403887,0.2833332,-12.43646,-6.130905595907584,-0.3050406206606928,0.9154353352425256,3.636087,46.65135,0.01114101,0.02917104,0.3957549,-0.01247271,9.25999979302287,3
-6.357913,0.4833333,-12.39273,-5.9735556899074576,-0.5556257080483373,1.0520618987851726,7.2711,46.65242,0.02243165,0.05830432,0.3951574,-0.02492869,9.27999979257584,3
-6.311952,0.6833333,-12.34902,-5.892881519223248,-0.1251604293679173,1.0691479814039262,10.90507,46.65425,0.03397298,0.08737087,0.3941627,-0.03735549,9.2999997921288,3
-6.228094,0.2833334,-12.21044,-5.617023091381864,-0.3454984936502392,1.215372218558855,3.589777,43.83591,0.06839725,0.02928033,0.373078,-0.01113821,9.31999979168177,3
-6.185616,0.4833335,-12.1644,-5.271067057879939,-0.5507129132642403,1.3428255714529769,7.17848,43.84239,0.137386,0.05852344,0.3725288,-0.0222616,9.33999979123473,3
-6.143152,0.6833333,-12.11837,-5.04007473555194,-0.0748769406749084,1.348215326774513,10.76615,43.85333,0.2075169,0.08770107,0.3716145,-0.0333595,9.3599997907877,3
-6.100694,0.8833332,-12.07236,-4.749631356749032,0.3904701216333286,1.3386930185769028,14.35255,43.86918,0.2803718,0.1167858,0.3703371,-0.04441255,9.37999979034066,3
-6.058243,0.9766704,-12.02637,-4.255690916421989,-0.0596489957088228,1.4140792543484082,17.93785,43.89042,0.3567298,0.145751,0.3686984,-0.05540998,9.39999978989363,3
-6.129068,0.2833333,-11.92632,-3.7009891852214993,-0.5202568237457046,1.4804741243428392,3.52177,42.38388,0.18544,0.02923506,0.3612758,-0.009599978,9.41999978944659,3
-6.090076,0.4833332,-11.87873,-3.237027124054566,-0.086376679496416,1.4399911087853106,7.042466,42.40108,0.3722902,0.05843402,0.3607627,-0.0191876,9.43999978899956,3
-6.051095,0.6833333,-11.83115,-2.7274649717625747,0.3370146206811339,1.3925357487021977,10.56194,42.43015,0.5620797,0.0875686,0.3599086,-0.02875282,9.45999978855252,3
-6.085066,0.2833334,-11.73619,-1.956706333619388,-0.1550602859723902,1.4530872142811333,3.457119,39.16729,0.2123284,0.02904028,0.3349769,-0.008365654,9.47999978810549,3
-6.049873,0.4833333,-11.68707,-1.3228934813377018,0.0626639846357107,1.3874712520762014,6.91268,39.18678,0.4279577,0.05804673,0.3345185,-0.01670501,9.49999978765845,3
-6.014689,0.6833333,-11.63796,-0.677509871289923,0.2976028263552739,1.3087146707789312,10.36715,39.21967,0.6467108,0.08699191,0.333755,-0.02502668,9.51999978721142,3
-6.040971,0.2833334,-11.48625,0.1583623960495197,-0.1428282463931321,1.324296988176119,3.405674,33.53303,0.1215915,0.02875841,0.2883146,-0.007556634,9.53999978676438,3
-6.009947,0.4833334,-11.43553,0.9904744362211604,-0.5937483345735479,1.330200097750815,6.809931,33.54411,0.2460132,0.05748462,0.2879327,-0.01508675,9.55999978631735,3
-5.978931,0.6833333,-11.38483,1.6020419924163551,-0.1501804211962896,1.1872757889851808,10.2132,33.5628,0.3721777,0.08615203,0.2872967,-0.02260146,9.57999978587031,3
-5.947925,0.8833333,-11.33414,2.1880379884925727,0.2828985445264317,1.0359807949352913,13.61545,33.58942,0.501048,0.1147352,0.2864073,-0.03009396,9.59999978542328,3
-5.935254,0.2833333,-11.18881,2.892093621776344,-0.1994888134937047,0.9537235811644303,3.351928,28.2768,0.0405587,0.0284474,0.2441504,-0.006800923,9.61999978497624,3
-5.908202,0.4833333,-11.13696,3.391973366417268,0.0279231150803412,0.7545319198844442,6.702523,28.28054,0.08323628,0.05686311,0.2438376,-0.01357774,9.63999978452921,3
-5.881158,0.6833332,-11.08512,3.8374521498029046,0.272549497331358,0.5479435025145651,10.05217,28.28686,0.1265035,0.08522226,0.2433166,-0.02034095,9.65999978408217,3
-5.854122,0.8833332,-11.0333,4.389638694667587,-0.1581943929388333,0.4283677285184666,13.40084,28.29583,0.1706615,0.1135003,0.2425878,-0.02708485,9.67999978363514,3
-5.80841,0.2833334,-10.84848,4.873093934528395,-0.5994270985319623,0.3074244690666194,3.298569,26.35434,359.9605,0.02794506,0.2278781,-0.006896783,9.6999997831881,3
-5.782251,0.4833334,-10.79722,5.202138859319764,-0.1461713634077184,0.0938984949613743,6.596173,26.35091,359.9207,0.05585881,0.227595,-0.01378579,9.71999978274107,3
-5.756097,0.6833334,-10.74597,5.456020350668107,0.2965953173429619,-0.1172784791664423,9.89246,26.34517,359.8807,0.08371568,0.2271236,-0.02065865,9.73999978229403,3
-5.663714,0.2833334,-10.57413,5.848142928581677,-0.1761041917495054,-0.1983538759434946,3.244181,27.21085,359.933,0.02737522,0.2351559,-0.007226827,9.759999781847,3
-5.63678,0.4833334,-10.52434,6.080979097011309,0.0609954939302849,-0.3865378159926793,6.48741,27.20513,359.8656,0.05472045,0.2348732,-0.01444594,9.77999978139997,3
-5.609854,0.6833334,-10.47457,6.214602341374327,0.3153095286588379,-0.5786867443594215,9.729671,27.19549,359.7972,0.08201373,0.2344024,-0.02165157,9.79999978095293,3
-5.471937,0.2833332,-10.29695,6.43428580837505,-0.1057467070429954,-0.6609312302525172,3.198572,29.66012,359.8857,0.02672441,0.2558801,-0.008106832,9.8199997805059,3
-5.442557,0.4833332,-10.24947,6.491686021290389,0.1829961191731274,-0.8587345806202844,6.39617,29.65051,359.7708,0.05341982,0.2555807,-0.01620538,9.83999978005886,3
-5.413186,0.6833332,-10.202,6.43429808759729,0.4889532672573282,-1.065002406183048,9.592801,29.63431,359.6543,0.08006563,0.2550823,-0.0242894,9.85999977961183,3
-5.383826,0.8833331,-10.15453,6.265523524361225,0.7598544308867899,-1.2714399698877925,12.78822,29.6111,359.5348,0.1066374,0.2543848,-0.03235865,9.87999977916479,3
-5.22348,0.2833333,-10.02106,6.134390271059857,0.0896769564427224,-1.3877248966306714,3.525909,37.3087,359.927,0.02894463,0.3197253,-0.01044357,9.89999977871776,3
-5.185074,0.4833334,-9.972887,5.880763305905133,-0.4896008390296104,-1.4985997217421856,7.050875,37.30191,359.8534,0.05785386,0.3192711,-0.02087539,9.91999977827072,3
-5.146689,0.6833333,-9.924732,5.644959670662892,-0.0752696240182009,-1.6603392201540474,10.57607,37.29023,359.7772,0.08670645,0.318514,-0.03129966,9.93999977782369,3
-5.108332,0.8833333,-9.876593,5.315215092425176,0.3280847913618884,-1.8089011938549948,14.10186,37.27318,359.6974,0.1154772,0.3174538,-0.04171002,9.95999977737665,3
-4.870178,0.2833333,-9.728151,5.098019924662818,-0.1845149684549618,-1.82039840522146,3.55358,45.44905,0.01930091,0.028664,0.3861103,-0.01182231,9.97999977692962,3
-4.826178,0.4833333,-9.684454,4.860514522501938,0.0121964539659683,-1.87418065397003,7.106617,45.45065,0.03654952,0.05728871,0.3855529,-0.02364901,9.99999977648258,3
-4.782195,0.6833333,-9.640763,4.536501549823701,0.2256345586708421,-1.913309146295898,10.6586,45.45318,0.0529246,0.08584615,0.3846245,-0.03545848,10.0199997760355,3
-4.572024,0.2833334,-9.504487,4.30729101713454,-0.236785380538519,-1.8295965767979008,3.585732,49.99369,0.1145355,0.02877789,0.422333,-0.01231515,10.0399997755885,3
-4.525364,0.4833333,-9.462749,4.059392658081157,0.0101057424418809,-1.8515878920467916,7.170816,50.00438,0.2284642,0.05751705,0.4217118,-0.02462776,10.0599997751415,3
-4.478717,0.6833333,-9.421022,3.7413128322465834,0.2737234276582053,-1.8638902327218565,10.75485,50.02242,0.3441553,0.08619165,0.4206778,-0.03691284,10.0799997746944,3
-4.432084,0.8833333,-9.379308,3.362825825832944,0.501797142543292,-1.8589611926007572,14.33781,50.04816,0.4626128,0.1147737,0.4192325,-0.04915816,10.0999997742474,3
-4.251769,0.2833333,-9.273367,3.0721029982403207,-0.2116957798506387,-1.7512332904094174,3.556274,53.20282,0.1527933,0.02834144,0.4475281,-0.0127027,10.1199997738004,3
-4.203666,0.4833333,-9.234082,2.745537565971591,-0.0024393412519753,-1.735259051076568,7.111402,53.21702,0.3054254,0.05664158,0.4468803,-0.02539918,10.1399997733533,3
-4.155577,0.6833333,-9.194808,2.379235254916489,0.2235436718661927,-1.7042288744195462,10.66546,53.24097,0.4604035,0.08487906,0.445802,-0.03806751,10.1599997729063,3
-3.957445,0.2833333,-9.075351,2.141463438497577,-0.2263313466462969,-1.561808157511642,3.631642,55.7079,0.1583635,0.02866091,0.4669456,-0.0135834,10.1799997724593,3
-3.906619,0.4833333,-9.037379,1.8680038767337976,-0.6871832725545473,-1.4022569811630703,7.262216,55.72306,0.317915,0.05728459,0.466241,-0.0271496,10.1999997720122,3
-3.855814,0.6833334,-8.999417,1.549064593328081,-0.2540348503409542,-1.377948090988749,10.89242,55.74852,0.4792491,0.08584496,0.4650673,-0.04069341,10.2199997715652,3
-3.805026,0.8833333,-8.961464,1.2182730979200107,0.1681366501024792,-1.33979541133926,14.52152,55.7848,0.6440703,0.1143093,0.4634261,-0.05419593,10.2399997711182,3
-3.555346,0.2833333,-8.811876,1.0997933083263316,-0.3256457081528759,-1.1582440729519492,3.618929,58.28357,0.1850831,0.02836501,0.4866844,-0.01396655,10.2599997706711,3
-3.503315,0.4833333,-8.775954,0.8894751915294974,-0.1101169011583779,-1.109592031003114,7.236764,58.30121,0.3715599,0.05669324,0.4859546,-0.02791536,10.2799997702241,3
-3.451299,0.6833333,-8.740043,0.6709945725765074,0.1221384644131071,-1.057201436739322,10.85347,58.331,0.5609582,0.08495644,0.4847396,-0.04183254,10.2999997697771,3
-3.227687,0.2833333,-8.605398,0.644147737035279,-0.3214643381593055,-0.8864048597631271,3.557721,60.98192,0.2583551,0.02789252,0.5070964,-0.01380889,10.31999976933,3
-3.17559,0.4833333,-8.571362,0.4839857668190011,-0.0557556169059239,-0.8642157466723441,7.11432,61.00615,0.5186112,0.05574968,0.5063595,-0.02760054,10.339999768883,3
-3.123507,0.6833333,-8.537337,0.3202176603891488,0.226679689059716,-0.8456982447514223,10.66973,61.047,0.7828285,0.08354459,0.5051328,-0.04136164,10.359999768436,3
-3.07144,0.8833332,-8.503316,0.1668345851561062,0.4735710348868748,-0.8248783281055578,14.22357,61.10514,1.052445,0.111245,0.5034174,-0.05508306,10.3799997679889,3
-2.882973,0.2833333,-8.39239,0.1892256630966822,-0.221104245326815,-0.7109769565264745,3.495444,62.09988,0.2945699,0.02745403,0.5154762,-0.0135295,10.3999997675419,3
-2.831485,0.4833333,-8.359317,0.0782294510559568,0.0069696209686181,-0.6959649857004182,6.989767,62.12701,0.5912495,0.05487422,0.5147519,-0.02704241,10.4199997670949,3
-2.78001,0.6833333,-8.32625,-0.0232571646353721,0.2517699406901228,-0.6832887712378879,10.4825,62.17271,0.8920567,0.08223109,0.513546,-0.04052627,10.4399997666478,3
-2.72855,0.8833332,-8.293192,-0.1023565572516669,0.4610263947085978,-0.6674853677284647,13.97396,62.23789,1.199654,0.1095033,0.5118601,-0.05396833,10.4599997662008,3
-2.48878,0.2833333,-8.151547,0.0562662646782248,-0.2712839101680797,-0.5267711168612506,3.433604,62.13568,0.2915201,0.02697406,0.5157541,-0.01328246,10.4799997657537,3
-2.438201,0.4833333,-8.119051,-5.755623769605756e-05,-0.0808448556202777,-0.5066920027772932,6.865679,62.16204,0.585022,0.05391243,0.5150548,-0.02654736,10.4999997653067,3
-2.387637,0.6833333,-8.086564,-0.0519386741043315,0.1263207718789105,-0.4896270270047278,10.29659,62.20648,0.8827095,0.0807944,0.5138906,-0.03978447,10.5199997648597,3
-2.174415,0.2833334,-7.960155,0.0862898727134771,-0.3423717538686966,-0.3679791135577845,3.382157,60.80778,0.1836962,0.02626319,0.5058305,-0.01355307,10.5399997644126,3
-2.124465,0.4833333,-7.928579,0.0326124414535636,-0.1017531005147522,-0.3602510467142501,6.762894,60.82412,0.3684011,0.05249181,0.5051678,-0.02709028,10.5599997639656,3
-2.07453,0.6833333,-7.897012,-0.0264274131036852,0.155592125267872,-0.3597402929207653,10.1426,60.85166,0.5556597,0.07866715,0.5040646,-0.04059998,10.5799997635186,3
-2.024609,0.8833332,-7.865454,-0.0787323493510925,0.3773932841929819,-0.3606664520636826,13.52123,60.89087,0.7468588,0.1047664,0.5025221,-0.05407043,10.5999997630715,3
-1.845116,0.2833333,-7.760691,0.0249105163553818,-0.3423720777718414,-0.2800613211869756,3.328979,59.34937,0.08162233,0.02558975,0.4948478,-0.01376169,10.6199997626245,3
-1.795877,0.4833333,-7.729858,-0.0165999076546103,-0.1393880824030098,-0.2760515561779408,6.656576,59.35651,0.1636452,0.05114681,0.4942213,-0.02750698,10.6399997621775,3
-1.746652,0.6833333,-7.699035,-0.0502921848819446,0.0803223771073574,-0.2714809613217488,9.983216,59.36855,0.2467685,0.07665353,0.4931782,-0.04122517,10.6599997617304,3
-1.550619,0.2833333,-7.584467,-0.0642392938068291,0.2644887681920933,-0.2603496341900362,3.278853,57.82856,359.9599,0.02487388,0.4833114,-0.01413914,10.6799997612834,3
-1.501823,0.4833332,-7.554609,-0.0340959098553184,0.227376752064889,-0.2227696315068454,6.55674,57.8251,359.9195,0.04972004,0.482718,-0.02826263,10.6999997608364,3
-1.45304,0.6833332,-7.524756,-0.0065100811581398,0.2357401051855264,-0.1894354014432915,9.833315,57.81922,359.8783,0.07451451,0.4817299,-0.04235939,10.7199997603893,3
-1.404272,0.8833331,-7.494912,0.030214757935658,0.2362627512250755,-0.1541611527017377,13.10895,57.81086,359.8363,0.09924099,0.4803483,-0.05641757,10.7399997599423,3
-1.157544,0.2833334,-7.349726,0.2515145202527448,-0.4646852206777725,-0.0170712116455042,3.223621,54.66338,359.8105,0.02422882,0.459,-0.01438262,10.7599997594953,3
-1.109757,0.4833333,-7.319891,0.2466417962342072,-0.2428839440568169,-0.011983215924733,6.446266,54.64731,359.62,0.04843137,0.4584534,-0.02874956,10.7799997590482,3
-1.061984,0.6833333,-7.290065,0.2379039697915406,-0.0043560858598335,-0.0112404680273545,9.667887,54.62026,359.427,0.07258843,0.4575434,-0.04308936,10.7999997586012,3
-0.8400793,0.2833333,-7.158711,0.4194671663008775,-0.4416862660886801,0.0972946412267763,3.373683,54.46475,359.7973,0.02536488,0.4574477,-0.01504205,10.8199997581542,3
-0.7900949,0.4833333,-7.12736,0.391168183180735,-0.1697051523950125,0.0824265755679869,6.746376,54.44675,359.5933,0.05070055,0.456851,-0.03006688,10.8399997577071,3
-0.740124,0.6833333,-7.096017,0.3475605184631409,0.1190025290229869,0.0581269459919049,10.11806,54.41642,359.3865,0.07598525,0.4558575,-0.04506135,10.8599997572601,3
-0.6901745,0.8833333,-7.064688,0.3001881578120153,0.3721661260728394,0.0309969108137782,13.48992,54.3732,359.1753,0.1012065,0.4544678,-0.0600177,10.879999756813,3
-0.4984873,0.2833333,-6.95382,0.2606031191317715,0.4236858272769781,0.0076149307357802,3.537956,56.28098,359.8313,0.0265264,0.4714499,-0.01585702,10.899999756366,3
-0.4454707,0.4833333,-6.921996,0.2577803116894472,0.3558033715370629,0.0078321706070578,7.074986,56.26524,359.6611,0.05302023,0.4707744,-0.0316959,10.919999755919,3
-0.392478,0.6833333,-6.890182,0.24455047300502,0.3338841615889318,0.0028375091720693,10.61217,56.2386,359.4879,0.0794633,0.4696492,-0.04750871,10.9399997554719,3
-0.3395005,0.8833333,-6.858378,0.2329072975083621,0.304612241151671,-0.0005997905664365,14.14825,56.20059,359.3108,0.1058231,0.4680759,-0.06327157,10.9599997550249,3
-0.09691142,0.2833333,-6.717508,0.3896929917482847,-0.425642406832351,0.0934144008866226,3.575128,58.35877,359.9344,0.02695602,0.4873238,-0.01570841,10.9799997545779,3
-0.04319607,0.4833333,-6.68576,0.3264756241713187,-0.2326599287032145,0.0609948931705801,7.149513,58.35257,359.868,0.05387941,0.4866122,-0.03139981,10.9999997541308,3
0.01050396,0.6833333,-6.65402,0.2571591589756168,-0.0224630042149849,0.0253588364256609,10.72288,58.3421,359.8006,0.0807428,0.4854273,-0.04705619,11.0199997536838,3
0.2266749,0.2833333,-6.526885,0.3673573943655264,-0.4876362528468092,0.093649539063743,3.571566,59.522,0.06686221,0.02734197,0.4961262,-0.01496238,11.0399997532368,3
0.2797859,0.4833333,-6.494263,0.27841808018117,-0.2430105684946914,0.0470542960318045,7.142092,59.52833,0.1347214,0.05465159,0.4954033,-0.02990218,11.0599997527897,3
0.3328819,0.6833332,-6.461651,0.1767986734256781,0.0188296689355527,-0.0063496829763689,10.7116,59.53903,0.2036249,0.08190045,0.4941998,-0.0448088,11.0799997523427,3
0.3859628,0.8833331,-6.429048,0.0747339524806571,0.2456138073514447,-0.0596858496636816,14.28008,59.5543,0.274153,0.1090621,0.4925171,-0.05966768,11.0999997518957,3
0.5674752,0.2833333,-6.324086,0.1230358975808565,-0.4686808196720877,-0.0276679217378204,3.595354,60.42449,0.09440232,0.02752347,0.5029345,-0.01507408,11.1199997514486,3
0.6212297,0.4833333,-6.291691,0.0225639462603779,-0.2597383200597595,-0.0799277229006785,7.18967,60.43344,0.1895183,0.05501193,0.5021916,-0.03012906,11.1399997510016,3
0.6749666,0.6833332,-6.259305,-0.0752766069972512,-0.033581373565628,-0.1305216826907234,10.7832,60.4485,0.2858905,0.08243933,0.5009544,-0.04515297,11.1599997505546,3
0.7286881,0.8833331,-6.226928,-0.1580710511697427,0.1575193677178233,-0.1723984818864936,14.37566,60.46999,0.3845647,0.1097778,0.499225,-0.06012817,11.1799997501075,3
0.9627982,0.2833333,-6.091305,-0.1956722516412639,0.1278294588079604,-0.1876010650968655,3.636546,61.13,0.1180461,0.02784436,0.5082311,-0.01524838,11.1999997496605,3
1.01738,0.4833333,-6.058863,-0.2373875714150801,0.1441029162606079,-0.2041481112012482,7.272032,61.14132,0.237004,0.05565262,0.5074628,-0.03047711,11.2199997492135,3
1.071946,0.6833333,-6.02643,-0.2704444892911248,0.1530236775985252,-0.214730051379397,10.90645,61.16042,0.357871,0.08339688,0.5061836,-0.04567079,11.2399997487664,3
1.279908,0.2833333,-5.906189,-0.1167256631220903,-0.5390382737132129,-0.1160980743505453,3.589696,62.84504,0.1892086,0.02758792,0.5210444,-0.01492065,11.2599997483194,3
1.334128,0.4833332,-5.874673,-0.1874669881368942,-0.3078633235880217,-0.1465220947570067,7.178299,62.86293,0.3798484,0.05514056,0.5202756,-0.0298223,11.2799997478724,3
1.388332,0.6833332,-5.843167,-0.2575509706036594,-0.0594738188165886,-0.1757753673287743,10.76577,62.89315,0.573459,0.0826309,0.5189956,-0.04469033,11.2999997474253,3
1.61377,0.2833333,-5.712539,-0.1243534087371509,-0.4864545923161245,-0.0883578711575951,3.528011,63.95946,0.2554531,0.02729112,0.5293087,-0.01441311,11.3199997469783,3
1.667112,0.4833333,-5.681513,-0.1907749628886135,-0.2036361916902682,-0.1179599337533563,7.054912,63.98321,0.5127751,0.0545482,0.5285524,-0.02880828,11.3399997465312,3
1.720438,0.6833333,-5.650495,-0.2615253885712572,0.0963966568628003,-0.1512325237763319,10.58064,64.02328,0.7739818,0.08174539,0.5272933,-0.04317177,11.3599997460842,3
1.773752,0.8833332,-5.619485,-0.3247524744796894,0.3613733012506023,-0.1815421884259498,14.10474,64.08042,1.041165,0.108854,0.5255332,-0.05748849,11.3799997456372,3
1.82705,0.9766704,-5.588484,-0.368564538687127,0.4251938099475498,-0.2022376541303985,17.62752,64.15577,1.316665,0.1358514,0.5232741,-0.07174642,11.3999997451901,3
2.050102,0.2833333,-5.458527,-0.3670080977101957,0.3701001480996472,-0.1986871058995212,3.460799,63.93678,0.2911677,0.02696156,0.5291431,-0.01383298,11.4199997447431,3
2.102103,0.4833333,-5.427428,-0.3665968455606085,0.3614576117237016,-0.1969253898923866,6.920025,63.96335,0.5846956,0.05388844,0.5284145,-0.02764479,11.4399997442961,3
2.154089,0.6833333,-5.396338,-0.3557732187775739,0.3459501378197717,-0.190189021615049,10.37808,64.00815,0.882469,0.08075812,0.5272013,-0.04142731,11.459999743849,3
2.351151,0.2833333,-5.281739,-0.1679763348077632,-0.3700521844734509,-0.0816599888118236,3.406975,62.77847,0.2229423,0.02638932,0.5205687,-0.01382323,11.479999743402,3
2.402226,0.4833333,-5.251088,-0.1929045601443855,-0.1623293952997228,-0.0952461611617727,6.812481,62.79847,0.4474147,0.05274443,0.5198758,-0.02762816,11.499999742955,3
2.453287,0.6833333,-5.220446,-0.2177695084140234,0.063095612148832,-0.1080078248984084,10.21691,62.83219,0.6750427,0.07904529,0.5187222,-0.04140461,11.5199997425079,3
2.666995,0.2833334,-5.095728,-0.0574145894072639,-0.38636166208162,-0.0136404936408216,3.35498,61.06359,0.130826,0.02579441,0.5077695,-0.01388847,11.5399997420609,3
2.717114,0.4833333,-5.065408,-0.0909702872452298,-0.1255318856427404,-0.0320457750567446,6.708556,61.07516,0.262591,0.05155643,0.5071161,-0.02775861,11.5599997416139,3
2.767219,0.6833333,-5.035096,-0.1330401227847026,0.1530002152672939,-0.0559807949282888,10.06114,61.09464,0.396151,0.07726693,0.5060279,-0.04160096,11.5799997411668,3
2.817309,0.8833333,-5.004793,-0.1722239583799396,0.3969640018849921,-0.079053595601553,13.41272,61.12238,0.5324758,0.1029039,0.5045065,-0.05540375,11.5999997407198,3
2.997233,0.2833333,-4.901022,0.0346065949734279,-0.2996628459223535,0.0373561723694604,3.30369,59.33922,0.01077417,0.02509339,0.4947898,-0.01418722,11.6199997402728,3
3.046716,0.4833333,-4.871472,0.0866737302164581,-0.0725649024198411,0.0649411729879645,6.606407,59.34016,0.02160477,0.05015848,0.4941732,-0.02835856,11.6399997398257,3
3.096188,0.6833333,-4.841929,0.1318998602620578,0.1722353788828128,0.0877835886189273,9.907805,59.34172,0.03242887,0.07517131,0.4931464,-0.04250182,11.6599997393787,3
3.145645,0.8833332,-4.812394,0.1818968032191668,0.3824674654184458,0.1125330811590341,13.20826,59.34394,0.04346805,0.1001146,0.4917109,-0.05660579,11.6799997389317,3
3.376858,0.2833333,-4.678428,0.3935743139040903,-0.3478910829936711,0.2274492235230591,3.249138,56.85143,359.8791,0.02443017,0.4758537,-0.01442279,11.6999997384846,3
3.425469,0.4833333,-4.649199,0.399347786428045,-0.1545247338996038,0.2231170041331083,6.497303,56.84109,359.7574,0.04883349,0.4752792,-0.02882966,11.7199997380376,3
3.474066,0.6833333,-4.619977,0.4020678619763664,0.0565438329465851,0.216231248379394,9.744477,56.82369,359.6343,0.07319036,0.4743227,-0.04320905,11.7399997375906,3
3.677579,0.2833333,-4.500866,0.5769477616865686,-0.4072697756899081,0.3064938495011091,3.197639,54.33911,359.7885,0.02397982,0.4564925,-0.01438189,11.7599997371435,3
3.725051,0.4833333,-4.471336,0.5668789222494484,-0.1607964537050888,0.2900280475053973,6.394294,54.32131,359.5757,0.04793391,0.4559572,-0.02874815,11.7799997366965,3
3.772509,0.6833333,-4.441813,0.5473228777706485,0.1033793127989048,0.2683031273486205,9.589917,54.29136,359.3603,0.07184352,0.4550658,-0.04308765,11.7999997362494,3
3.997801,0.2833333,-4.310755,0.5296915732894618,0.3329867655332671,0.2481114050863921,3.530489,55.73314,359.7977,0.02640745,0.4672396,-0.01595845,11.8199997358024,3
4.050762,0.4833333,-4.278964,0.5394240578652516,0.3465395044227264,0.243286004389081,7.060005,55.71432,359.5939,0.05278275,0.4665724,-0.03189762,11.8399997353554,3
4.1037,0.6833333,-4.247182,0.5235708466242519,0.4060335885295192,0.2252059015206216,10.58971,55.6825,359.3865,0.07910828,0.4654608,-0.04781069,11.8599997349083,3
4.156614,0.8833332,-4.215415,0.49400320940968,0.4581737621896956,0.2008281414180257,14.11973,55.63707,359.1743,0.1053618,0.4639058,-0.0636804,11.8799997344613,3
4.209513,0.9766704,-4.183658,0.4625840484215766,0.4496650093126376,0.1771093761179543,17.64854,55.57713,358.9554,0.1315076,0.4619098,-0.07948495,11.8999997340143,3
4.435019,0.2833333,-4.054949,0.5772474513734309,-0.3856285963444396,0.2386858409564194,3.563366,58.00805,359.8775,0.02667394,0.4846655,-0.01600954,11.9199997335672,3
4.488892,0.4833333,-4.023828,0.4925006960674887,-0.2000468312726614,0.1865910544205937,7.125942,57.9965,359.7536,0.05331423,0.4839616,-0.03200379,11.9399997331202,3
4.54275,0.6833332,-3.992714,0.4028287712743088,0.0008627813677526,0.1331385404686735,10.68747,57.97702,359.6278,0.07989538,0.48279,-0.04796249,11.9599997326732,3
4.741838,0.2833333,-3.877221,0.4760527993470349,-0.4639378561586721,0.1734149706343295,3.592756,59.41555,0.01737226,0.02730248,0.4953288,-0.01540351,11.9799997322261,3
4.795651,0.4833333,-3.845055,0.3745506353464201,-0.2220336880182638,0.1146502360031616,7.184735,59.41723,0.03531165,0.05457408,0.4945987,-0.03078529,11.9999997317791,3
4.849448,0.6833332,-3.812898,0.266289423749984,0.0341305207712068,0.0533530500750587,10.77569,59.42007,0.05353083,0.08178429,0.493383,-0.04613245,12.0199997313321,3
5.066191,0.2833333,-3.687228,0.1634565248429034,0.2524240792976667,-0.0035438227524764,3.561825,60.29403,0.08273714,0.02723661,0.5019584,-0.01498383,12.039999730885,3
5.119452,0.4833333,-3.655176,0.0946454332073631,0.2625457543247168,-0.0419197037289906,7.122401,60.3018,0.166178,0.05443782,0.5012308,-0.02994731,12.059999730438,3
5.172698,0.6833333,-3.623134,0.0078735131185467,0.3142610546974064,-0.0895806978799347,10.68194,60.31491,0.2509018,0.08157869,0.5000196,-0.04487759,12.079999729991,3
5.225928,0.8833331,-3.5911,-0.0842382273687043,0.3544686781822143,-0.1394047273465961,14.24046,60.33364,0.3376218,0.1086332,0.4983262,-0.05976031,12.0999997295439,3
5.496276,0.2833333,-3.435169,0.0147018191868832,-0.2979952873749886,-0.0805046607888073,3.634404,61.24646,0.1156169,0.02780198,0.5091064,-0.01528539,12.1199997290969,3
5.550917,0.4833332,-3.402891,-0.045022811739539,-0.0324173883198629,-0.1110559059603408,7.267769,61.25754,0.2321245,0.0555681,0.5083377,-0.03055119,12.1399997286499,3
5.605539,0.6833332,-3.370622,-0.1112142883302196,0.2454545814259487,-0.1444102087845349,10.90053,61.2762,0.3502777,0.08327287,0.5070575,-0.04578558,12.1599997282028,3
5.660145,0.8833331,-3.338363,-0.1708700850466105,0.4836249489924256,-0.1731229838800925,14.5324,61.30286,0.47133,0.1108875,0.5052679,-0.0609704,12.1799997277558,3
5.850879,0.2833333,-3.229644,-0.2109809639410462,0.471372813653528,-0.1897525869550083,3.615063,62.11141,0.1344231,0.02762591,0.5155825,-0.01526725,12.1999997273088,3
5.905534,0.4833333,-3.198072,-0.2505710391583999,0.4023398236215185,-0.2068146103129986,7.229055,62.12421,0.2698693,0.05521622,0.5148119,-0.03051496,12.2199997268617,3
5.960174,0.6833332,-3.166509,-0.2923405365074458,0.3738036605060547,-0.2233574468961348,10.84195,62.14583,0.4074517,0.08274348,0.5135291,-0.04572794,12.2399997264147,3
6.16841,0.2833334,-3.047704,-0.3230540442618279,0.3328013431785406,-0.2319719481393298,3.558537,63.94313,0.2277893,0.02739129,0.5291896,-0.01475492,12.2599997259676,3
6.222437,0.4833333,-3.016865,-0.352234857661263,0.3174875327777468,-0.2426066057759943,7.115978,63.96449,0.4572816,0.05474808,0.5284212,-0.02949125,12.2799997255206,3
6.276448,0.6833333,-2.986034,-0.3795179479656223,0.3423922298089531,-0.2521214985255664,10.67225,64.00052,0.6902817,0.08204377,0.5271419,-0.04419477,12.2999997250736,3
6.330445,0.8833332,-2.955211,-0.3920184393088242,0.354606927850724,-0.2534263534138508,14.227,64.05191,0.9285582,0.1092491,0.5253536,-0.05885109,12.3199997246265,3
6.590208,0.287314,-2.806284,-0.4232868259087752,0.3757531165439088,-0.2695194481263576,3.490149,64.42191,0.2829452,0.02708113,0.5327256,-0.01414417,12.3399997241795,3
6.642991,0.487314,-2.775537,-0.4631357544497554,0.438993794440612,-0.291072045362666,6.979191,64.44792,0.5679291,0.05412911,0.5319797,-0.02827093,12.3599997237325,3
6.695763,0.6873139,-2.744798,-0.4997186947376661,0.4913937893006758,-0.3113532547985631,10.46657,64.49183,0.8573258,0.08111627,0.5307381,-0.0423635,12.3799997232854,3
6.74852,0.8873138,-2.714068,-0.5211786851199314,0.474727145662088,-0.323624858650585,13.95271,64.55444,1.153223,0.1080202,0.5290022,-0.05641265,12.3999997228384,3
6.928761,0.2993687,-2.61056,-0.3109421086315844,-0.390963286388827,-0.2112109351711917,3.429479,63.91843,0.2735899,0.02665086,0.5290163,-0.01381414,12.4199997223914,3
6.980398,0.4993687,-2.579962,-0.2916417010956227,-0.2351628854737441,-0.2092359980265559,6.857433,63.94316,0.5492495,0.05326746,0.5283015,-0.02760843,12.4399997219443,3
7.03202,0.6993686,-2.549373,-0.2685318710969131,-0.0631835038517176,-0.2064477303247245,10.28425,63.98484,0.8288283,0.07982852,0.5271112,-0.04137394,12.4599997214973,3
7.229676,0.3101096,-2.436086,-0.2300053838692743,0.0730239352923006,-0.1957429665614752,3.381158,62.26329,0.172888,0.02603273,0.5167424,-0.01396175,12.4799997210503,3
7.280482,0.5101096,-2.40596,-0.2194617597432824,-0.0191786006132108,-0.2530773699890626,6.760913,62.27868,0.3469292,0.05203225,0.5160662,-0.02790557,12.4999997206032,3
7.331274,0.7101096,-2.375844,-0.2034244647092258,-0.0646280257243328,-0.3073823111237346,10.13963,62.30462,0.5233719,0.07797893,0.5149403,-0.04182107,12.5199997201562,3
7.382051,0.9101095,-2.345735,-0.1705646299190473,-0.1163561698411965,-0.351613590863525,13.5173,62.34158,0.7035309,0.1038503,0.513366,-0.05569618,12.5399997197092,3
7.631161,0.3244401,-2.203061,-0.3051702408136574,0.4928929195187911,-0.4910312185822673,3.325499,60.08927,0.0481092,0.02532772,0.5004531,-0.01416449,12.5599997192621,3
7.681031,0.5244401,-2.173402,-0.2553722751833209,0.214181461379655,-0.6356203568500902,6.649603,60.09348,0.09655762,0.05062367,0.499821,-0.02831087,12.5799997188151,3
7.730887,0.72444,-2.143752,-0.192923762541735,-0.0406105250230389,-0.7698641255912756,9.972747,60.10058,0.1456498,0.07586973,0.4987687,-0.0424294,12.5999997183681,3
7.952926,0.3359199,-2.016879,-0.1069283309874347,-0.3255845197297777,-0.8862933067557851,3.268963,58.48804,359.9336,0.02460491,0.4883457,-0.01443976,12.619999717921,3
8.002151,0.5359198,-1.988064,-0.1073402890943722,-0.3751314991020781,-1.1809007715123905,6.53696,58.48233,359.8668,0.04918257,0.4877496,-0.02886354,12.639999717474,3
8.051365,0.7359198,-1.959255,-0.1090463874989531,-0.3753693753846678,-1.4635924573594747,9.803668,58.47268,359.799,0.07370982,0.486757,-0.04325961,12.6599997170269,3
8.100565,0.9359198,-1.930453,-0.1018812709443892,-0.3793563229067825,-1.7269360115300825,13.06935,58.45896,359.7298,0.09816961,0.4853691,-0.05761606,12.6799997165799,3
8.149751,0.9871878,-1.90166,-0.0756476895583269,-0.4401501697053016,-1.9636167335431445,16.33409,58.44093,359.6588,0.1225427,0.4835875,-0.07192165,12.6999997161329,3
8.373378,0.3508618,-1.774092,-0.0950161054298046,-0.5014255479262557,-2.354260478675481,3.211503,55.12404,359.7931,0.02400668,0.4625709,-0.01456588,12.7199997156858,3
8.421402,0.5508618,-1.745011,-0.1047963966464706,-0.5126901347188878,-2.712317852481337,6.422021,55.10656,359.585,0.04798743,0.4620239,-0.02911594,12.7399997152388,3
8.469412,0.7508618,-1.715937,-0.094877740069208,-0.5269882950570429,-3.030443994810578,9.631513,55.07713,359.3743,0.0719234,0.461113,-0.04363867,12.7599997147918,3
8.670362,0.3613039,-1.602012,-0.2395134526997431,0.12292304155308,-3.406204716022158,3.452264,55.71691,359.7957,0.02579822,0.4671236,-0.01565146,12.7799997143447,3
8.722186,0.5613039,-1.571007,-0.2357613875776731,-0.0992453897381612,-3.8947562449356328,6.903544,55.69834,359.5899,0.05156595,0.4664856,-0.03128439,12.7999997138977,3
8.773994,0.7613038,-1.540011,-0.2210404730870951,-0.2958064568065011,-4.326228106220087,10.35414,55.66699,359.381,0.0772818,0.4654232,-0.04688715,12.8199997134507,3
8.98231,0.3562024,-1.423003,-0.1848621181457375,-0.5208124032779806,-4.693775239354928,3.549572,57.52528,359.8417,0.02648524,0.4809884,-0.01611315,12.8399997130036,3
9.03606,0.5562024,-1.39208,-0.2543084319397852,-0.5030905372892054,-5.300165350551826,7.098858,57.51043,359.6817,0.05294114,0.4802947,-0.03221323,12.8599997125566,3
9.089795,0.7562023,-1.361167,-0.3248651097633566,-0.4360102617537364,-5.834005930702634,10.64709,57.48537,359.5193,0.07933868,0.4791397,-0.04827781,12.8799997121096,3
9.143515,0.9512443,-1.330262,-0.3858964781888634,-0.372550668453425,-6.289555620564081,14.19421,57.4496,359.353,0.1056525,0.4775249,-0.06429146,12.8999997116625,3
9.389049,0.3444579,-1.196342,-0.4267295487175211,-0.3672043123202619,-6.661358731619838,3.585055,63.22924,0.03608182,0.02680315,0.5239383,-0.01612927,12.9199997112155,3
9.444629,0.544458,-1.167621,-0.4378050779132731,-0.3640714299655784,-7.243544770244308,7.169409,63.23252,0.07115682,0.05356903,0.5231688,-0.03224909,12.9399997107685,3
9.500194,0.744458,-1.138908,-0.4471923286046007,-0.3135305980450014,-7.725728997345904,10.75276,63.23807,0.1067659,0.08027493,0.5218878,-0.04833293,12.9599997103214,3
9.555742,0.944458,-1.110204,-0.4432860540483627,-0.2685575382840867,-8.103529425006094,14.33506,63.24599,0.1432229,0.1068947,0.5200973,-0.06436487,12.9799997098744,3
9.723103,0.3376901,-1.064403,-0.5898199027112518,0.4129443132257571,-8.472161378251847,3.546469,69.15122,0.1859839,0.02639905,0.5671794,-0.01622468,12.9999997094274,3
9.779784,0.5376902,-1.039374,-0.6353798901314907,0.2157968896409337,-8.883908554596996,7.091766,69.16844,0.3715915,0.05275572,0.5663623,-0.03244108,13.0199997089803,3
9.836451,0.7376902,-1.014353,-0.6670012030979802,0.0423022771660441,-9.178997508524008,10.63599,69.19749,0.5600295,0.07905439,0.565002,-0.04862181,13.0399997085333,3
9.893101,0.9376901,-0.989338,-0.6728139935262352,-0.1616597807776005,-9.35474722190719,14.1791,69.23893,0.7528416,0.1052698,0.5631003,-0.06475137,13.0599997080863,3
10.10607,0.3330274,-0.9796801,-0.774470839138246,-0.155720425935519,-9.69439400465513,3.594939,79.89456,0.313284,0.02580121,0.6416984,-0.01804499,13.0799997076392,3
10.16691,0.5330274,-0.9633885,-0.8691330189594222,-0.1018182661165827,-9.910669403958543,7.188786,79.92423,0.6288147,0.05156895,0.6407441,-0.03606816,13.0999997071922,3
10.22773,0.7330273,-0.9470975,-0.9449469096826616,-0.0531441903033833,-10.002764403322583,10.7825,79.97411,0.9480685,0.07727891,0.6391543,-0.05406467,13.1199997067451,3
10.4195,0.3326909,-0.9820027,-1.196828951614096,0.6436175151625556,-10.086938478090378,3.587312,88.829,0.3471505,0.02447652,0.6994303,-0.01974222,13.1399997062981,3
10.48198,0.5326909,-0.9747788,-1.280582360960489,0.445102900318067,-10.253880313605418,7.173475,88.86181,0.6967654,0.04892084,0.6983928,-0.0394604,13.1599997058511,3
10.54444,0.7326908,-0.9675597,-1.3543485129946244,0.2702057544640788,-10.28734663316662,10.75837,88.91715,1.051677,0.07330905,0.6966655,-0.05913512,13.179999705404,3
10.60687,0.9326907,-0.9603358,-1.4061944516604292,0.0645735283660903,-10.189078762912557,14.34255,88.99583,1.413559,0.09761362,0.6942493,-0.07875904,13.199999704957,3
10.75222,0.3352691,-1.043072,-1.2904091215632256,-0.6972382386919758,-10.129618809381066,3.525189,99.09505,0.4447253,0.0229081,0.7605012,-0.02088829,13.21999970451,3
10.81418,0.5352691,-1.045251,-1.353710204260512,-0.4959381176856613,-10.044801876425003,7.049158,99.13634,0.8925297,0.04578646,0.7594048,-0.04175155,13.2399997040629,3
10.87612,0.7352691,-1.047431,-1.3970808782195387,-0.276430622263687,-9.833283063820115,10.5717,99.20596,1.346891,0.0686132,0.7575793,-0.06256989,13.2599997036159,3
10.93804,0.9352689,-1.049605,-1.4089292195880407,-0.0911011505620865,-9.499170424366644,14.09305,99.30499,1.810351,0.09136166,0.7550263,-0.08333255,13.2799997031689,3
11.12074,0.3424699,-1.197635,-1.5612969263224483,0.5626969982765572,-9.148823203939994,3.434732,111.1702,0.5758044,0.02108127,0.8245004,-0.02188461,13.2999997027218,3
11.18023,0.5424699,-1.210046,-1.5559096094218834,0.2504117667964426,-8.873742554234518,6.868147,111.2223,1.155396,0.04213564,0.8233584,-0.04374389,13.3199997022748,3
11.23969,0.7424698,-1.22245,-1.527184103835058,-0.0396286363314316,-8.488935895054137,10.30045,111.3099,1.742441,0.06314214,0.8214565,-0.06556459,13.3399997018278,3
11.40166,0.3517782,-1.391891,-1.6522086979978745,0.3643951278622048,-8.104294583812637,3.363049,119.9563,0.6173552,0.01934403,0.8653704,-0.0227123,13.3599997013807,3
11.45784,0.5517782,-1.411975,-1.6461555101044263,0.1157633093002366,-7.77760699362414,6.725559,120.0107,1.235412,0.03864335,0.8642146,-0.04541876,13.3799997009337,3
11.514,0.751778,-1.432035,-1.623175910427154,-0.1094785892879405,-7.358907071594341,10.08658,120.102,1.859189,0.05788367,0.8622898,-0.06809194,13.3999997004867,3
11.57015,0.9503595,-1.452089,-1.5731356812731327,-0.3599900800090495,-6.8569976175078935,13.44546,120.2318,2.495783,0.07706587,0.8595992,-0.09069893,13.4199997000396,3
11.76865,0.3644368,-1.670734,-1.5905432983112815,-0.3772766294038432,-6.561190391192083,3.33817,126.3357,0.4109322,0.01634577,0.8919011,-0.02437274,13.4399996995926,3
11.81978,0.5644368,-1.699536,-1.6045137549990507,-0.3445217124007586,-6.193664219765577,6.675752,126.3714,0.8199436,0.03263927,0.8907484,-0.04873972,13.4599996991456,3
11.8709,0.7644368,-1.72833,-1.6057675433068628,-0.3152780481135613,-5.7654679805441695,10.01204,126.4316,1.234439,0.04889987,0.8888295,-0.07305786,13.4799996986985,3
11.922,0.9528913,-1.757115,-1.5851023056588556,-0.3430983423270379,-5.288040921215321,13.34684,126.5172,1.657429,0.06511375,0.8861468,-0.09730624,13.4999996982515,3
12.05158,0.3561912,-1.921211,-1.5016419005970398,-0.3798101191422622,-5.001732804906357,3.308614,129.1048,0.2185588,0.01412614,0.9025768,-0.02524892,13.5199996978045,3
12.09875,0.5561911,-1.954711,-1.4152753934717062,-0.3649264235450124,-4.664676691517576,6.616178,129.1237,0.4374999,0.02822821,0.9014435,-0.05047286,13.5399996973574,3
12.14591,0.7561911,-1.988192,-1.3168798012726288,-0.352028293698006,-4.28991990941428,9.922739,129.1553,0.6574525,0.04228823,0.8995563,-0.07565463,13.5599996969104,3
12.29108,0.3483416,-2.162625,-1.1974056647385236,-0.3946967549576911,-3.8908947708537385,3.27071,130.6595,0.05088017,0.01231513,0.9083496,-0.02574836,13.5799996964633,3
12.33491,0.5483415,-2.199171,-1.1324465577285494,-0.4381472169421962,-3.5950841852842124,6.54045,130.6639,0.1020009,0.02461598,0.9072397,-0.05146839,13.5999996960163,3
12.37874,0.7483414,-2.235703,-1.0679596192666685,-0.429953247395015,-3.2755564648200832,9.809068,130.6711,0.1528896,0.03688566,0.9053916,-0.07714096,13.6199996955693,3
12.42255,0.9483414,-2.272218,-0.9959698886865204,-0.4236904368426367,-2.946135505638116,13.07673,130.6812,0.2035372,0.04911223,0.9028072,-0.1027477,13.6399996951222,3
12.6058,0.3376272,-2.491481,-1.065851731118732,0.2477572480077987,-2.5595214067038743,3.223541,130.3256,359.8838,0.01089448,0.9071574,-0.0259512,13.6599996946752,3
12.64734,0.5376272,-2.529443,-0.9895682540123776,0.0395269964296638,-2.3543713830078548,6.446119,130.3158,359.7668,0.02177677,0.9060796,-0.05187438,13.6799996942282,3
12.68887,0.7376271,-2.567395,-0.922016649916527,-0.1426165200190083,-2.141591562313222,9.66773,130.2991,359.6483,0.03263826,0.904285,-0.0777491,13.6999996937811,3
12.85578,0.3288866,-2.763185,-0.8556996586788319,-0.3532926495419359,-1.9356911289903629,3.37383,131.6243,359.8429,0.01081131,0.9118273,-0.02741508,13.7199996933341,3
12.89797,0.5288866,-2.804376,-0.7578022936370576,-0.3301462051586673,-1.7990255559396244,6.746703,131.6103,359.6847,0.02160995,0.9106395,-0.05479891,13.7399996928871,3
12.94015,0.7288865,-2.845556,-0.6732090107506092,-0.2574770967896291,-1.6558775971914974,10.1186,131.5868,359.5242,0.03238665,0.9086617,-0.08212776,13.75999969244,3
12.98231,0.9288864,-2.886714,-0.5944509937557996,-0.1888727519747783,-1.5207179533629631,13.49069,131.5531,359.3595,0.04312935,0.9058949,-0.1093907,13.779999691993,3
13.02446,0.9857811,-2.927861,-0.514185694602757,-0.1779205715960944,-1.40826163934239,16.86172,131.5087,359.1901,0.05383164,0.902343,-0.1365509,13.799999691546,3
13.18739,0.317028,-3.132441,-0.4040733216420094,-0.1802204883988086,-1.36364529730481,3.532673,135.3207,359.8855,0.01079227,0.9245186,-0.02888964,13.8199996910989,3
13.2293,0.517028,-3.177717,-0.312060008334134,-0.1350809523521687,-1.3134674432894435,7.064864,135.31,359.7696,0.02156808,0.9231993,-0.05774993,13.8399996906519,3
13.27121,0.717028,-3.222973,-0.230602740376181,-0.0961269227287061,-1.2721386676572406,10.59678,135.2918,359.6511,0.03231625,0.9210019,-0.08655591,13.8599996902049,3
13.41639,0.308391,-3.401438,-0.2753461878277772,0.5921296607464931,-1.065719599013784,3.576547,137.6077,359.9627,0.01097972,0.9318976,-0.02921264,13.8799996897578,3
13.45798,0.508391,-3.447976,-0.2218203304601917,0.3950189616627918,-0.9980054744669626,7.152426,137.6041,359.9247,0.02194275,0.930536,-0.0583929,13.8999996893108,3
13.49956,0.7083909,-3.494502,-0.1806060334206467,0.2182062413642209,-0.934148924009306,10.7273,137.5981,359.886,0.03288128,0.9282689,-0.08750822,13.9199996888638,3
13.65892,0.2991648,-3.687594,-0.1440329774929143,0.0086750361971033,-0.8880757513439699,3.571837,139.3093,0.08480745,0.011529,0.9371504,-0.02896365,13.9399996884167,3
13.70068,0.4991649,-3.733883,-0.2754353091077295,0.6536844537812698,-0.6354335501964261,7.142628,139.3173,0.1703803,0.02304447,0.9357842,-0.05789036,13.9599996879697,3
13.74243,0.6991649,-3.780159,-0.2646973883952093,0.4101496206898314,-0.5720738443401636,10.7124,139.3308,0.257279,0.03453434,0.9335097,-0.08675271,13.9799996875226,3
13.78416,0.8991649,-3.826421,-0.2679139957928811,0.1836691647338621,-0.5060320784320229,14.28112,139.35,0.3462427,0.04598752,0.9303299,-0.1155225,13.9999996870756,3
13.98141,0.2869539,-4.067557,-0.2770453725817443,-0.0666819495870505,-0.4504947572625877,3.607404,140.9581,0.1229165,0.01152801,0.9420406,-0.02930785,14.0199996866286,3
14.02272,0.4869538,-4.115108,-0.2532058570948656,-0.0918414102944095,-0.4129961171678999,7.213762,140.9698,0.2467604,0.02304116,0.940639,-0.05857834,14.0399996861815,3
14.06402,0.6869537,-4.162642,-0.2416131474420488,-0.0754483904159222,-0.368941172112919,10.81942,140.9895,0.3720269,0.03452494,0.9383053,-0.08778693,14.0599996857345,3
14.10531,0.8869536,-4.210161,-0.2335656613939907,-0.0711997846455994,-0.3312434187009225,14.42401,141.0175,0.5003127,0.04597129,0.9350425,-0.1169003,14.0799996852875,3
14.24321,0.2833332,-4.381447,-0.3380858874815331,0.596918903555379,-0.1436429677803063,3.632516,141.6651,0.1217147,0.01140898,0.944077,-0.02958876,14.0999996848404,3
14.28418,0.4833332,-4.429856,-0.2722854599085202,0.3759449365520291,-0.1706962846077209,7.263962,141.6768,0.2443808,0.02280319,0.9426529,-0.05913916,14.1199996843934,3
14.32515,0.6833332,-4.478252,-0.2139029893586723,0.1715614194586857,-0.1929898508005019,10.89432,141.6964,0.3689634,0.03417081,0.9402818,-0.08862174,14.1399996839464,3
14.3661,0.8833331,-4.526631,-0.1536662299234077,-0.0709331487604744,-0.2236300700231179,14.5239,141.7245,0.4962246,0.04549881,0.9369667,-0.1180103,14.1599996834993,3
14.54125,0.2833333,-4.744291,-0.2497445277157055,0.5670065224055315,-0.0563596021842824,3.579656,144.0619,0.2217992,0.0114758,0.9507389,-0.02911296,14.1799996830523,3
14.58103,0.4833333,-4.792588,-0.2331735713215934,0.3159784464146111,-0.0332826913037767,7.158199,144.0829,0.4452516,0.02293678,0.9493424,-0.05818888,14.1999996826053,3
14.6208,0.6833333,-4.840871,-0.2152032104631605,0.0817216130862105,-0.0154879403119103,10.73558,144.1182,0.6721691,0.03437191,0.9470173,-0.08719932,14.2199996821582,3
14.7777,0.2833333,-5.034901,-0.3373388891178344,0.5403716647469398,0.1740135006128342,3.514018,144.9553,0.2704862,0.01148111,0.9531268,-0.0285277,14.2399996817112,3
14.81677,0.4833333,-5.082378,-0.4582513847402065,0.990823293497139,0.3589702284418852,7.026917,144.9803,0.5429409,0.02294798,0.9517748,-0.05701996,14.2599996812642,3
14.85583,0.6833333,-5.129844,-0.423063872870479,0.5278611475647417,0.3420125937189411,10.5383,145.0226,0.8194271,0.0343886,0.9495242,-0.08544736,14.2799996808171,3
14.89487,0.8833331,-5.177297,-0.3869551884678373,0.0562247330279486,0.316957693094011,14.04835,145.0828,1.10223,0.04579343,0.9463778,-0.1137854,14.2999996803701,3
15.08956,0.2833333,-5.417099,-0.3411174919959983,-0.3079359854829737,0.2719342096803574,3.449168,144.8773,0.2963798,0.01154523,0.9529358,-0.02791239,14.3199996799231,3
15.12842,0.4833334,-5.463336,-0.2956086905073363,-0.3696317560989117,0.2342213474673009,6.896766,144.9042,0.595091,0.02307745,0.9516319,-0.05578659,14.339999679476,3
15.16726,0.6833335,-5.509561,-0.2538855919791576,-0.3891916399363369,0.1985023783121846,10.34319,144.9496,0.8980823,0.03458517,0.949461,-0.08360198,14.359999679029,3
15.20609,0.8833333,-5.555773,-0.2072339298629639,-0.4201073715410247,0.1535126442473373,13.78836,145.0144,1.20775,0.04605845,0.9464259,-0.1113334,14.379999678582,3
15.3427,0.2833333,-5.725182,-0.2709018759964561,0.2147854041469056,0.2479055270899159,3.396311,143.4244,0.1940545,0.01090609,0.9490581,-0.02760612,14.3999996781349,3
15.38072,0.4833333,-5.770748,-0.1592258819413743,-0.0381075332312412,0.124449041447793,6.791178,143.4417,0.389305,0.02179728,0.9478041,-0.05517676,14.4199996776879,3
15.41874,0.6833333,-5.816302,-0.0503177265166776,-0.2728944824085946,0.0042161038606209,10.185,143.4709,0.5872499,0.03266596,0.9457163,-0.08269106,14.4399996772408,3
15.45675,0.8833333,-5.861842,-0.0766297956114243,0.1872960898144943,0.0516209427192597,13.57772,143.5126,0.7894257,0.04350299,0.9427972,-0.1101246,14.4599996767938,3
15.63105,0.2833334,-6.077225,-0.1043895235955467,0.640996097219495,0.099186302680426,3.337131,141.2619,0.0786619,0.0103043,0.9429952,-0.02724226,14.4799996763468,3
15.66856,0.4833333,-6.121777,-0.0208745907718856,0.1831453977524743,0.0036830436119652,6.67283,141.2688,0.157936,0.02059635,0.9417955,-0.05444946,14.4999996758997,3
15.70605,0.6833333,-6.166317,0.0655921991370753,-0.2813613861802617,-0.0988156940543474,10.00756,141.2805,0.2382645,0.03086792,0.9397981,-0.0816028,14.5199996754527,3
15.86079,0.2833333,-6.35769,-0.0229552895246349,0.167029324734009,0.0143144569901583,3.281206,139.6051,359.9568,0.009531257,0.9381273,-0.02699952,14.5399996750057,3
15.89731,0.4833333,-6.401777,0.0060826885112348,-0.0300240659691547,-0.0217292734192575,6.561433,139.6014,359.9134,0.01905185,0.9369738,-0.05396888,14.5599996745586,3
15.93382,0.6833333,-6.445852,0.0282212856046477,-0.2066139487437467,-0.0517229277750033,9.840314,139.5951,359.8691,0.02855108,0.9350533,-0.0808837,14.5799996741116,3
15.97032,0.8833333,-6.489915,0.0520111702086261,-0.417120589193834,-0.0865271798096003,13.11825,139.5861,359.824,0.03802426,0.932368,-0.1077246,14.5999996736646,3
16.16257,0.2833333,-6.726568,-0.0299784645422356,0.2488061058964021,0.0115859911482427,3.224179,136.3078,359.8077,0.008911313,0.9278357,-0.02673652,14.6199996732175,3
16.19901,0.4833334,-6.769553,0.0516560528351135,0.0296185941137463,-0.0960714198567789,6.447351,136.2915,359.6142,0.01781293,0.9267304,-0.05344374,14.6399996727705,3
16.23543,0.6833333,-6.812525,0.1271744198335191,-0.1686608044090891,-0.1981095747413324,9.669523,136.264,359.4183,0.02669795,0.92489,-0.08010084,14.6599996723235,3
16.27184,0.8833333,-6.855488,0.2055573956653376,-0.4003932167644551,-0.3056723507951133,12.89034,136.2251,359.219,0.03556074,0.9223169,-0.1066832,14.6799996718764,3
16.41035,0.2833334,-7.026448,0.134674868488954,0.2404436905093478,-0.2266697207154351,3.372738,136.0163,359.7951,0.009362603,0.9268537,-0.02795653,14.6999996714294,3
16.44866,0.4833334,-7.071299,0.164537092043087,-0.0038336357477186,-0.2726951407528197,6.744494,135.9981,359.5887,0.0187145,0.9256453,-0.05588098,14.7199996709824,3
16.48697,0.6833334,-7.116138,0.194195190405793,-0.2272029821219733,-0.3179911444953696,10.11523,135.9674,359.3796,0.02804755,0.9236332,-0.08374915,14.7399996705353,3
16.52526,0.8833333,-7.160957,0.0919888158384765,0.2362624255795727,-0.1985717474186312,13.48614,135.9237,359.1661,0.03735806,0.9208186,-0.1115468,14.7599996700883,3
16.70095,0.2833332,-7.380111,-0.0078959450325299,0.6950235105941354,-0.0811574824382876,3.533296,138.2813,359.8473,0.009732912,0.9340271,-0.02928251,14.7799996696413,3
16.74,0.4833333,-7.427931,0.0415857228160199,0.2441033226640958,-0.1473814582404777,7.066058,138.2671,359.6929,0.01945044,0.9326927,-0.05853473,14.7999996691942,3
16.77903,0.6833333,-7.475733,0.0936128878184483,-0.2115208954992262,-0.2143486898355675,10.59853,138.243,359.5361,0.02914838,0.9304704,-0.08772942,14.8199996687472,3
16.93625,0.2833333,-7.670653,-0.0295687767196568,0.2331275534594615,-0.0624900964707393,3.577034,139.7872,359.9377,0.01021856,0.9386042,-0.02949522,14.8399996683002,3
16.97572,0.4833331,-7.719023,-0.0352206862498185,0.0327572203915451,-0.0565898391253583,7.153409,139.7814,359.8749,0.02042526,0.9372321,-0.05895631,14.8599996678531,3
17.01517,0.6833332,-7.767379,-0.0480350195303671,-0.1467050404489321,-0.0409621326000717,10.72872,139.7714,359.8111,0.03060888,0.9349477,-0.08835135,14.8799996674061,3
17.05462,0.8833331,-7.815721,-0.0590076524152323,-0.3596203571997298,-0.0269257723374973,14.30301,139.7573,359.7458,0.04075998,0.9317541,-0.1176521,14.899999666959,3
17.25046,0.2833332,-8.057106,-0.1765319277276766,0.3000338559804734,0.1220837426441701,3.563286,141.137,0.07336982,0.0109467,0.9425771,-0.0291067,14.919999666512,3
17.29047,0.4833331,-8.104709,-0.1279276819655557,0.0745736190555099,0.0656696135673104,7.125451,141.1439,0.1476941,0.0218827,0.94121,-0.05817498,14.939999666065,3
17.33048,0.6833331,-8.152297,-0.0830202269661022,-0.1299785087912759,0.0153030994725824,10.68659,141.1556,0.2231504,0.03279434,0.9389337,-0.08717876,14.9599996656179,3
17.37047,0.8833332,-8.199872,-0.0323918566049563,-0.3679838824646971,-0.0408839210540232,14.24667,141.1723,0.3003651,0.04367104,0.9357514,-0.11609,14.9799996651709,3
17.50831,0.2833332,-8.371493,-0.1302390419232608,0.2665802829402249,0.0891505147813411,3.626143,142.0504,0.100723,0.01111822,0.9451788,-0.02963392,14.9999996647239,3
17.54861,0.4833332,-8.420319,-0.1233847530379108,0.0160303264990093,0.0870575646840645,7.251214,142.06,0.2021954,0.02222178,0.9437585,-0.05922958,15.0199996642768,3
17.5889,0.6833331,-8.469126,-0.114255440935775,-0.2136114321783391,0.082115295759106,10.87582,142.0762,0.305081,0.03329992,0.9413933,-0.08876291,15.0399996638298,3
17.73995,0.2833332,-8.656659,-0.2342347853585771,0.2435817549658993,0.238816863178565,3.638683,142.4657,0.1100496,0.01112296,0.9463463,-0.0297514,15.0599996633828,3
17.78016,0.4833331,-8.705839,-0.3482641997368638,0.6960704659219854,0.388921572406284,7.276273,142.4762,0.2209525,0.02223134,0.9449142,-0.059464,15.0799996629357,3
17.82035,0.683333,-8.755006,-0.3072935269975474,0.2388776580876712,0.3471347543409244,10.9128,142.4941,0.3336182,0.03331399,0.9425299,-0.08910827,15.0999996624887,3
17.86053,0.883333,-8.804157,-0.2594292840579761,-0.2230196392637862,0.2986216806063879,14.54841,142.5195,0.44892,0.04435934,0.9391965,-0.1186559,15.1199996620417,3
18.04864,0.2833333,-9.038318,-0.3820678227826839,0.2153561762002856,0.4625139710494501,3.581887,144.6141,0.2139407,0.011276,0.9522142,-0.0292073,15.1399996615946,3
18.08787,0.4833332,-9.087104,-0.37836964685048,0.0087132017971695,0.4689932771405782,7.162667,144.6343,0.4294694,0.02253736,0.9508141,-0.05837744,15.1599996611476,3
18.12708,0.6833332,-9.135877,-0.3738904531411542,-0.1770215748420815,0.4749810981035409,10.74229,144.6684,0.6483405,0.03377326,0.9484832,-0.08748183,15.1799996607006,3
18.16629,0.8833331,-9.184636,-0.3595012257520871,-0.3962094013805364,0.4687697064351468,14.3204,144.7169,0.8721601,0.04497007,0.9452248,-0.1164902,15.1999996602535,3
18.29651,0.2833334,-9.346381,-0.4486298496255259,0.2571721618398242,0.5922953799847228,3.51459,145.3819,0.2659068,0.01133819,0.954241,-0.02858688,15.2199996598065,3
18.33516,0.4833332,-9.3942,-0.3659217039579907,0.0254391347828464,0.4981657446763741,7.028089,145.4065,0.5337501,0.02266238,0.9528872,-0.05713847,15.2399996593595,3
18.3738,0.683333,-9.442009,-0.2814213929481965,-0.185385697123795,0.3985885611179149,10.54005,145.448,0.8056275,0.03396118,0.9506336,-0.08562471,15.2599996589124,3
18.41244,0.883333,-9.489804,-0.1860783326472095,-0.4296636887849024,0.2821177603157903,14.05067,145.5073,1.083703,0.0452244,0.9474831,-0.1140211,15.2799996584654,3
18.58095,0.2833334,-9.698096,-0.2357697447709057,0.1986279718851767,0.3466077748993168,3.449549,145.1478,0.2922734,0.01144612,0.9536456,-0.02795347,15.2999996580184,3
18.61954,0.4833335,-9.744562,-0.1780697271731597,-0.0581946017596681,0.2759417279290446,6.897526,145.1744,0.5869442,0.02288014,0.9523407,-0.05586842,15.3199996575713,3
18.65811,0.6833334,-9.791016,-0.1143762730135868,-0.2941088894776619,0.1972141890180019,10.34435,145.2192,0.8858694,0.03429018,0.9501681,-0.08372453,15.3399996571243,3
18.80735,0.2833333,-9.975876,-0.1779061203662202,0.1568117377863121,0.2763555547079974,3.396755,143.608,0.191418,0.0108412,0.9495597,-0.02763442,15.3599996566772,3
18.8452,0.4833333,-10.0216,-0.2350027616351937,0.6030280991639586,0.3471381536692615,6.792057,143.6251,0.3840852,0.02166814,0.9483048,-0.05523305,15.3799996562302,3
