pX,pY,pZ,aX,aY,aZ,reX,reY,reZ,rtX,rtY,rtZ,t,ID
-43.00042,0.23,-37.99971,4.881534349607435,0.0519822632099178,5.050447671102127,0.01615668,0.0135938,0.02369656,0.0001410182,0.0001185991,0.0002067748,6.31999985873699,15
-43.00084,0.43,-37.99943,5.3623276335393015,-0.1290711087629692,5.2545052854394925,0.0323158,0.01360392,0.04739742,0.0002820576,0.0001185999,0.000413587,6.33999985828996,15
-43.00126,0.63,-37.99914,5.775054317826928,-0.0934459060839341,5.403077698439574,0.04862931,0.01362087,0.07127771,0.0004244446,0.0001186006,0.0006219647,6.35999985784292,15
-43.00167,0.2833333,-37.99879,6.120150556612693,0.1345697326534189,5.497511765244866,0.02543708,4.930165,0.03784307,0.0002359789,0.04301045,0.00032039,6.37999985739589,15
-43.00229,0.4833333,-37.99829,6.560663740115423,-0.322019508151766,5.5748214525450095,0.05085535,4.93019,0.07567916,0.0004717912,0.04301044,0.000640726,6.39999985694885,15
-42.9894,0.2833333,-37.96307,6.91829780970842,-0.5292085558172841,5.591708157880248,0.9106842,9.17039,0.5486419,0.00830434,0.07989999,0.004137015,6.41999985650182,15
-42.9964,0.4833333,-37.94567,7.194763284141999,-0.5123317340581033,5.550924535287486,1.821278,9.183474,1.09755,0.0166079,0.07988967,0.008273576,6.43999985605478,15
-43.00338,0.6833333,-37.92828,7.569194902943352,-0.9359901515325038,5.508550119628616,2.733767,9.205353,1.648074,0.0249287,0.0798724,0.0124172,6.45999985560775,15
-43.01036,0.8833333,-37.91091,7.846254109790131,-1.1062760662757656,5.405091281811963,3.648097,9.236115,2.200696,0.03326644,0.07984816,0.01656919,6.47999985516071,15
-42.95317,0.2833333,-37.85417,8.029210897730252,-1.0485228143509056,5.244494526418912,1.614303,16.7868,0.1806642,0.01416619,0.1459325,-0.0004967114,6.49999985471368,15
-42.94792,0.4833334,-37.82616,8.317206958273495,-1.4273337279180809,5.095786366812462,3.228735,16.79442,0.3610353,0.02833005,0.1458884,-0.0009985089,6.51999985426664,15
-42.9427,0.6833334,-37.79817,8.495854004900487,-1.5487996137208828,4.887180727169181,4.845552,16.80697,0.5392063,0.04250555,0.1458142,-0.001527052,6.53999985381961,15
-42.84366,0.2833331,-37.7005,8.570118976491344,-1.438253690910542,4.623821987446782,3.144054,25.27703,0.1076464,0.02697434,0.2186916,-0.005086162,6.55999985337257,15
-42.82177,0.4833332,-37.64983,8.545248302532386,-1.119984900520654,4.311002218029564,6.290467,25.28573,0.2135796,0.053944,0.2184435,-0.01019303,6.57999985292554,15
-42.79988,0.6833333,-37.59918,8.584327774669632,-1.4709879882288948,3.9995914185864407,9.438929,25.30037,0.3205311,0.08089,0.21803,-0.01529843,6.5999998524785,15
-42.64289,0.2833334,-37.469,8.51700480193901,-1.5572581240626224,3.641712356947174,4.664212,34.0717,0.197772,0.03941136,0.2926598,-0.01027264,6.61999985203147,15
-42.59991,0.4833333,-37.39933,8.35010891441133,-1.404128673879066,3.2436322889257525,9.33189,34.09586,0.3958208,0.07878059,0.2919295,-0.02055676,6.63999985158443,15
-42.55694,0.6833332,-37.3297,8.272683552394199,-1.6762027851491257,2.8702993621412247,14.00119,34.13696,0.5989316,0.1180324,0.2907133,-0.03081375,6.6599998511374,15
-42.51399,0.8833334,-37.26009,8.088136616057966,-1.6795712112133103,2.4608432894362338,18.67189,34.19652,0.8105364,0.1571011,0.2890128,-0.04102312,6.67999985069036,15
-42.35454,0.2833339,-37.19928,7.805052122463728,-1.4395680890065172,2.0224426897187584,3.70887,42.94735,0.28812,0.03103393,0.3658051,-0.009507669,6.69999985024333,15
-42.31409,0.4833339,-37.14859,7.632230297071715,-1.6207959657595434,1.6301684505601486,7.416571,42.9755,0.5784599,0.06202578,0.3652269,-0.01900359,6.7199998497963,15
-42.27365,0.6833339,-37.09789,7.354677874070404,-1.5293458082509683,1.2138017413219586,11.12106,43.02263,0.8709493,0.09291914,0.3642638,-0.02849203,6.73999984934926,15
-42.07419,0.2833339,-37.01422,6.982795306820108,-1.1905514076460215,0.7814506905968912,3.654033,50.58595,0.2998354,0.02994293,0.4269529,-0.01125695,6.75999984890223,15
-42.02819,0.4833339,-36.96976,6.527294581130768,-0.6287013576405271,0.3413391016942597,7.306981,50.61481,0.601928,0.05984671,0.4262975,-0.02250025,6.77999984845519,15
-41.98221,0.6833337,-36.92532,6.159455184123559,-0.7207902027576772,-0.0448020165817766,10.95868,50.66354,0.9088001,0.08968033,0.4252062,-0.03371825,6.79999984800816,15
-41.7574,0.2833333,-36.82321,5.710276755132213,-0.5328136839934209,-0.4287215582736152,3.581975,57.41229,0.3770186,0.02899168,0.4799901,-0.01212722,6.81999984756112,15
-41.70823,0.4833338,-36.78409,5.192149957243203,-0.0901050322598628,-0.8015385225048988,7.162686,57.44784,0.7567349,0.05794516,0.479279,-0.02423985,6.83999984711409,15
-41.65906,0.6833336,-36.74499,4.798311147408718,-0.2973634190688716,-1.0924945507798751,10.74214,57.50786,1.142212,0.08683318,0.478095,-0.03632654,6.85999984666705,15
-41.60991,0.8833336,-36.70589,4.341203494477952,-0.4883831863952528,-1.361720990267159,14.32015,57.59325,1.535639,0.115623,0.4764391,-0.04838303,6.87999984622002,15
-41.40865,0.2833335,-36.63356,3.834836628428192,-0.0609843670126322,-1.5998701599496137,3.518492,63.02362,0.4060341,0.02802354,0.522332,-0.01302654,6.89999984577298,15
-41.35712,0.4833335,-36.59946,3.3989470185929065,-0.29010302341569,-1.7645433383646605,7.035819,63.06124,0.8148961,0.05601183,0.5215836,-0.026038,6.91999984532595,15
-41.3056,0.683333,-36.56538,2.919247408705445,-0.0296212490223292,-1.9240038976246725,10.55182,63.12471,1.229807,0.08393857,0.5203378,-0.03902166,6.93999984487891,15
-41.08809,0.2833338,-36.48152,2.432529336861279,0.2413148643490016,-2.0518549335397687,3.460372,66.29736,0.4341306,0.02734957,0.5464645,-0.01333925,6.95999984443188,15
-41.03582,0.4833336,-36.45037,2.1202934729946605,-0.1698800749039163,-2.0848186734624505,6.919605,66.33691,0.8712943,0.05466625,0.5457054,-0.02666278,6.97999984398484,15
-40.98358,0.6833338,-36.41922,1.814042299085166,-0.5983242499614632,-2.0790793762923023,10.37735,66.40331,1.312608,0.08191358,0.5444409,-0.03997301,6.99999984353781,15
-40.74809,0.2833333,-36.32724,1.4540618744044096,-0.1390406059378109,-2.074023751720297,3.416055,68.07193,0.3565138,0.02644053,0.5593849,-0.01410586,7.01999984309077,15
-40.69511,0.483333,-36.29923,1.2960093529603969,-0.3373202477800363,-1.9671042379060677,6.830846,68.10386,0.7140232,0.05284161,0.5586311,-0.02820467,7.03999984264374,15
-40.64215,0.6833332,-36.27123,1.1496238698846284,-0.5272362422184517,-1.8249065663846016,10.24431,68.1577,1.076566,0.07918708,0.5573763,-0.0422738,7.0599998421967,15
-40.58921,0.8833329,-36.24324,0.9193963971828794,-0.0428613076001851,-1.7246077705237788,13.65647,68.23442,1.44691,0.1054547,0.5556221,-0.05630137,7.07999984174967,15
-40.38865,0.283333,-36.17269,0.702350292819446,0.4242642045204868,-1.613015801370377,3.374809,68.17297,0.2269431,0.02549678,0.5601512,-0.01486359,7.09999984130263,15
-40.33546,0.483333,-36.14714,0.6536093682928197,-0.0308379448443432,-1.4381702085613348,6.748261,68.19304,0.4543029,0.05095627,0.5594193,-0.02971624,7.1199998408556,15
-40.28228,0.6833334,-36.1216,0.4681457198436547,0.2170986811268024,-1.3473495174402288,10.12058,68.22684,0.6847374,0.07636346,0.5582008,-0.04453885,7.13999984040856,15
-40.05863,0.2833333,-36.04121,0.2801859002117552,0.4754894747156487,-1.276124644327048,3.326449,67.69098,0.1102696,0.02464193,0.5566971,-0.01536655,7.15999983996153,15
-40.00567,0.4833335,-36.01741,0.2647818140489448,0.0517504818470904,-1.1692489855003745,6.651528,67.70056,0.2204893,0.04924941,0.5559928,-0.03071929,7.17999983951449,15
-39.95272,0.6833334,-35.99362,0.2543475242228226,-0.3892378119029275,-1.089856691572681,9.975666,67.71673,0.3322699,0.07380904,0.5548204,-0.04604128,7.19999983906746,15
-39.71243,0.2833333,-35.90634,0.1224092627061708,0.0575018778191217,-1.027951752528832,3.278022,66.855,359.9793,0.02377169,0.5506602,-0.01590681,7.21999983862042,15
-39.65969,0.4833333,-35.88421,0.1896946442028095,-0.1533231371215452,-0.9078775196426924,6.555079,66.8532,359.9585,0.04751684,0.5499845,-0.03179611,7.23999983817339,15
-39.60698,0.6833333,-35.86208,0.2677921705862758,-0.3557851247613051,-0.7990668313616212,9.830844,66.85011,359.9368,0.07121064,0.5488592,-0.04765796,7.25999983772635,15
-39.55427,0.8833331,-35.83995,0.1800390983847819,0.116042898871956,-0.7392686827843633,13.1057,66.84569,359.9146,0.09483965,0.5472859,-0.06347659,7.27999983727932,15
-39.35136,0.2833335,-35.76779,0.1029851011690397,0.5706212941487927,-0.6843318343148894,3.229017,64.99624,359.8701,0.02315397,0.5370852,-0.01609329,7.29999983683228,15
-39.29934,0.4833333,-35.74604,0.1852943441695558,0.1029742404651964,-0.5857458483965559,6.457098,64.98519,359.7394,0.04628288,0.5364447,-0.03216929,7.31999983638525,15
-39.24734,0.6833336,-35.72429,0.072614485578903,0.3383664149547323,-0.56337753967982,9.684137,64.9666,359.607,0.06936774,0.5353782,-0.04821486,7.33999983593822,15
-39.02663,0.2833334,-35.64435,-0.0352592270412159,0.5842119596748002,-0.5472914971350491,3.284667,64.00304,359.8062,0.02340876,0.5297645,-0.01662208,7.35999983549118,15
-38.97362,0.4833333,-35.62226,0.0298058149406941,0.1479264008068372,-0.4805448855731882,6.568391,63.98628,359.6111,0.04679172,0.5291094,-0.03322598,7.37999983504415,15
-38.92063,0.6833332,-35.60019,0.1049561798762326,-0.3056084207850842,-0.4218277267212329,9.851102,63.95806,359.4135,0.07012979,0.5280188,-0.04979727,7.39999983459711,15
-38.7691,0.2833337,-35.54717,0.0209908143394841,0.1285848806574109,-0.4082909535214583,3.549317,65.2486,359.8013,0.02514834,0.5389139,-0.01815544,7.41999983415008,15
-38.71135,0.4833334,-35.52438,0.1256675210163109,-0.0947844940300561,-0.3343335156842499,7.097732,65.23003,359.6013,0.05026661,0.5381361,-0.03628867,7.43999983370304,15
-38.65363,0.6833336,-35.5016,0.2335078763165583,-0.3097897162060122,-0.2657072204637174,10.6465,65.19859,359.3975,0.07533729,0.5368403,-0.05439287,7.45999983325601,15
-38.44075,0.2833332,-35.42649,0.1586566557122211,0.1494941127682553,-0.2588880660965813,3.566267,67.29727,359.8591,0.0252219,0.5538615,-0.01826479,7.47999983280897,15
-38.38239,0.4833332,-35.40475,0.0899205662109565,0.5915285585349551,-0.2542448909746397,7.131585,67.28397,359.7165,0.05041001,0.5530556,-0.03651134,7.49999983236194,15
-38.32405,0.6833329,-35.38302,0.174933381206273,0.1113352855799033,-0.2028844367784543,10.69589,67.26153,359.5718,0.07554251,0.551714,-0.05471742,7.5199998319149,15
-38.09282,0.2833331,-35.29982,0.054003749556891,0.3341812211094147,-0.2258777356944463,3.596912,68.93365,359.9838,0.0257944,0.5656538,-0.01787773,7.53999983146787,15
-38.03415,0.4833334,-35.27752,-0.0658206126991061,0.5674814895186691,-0.2514178472398498,7.192959,68.93211,359.9676,0.0515581,0.564818,-0.03573225,7.55999983102083,15
-37.9755,0.6833339,-35.25522,-0.0165629676961742,0.1186517893947837,-0.2237406283116954,10.78795,68.92954,359.9512,0.07726356,0.5634266,-0.05354627,7.5799998305738,15
-37.91687,0.8833339,-35.23294,0.0388772374134518,-0.3474270217813614,-0.1981956468939287,14.38199,68.92589,359.9344,0.1028862,0.5614811,-0.07130286,7.59999983012676,15
-37.72685,0.2833331,-35.16472,-0.0635226514245843,0.0742221257731657,-0.2221284827277792,3.555871,69.98557,0.08284612,0.02583153,0.5731787,-0.01720051,7.61999982967973,15
-37.66906,0.4833331,-35.14212,0.0223175278980818,-0.1616919908459091,-0.1849043274634567,7.110393,69.99336,0.1665886,0.05162985,0.5723508,-0.03437593,7.63999982923269,15
-37.61128,0.683333,-35.11953,0.1104702258423415,-0.3892429031411637,-0.1492607028146757,10.66389,70.0065,0.2516158,0.07737115,0.5709724,-0.05151337,7.65999982878566,15
-37.40133,0.2833336,-35.04486,0.0096762885285031,0.0574963237252041,-0.1769311004367644,3.624935,71.0146,0.1056549,0.02628194,0.5804921,-0.01761971,7.67999982833862,15
-37.3421,0.4833338,-35.02254,-0.0853501603674971,0.4869858147320624,-0.2034842499985067,7.248814,71.02469,0.2121179,0.05252994,0.5796203,-0.03521679,7.69999982789159,15
-37.2829,0.6833343,-35.00023,0.0721821297619556,-0.0057511269531809,-0.1470396489359977,10.87221,71.04168,0.3199225,0.0787202,0.5781685,-0.05277902,7.71999982744455,15
-37.05456,0.2833333,-34.9188,0.0067818680606848,0.2045503486443175,-0.1676107830500655,3.637882,71.54652,0.1135641,0.02633181,0.5842587,-0.01775156,7.73999982699752,15
-36.99497,0.4833331,-34.89684,-0.068533384310264,0.4253057927958556,-0.1913533889458065,7.274717,71.55741,0.2279986,0.0526295,0.5833749,-0.03548031,7.75999982655048,15
-36.9354,0.6833331,-34.87487,-0.1408663842737212,0.6042452167221759,-0.2139668552321509,10.91044,71.57579,0.3442741,0.07886637,0.5819034,-0.05316801,7.77999982610345,15
-36.87584,0.8833328,-34.85292,-0.0475431362517966,-0.1646538613125295,-0.1818305667545878,14.54527,71.602,0.4631806,0.1050166,0.579846,-0.0707996,7.79999982565641,15
-36.68905,0.2833337,-34.78761,-0.1248196404674644,-0.0170761756083496,-0.2055340045884186,3.589367,73.37436,0.1902633,0.02610566,0.5971102,-0.01737998,7.81999982520938,15
-36.62999,0.4833337,-34.76651,-0.1986147521260335,0.1409556879934067,-0.2270523855256883,7.177684,73.39236,0.3820122,0.05217849,0.5962291,-0.03473773,7.83999982476234,15
-36.57095,0.6833336,-34.74542,-0.0791408551653489,-0.3831433424751004,-0.1853634196636022,10.76488,73.42274,0.576776,0.07819256,0.5947624,-0.05205615,7.85999982431531,15
-36.36601,0.283333,-34.67346,-0.1491963926197677,-0.2042030542553118,-0.2086327157709746,3.527612,74.59675,0.257978,0.02584818,0.6056221,-0.01686117,7.87999982386827,15
-36.30788,0.483333,-34.65277,-0.2174315821964185,-0.0148084110279175,-0.2311359347654829,7.054069,74.62073,0.517823,0.0516637,0.6047569,-0.03370125,7.89999982342124,15
-36.24976,0.6833329,-34.6321,-0.0771587038144261,-0.5075455354858345,-0.1864393652814442,10.57936,74.66119,0.7816462,0.07742293,0.6033165,-0.05050398,7.91999982297421,15
-36.02708,0.2833336,-34.55367,-0.0497691296974132,-0.2972443627090297,-0.1781909164098181,3.466696,74.77775,0.2933138,0.02558651,0.6068801,-0.01633439,7.93999982252717,15
-35.97007,0.4833339,-34.53284,-0.0231777268082105,-0.0764886220963803,-0.1700507546847838,6.931941,74.80453,0.5888785,0.05114051,0.6060414,-0.03264591,7.95999982208014,15
-35.91307,0.6833339,-34.51203,0.0146510679897353,0.1024503523903687,-0.157953512304477,10.39595,74.84972,0.8887556,0.07663976,0.6046451,-0.04892228,7.9799998216331,15
-35.85609,0.8833337,-34.49121,0.0417606026598527,0.0538392336613076,-0.1514067484611843,13.85871,74.91415,1.195269,0.1020614,0.6026928,-0.06514923,7.99999982118607,15
-35.67253,0.283333,-34.42768,0.064187768010786,0.044430799286105,-0.1445434603301407,3.415018,74.19106,0.2585637,0.02512747,0.6028228,-0.01617306,8.01999982073903,15
-35.61644,0.4833328,-34.4071,0.0937690548070548,0.0209092668705266,-0.133249485556,6.82858,74.2143,0.5188758,0.05022235,0.6020155,-0.03232508,8.039999820292,15
-35.56036,0.6833326,-34.38654,0.1075309746691957,0.0099329613700979,-0.129903038123615,10.24103,74.25351,0.782858,0.07526528,0.6006714,-0.04844366,8.05999981984496,15
-35.35843,0.2833333,-34.31704,0.1065600580005927,0.0381592350726109,-0.1290459318557673,3.366854,72.5735,0.1584454,0.02449781,0.591538,-0.01627208,8.07999981939793,15
-35.30321,0.4833331,-34.29681,0.1026426245540079,0.0522718510914441,-0.1268318212479471,6.732354,72.58754,0.3179377,0.04896483,0.5907707,-0.03252361,8.09999981895089,15
-35.24801,0.683333,-34.27658,0.3036146737510137,-0.6413587972201376,-0.0558658702811669,10.0968,72.61121,0.4795915,0.07338214,0.5894932,-0.04874233,8.11999981850386,15
-35.02753,0.2833331,-34.20125,0.3446680297814986,-0.4185116727099551,-0.0389867267514674,3.315857,70.97154,0.04496478,0.02378607,0.5802485,-0.01647583,8.13999981805682,15
-34.9731,0.4833334,-34.18165,0.3790073736465906,-0.1852104145579252,-0.0236029738308332,6.630656,70.97546,0.09020396,0.04754459,0.5795198,-0.03293272,8.15999981760979,15
-34.91869,0.6833334,-34.16206,0.4187558913409859,0.0062747663939942,-0.0058053235661397,9.944161,70.98206,0.135906,0.07125345,0.5783067,-0.0493566,8.17999981716275,15
-34.86428,0.8833332,-34.14247,0.2933367512611617,0.7101308698513499,-0.0442144085353959,13.25675,70.99143,0.1825216,0.09489616,0.5766104,-0.06573477,8.19999981671572,15
-34.5904,0.2833333,-34.04993,0.3685858116979759,0.4110378392573947,-0.0172091187562273,3.26009,68.79932,359.9061,0.02300829,0.5647526,-0.01674675,8.21999981626868,15
-34.53678,0.4833328,-34.0309,0.4395182049746537,0.1270684118637925,0.0091877680100687,6.519283,68.79127,359.8116,0.0459917,0.5640666,-0.03347534,8.23999981582165,15
-34.48317,0.6833326,-34.01187,0.3150619406110451,0.5241500272675781,-0.032049667457624,9.777458,68.77769,359.7159,0.06893087,0.5629243,-0.05017172,8.25999981537461,15
-34.42958,0.8833329,-33.99284,0.3510425447538559,0.2704282970950988,-0.0205588679447643,13.03421,68.75836,359.6182,0.09180354,0.5613273,-0.06682164,8.27999981492758,15
-34.23564,0.2833333,-33.92758,0.3735523933958724,0.0318299165237095,-0.013111229963588,3.207352,66.19749,359.8043,0.02251215,0.545909,-0.01671285,8.29999981448054,15
-34.18307,0.4833336,-33.90812,0.3945459954810779,-0.2460057623922724,-0.0056509599340124,6.413678,66.18097,359.6074,0.04499964,0.5452653,-0.03340746,8.31999981403351,15
-34.13052,0.6833335,-33.88866,0.459925488352205,-0.2973707870378359,0.0159236815336143,9.61904,66.15316,359.4081,0.06744586,0.5441935,-0.05007076,8.33999981358647,15
-33.91241,0.2833336,-33.81597,0.5072393137370987,-0.3090454400920926,0.0328577701181878,3.452693,66.81638,359.7991,0.0241833,0.5503934,-0.01805005,8.35999981313944,15
-33.85561,0.4833339,-33.79547,0.5488881619555919,-0.3343453064537299,0.0493875024756498,6.904422,66.79812,359.5968,0.04833823,0.5496416,-0.03607867,8.3799998126924,15
-33.79882,0.6833341,-33.77497,0.4221119914002713,0.2937027178067789,0.0086615604296653,10.35548,66.76727,359.3914,0.07244413,0.5483896,-0.0540729,8.39999981224537,15
-33.56001,0.283333,-33.69597,0.4413239432347069,0.0308515021681248,0.0193354061653536,3.549506,68.65202,359.8434,0.02480626,0.563665,-0.01859235,8.41999981179833,15
-33.50132,0.483333,-33.67598,0.4535487431691116,-0.216876138670508,0.0299118631631252,7.098677,68.63733,359.6851,0.04958396,0.5628521,-0.03716896,8.4399998113513,15
-33.44264,0.6833331,-33.65599,0.2738316313606503,0.2164458374348901,-0.0247798451602818,10.64677,68.61252,359.5243,0.07430672,0.5614987,-0.05570472,8.45999981090426,15
-33.38398,0.883333,-33.63601,0.2595166455695086,-0.0010354679174421,-0.021798411657965,14.19379,68.57713,359.3598,0.09895154,0.5596066,-0.07418139,8.47999981045723,15
-33.18263,0.2833335,-33.56987,0.2326041534317759,-0.2033930163069023,-0.0217069730505308,3.581517,70.21185,359.9387,0.02525743,0.5748225,-0.01840874,8.49999981001019,15
-33.12346,0.4833333,-33.54972,0.2059713174235966,-0.4449878568556066,-0.0204112472131114,7.16234,70.20606,359.8769,0.05048521,0.5739802,-0.03679613,8.51999980956316,15
-33.0643,0.6833329,-33.52958,0.0405269568055963,0.180202637310137,-0.0650713318565259,10.74215,70.1963,359.8142,0.07565697,0.5725777,-0.05514202,8.53999980911613,15
-32.84327,0.2833333,-33.45574,0.1149258019749126,-0.0855055507836816,-0.0266745740242129,3.57308,71.40099,0.0687416,0.02566721,0.5832493,-0.01770575,8.55999980866909,15
-32.78456,0.4833333,-33.43471,0.1824463225198371,-0.3360897372013585,0.0099022105357136,7.145087,71.4075,0.1384537,0.05130408,0.5823987,-0.03538581,8.57999980822206,15
-32.72588,0.6833333,-33.41369,0.0815765754917841,0.094375551323345,-0.0097970247462555,10.71607,71.41849,0.2092464,0.07688383,0.5809825,-0.05302646,8.59999980777502,15
-32.48353,0.2833333,-33.33315,0.1817932630376653,-0.1259623927367196,0.0393392828972842,3.596589,72.31338,0.09520819,0.02582718,0.5896837,-0.01784415,8.61999980732799,15
-32.42424,0.4833333,-33.3125,0.271187020540566,-0.3311765535244043,0.0841630527535528,7.192136,72.3224,0.1911346,0.05162145,0.5888119,-0.03566565,8.63999980688095,15
-32.36497,0.6833333,-33.29186,0.1653642734445277,0.1446594851000522,0.0630222045419763,10.78688,72.33758,0.2883154,0.07735796,0.5873604,-0.05344992,8.65999980643392,15
-32.30571,0.8833335,-33.27123,0.0548011541474693,0.6100061682725995,0.0396663222760622,14.38054,72.35926,0.3878316,0.1030109,0.5853313,-0.07117631,8.67999980598688,15
-32.24648,0.9766707,-33.2506,0.114332104408529,0.1598867725026749,0.0735455198186727,17.97314,72.38791,0.4905859,0.1285553,0.5827268,-0.08882765,8.69999980553985,15
-32.00562,0.2833333,-33.17178,0.175419096534739,-0.3007211137287455,0.1070147768974472,3.636428,73.01653,0.1182331,0.02611597,0.5946125,-0.0180476,8.71999980509281,15
-31.94553,0.4833339,-33.15127,-0.0112465566641297,0.1331593131299553,0.0570728407615384,7.271724,73.02785,0.2373712,0.05219752,0.5937136,-0.0360716,8.73999980464578,15
-31.88546,0.6833336,-33.13077,-0.016675105442296,-0.0837630087450952,0.0691206439175786,10.90606,73.04698,0.3584175,0.07821976,0.5922171,-0.05405469,8.75999980419874,15
-31.67109,0.2833332,-33.06041,-0.0312408417511846,-0.2855615955237872,0.0777591355988249,3.589535,74.68801,0.1888331,0.02589831,0.6062598,-0.01768891,8.77999980375171,15
-31.61156,0.4833329,-33.0407,-0.0407942596351169,-0.5265982519860831,0.0874860568461493,7.177978,74.70587,0.379058,0.05176331,0.6053652,-0.03535554,8.79999980330467,15
-31.55204,0.6833329,-33.02099,0.00587493053726,-0.5411640917908016,0.1175588697158644,10.76526,74.73602,0.5722838,0.07756984,0.6038761,-0.0529819,8.81999980285764,15
-31.31759,0.2833336,-32.94306,0.0474850898404959,-0.5160397039224464,0.1436389534184066,3.527826,75.71492,0.2538776,0.02566195,0.613353,-0.01714197,8.8399998024106,15
-31.25904,0.4833333,-32.92358,0.098044489216921,-0.504540260255285,0.170130014284016,7.054615,75.73852,0.5096675,0.05129268,0.6124768,-0.03426261,8.85999980196357,15
-31.20051,0.6833332,-32.9041,-0.0272086396108264,0.1603061565117207,0.1375427442525634,10.5802,75.77834,0.7693158,0.07686692,0.6110179,-0.05134545,8.87999980151653,15
-31.14199,0.8833334,-32.88462,-0.1434986766707524,0.6741756545576804,0.1055776940814681,14.10413,75.83514,1.034991,0.1023581,0.6089786,-0.06837187,8.8999998010695,15
-30.94668,0.2833333,-32.81834,-0.0351010912214313,0.1610170641548926,0.1453680282123421,3.466889,75.6231,0.2872468,0.02543421,0.612724,-0.01656555,8.91999980062246,15
-30.88933,0.4833331,-32.79846,-0.133297626729778,0.3581467456356155,0.114895110453034,6.932367,75.64936,0.5768057,0.05083691,0.6118774,-0.03310741,8.93999980017543,15
-30.83201,0.6833331,-32.77859,-0.2337080027815297,0.5729786937414215,0.0813118426030499,10.39654,75.69363,0.8706152,0.07618487,0.6104679,-0.04961311,8.95999979972839,15
-30.61668,0.2833333,-32.70473,-0.1539235055284855,0.1129282900385697,0.1078250051975118,3.415724,74.69444,0.2508215,0.02502011,0.606321,-0.01634072,8.97999979928136,15
-30.56036,0.4833335,-32.68477,-0.0718715729993029,-0.3571228071201825,0.1333844916916895,6.829954,74.71701,0.5034949,0.0500083,0.605509,-0.03265888,8.99999979883432,15
-30.50406,0.6833338,-32.66482,-0.1459178359166024,0.0678021535462369,0.1069588648370434,10.24307,74.75507,0.7597677,0.07494489,0.6041571,-0.04894297,9.01999979838729,15
-30.44777,0.8833334,-32.64487,-0.0227718982963587,-0.1575885028324268,0.1474485614413758,13.65508,74.8093,1.021564,0.09980814,0.6022668,-0.06517908,9.03999979794025,15
-30.17569,0.2833336,-32.55065,0.0966546415502591,-0.3673671612043434,0.1859372892982662,3.362082,72.30618,0.1250081,0.02433004,0.5896648,-0.01642585,9.05999979749322,15
-30.12047,0.4833337,-32.53074,0.0311956800266202,0.1043920215108398,0.1623420079346651,6.722735,72.31726,0.2509444,0.04862948,0.5889027,-0.03282984,9.07999979704618,15
-30.06527,0.6833336,-32.51084,-0.0335674124382485,0.5661501568985268,0.137023471231199,10.08244,72.33592,0.3786215,0.07288051,0.5876339,-0.04920094,9.09999979659915,15
-29.8227,0.2833333,-32.42681,0.0653901212282548,0.1129296559550379,0.1636121473401672,3.305833,70.52163,0.007597995,0.02359101,0.5770575,-0.01659798,9.11999979615211,15
-29.76837,0.4833333,-32.40746,-0.0472171248633443,0.3699963552617591,0.1189259100005486,6.610685,70.52229,0.0152413,0.04715538,0.5763374,-0.03317726,9.13999979570508,15
-29.71406,0.6833332,-32.38811,-0.1641614149160979,0.6447657282068785,0.0708807412798897,9.914182,70.52338,0.02287438,0.07067035,0.5751384,-0.04972294,9.15999979525805,15
-29.65976,0.8833331,-32.36877,-0.2735467829965614,0.884966763599266,0.0235060555565453,13.21673,70.52494,0.03066004,0.09411985,0.5734621,-0.06622255,9.17999979481101,15
-29.4541,0.2833333,-32.29775,-0.1541424755551474,0.1845764487214918,0.0515374597002278,3.253795,68.63929,359.9086,0.02299873,0.5636005,-0.01666544,9.19999979436398,15
-29.40065,0.4833335,-32.27856,-0.0281797914976138,-0.4244260205390779,0.0794750643501736,6.506588,68.63146,359.8167,0.04597177,0.5629186,-0.03331251,9.21999979391694,15
-29.34722,0.6833335,-32.25937,-0.1008109426518935,-0.0393316328275303,0.0418702139919915,9.758434,68.61829,359.7235,0.06890132,0.5617831,-0.04992777,9.23999979346991,15
-29.12438,0.2833333,-32.18144,0.0116043659969342,-0.3050410727137933,0.0657108097367746,3.205725,65.9136,359.8031,0.02253601,0.5438331,-0.01665787,9.25999979302287,15
-29.07192,0.4833331,-32.16174,0.1198563692656229,-0.5556265948181391,0.0864628870553687,6.410499,65.89697,359.605,0.04504793,0.5431925,-0.03329791,9.27999979257584,15
-29.01948,0.683333,-32.14205,0.0514942668047702,-0.1251616127730654,0.0488001906271193,9.61424,65.86902,359.4045,0.06751788,0.5421258,-0.04990672,9.2999997921288,15
-28.77443,0.2833333,-32.05654,0.183607399430727,-0.3454986900132536,0.0798866948950127,3.451961,66.43921,359.7973,0.02422858,0.5476446,-0.01798006,9.31999979168177,15
-28.71775,0.4833331,-32.03569,0.3034437403531207,-0.5507121152672474,0.1069839634103893,6.902981,66.42077,359.5931,0.04842873,0.5468968,-0.03593921,9.33999979123473,15
-28.66109,0.6833332,-32.01485,0.2141540447942063,-0.0748757637164627,0.0649201131968055,10.35328,66.38966,359.3859,0.07257968,0.5456514,-0.05386348,9.3599997907877,15
-28.60447,0.8833333,-31.99402,0.1158177465592977,0.3904718107560028,0.0205329766296706,13.80413,66.3453,359.174,0.0966693,0.5439094,-0.07174227,9.37999979034066,15
-28.54785,0.9766704,-31.9732,0.1792652068205491,-0.0596472722618235,0.033161383580154,17.25382,66.28683,358.9557,0.1206642,0.5416729,-0.08955096,9.39999978989363,15
-28.30093,0.2833333,-31.88949,0.2382491806713744,-0.5202551831475192,0.0461221527934583,3.54668,68.63866,359.8576,0.02485814,0.563566,-0.01847292,9.41999978944659,15
-28.24238,0.4833333,-31.86927,0.1418360813242429,-0.0863744652289978,0.0079350434069347,7.09306,68.6253,359.7136,0.04968753,0.5627548,-0.036931,9.43999978899956,15
-28.18384,0.6833332,-31.84906,0.0499812871568572,0.3370176280669612,-0.0274838353202113,10.63839,68.60275,359.5674,0.07446251,0.5614042,-0.0553481,9.45999978855252,15
-27.96579,0.2833333,-31.77355,0.1956174719645389,-0.1550568220904666,0.0194422645827749,3.591288,70.10149,359.9798,0.02555097,0.5740242,-0.01813964,9.47999978810549,15
-27.90675,0.4833335,-31.75255,0.1541778104685498,0.0626677844430057,0.0039549027294221,7.181878,70.0996,359.9598,0.05107343,0.5731786,-0.03625575,9.49999978765845,15
-27.84772,0.6833338,-31.73155,0.1086007523592691,0.2976065768540222,-0.0119073521870838,10.77143,70.09642,359.9395,0.07653835,0.5717708,-0.05433118,9.51999978721142,15
-27.61119,0.2833333,-31.64899,0.2618350359130126,-0.1428257435923039,0.0413991082780924,3.554728,71.01099,0.0791105,0.02564953,0.580484,-0.0174517,9.53999978676438,15
-27.553,0.4833333,-31.6275,0.4135387072218535,-0.5937465618180009,0.0953884834185068,7.10815,71.01842,0.1591211,0.05126661,0.5796461,-0.03487799,9.55999978631735,15
-27.49482,0.6833333,-31.60602,0.3189483601976981,-0.1501791697523165,0.0657544469301498,10.66055,71.03098,0.2403732,0.07682723,0.5782511,-0.05226572,9.57999978587031,15
-27.43666,0.8833333,-31.58454,0.2227926497276406,0.2828992555800841,0.0362827888910644,14.21192,71.04889,0.3235383,0.1023068,0.5763007,-0.06959813,9.59999978542328,15
-27.23737,0.2833331,-31.51657,0.2898066773996497,-0.1994883427974417,0.0616162923940812,3.624284,71.9244,0.1024526,0.02612022,0.5869346,-0.01784709,9.61999978497624,15
-27.17779,0.4833332,-31.49525,0.1380921163937536,0.0279235392558165,0.012266999701552,7.247459,71.93418,0.2056581,0.0522062,0.5860534,-0.03567121,9.63999978452921,15
-27.11823,0.6833335,-31.47394,-0.018201562180792,0.2725500703907692,-0.0381920402278979,10.8702,71.95065,0.310272,0.07823569,0.5845861,-0.05345936,9.65999978408217,15
-27.05869,0.8833334,-31.45263,0.0053258720149607,-0.1581941266204038,-0.0264627302164583,14.49191,71.97419,0.4174518,0.10418,0.5825347,-0.07118911,9.67999978363514,15
-26.80301,0.2833333,-31.36507,0.0293566889860912,-0.5994267803785753,-0.0135670552556703,3.629557,72.66682,0.1272502,0.02616924,0.5921571,-0.01786895,9.6999997831881,15
-26.74322,0.4833336,-31.34408,-0.1135921189842008,-0.1461710062256586,-0.0567078268037875,7.258005,72.67899,0.2554784,0.05230429,0.5912652,-0.03571466,9.71999978274107,15
-26.68344,0.6833333,-31.3231,-0.2475324904883606,0.2965956628512654,-0.0959950656470951,10.88544,72.69954,0.3857777,0.07837994,0.5897803,-0.05351964,9.73999978229403,15
-26.45604,0.2833333,-31.24531,-0.1258687800114941,-0.1761049069848007,-0.0467882711731277,3.57504,74.42591,0.2090094,0.02594444,0.6044386,-0.017413,9.759999781847,15
-26.39694,0.4833333,-31.22506,-0.1989886956120514,0.0609939734672366,-0.0638462496621485,7.148977,74.44559,0.4195719,0.05185578,0.6035534,-0.03480402,9.77999978139997,15
-26.33786,0.683333,-31.20481,-0.2711766273885381,0.3153076036217699,-0.0805154049874339,10.72181,74.47881,0.6333959,0.0777092,0.6020795,-0.05215618,9.79999978095293,15
-26.09158,0.2833336,-31.12015,-0.1226851814633569,-0.1057485159523347,-0.0227854625025649,3.512645,75.19765,0.2647756,0.02569216,0.6097845,-0.01686984,9.8199997805059,15
-26.03351,0.4833336,-31.10002,-0.196401111957563,0.1829939220678699,-0.042219956183974,7.024198,75.22214,0.5314692,0.05135258,0.6089204,-0.03371891,9.83999978005886,15
-25.97546,0.6833338,-31.0799,-0.2785679699924799,0.4889511108359786,-0.0655652013937775,10.53418,75.26349,0.8022588,0.07695495,0.607482,-0.05052841,9.85999977961183,15
-25.91743,0.8833337,-31.05978,-0.3564099456798359,0.7598520647734357,-0.0885360239754646,14.04293,75.32246,1.07917,0.1024772,0.6054711,-0.06728576,9.87999977916479,15
-25.71095,0.2833333,-30.98824,-0.256715867758448,0.0896741030807695,-0.0534863495337454,3.452812,75.08772,0.2906866,0.02543225,0.6090295,-0.01634791,9.89999977871776,15
-25.65405,0.4833336,-30.96783,-0.1455200047978735,-0.489604325910573,-0.0164351052334659,6.904068,75.11418,0.5836877,0.05083214,0.6081946,-0.03267178,9.91999977827072,15
-25.59717,0.6833337,-30.94742,-0.2378088187270002,-0.0752736403997896,-0.0482763439059894,10.35416,75.15878,0.8808931,0.0761783,0.6068046,-0.04896133,9.93999977782369,15
-25.5403,0.8833338,-30.92702,-0.3203061311498487,0.3280801195947775,-0.0769012713806418,13.803,75.22237,1.184646,0.1014478,0.6048613,-0.06520146,9.95999977737665,15
-25.27713,0.2833336,-30.8362,-0.1606292937966493,-0.1845193184968652,-0.0216722828331157,3.402016,73.45027,0.1983027,0.02482631,0.5976713,-0.0163638,9.97999977692962,15
-25.22123,0.4833337,-30.81598,-0.1844373598387605,0.0121924690338225,-0.0289139313067146,6.802603,73.46803,0.398,0.0496209,0.5968788,-0.03270596,9.99999977648258,15
-25.16533,0.6833337,-30.79576,-0.2096347159945892,0.2256306220889524,-0.0362646684086271,10.20216,73.49798,0.6005008,0.07436486,0.5955593,-0.04901465,10.0199997760355,15
-24.93169,0.2833333,-30.71462,-0.0337596286593608,-0.2367896270847428,0.0250328956097334,3.34358,71.77862,0.1083604,0.02418953,0.5859491,-0.0163367,10.0399997755885,15
-24.87687,0.4833333,-30.69458,-0.0705316001475644,0.0101019716447369,0.0126932834224113,6.685713,71.78816,0.2175072,0.04834854,0.5852004,-0.03265183,10.0599997751415,15
-24.82207,0.6833333,-30.67455,-0.1170574819080556,0.273719838326972,-0.0039500676771737,10.02688,71.80425,0.3281059,0.07245946,0.5839538,-0.04893471,10.0799997746944,15
-24.76729,0.8833334,-30.65452,-0.1607622439290672,0.5017937861644569,-0.0207150087769996,13.36702,71.82714,0.4409893,0.09650169,0.582211,-0.06517109,10.0999997742474,15
-24.57065,0.2833336,-30.5875,-0.0387178732054813,-0.2116984392888693,0.016736619189011,3.291415,70.04512,359.9793,0.02341511,0.5736665,-0.01662979,10.1199997738004,15
-24.51655,0.4833336,-30.56824,-0.0745785600057047,-0.0024411855310505,0.0008507205626067,6.581888,70.04332,359.9584,0.04680419,0.5729567,-0.03324115,10.1399997733533,15
-24.46247,0.6833338,-30.549,-0.107034796491586,0.2235425490948781,-0.014442525908759,9.871009,70.04027,359.9371,0.07014394,0.571775,-0.04981994,10.1599997729063,15
-24.24807,0.2833333,-30.47473,0.0446304298311233,-0.2263324274269416,0.0315239042046968,3.241172,68.00027,359.8897,0.02290782,0.5589935,-0.01661203,10.1799997724593,15
-24.19492,0.4833336,-30.45533,0.2037014254281715,-0.6871842059322522,0.0789178516239772,6.481329,67.99086,359.7787,0.04579023,0.5583221,-0.0332056,10.1999997720122,15
-24.14179,0.6833338,-30.43593,0.1478010130135203,-0.2540353857655729,0.0527298466687859,9.720514,67.97502,359.6664,0.06862926,0.5572043,-0.04976784,10.2199997715652,15
-24.08867,0.8833339,-30.41654,0.0979989441452993,0.1681363091242886,0.0282075384710509,12.95843,67.95254,359.5521,0.09140582,0.5556416,-0.06628235,10.2399997711182,15
-23.81721,0.2833331,-30.32214,0.2955168424510823,-0.3256456062253127,0.0875150147271739,3.268753,65.58488,359.7849,0.02295994,0.5414211,-0.01702432,10.2599997706711,15
-23.76372,0.4833331,-30.30198,0.2935429672696585,-0.1101164152165413,0.0787596286831835,6.536489,65.56638,359.5685,0.04589435,0.5407576,-0.03402965,10.2799997702241,15
-23.71024,0.6833331,-30.28182,0.2841682188216694,0.1221393944803456,0.0678172430204853,9.803196,65.53522,359.3493,0.06878493,0.5396529,-0.05100198,10.2999997697771,15
-23.4639,0.2833334,-30.19655,0.4793567499670246,-0.3214621178807733,0.1278518461215547,3.530412,67.18872,359.8119,0.02475073,0.5530884,-0.01841099,10.31999976933,15
-23.40579,0.4833331,-30.17568,0.4422110702146149,-0.0557531251690249,0.109166276102524,7.059872,67.17123,359.6223,0.04947153,0.5522988,-0.03679967,10.339999768883,15
-23.34771,0.6833331,-30.15483,0.3863445639604457,0.2266824052114889,0.085097963726664,10.59023,67.14161,359.4294,0.07415009,0.5509834,-0.05516141,10.359999768436,15
-23.28965,0.883333,-30.13398,0.3245492536737124,0.4735737929422026,0.0601201961319795,14.11957,67.09935,359.232,0.09875177,0.5491439,-0.07346603,10.3799997679889,15
-23.08131,0.283333,-30.06313,0.428394963220235,-0.2211014303837127,0.0930812528333149,3.563184,68.8825,359.8742,0.02501909,0.5653154,-0.01848822,10.3999997675419,15
-23.02251,0.4833327,-30.04279,0.3535012902211853,0.0069729992139649,0.0659362613098508,7.125581,68.87065,359.7471,0.05000694,0.5644945,-0.0369569,10.4199997670949,15
-22.96374,0.6833327,-30.02245,0.2725425003191475,0.2517737355317173,0.0376723055098686,10.68688,68.85065,359.618,0.07493889,0.5631279,-0.05538449,10.4399997666478,15
-22.90498,0.8833325,-30.00211,0.1985974767363387,0.461030526172505,0.0126996778520798,14.24714,68.82213,359.4859,0.09979153,0.5612175,-0.07375334,10.4599997662008,15
-22.63997,0.2833332,-29.9103,0.3650668540373374,-0.2712800956379122,0.0704434110492826,3.587525,70.64886,0.03934332,0.0257374,0.5779135,-0.01781897,10.4799997657537,15
-22.58113,0.4833332,-29.8889,0.2895199211856365,-0.0808414006243464,0.0466907517852703,7.174211,70.65263,0.07942645,0.05144577,0.577064,-0.03561323,10.4999997653067,15
-22.52232,0.6833332,-29.86751,0.2064658838958841,0.1263236220175129,0.0212322171376619,10.75987,70.65897,0.120121,0.07709634,0.5756496,-0.05336762,10.5199997648597,15
-22.28546,0.2833333,-29.78563,0.3192721065300183,-0.3423692106453104,0.0629633304828622,3.567671,71.47343,0.08110049,0.02568067,0.5837604,-0.01760691,10.5399997644126,15
-22.22689,0.4833333,-29.76451,0.2140416282718718,-0.1017503282592603,0.0304634306680782,7.134197,71.48105,0.1627433,0.05132794,0.5829115,-0.0351916,10.5599997639656,15
-22.16833,0.683333,-29.7434,0.0951805686084945,0.1555947959442685,-0.0065245575605565,10.69972,71.4939,0.2456714,0.07691847,0.5814981,-0.05273713,10.5799997635186,15
-22.10979,0.883333,-29.72229,-0.0237377534373379,0.3773960818868053,-0.0434412749006547,14.26416,71.51225,0.3305093,0.1024268,0.5795222,-0.07022673,10.5999997630715,15
-21.9104,0.2833335,-29.65417,0.0225978809614915,-0.3423696047652197,-0.0252087685455144,3.646182,72.1304,0.110895,0.02628583,0.5883824,-0.01794694,10.6199997626245,15
-21.85043,0.4833334,-29.6328,-0.0931992622790431,-0.1393860543929658,-0.0608968405813286,7.291329,72.14106,0.2226537,0.05253764,0.5874883,-0.03587074,10.6399997621775,15
-21.79047,0.6833334,-29.61144,-0.2052423001037375,0.0803238238689362,-0.094816870131634,10.93542,72.15907,0.3362282,0.0787289,0.5859997,-0.05375309,10.6599997617304,15
-21.57265,0.2833332,-29.53714,-0.2997716474015206,0.264489374269069,-0.1222370573647211,3.618698,72.98002,0.1329207,0.02607357,0.5943563,-0.01784431,10.6799997612834,15
-21.51296,0.4833331,-29.51645,-0.3433826709111294,0.2273772809556904,-0.131588022714542,7.236327,72.99271,0.2668915,0.05211366,0.5934663,-0.03566549,10.6999997608364,15
-21.45328,0.683333,-29.49576,-0.3896426436956339,0.2357402927496675,-0.1409317921526742,10.85284,73.01411,0.4029868,0.07809405,0.5919846,-0.05344584,10.7199997603893,15
-21.39362,0.883333,-29.47508,-0.4243221991172383,0.2362625185340309,-0.1455881220286627,14.46812,73.04461,0.5421168,0.1039868,0.5899131,-0.07116886,10.7399997599423,15
-21.11922,0.2833332,-29.38137,-0.2466447014128796,-0.4646864209837289,-0.0780154964617203,3.551247,75.10748,0.2478572,0.02588241,0.6091581,-0.01717186,10.7599997594953,15
-21.06046,0.483333,-29.36127,-0.3089822750490221,-0.2428855692351901,-0.0926299663426313,7.101379,75.13068,0.4975525,0.05173218,0.6082765,-0.03432212,10.7799997590482,15
-21.00171,0.683333,-29.34117,-0.365310007883842,-0.0043580878217214,-0.1058508076543951,10.6503,75.16982,0.7510459,0.07752418,0.6068089,-0.05143419,10.7999997586012,15
-20.75607,0.2833334,-29.2567,-0.1992715489590395,-0.4416880641954425,-0.0452778963419078,3.484406,75.32129,0.2832398,0.02557735,0.6106396,-0.01661954,10.8199997581542,15
-20.69852,0.4833333,-29.23651,-0.2541585313282226,-0.1697072315430732,-0.0613724328503444,6.96771,75.34729,0.5685057,0.05112345,0.6097874,-0.03321875,10.8399997577071,15
-20.64099,0.6833333,-29.21632,-0.3165023687180373,0.1190006972017218,-0.0811027603949874,10.44936,75.39117,0.8581846,0.07661254,0.6083689,-0.04977825,10.8599997572601,15
-20.58347,0.8833334,-29.19614,-0.373670777445799,0.3721644050651336,-0.1001306676391706,13.92971,75.45371,1.154324,0.1020228,0.6063856,-0.06628679,10.879999756813,15
-20.37718,0.2833335,-29.12501,-0.413034514232379,0.4236844156237834,-0.114152258859125,3.42774,74.80357,0.2732209,0.02520646,0.6070705,-0.01627298,10.899999756366,15
-20.32072,0.4833334,-29.10473,-0.402344055175071,0.3558019234687206,-0.1109193169160285,6.854006,74.82825,0.5485156,0.05038114,0.6062509,-0.03252319,10.919999755919,15
-20.26428,0.6833335,-29.08445,-0.3937094228025053,0.3338831727173306,-0.1081611134895226,10.27911,74.86986,0.8277105,0.07550311,0.6048865,-0.04873946,10.9399997554719,15
-20.20785,0.8833337,-29.06418,-0.3744439372179222,0.3046115565817609,-0.1014701961936452,13.70299,74.92914,1.112917,0.1005498,0.6029788,-0.06490749,10.9599997550249,15
-19.94497,0.2833333,-28.97364,-0.1635716550685728,-0.4256422596036459,-0.0284245570382815,3.376709,72.66673,0.1567609,0.02454511,0.5921921,-0.01635478,10.9799997545779,15
-19.88955,0.4833331,-28.95347,-0.1853873595797246,-0.2326599253056294,-0.0347125119880082,6.752037,72.68067,0.3146873,0.04905972,0.5914196,-0.03268785,10.9999997541308,15
-19.83414,0.683333,-28.93331,-0.2073770117541045,-0.0224630136236842,-0.0410908688460622,10.12631,72.70419,0.4747838,0.07352439,0.5901332,-0.04898768,11.0199997536838,15
-19.60065,0.2833333,-28.85277,-0.0250583949024836,-0.4876361573659468,0.0210128376583575,3.318763,70.92056,0.04210178,0.02379956,0.5798864,-0.01650029,11.0399997532368,15
-19.54617,0.4833333,-28.83315,-0.0531150892784317,-0.2430102632347073,0.0107422591801764,6.636546,70.92422,0.0844715,0.04757213,0.5791569,-0.03298191,11.0599997527897,15
-19.4917,0.683333,-28.81354,-0.0889406589838639,0.0188302632516541,-0.0029033848538695,9.952974,70.93041,0.1273129,0.07129472,0.5779424,-0.04942978,11.0799997523427,15
-19.43726,0.8833331,-28.79393,-0.1201554003230374,0.2456149983358205,-0.0157547779510913,13.26839,70.93921,0.1710211,0.09495043,0.5762444,-0.06583127,11.0999997518957,15
-19.24067,0.283333,-28.72697,0.0138517293792741,-0.4686795883522734,0.0256088560366336,3.266563,69.26802,359.9308,0.02310863,0.5681155,-0.01669536,11.1199997514486,15
-19.18695,0.4833331,-28.70793,-0.0092238259517358,-0.2597376042146401,0.0134945037645088,6.532098,69.26208,359.8612,0.04619115,0.5674229,-0.03337206,11.1399997510016,15
-19.13323,0.6833329,-28.68889,-0.028440421153034,-0.0335809574049705,0.0019441942357651,9.796412,69.25204,359.7906,0.06922712,0.5662699,-0.05001619,11.1599997505546,15
-19.07954,0.8833328,-28.66986,-0.0316643551388153,0.1575194721717968,-0.0048917912470649,13.05972,69.23776,359.7185,0.09219978,0.5646577,-0.06661483,11.1799997501075,15
-18.82711,0.2833332,-28.58251,0.0117826521109911,0.1278292651455903,0.0034090675579427,3.210796,65.82947,359.791,0.02252794,0.543219,-0.01675409,11.1999997496605,15
-18.77451,0.4833333,-28.56289,0.0483401923984683,0.1441024636848029,0.0089813516240084,6.420575,65.81182,359.5807,0.04503148,0.5425769,-0.03348959,11.2199997492135,15
-18.72194,0.6833334,-28.54328,0.0904712799568834,0.153023124314803,0.0162288543986619,9.629333,65.78209,359.368,0.06749316,0.5415076,-0.05019362,11.2399997487664,15
-18.49459,0.2833332,-28.46479,0.3292041373958838,-0.5390386766319999,0.0905121032569091,3.453299,66.41106,359.7948,0.02423064,0.5474396,-0.01799902,11.2599997483194,15
-18.43789,0.4833328,-28.44395,0.3181048268442925,-0.3078633512042922,0.080096517574244,6.905632,66.39239,359.5881,0.0484327,0.5466914,-0.03597691,11.2799997478724,15
-18.38121,0.6833328,-28.42311,0.2997858040246743,-0.0594733513436786,0.0679434328279597,10.35725,66.36089,359.3783,0.07258572,0.5454455,-0.05391968,11.2999997474253,15
-18.13441,0.2833334,-28.33851,0.4862932342826749,-0.4864538280336348,0.1271328647691376,3.549691,68.20795,359.8414,0.02486978,0.5604625,-0.01851128,11.3199997469783,15
-18.07585,0.4833333,-28.31809,0.4409987158947128,-0.203635247771335,0.1082026511742029,7.099092,68.19308,359.6811,0.04971136,0.5596541,-0.03700698,11.3399997465312,15
-18.01731,0.6833335,-28.29768,0.3773941303739381,0.096397530390731,0.0841198250103474,10.6474,68.16796,359.5183,0.07449801,0.5583081,-0.05546172,11.3599997460842,15
-17.95879,0.8833333,-28.27727,0.3082776942493872,0.3613744274195023,0.0592422774746701,14.19466,68.13212,359.3518,0.09920634,0.5564265,-0.07385811,11.3799997456372,15
-17.90029,0.9766707,-28.25687,0.2464258098090752,0.425194819204664,0.0379523798029843,17.74074,68.08485,359.18,0.123812,0.5540113,-0.09217825,11.3999997451901,15
-17.65436,0.2833332,-28.17279,0.2258182866836655,0.3701007904175317,0.0307975962640263,3.586458,70.13961,359.9684,0.02545346,0.5742997,-0.01820511,11.4199997447431,15
-17.59532,0.4833333,-28.15205,0.1937220984259919,0.361458089040899,0.0205037399696124,7.172138,70.13663,359.9367,0.05087664,0.5734559,-0.03638824,11.4399997442961,15
-17.53629,0.6833331,-28.13131,0.1634001728487604,0.3459503047370458,0.0115193479544259,10.75686,70.13161,359.9045,0.0762434,0.5720512,-0.0545307,11.459999743849,15
-17.31956,0.2833334,-28.05621,0.3177881283211992,-0.37005260777775,0.0656760672458709,3.553389,71.06929,0.07602831,0.02561552,0.5808989,-0.01747984,11.479999743402,15
-17.26135,0.4833331,-28.03484,0.2311001468876519,-0.1623299971079362,0.038615083200554,7.105569,71.07646,0.1530595,0.05119997,0.5800611,-0.03493385,11.499999742955,15
-17.20316,0.6833332,-28.01347,0.1379983343193203,0.0630951634933182,0.009831497197311,10.65666,71.08853,0.2312555,0.07672741,0.5786661,-0.05234911,11.5199997425079,15
-16.96512,0.2833334,-27.9317,0.2422493235393421,-0.3863620512358305,0.047721553074421,3.624022,71.994,0.101789,0.02610413,0.587426,-0.01786629,11.5399997420609,15
-16.90551,0.4833334,-27.91047,0.1292540731894966,-0.1255326413877087,0.0117066246067274,7.247004,72.00371,0.2043226,0.0521745,0.5865442,-0.03570995,11.5599997416139,15
-16.84593,0.6833336,-27.88924,0.0035227037186249,0.1529989992801726,-0.0286482139905324,10.86953,72.02008,0.3082565,0.07818832,0.5850759,-0.05351752,11.5799997411668,15
-16.78636,0.8833336,-27.86801,-0.1214715116743967,0.3969629107373582,-0.0687697255851311,14.49103,72.04346,0.414701,0.1041168,0.583023,-0.07126684,11.5999997407198,15
-16.58792,0.2833332,-27.80062,0.0180056609072067,-0.2996637196245196,-0.0183811811978351,3.637534,72.42734,0.1106392,0.02617707,0.5904756,-0.01797223,11.6199997402728,15
-16.528,0.4833331,-27.77962,-0.0165665308142539,-0.0725652510643791,-0.0255144815426326,7.273996,72.43795,0.2221381,0.05232011,0.5895826,-0.03592115,11.6399997398257,15
-16.46808,0.6833332,-27.75862,-0.0585202295652074,0.1722357459962783,-0.0342680816764797,10.90935,72.45586,0.3354474,0.07840276,0.5880958,-0.0538284,11.6599997393787,15
-16.40819,0.8833331,-27.73763,-0.0936817978210378,0.3824686097949203,-0.039866570709286,14.54383,72.48141,0.451342,0.1043995,0.5860171,-0.07167871,11.6799997389317,15
-16.15337,0.283333,-27.65121,0.0561313698262448,-0.3478897354590102,0.0178769359821266,3.581315,74.58326,0.2144867,0.02599298,0.6055288,-0.01744376,11.6999997384846,15
-16.09413,0.483333,-27.631,-0.0163170522131128,-0.154523395076702,0.0005765179920231,7.161489,74.60349,0.4305464,0.05195235,0.6046387,-0.03486546,11.7199997380376,15
-16.03491,0.683333,-27.61079,-0.0837843090723833,0.0565450456232382,-0.0149986496657454,10.74049,74.63766,0.649991,0.07785326,0.6031569,-0.05224765,11.7399997375906,15
-15.8084,0.2833333,-27.53347,0.0542306211376892,-0.4072689261193105,0.037266250488809,3.514551,75.33789,0.266028,0.02569132,0.6107527,-0.01690278,11.7599997371435,15
-15.75027,0.4833334,-27.51345,-0.0020967719386142,-0.1607958445789993,0.0228046893766666,7.027967,75.36252,0.533997,0.05135066,0.6098863,-0.03378444,11.7799997366965,15
-15.69214,0.6833334,-27.49344,-0.0577863772437527,0.1033798574579871,0.0074127474038867,10.53986,75.40408,0.8060178,0.07695183,0.608444,-0.0506271,11.7999997362494,15
-15.44702,0.2833332,-27.40909,-0.0999048588889532,0.3329874488835303,-0.0046364147864537,3.453718,75.21088,0.2907728,0.02542139,0.6098807,-0.01637947,11.8199997358024,15
-15.39006,0.4833335,-27.3888,-0.1019622624019511,0.3422918593850315,-0.0046012889798703,6.905851,75.23737,0.5838464,0.05081012,0.6090443,-0.03273479,11.8399997353554,15
-15.33312,0.6833332,-27.36851,-0.1214046053769308,0.3980478253708452,-0.0113433268690954,10.35688,75.282,0.8811481,0.07614563,0.6076517,-0.04905587,11.8599997349083,15
-15.27619,0.8833334,-27.34823,-0.1454340894492798,0.446938471730988,-0.0203799110238129,13.80658,75.34562,1.18497,0.1014038,0.6057047,-0.06532729,11.8799997344613,15
-15.21928,0.9766704,-27.32795,-0.1612576031799282,0.4356484285729394,-0.0272288160429923,17.25495,75.42944,1.497844,0.1265626,0.6032055,-0.0815346,11.8999997340143,15
-14.97516,0.2833332,-27.24457,-0.0076819058473507,-0.4148442563384786,0.0244038805769228,3.402039,73.60705,0.1990049,0.02480772,0.5987667,-0.01639296,11.9199997335672,15
-14.9192,0.4833333,-27.22449,-0.0631505548454232,-0.2424907099562107,0.006038911948007,6.802604,73.62487,0.399413,0.04958348,0.5979727,-0.032764,11.9399997331202,15
-14.86325,0.6833332,-27.20441,-0.1157396979047433,-0.0529227258394843,-0.0105650968543429,10.20215,73.65492,0.6025957,0.07430843,0.5966508,-0.04910178,11.9599997326732,15
-14.64831,0.2833333,-27.13057,0.016263927928696,-0.5387251225311142,0.0349474158429998,3.343627,71.91972,0.108375,0.0241698,0.5869458,-0.01636661,11.9799997322261,15
-14.59345,0.4833333,-27.11067,-0.0337109996330955,-0.3147285538310617,0.0181025182323502,6.685815,71.92926,0.2175386,0.04830917,0.5861958,-0.03271164,11.9999997317791,15
-14.5386,0.6833333,-27.09077,-0.0838873256061898,-0.0735172929261178,0.0003807386641554,10.02702,71.94535,0.3281729,0.07240053,0.5849471,-0.04902418,12.0199997313321,15
-14.30526,0.2833332,-27.01091,-0.1216195157246389,0.1326377951758889,-0.0140673540707858,3.291794,70.1772,359.9792,0.02339825,0.5746096,-0.01665921,12.039999730885,15
-14.25111,0.4833331,-26.99178,-0.1182538501551597,0.1180020125899968,-0.0157825074761532,6.582619,70.17541,359.9583,0.04677036,0.5738986,-0.03329972,12.059999730438,15
-14.19697,0.683333,-26.97266,-0.1301829207674547,0.1493295754583954,-0.023379647928909,9.8721,70.17234,359.9369,0.07009313,0.5727147,-0.0499078,12.079999729991,15
-14.14285,0.8833331,-26.95354,-0.1449220297637765,0.1733040606370831,-0.0326604487833535,13.16064,70.16797,359.915,0.09335146,0.5710595,-0.06646998,12.0999997295439,15
-13.85427,0.2833336,-26.8541,0.0503522076524642,-0.5037043370616276,0.027829631138271,3.234872,67.22304,359.8451,0.02275868,0.5533696,-0.01675006,12.1199997290969,15
-13.8012,0.4833335,-26.83474,0.0766641983412768,-0.2574749523904851,0.0307958539118651,6.468814,67.20985,359.6893,0.04549303,0.552707,-0.03348175,12.1399997286499,15
-13.74813,0.6833338,-26.81539,0.0945566151047447,0.0059688956276793,0.0301798890933753,9.701694,67.18764,359.5315,0.06818385,0.5516033,-0.05018164,12.1599997282028,15
-13.69508,0.8833337,-26.79604,0.1167456097156236,0.2343566626648331,0.0304022741286722,12.93329,67.15612,359.3709,0.09081317,0.5500606,-0.06683322,12.1799997277558,15
-13.4884,0.2833334,-26.72478,0.155994595231439,0.2615881919964476,0.0359040016701648,3.284529,65.81058,359.7921,0.02307625,0.5430715,-0.0170912,12.1999997273088,15
-13.43462,0.4833334,-26.70459,0.1884762613375805,0.1699057032389692,0.0392638652092323,6.568093,65.79261,359.583,0.04612718,0.5423998,-0.03416323,12.2199997268617,15
-13.38086,0.6833333,-26.68442,0.2125925754974336,0.1246744939773262,0.0402169576217836,9.850643,65.76234,359.3712,0.06913362,0.5412814,-0.05120229,12.2399997264147,15
-13.15239,0.2833334,-26.60654,0.2412302569850783,0.0725783832543695,0.0433138132000046,3.535074,67.39886,359.8138,0.02476026,0.5546132,-0.01846467,12.2599997259676,15
-13.09414,0.4833332,-26.58583,0.2545626784877406,0.0402751106826404,0.0421736880642988,7.069171,67.38152,359.6262,0.04949011,0.5538195,-0.03690714,12.2799997255206,15
-13.03593,0.683333,-26.56513,0.2548489904000171,0.0544230679497286,0.0379360713920817,10.60418,67.35217,359.4352,0.07417749,0.5524969,-0.05532287,12.2999997250736,15
-12.97773,0.883333,-26.54444,0.2552174454742761,0.0617060592013803,0.0351636242418891,14.13806,67.31028,359.2397,0.09878691,0.5506477,-0.07368059,12.3199997246265,15
-12.69296,0.2833333,-26.44785,0.2339564969729046,0.0887823160030871,0.0255418103494378,3.566721,69.49937,359.8959,0.02505242,0.5697392,-0.01848472,12.3399997241795,15
-12.63403,0.4833336,-26.42776,0.1907541289429186,0.1623093634839094,0.0094184379234967,7.13261,69.48956,359.7906,0.05007284,0.5689107,-0.03695011,12.3599997237325,15
-12.57511,0.6833334,-26.40768,0.1389985129083868,0.2289718178996402,-0.0087256092454559,10.69751,69.47299,359.6837,0.07503818,0.5675313,-0.0553745,12.3799997232854,15
-12.51621,0.8833333,-26.3876,0.0920659532370997,0.2354531760452214,-0.0243972073477181,14.26134,69.44933,359.5742,0.09992364,0.5656028,-0.07373989,12.3999997228384,15
-12.31828,0.2833333,-26.31898,0.3134824005126688,-0.5972675020954225,0.0518133349243292,3.589814,70.82034,0.05457518,0.02580396,0.5791293,-0.01776075,12.4199997223914,15
-12.25944,0.4833334,-26.29749,0.3106448451712218,-0.4071423562170409,0.0533709361941845,7.178792,70.82556,0.1101936,0.05157975,0.5782769,-0.03549555,12.4399997219443,15
-12.20061,0.6833335,-26.27601,0.2982208622252802,-0.199802847438199,0.0524424719201448,10.76674,70.83437,0.1666636,0.07729751,0.5768577,-0.0531906,12.4599997214973,15
-11.98322,0.2833332,-26.20189,0.2900869067562421,-0.027519294888005,0.0536527354159765,3.568295,71.63776,0.08553351,0.02568244,0.5849222,-0.01761556,12.4799997210503,15
-11.9246,0.4833333,-26.18086,0.2700542916782211,-0.0760265965604892,0.050276528619733,7.135395,71.64579,0.1715495,0.05133064,0.5840712,-0.03520927,12.4999997206032,15
-11.866,0.6833332,-26.15984,0.2411658527031974,-0.0785706297035002,0.0440002474250711,10.7015,71.65933,0.2588648,0.07692189,0.5826545,-0.05276423,12.5199997201562,15
-11.80741,0.8833332,-26.13882,0.2175065747684339,-0.0884675645587199,0.0395309851193914,14.26652,71.67866,0.3482279,0.1024311,0.5806738,-0.07026295,12.5399997197092,15
-11.5315,0.2833333,-26.04488,-0.0011248055050323,0.5612551164149819,-0.0304082503716891,3.638557,72.44205,0.1165596,0.02621247,0.5905775,-0.0179392,12.5599997192621,15
-11.47157,0.4833334,-26.02378,0.0112086396291104,0.3263518136134538,-0.0218886480460902,7.276053,72.45322,0.2340458,0.05239104,0.5896837,-0.03585505,12.5799997188151,15
-11.41166,0.6833333,-26.0027,0.0187529667939045,0.1128445152514349,-0.01414120364009,10.9125,72.4721,0.3533912,0.07850929,0.5881957,-0.05372993,12.5999997183681,15
-11.16403,0.2833333,-25.91862,0.0359687474457359,-0.1336283444004102,-0.0022792135611133,3.603456,73.7128,0.1615678,0.02600242,0.5994788,-0.017731,12.619999717921,15
-11.10447,0.4833334,-25.89829,-0.0138430054122036,-0.1473581996806949,-0.0127731789266505,7.205818,73.72813,0.3243837,0.05197147,0.5985882,-0.03543913,12.639999717474,15
-11.04493,0.6833333,-25.87796,-0.0802540618522771,-0.1151246140258223,-0.0280710164942483,10.80708,73.75404,0.4897308,0.07788139,0.5971053,-0.05310729,12.6599997170269,15
-10.98541,0.8833334,-25.85764,-0.1488477437372504,-0.0902441311505247,-0.0434973089269874,14.40702,73.79094,0.6587454,0.1037039,0.5950321,-0.07071887,12.6799997165799,15
-10.9259,0.9766704,-25.83732,-0.2051798045731994,-0.126032375940458,-0.0543737378730391,18.00583,73.83968,0.8332751,0.1294168,0.5923713,-0.08825554,12.6999997161329,15
-10.68138,0.2833333,-25.7545,-0.2586334963547472,-0.1691729140134514,-0.0667066768541815,3.537049,75.44108,0.2620178,0.02580991,0.6114618,-0.01707366,12.7199997156858,15
-10.6228,0.4833334,-25.73456,-0.3061458949281812,-0.1663502292936996,-0.078284968548246,7.072957,75.4655,0.5259514,0.05158725,0.6105835,-0.03412591,12.7399997152388,15
-10.56425,0.6833333,-25.71463,-0.3341636216125101,-0.1708799445760402,-0.0846742673737317,10.6077,75.50669,0.7938937,0.07730786,0.6091211,-0.05114053,12.7599997147918,15
-10.34818,0.2833333,-25.64071,-0.5388631034372233,0.4842095270907181,-0.1507712344624252,3.469868,75.41717,0.2907485,0.02550317,0.6113025,-0.01651154,12.7799997143447,15
-10.29087,0.4833335,-25.62056,-0.5155596877313586,0.2546724008904528,-0.1423419295039494,6.938262,75.44376,0.5838089,0.05097414,0.6104563,-0.03299932,12.7999997138977,15
-10.23358,0.6833334,-25.6004,-0.487477135987902,0.0465315043286323,-0.1337005106723054,10.40537,75.48862,0.8811305,0.07639003,0.6090474,-0.04945143,12.8199997134507,15
-9.99861,0.2833333,-25.51991,-0.4415877631125076,-0.1945747283240826,-0.120362714015112,3.416492,74.6247,0.2543608,0.0250541,0.6058364,-0.01630499,12.8399997130036,15
-9.942317,0.4833333,-25.49982,-0.4568359715396504,-0.2029379304699625,-0.1271728342897127,6.831514,74.6476,0.5105612,0.05007619,0.6050245,-0.03258786,12.8599997125566,15
-9.886039,0.6833332,-25.47974,-0.4818912267331869,-0.1653382247531336,-0.1363927660940547,10.24543,74.68619,0.7703717,0.07504649,0.6036728,-0.04883708,12.8799997121096,15
-9.829777,0.8833331,-25.45967,-0.5041341758722764,-0.1350910092922004,-0.1437055460682188,13.65817,74.74117,1.035751,0.09994264,0.6017829,-0.06503823,12.8999997116625,15
-9.539142,0.2833332,-25.36003,-0.5109292091250808,-0.1655125482415999,-0.1447759597199258,3.362416,72.36375,0.128436,0.02434178,0.5900694,-0.01641565,12.9199997112155,15
-9.483917,0.4833332,-25.34012,-0.4161431211050157,-0.2032863266353962,-0.1125994751927947,6.723381,72.37513,0.2577845,0.0486526,0.5893066,-0.03280961,12.9399997107685,15
-9.428709,0.6833332,-25.32022,-0.3290378647790044,-0.1950969879100654,-0.0837094053767835,10.08336,72.39429,0.3888965,0.07291461,0.5880365,-0.04917067,12.9599997103214,15
-9.373517,0.8833332,-25.30032,-0.2364799045848284,-0.194260608394543,-0.0537861559609567,13.4423,72.42159,0.5227411,0.09710685,0.5862609,-0.06548464,12.9799997098744,15
-9.167654,0.2833332,-25.23058,-0.3156920297832668,0.4661955567420543,-0.0817275763607909,3.305753,70.64166,0.009844596,0.02358438,0.5779117,-0.0166063,12.9999997094274,15
-9.1133,0.4833332,-25.21131,-0.2346524348452279,0.2420249223344444,-0.0575363149505641,6.610519,70.64252,0.01975039,0.04714208,0.5771906,-0.03319383,13.0199997089803,15
-9.05896,0.683333,-25.19204,-0.1477317684654782,0.0392503949037309,-0.0321123572687973,9.913933,70.64394,0.02963735,0.07065022,0.5759898,-0.04974802,13.0399997085333,15
-9.004635,0.883333,-25.17277,-0.0420372026856803,-0.1964893794094809,-0.001154630201249,13.21639,70.64595,0.03970979,0.09409281,0.574311,-0.06625618,13.0599997080863,15
-8.742794,0.2833335,-25.08357,0.002968836304638,-0.1994858082858207,0.0078078517436175,3.24961,68.14809,359.8786,0.02289315,0.5600632,-0.01676292,13.0799997076392,15
-8.689388,0.4833333,-25.06444,0.040353436008016,-0.1565192139557786,0.0133250600783298,6.498281,68.13773,359.7565,0.04576124,0.5593868,-0.03350776,13.0999997071922,15
-8.635998,0.6833331,-25.0453,0.0825854762841737,-0.120905206930619,0.0196918390105125,9.74598,68.12025,359.6328,0.06858612,0.5582608,-0.05022044,13.1199997067451,15
-8.404279,0.2833333,-24.96518,-0.0832400359236542,0.5743281577940919,-0.0444295453922833,3.197696,65.62817,359.7881,0.02244771,0.5417463,-0.01667364,13.1399997062981,15
-8.351941,0.4833334,-24.94552,-0.015719267964835,0.3849348404090795,-0.0301631276496578,6.394389,65.61034,359.575,0.04487114,0.541111,-0.03332922,13.1599997058511,15
-8.299619,0.6833334,-24.92587,0.0390775633946631,0.2169377330610585,-0.0200904106092494,9.590066,65.58034,359.3592,0.06725315,0.5400531,-0.04995375,13.179999705404,15
-8.247308,0.8833333,-24.90622,0.093933970108238,0.0159754547099473,-0.0097114491553753,12.78441,65.53777,359.1399,0.08957615,0.5385742,-0.0665302,13.199999704957,15
-8.044495,0.2833334,-24.83819,0.3611020739244663,-0.7845808573068855,0.0731962131838948,3.530941,67.01307,359.7974,0.02471304,0.5518146,-0.0184809,13.21999970451,15
-7.986328,0.4833334,-24.81738,0.406581981126795,-0.5627794867731839,0.0823650331066687,7.060919,66.99422,359.5933,0.04939611,0.5510263,-0.03693942,13.2399997040629,15
-7.928187,0.6833336,-24.79656,0.4418550807875023,-0.324251668040463,0.089423969888827,10.59106,66.96233,359.3856,0.07403201,0.5497132,-0.05536697,13.2599997036159,15
-7.870071,0.8833335,-24.77576,0.4799956632904205,-0.1212676135187965,0.0989208571779052,14.12155,66.91682,359.173,0.09860077,0.5478764,-0.07374437,13.2799997031689,15
-7.614308,0.2833334,-24.69013,0.3449470821743148,0.6003605147426768,0.0505787743359888,3.563747,69.29562,359.8777,0.02497376,0.5682825,-0.01855584,13.2999997027218,15
-7.55538,0.4833333,-24.67015,0.4175750195611414,0.3253121276374661,0.0731641452041884,7.126702,69.2841,359.754,0.0499157,0.5674571,-0.03709287,13.3199997022748,15
-7.496469,0.6833332,-24.65018,0.4861662316627653,0.0716599239112694,0.095842444390346,10.68862,69.26463,359.6284,0.0748022,0.5660831,-0.05558893,13.3399997018278,15
-7.268884,0.2833332,-24.57231,0.3509263333812162,0.505330664428092,0.0507184673684477,3.592851,70.68195,0.0173451,0.02565916,0.578153,-0.01800979,13.3599997013807,15
-7.209822,0.4833332,-24.55127,0.3848475947739551,0.2944705329153959,0.0630775067752402,7.184906,70.68363,0.0352467,0.05128954,0.5773007,-0.03599491,13.3799997009337,15
-7.150777,0.6833332,-24.53025,0.4096446482832547,0.1050065298105243,0.073491611459147,10.77594,70.68647,0.05342789,0.07686225,0.5758817,-0.05393956,13.3999997004867,15
-7.091749,0.883333,-24.50923,0.4390113810430787,-0.1174225797433157,0.0864956693958305,14.36596,70.69052,0.07203703,0.1023523,0.5738978,-0.07182626,13.4199997000396,15
-6.807456,0.2833334,-24.41237,0.3953692704978193,-0.107108203949455,0.0746107761061267,3.570072,71.80447,0.08987596,0.02569154,0.5860994,-0.01763131,13.4399996995926,15
-6.748771,0.4833334,-24.39143,0.3287303467134244,-0.0508305583193575,0.0554210566769413,7.138983,71.81293,0.1804393,0.05134994,0.5852459,-0.03523972,13.4599996991456,15
-6.690103,0.6833333,-24.37049,0.2527431216346687,-0.0019054924149114,0.0334386091261365,10.70686,71.82721,0.2724366,0.0769514,0.5838248,-0.05280869,13.4799996986985,15
-6.631451,0.8833333,-24.34956,0.1810532636885526,-0.0136491887613749,0.0131631085049548,14.27369,71.84757,0.3665657,0.1024707,0.5818381,-0.07032165,13.4999996982515,15
-6.432017,0.2833333,-24.28248,0.1970869111097353,-0.0327453575917502,0.0234084490213675,3.646797,72.44272,0.1131124,0.02625258,0.5905816,-0.01800608,13.5199996978045,15
-6.371929,0.4833332,-24.2614,0.1938508207374152,-0.0058783883947837,0.0277146272255528,7.292561,72.45358,0.227089,0.05247109,0.5896838,-0.03598907,13.5399996973574,15
-6.311857,0.6833332,-24.24033,0.1856468480016859,0.013635909777316,0.0308513652299353,10.93726,72.47194,0.3429344,0.07862917,0.5881891,-0.05393031,13.5599996969104,15
-6.093878,0.2833333,-24.16707,0.1867804837491249,-0.0275183921756858,0.0376210803728689,3.618904,73.27627,0.1332649,0.02603058,0.5964317,-0.01791032,13.5799996964633,15
-6.034076,0.4833332,-24.14668,0.1240337066637629,-0.0760256175331755,0.0234494552641422,7.23674,73.28899,0.267548,0.05202758,0.5955385,-0.03579768,13.5999996960163,15
-5.974291,0.6833332,-24.1263,0.051060742732151,-0.078569503708836,0.0069932762758071,10.85346,73.31044,0.4039765,0.07796502,0.5940514,-0.05364392,13.6199996955693,15
-5.914523,0.8833331,-24.10591,-0.0178721244641368,-0.0884658602775885,-0.0071334484343523,14.46897,73.34102,0.5434203,0.103815,0.5919724,-0.07143291,13.6399996951222,15
-5.64002,0.2833332,-24.01356,-0.282592936156075,0.56125691251804,-0.0875084721739867,3.551401,75.39002,0.2476433,0.02583991,0.61111,-0.01723792,13.6599996946752,15
-5.581158,0.4833332,-23.99375,-0.3098434444871478,0.3263529888295484,-0.0903117066753189,7.101665,75.41319,0.4970943,0.05164694,0.6102256,-0.03445424,13.6799996942282,15
-5.522313,0.6833334,-23.97395,-0.3370873336248583,0.112845141278335,-0.09434784653034,10.65072,75.45228,0.7503567,0.0773964,0.6087531,-0.05163212,13.6999996937811,15
-5.276565,0.2833334,-23.89069,-0.3503180087686921,-0.1336277710796458,-0.0951153262363249,3.484522,75.59752,0.2830387,0.02553694,0.6125454,-0.01668315,13.7199996933341,15
-5.218919,0.4833333,-23.87078,-0.3237626830099955,-0.147357595607425,-0.0830425551830593,6.96794,75.6235,0.5681041,0.05104268,0.6116905,-0.03334588,13.7399996928871,15
-5.161285,0.6833333,-23.85088,-0.3043932548324042,-0.1151240814760832,-0.0749135967782486,10.44971,75.66734,0.8575475,0.07649136,0.6102674,-0.04996901,13.75999969244,15
-5.103669,0.8833334,-23.83098,-0.2789550630099802,-0.0902436518296216,-0.0662657573812985,13.9302,75.72986,1.153478,0.1018616,0.6082779,-0.06654087,13.779999691993,15
-5.046068,0.9766706,-23.81108,-0.2341867957611674,-0.1260319177020092,-0.0526068888992057,17.40933,75.81226,1.458389,0.1271302,0.6057241,-0.0830462,13.799999691546,15
-4.801958,0.2833333,-23.72825,-0.1421442606049212,-0.1691727910034355,-0.0221366543612866,3.424967,74.78281,0.2597006,0.02511858,0.6069301,-0.01634743,13.8199996910989,15
-4.745492,0.4833333,-23.70819,-0.0623471321744995,-0.1663503031694048,0.0049949036319603,6.848421,74.80625,0.5213887,0.05020526,0.6061126,-0.03267171,13.8399996906519,15
-4.689042,0.6833333,-23.68813,0.0184953496657847,-0.1708802909555209,0.0333236923317699,10.27075,74.84576,0.7867884,0.07523969,0.6047515,-0.04896197,13.8599996902049,15
-4.473685,0.2833331,-23.61503,-0.0888300405774227,0.4842090716400346,-0.0021277596568118,3.370059,72.98057,0.1556735,0.02444795,0.5943967,-0.01639507,13.8799996897578,15
-4.418262,0.483333,-23.59522,-0.0337169732896098,0.254671972620452,0.0161089544772607,6.738637,72.99438,0.3124048,0.04886438,0.5936242,-0.03276856,13.8999996893108,15
-4.362855,0.683333,-23.57542,0.01836736872003,0.0465308526891665,0.0333140048573383,10.10618,73.01766,0.4712915,0.07323143,0.5923383,-0.04910886,13.9199996888638,15
-4.129326,0.2833332,-23.49611,0.0806597928013597,-0.194575294675442,0.053821063994512,3.31689,71.22324,0.04184931,0.02374133,0.5820353,-0.01655538,13.9399996884167,15
-4.074776,0.4833332,-23.47679,-0.1040477630802672,0.4373756249376935,-0.0091027412315867,6.632794,71.22689,0.0839502,0.04745563,0.581304,-0.0330921,13.9599996879697,15
-4.020239,0.6833333,-23.45748,-0.0610980882902061,0.1846998321241937,0.0025404182092714,9.947322,71.23303,0.1265128,0.07111995,0.5800864,-0.04959492,13.9799996875226,15
-3.965717,0.8833332,-23.43818,-0.0252313137139601,-0.0465797671175381,0.010961168221879,13.26091,71.24177,0.1699483,0.09471819,0.578384,-0.06605155,13.9999996870756,15
-3.676316,0.2833334,-23.34004,0.0165550896717368,-0.3108246466949171,0.0204494221591211,3.260424,68.88535,359.9026,0.02298122,0.5653722,-0.01679029,14.0199996866286,15
-3.622643,0.4833333,-23.32113,0.0983703346376008,-0.3423260942405534,0.0426247828694776,6.5199,68.87699,359.8047,0.04593708,0.5646852,-0.03356234,14.0399996861815,15
-3.568985,0.6833331,-23.30224,0.1679995870642256,-0.3278642980852264,0.0596914818276985,9.778385,68.86291,359.7054,0.06884884,0.5635414,-0.05030236,14.0599996857345,15
-3.51534,0.8833331,-23.28334,0.238483515788061,-0.3207550939391264,0.0760804670298505,13.03553,68.84288,359.6042,0.09169548,0.5619422,-0.06699522,14.0799996852875,15
-3.31027,0.2833334,-23.21329,0.1332825011296076,0.3459733313932783,0.0335558955176225,3.207373,66.19018,359.8018,0.02250179,0.545856,-0.01672926,14.0999996848404,15
-3.257684,0.4833333,-23.19385,0.2840046990363082,0.1280751792441725,0.0761729858951341,6.413776,66.17345,359.6025,0.04497942,0.5452123,-0.03344046,14.1199996843934,15
-3.205114,0.6833333,-23.17442,0.4213907348729475,-0.0684268701096798,0.1141800929469489,9.619147,66.1453,359.4008,0.06741527,0.5441405,-0.05012003,14.1399996839464,15
-3.152555,0.8833332,-23.155,0.5590359326036525,-0.2978940632859344,0.1522888749213251,12.82321,66.10536,359.1956,0.08979166,0.5426422,-0.06675133,14.1599996834993,15
-2.886018,0.2833333,-23.06526,0.4527326001821086,0.3456960537478227,0.1088312393271735,3.463223,67.11441,359.803,0.02423167,0.5525593,-0.01813522,14.1799996830523,15
-2.828957,0.4833333,-23.04492,0.5029543194648449,0.1046597154389117,0.1188470424553393,6.925468,67.09644,359.6046,0.04843447,0.5518,-0.0362491,14.1999996826053,15
-2.771917,0.6833334,-23.02458,0.5443705356784192,-0.114980877605277,0.1272746137740554,10.38735,67.06607,359.403,0.07258949,0.5505354,-0.05433054,14.2199996821582,15
-2.534588,0.2833333,-22.94507,0.3661075312632531,0.352701355636359,0.0625840989614445,3.541222,68.9478,359.8547,0.02475468,0.5657923,-0.01853375,14.2399996817112,15
-2.476,0.4833334,-22.92525,0.1815802619374709,0.8161671126793847,-0.0033000573135026,7.081987,68.93419,359.7079,0.04948048,0.5649804,-0.03705071,14.2599996812642,15
-2.417428,0.6833333,-22.90543,0.2231179023491862,0.3704391374834948,0.0076300186355346,10.62172,68.91123,359.5589,0.07415197,0.5636286,-0.05552726,14.2799996808171,15
-2.358872,0.8833332,-22.88561,0.2562411099050262,-0.0795053277626974,0.0173743633981331,14.16038,68.87849,359.4063,0.09874561,0.5617388,-0.07394555,14.2999996803701,15
-2.06422,0.2833332,-22.78599,0.2948716136449323,-0.4610266025716091,0.0305862315997025,3.584165,70.77895,0.006066295,0.02552517,0.5788468,-0.01806783,14.3199996799231,15
-2.005198,0.4833332,-22.76529,0.318653865050526,-0.5106836595308228,0.0395291382253155,7.167643,70.77954,0.01247873,0.05102199,0.5779976,-0.03611241,14.339999679476,15
-1.946194,0.6833333,-22.7446,0.3274540111902102,-0.5148654683356215,0.0444813716585237,10.75009,70.78056,0.01898037,0.07646152,0.5765837,-0.05411658,14.359999679029,15
-1.887207,0.8833332,-22.72392,0.3354243536232199,-0.526887865218904,0.0500881891315785,14.33152,70.78201,0.02564635,0.1018193,0.5746069,-0.07206275,14.379999678582,15
-1.679826,0.2833334,-22.65384,0.1659330077524565,0.1202213354424986,-0.0027020038687375,3.559177,71.64592,0.0791067,0.02558389,0.5849829,-0.01761629,14.3999996781349,15
-1.621321,0.4833333,-22.63297,0.2539890067122278,-0.1177836516902365,0.0307287472415431,7.117188,71.65335,0.15895,0.05113551,0.5841362,-0.0352088,14.4199996776879,15
-1.562833,0.6833333,-22.6121,0.3311119061332027,-0.3348804921100079,0.060844535211288,10.67416,71.66589,0.2400226,0.07663052,0.5827268,-0.0527623,14.4399996772408,15
-1.504362,0.8833333,-22.59125,0.1982559675458123,0.1348574432383034,0.0210842653558458,14.23009,71.68379,0.3229759,0.1020443,0.5807562,-0.07026002,14.4599996767938,15
-1.238068,0.2833333,-22.50197,0.0603891038046251,0.5998910525020436,-0.0199133005790912,3.633705,72.57014,0.1140788,0.02614549,0.5914799,-0.01796089,14.4799996763468,15
-1.178156,0.4833333,-22.48107,0.0926346019602999,0.1552429467866033,-0.0045000496473051,7.266351,72.58106,0.229059,0.05225721,0.5905871,-0.03589846,14.4999996758997,15
-1.118265,0.6833333,-22.46019,0.1275775297118988,-0.2941093916233682,0.012329898587339,10.8984,72.59949,0.3456922,0.07831128,0.5891005,-0.05379857,14.5199996754527,15
-0.8802445,0.2833334,-22.38054,-0.1018782349887921,0.156811279983452,-0.0591485912120397,3.615183,73.41246,0.1336229,0.02598513,0.597385,-0.01791935,14.5399996750057,15
-0.8204566,0.4833333,-22.3603,-0.1494205533530561,-0.0372867143086064,-0.0691968020784585,7.229297,73.42519,0.2682659,0.05193677,0.5964922,-0.03581572,14.5599996745586,15
-0.7606857,0.6833334,-22.34007,-0.2049865534977231,-0.2104762529687752,-0.0806444174090401,10.84231,73.44668,0.405035,0.07782906,0.5950058,-0.05367125,14.5799996741116,15
-0.7009315,0.8833333,-22.31985,-0.2537921119040049,-0.4171189155780879,-0.0887053195638891,14.45418,73.4773,0.5448126,0.1036346,0.5929276,-0.07147004,14.5999996736646,15
-0.4064023,0.2833333,-22.22149,-0.4628510044741425,0.2488077252378985,-0.1499959141761202,3.550341,75.53723,0.2478523,0.02581155,0.6121258,-0.017264,14.6199996732175,15
-0.3475079,0.4833333,-22.20184,-0.4080947445972307,0.0296199034037922,-0.1249577741014995,7.099559,75.56042,0.4975601,0.05159062,0.6112404,-0.03450611,14.6399996727705,15
-0.2886302,0.6833333,-22.18219,-0.3474209325325446,-0.1686597013263463,-0.0989931298984672,10.6476,75.59954,0.7510744,0.07731237,0.6097664,-0.05170996,14.6599996723235,15
-0.2297667,0.8833332,-22.16254,-0.2660755586936485,-0.4003923360928836,-0.0673430010515439,14.19404,75.65533,1.010335,0.1029489,0.6077057,-0.06885813,14.6799996718764,15
-0.02307996,0.2833334,-22.09303,-0.4061716581349275,0.2404444526138992,-0.1096836499381446,3.48384,75.75723,0.2832664,0.02551018,0.6136457,-0.0167135,14.6999996714294,15
0.03460957,0.4833333,-22.07328,-0.3791701150649147,-0.0038332080004235,-0.0996080144590223,6.96658,75.78322,0.5685754,0.05098931,0.6127896,-0.03340647,14.7199996709824,15
0.09228614,0.6833333,-22.05354,-0.3403822023236653,-0.2272028782778249,-0.0872403765475304,10.44768,75.8271,0.8582425,0.07641142,0.6113645,-0.05005997,14.7399996705353,15
0.1499462,0.8833332,-22.0338,-0.4926169991306808,0.236262535609071,-0.1390578843925283,13.92752,75.88965,1.154413,0.1017554,0.609372,-0.06666216,14.7599996700883,15
0.4133995,0.2833333,-21.94502,-0.6326354234961244,0.695023384360769,-0.1870470365119878,3.425149,74.90888,0.2592039,0.02509921,0.6078036,-0.01637946,14.7799996696413,15
0.4699146,0.4833334,-21.92509,-0.5373079734014694,0.2441029578156892,-0.1566414954857613,6.848765,74.93228,0.5204236,0.05016656,0.6069849,-0.03273541,14.7999996691942,15
0.5264136,0.6833333,-21.90516,-0.4294668569113775,-0.211521821471938,-0.1212722127943841,10.27128,74.97173,0.7853764,0.07518204,0.6056217,-0.04905722,14.8199996687472,15
0.7605993,0.2833334,-21.82605,-0.5790763270710406,0.2331263291961706,-0.1721818161133299,3.370053,73.12568,0.1558636,0.02442811,0.5954138,-0.01642465,14.8399996683002,15
0.8160722,0.4833333,-21.80638,-0.5430777215185625,0.0327561869157451,-0.1618084824548198,6.738665,73.1395,0.3128059,0.04882512,0.5946401,-0.03282776,14.8599996678531,15
0.871529,0.6833333,-21.78671,-0.5107169566175838,-0.1467058593541439,-0.1523673765494138,10.10625,73.16282,0.4719026,0.07317284,0.5933518,-0.04919771,14.8799996674061,15
0.9269703,0.8833331,-21.76706,-0.4688557210203363,-0.359621056231155,-0.1395646037712019,13.47282,73.19602,0.6343206,0.09745037,0.5915507,-0.06552051,14.899999666959,15
1.217493,0.2833333,-21.66931,-0.5825167602546566,0.3000331565134577,-0.1784088671659773,3.311929,70.8941,0.01108898,0.02359791,0.5797058,-0.01668061,14.919999666512,15
1.272025,0.4833332,-21.65022,-0.4375305243525034,0.0745729060852724,-0.1329201462785363,6.622887,70.89506,0.02222648,0.04716909,0.5789797,-0.03334256,14.939999666065,15
1.326544,0.6833332,-21.63113,-0.2919169179375593,-0.1299791277616503,-0.0880642997308491,9.932445,70.89667,0.03338605,0.07069035,0.5777708,-0.04997052,14.9599996656179,15
1.381047,0.8833332,-21.61205,-0.1322445948864672,-0.3679843122156974,-0.039420580995241,13.24106,70.89896,0.04478778,0.09414603,0.5760805,-0.06655195,14.9799996651709,15
1.586531,0.2833333,-21.5433,-0.194571626903965,0.2665801391962249,-0.0647394923043336,3.25572,69.06934,359.9107,0.0229601,0.5666941,-0.01674625,14.9999996647239,15
1.640138,0.4833333,-21.52447,-0.0988637323528611,0.0160300207163179,-0.0398864770779532,6.51046,69.06169,359.8208,0.04589483,0.5660077,-0.03347398,15.0199996642768,15
1.693728,0.6833335,-21.50564,0.0016685552065265,-0.2136119879013552,-0.0142925965649496,9.764215,69.0488,359.7298,0.06878572,0.5648647,-0.05016967,15.0399996638298,15
1.916897,0.2833333,-21.43,-0.0939157908541492,0.2435808608782201,-0.0541722784812392,3.206402,66.38248,359.8044,0.02247883,0.5472602,-0.01674367,15.0599996633828,15
1.969515,0.4833333,-21.41071,-0.1834252579646955,0.6960692640479124,-0.0920112137650939,6.411808,66.36598,359.6077,0.04493338,0.5466154,-0.03346907,15.0799996629357,15
2.022118,0.6833333,-21.39142,-0.0465358446232127,0.2388761779600603,-0.0556729048566673,9.616204,66.3382,359.4085,0.06734616,0.5455415,-0.05016324,15.0999996624887,15
2.074708,0.8833333,-21.37214,0.0945680091533827,-0.2230212624384557,-0.0177814028277047,12.8193,66.29878,359.2059,0.08969949,0.5440404,-0.06680937,15.1199996620417,15
2.358944,0.2833333,-21.27688,-0.0288351726854445,0.2153542245052378,-0.0676143200294134,3.462856,67.30036,359.8036,0.02420259,0.5539101,-0.01816817,15.1399996615946,15
2.41606,0.4833333,-21.25672,0.0256707701706115,0.0087114148414587,-0.0576354460416332,6.924739,67.28246,359.6059,0.04837637,0.5531492,-0.03631502,15.1599996611476,15
2.473156,0.6833333,-21.23656,0.0684715802333491,-0.1770230767490844,-0.0500054622628631,10.38626,67.25219,359.4049,0.07250238,0.5518817,-0.05442946,15.1799996607006,15
2.530227,0.8833332,-21.21641,0.1126264545052189,-0.3962107236510971,-0.0402590789490453,13.84811,67.20903,359.1993,0.09656521,0.5501088,-0.0724964,15.1999996602535,15
2.729625,0.2833333,-21.15121,-0.0062877397095268,0.2571710343641617,-0.083798300152754,3.540904,69.13297,359.8549,0.0247231,0.5671231,-0.01857118,15.2199996598065,15
2.788272,0.4833332,-21.13157,0.1235507427632498,0.0254384312213054,-0.0438334695180664,7.081384,69.11938,359.7082,0.04941753,0.5663094,-0.03712574,15.2399996593595,15
2.846901,0.6833332,-21.11194,0.2441504380259171,-0.1853859728509226,-0.0050048872869723,10.6208,69.09646,359.5593,0.07405771,0.5649548,-0.05563935,15.2599996589124,15
2.905514,0.8833331,-21.09232,0.3692738929521075,-0.4296635311892089,0.0372332242130539,14.15914,69.06375,359.407,0.09861998,0.5630608,-0.07409482,15.2799996584654,15
3.16147,0.2833334,-21.00688,0.2656118505153477,0.1986283297641772,0.004546509469133,3.584064,70.99169,0.00653187,0.02549322,0.5803585,-0.01811137,15.2999996580184,15
3.220564,0.4833333,-20.9864,0.3166155934348253,-0.0581942761141722,0.0228095853815801,7.167456,70.99233,0.01339644,0.05095815,0.5795071,-0.03619964,15.3199996575713,15
3.279641,0.6833332,-20.96592,0.3663107071841915,-0.2941086823991843,0.0419023690843651,10.74984,70.99342,0.02036688,0.07636608,0.5780895,-0.05424743,15.3399996571243,15
3.506828,0.2833334,-20.88986,0.2150670745206273,0.1568117522478294,-0.0047912052975007,3.559361,71.86161,0.07930411,0.025553,0.5865072,-0.01766396,15.3599996566772,15
3.565413,0.4833334,-20.86921,0.0664919184494481,0.6030278320614716,-0.0496851135140303,7.117542,71.86906,0.1593421,0.05107366,0.5856583,-0.03530405,15.3799996562302,15
3.623981,0.6833333,-20.84857,0.1449967701143073,0.1395623010014373,-0.0205511841802454,10.67469,71.88164,0.2406099,0.0765378,0.584245,-0.05290507,15.3999996557832,15
3.682533,0.8833333,-20.82793,0.225674091405625,-0.3286074520376648,0.0099543591110276,14.23082,71.89958,0.3237623,0.1019209,0.5822691,-0.07045025,15.4199996553361,15
3.968658,0.2833333,-20.73284,0.0403614891513139,0.1034956155464139,-0.0473569921348868,3.63374,72.80109,0.114433,0.02611131,0.5931024,-0.01801123,15.4399996548891,15
4.028653,0.4833333,-20.71219,0.0347444257802065,-0.1094196129542767,-0.0456348606116812,7.266424,72.81203,0.2297373,0.05218876,0.5922071,-0.03599934,15.4599996544421,15
4.088626,0.6833333,-20.69154,0.0182351529854143,-0.301426615726362,-0.0466420791740134,10.8985,72.83052,0.3467123,0.07820862,0.5907165,-0.05394973,15.479999653995,15
4.148582,0.8833333,-20.67089,0.00479177244011,-0.5268867594355156,-0.0458283923059781,14.52971,72.8569,0.4665195,0.1041438,0.5886323,-0.07184205,15.499999653548,15
4.346851,0.2833333,-20.60608,-0.1728932888122996,0.1202225161470021,-0.0982728330721443,3.614833,73.65681,0.1339142,0.02594594,0.5990924,-0.01797085,15.519999653101,15
4.406717,0.4833332,-20.58609,-0.0979057762456356,-0.1177826617732245,-0.0671639831461057,7.228605,73.66956,0.2688636,0.05185857,0.5981971,-0.03591862,15.5399996526539,15
4.466567,0.6833332,-20.56611,-0.0285442748962205,-0.3348798668671667,-0.0364376403593738,10.84128,73.69109,0.4059447,0.07771195,0.5967067,-0.05382543,15.5599996522069,15
4.5264,0.883333,-20.54614,-0.1538040115921033,0.1348581014115881,-0.0696446125532084,14.4528,73.72179,0.5460541,0.1034788,0.594623,-0.07167521,15.5799996517599,15
4.781418,0.2833333,-20.46245,-0.2778488945671071,0.5998916076152347,-0.102368352266744,3.550281,75.77523,0.2478029,0.02577496,0.6137656,-0.01731759,15.5999996513128,15
4.840393,0.4833332,-20.44304,-0.2259961084599782,0.1552436091415299,-0.0806937520929267,7.099457,75.79841,0.4974737,0.05151768,0.6128778,-0.03461324,15.6199996508658,15
4.899351,0.6833331,-20.42363,-0.1583564659557046,-0.2941087580172399,-0.0546396555632178,10.64745,75.83752,0.7509511,0.07720313,0.6113998,-0.05187047,15.6399996504188,15
5.125968,0.2833333,-20.34861,-0.3391493090726882,0.1568118822272522,-0.1110590447992692,3.484221,75.98074,0.2830105,0.02547878,0.6151835,-0.01676703,15.6599996499717,15
5.183741,0.4833334,-20.32909,-0.513907715483195,0.6030281548320886,-0.1659323671326298,6.967315,76.00671,0.5680695,0.05092639,0.614325,-0.03351327,15.6799996495247,15
5.241501,0.6833333,-20.30957,-0.4589748108264437,0.1395626847543579,-0.1495618682799531,10.44878,76.05055,0.8575019,0.07631721,0.6128961,-0.05021984,15.6999996490777,15
5.299244,0.8833333,-20.29006,-0.3982187008353257,-0.3286070318695974,-0.1327352043778127,13.92897,76.11306,1.153418,0.1016298,0.6108983,-0.06687495,15.7199996486306,15
5.582232,0.2833334,-20.19606,-0.4894418141736079,0.1034960480851761,-0.1652229948496533,3.425196,75.16701,0.2597845,0.02506567,0.6095893,-0.01643219,15.7399996481836,15
5.638835,0.4833334,-20.17637,-0.3895772236349684,-0.1094192849566058,-0.1356231345862681,6.848877,75.19045,0.5215545,0.05009947,0.6087681,-0.03284114,15.7599996477365,15
5.695422,0.6833333,-20.15669,-0.2886908127571601,-0.3014263891335476,-0.1043881471225312,10.27145,75.22999,0.7870517,0.07508132,0.6074008,-0.04921588,15.7799996472895,15
5.751993,0.8833332,-20.13702,-0.1737764946351676,-0.5268865110633074,-0.0672227003923033,13.69283,75.28633,1.058303,0.09998886,0.6054892,-0.06554177,15.7999996468425,15
5.948911,0.2833334,-20.07216,-0.2687446122160812,0.1202226699095226,-0.0988424426287828,3.369794,73.40883,0.1564946,0.02438893,0.5973958,-0.0164792,15.8199996463954,15
6.004474,0.4833333,-20.05275,-0.1227270066252641,-0.1177825055714116,-0.0534344710221752,6.738155,73.42271,0.3140068,0.04874654,0.5966195,-0.03293729,15.8399996459484,15
6.06002,0.6833333,-20.03335,0.0195621069882214,-0.3348792505103193,-0.0086763703944683,10.10549,73.44611,0.4737172,0.07305511,0.5953272,-0.04936185,15.8599996455014,15
6.115551,0.8833332,-20.01396,-0.0306176017603654,0.1348585044174925,-0.0270843141235168,13.47179,73.47944,0.6367473,0.09729348,0.5935203,-0.06573915,15.8799996450543,15
6.369254,0.2833333,-19.93079,-0.0810759804674621,0.5998918969327032,-0.0456326565373856,3.311853,71.18206,0.01142379,0.02355708,0.5817502,-0.01673709,15.8999996446073,15
6.423878,0.4833332,-19.91197,0.0062716683162644,0.1552437777140392,-0.0226185278089268,6.622717,71.18306,0.02291816,0.04708745,0.5810216,-0.03345524,15.9199996441603,15
6.478489,0.6833332,-19.89315,0.1044330971838185,-0.2941088106362564,0.003544892566424,9.932194,71.18472,0.03443524,0.07056804,0.5798085,-0.05013936,15.9399996437132,15
6.702598,0.2833333,-19.81935,-0.0470874155205827,0.1568116274954608,-0.0524585450931347,3.256027,69.37597,359.9111,0.02291938,0.5688953,-0.01680632,15.9599996432662,15
6.756307,0.4833333,-19.80079,-0.1956447266889291,0.6030276098245358,-0.1074970510615429,6.51108,69.36835,359.8216,0.04581346,0.5682061,-0.03359408,15.9799996428192,15
6.81,0.6833333,-19.78224,-0.1679086955566511,0.1395619870296958,-0.1134136934804992,9.76516,69.35551,359.731,0.06866373,0.5670584,-0.0503499,15.9999996423721,15
6.86368,0.8833332,-19.76369,-0.1332447376658336,-0.3286079853714624,-0.1208981647726723,13.01791,69.33727,359.6386,0.09144957,0.565454,-0.06705827,16.0199996419251,15
7.143701,0.2833333,-19.67091,-0.2456349825882338,0.1034949614676561,-0.1785380451079987,3.202001,66.19109,359.7766,0.02234211,0.5458682,-0.0168884,16.0399996414781,15
7.19638,0.4833333,-19.65192,-0.2023148838666522,-0.1094202758319107,-0.242096458313604,6.403011,66.17226,359.5519,0.04466026,0.545226,-0.03375839,16.059999641031,15
7.249043,0.6833333,-19.63293,-0.1528575749634306,-0.3014271882630688,-0.3040092640745726,9.602969,66.14058,359.3244,0.06693684,0.5441567,-0.05059677,16.079999640584,15
7.301694,0.8833332,-19.61395,-0.0851634648085362,-0.5268872348361272,-0.3594011276415365,12.8016,66.0956,359.093,0.08915443,0.5426618,-0.06738692,16.099999640137,15
7.505044,0.2833334,-19.54847,-0.2214599712195468,0.1202220390040407,-0.4799403418758245,3.531825,67.63885,359.7951,0.0246073,0.5563579,-0.01863607,16.1199996396899,15
7.563462,0.4833334,-19.52831,-0.1421344337477119,-0.1177831322952516,-0.6470437696039397,7.062687,67.61979,359.5887,0.04918469,0.5555627,-0.03724967,16.1399996392429,15
7.621855,0.6833334,-19.50817,-0.0593979112722973,-0.3348799484092187,-0.8048538254115236,10.59374,67.58755,359.3788,0.0737155,0.554238,-0.05583176,16.1599996387959,15
7.680223,0.8833334,-19.48803,-0.1622920947802963,0.1348578862311753,-1.0147998734969548,14.12507,67.54153,359.1639,0.09817897,0.552385,-0.07436296,16.1799996383488,15
7.936784,0.2833334,-19.40621,-0.2591061667080812,0.5998910558125119,-1.212735491866205,3.564058,70.01842,359.8787,0.02486353,0.5734572,-0.01870729,16.1999996379018,15
7.995958,0.4833334,-19.38696,-0.2232208996840778,0.1552428629794948,-1.4860650646242384,7.127325,70.00698,359.756,0.04969507,0.5726243,-0.037396,16.2199996374547,15
8.055116,0.6833333,-19.36771,-0.1734776212406359,-0.2941096640400274,-1.7360402709621958,10.68954,69.98767,359.6314,0.07447152,0.5712374,-0.05604308,16.2399996370077,15
8.28362,0.2833333,-19.29351,-0.3679414265015666,0.1568107297488443,-2.0467890291011592,3.592914,71.44498,0.0181102,0.02554302,0.5835689,-0.01817515,16.2599996365607,15
8.342953,0.4833333,-19.27325,-0.5537074548287517,0.6030266677350724,-2.334277028655164,7.185033,71.44674,0.0367948,0.05105747,0.5827087,-0.03632537,16.2799996361136,15
8.402269,0.6833333,-19.253,-0.5486605272043263,0.1395611195999933,-2.7464023925888146,10.77614,71.4497,0.05576755,0.07651457,0.5812763,-0.05443482,16.2999996356666,15
8.461569,0.8833333,-19.23275,-0.5354150202933621,-0.3286087530515396,-3.116372215060633,14.36621,71.45393,0.07517643,0.1018892,0.5792737,-0.07248576,16.3199996352196,15
8.735316,0.2833334,-19.14443,-0.669944914689454,0.10349409133731,-3.4938415278946438,3.570047,72.6588,0.09181684,0.02556924,0.5921188,-0.01780859,16.3399996347725,15
8.794297,0.4833335,-19.12433,-0.6405254827658311,-0.1094212387424755,-3.950028940450428,7.138916,72.66743,0.1842874,0.05110513,0.5912565,-0.0355943,16.3599996343255,15
8.853262,0.6833333,-19.10424,-0.6048013153049574,-0.3014283425709445,-4.347766052711902,10.70678,72.68201,0.278177,0.07658431,0.5898208,-0.05334063,16.3799996338785,15
8.91221,0.8833333,-19.08416,-0.5497409193033764,-0.5268884678111758,-4.683106673720808,14.27358,72.7028,0.3742839,0.1019819,0.5878137,-0.07103007,16.3999996334314,15
9.089021,0.2833334,-19.02867,-0.7002383989919441,0.1202208385238486,-5.028913434741666,3.646642,73.4366,0.1161662,0.02611027,0.5975524,-0.01821094,16.4199996329844,15
9.149448,0.4833333,-19.00858,-0.628582473341579,-0.1177841768349836,-5.468379003262239,7.292234,73.44777,0.2332208,0.05218654,0.596644,-0.03639844,16.4399996325374,15
9.20986,0.6833333,-18.98851,-0.5527793921672011,-0.3348808474625982,-5.828581961078209,10.93677,73.46661,0.3521557,0.07820255,0.5951317,-0.05454401,16.4599996320903,15
9.270248,0.8833332,-18.96844,-0.662938244968176,0.1348573351253917,-6.172983986039146,14.58091,73.4935,0.4738407,0.1041359,0.5930169,-0.07263404,16.4799996316433,15
9.482391,0.2833333,-18.9067,-0.7645989472752994,0.5998910556382763,-6.440570071271491,3.601999,79.46433,0.2528743,0.02557936,0.6388291,-0.01839261,16.4999996311963,15
9.543381,0.4833333,-18.89091,-0.5814839904072286,0.1552433781928366,-6.811198459056206,7.202877,79.48832,0.5076129,0.05112547,0.6378778,-0.03676207,16.5199996307492,15
9.604354,0.6833332,-18.87514,-0.3475932253929858,-0.2941086674149622,-7.106500016544223,10.80257,79.52881,0.7662674,0.07661296,0.6362942,-0.05509037,16.5399996303022,15
9.799968,0.2833334,-18.86675,-0.3266301405945473,0.1568117618307622,-7.411879753344596,3.522042,86.59949,0.4033596,0.02477789,0.6854082,-0.01851496,16.5599996298552,15
9.860901,0.4833335,-18.85616,-0.2687961544602224,0.6030278757073773,-7.645671815888122,7.042878,86.63691,0.8095508,0.04952413,0.6844246,-0.03700753,16.5799996294081,15
9.921817,0.6833333,-18.84557,-0.0129707685729396,0.1395626172382382,-7.9456181863084865,10.56237,86.70001,1.221706,0.07421523,0.6827868,-0.05546039,16.5999996289611,15
9.982715,0.8833333,-18.83497,0.2904700690102118,-0.3286069848261062,-8.176586925037661,14.08026,86.78959,1.641316,0.09881659,0.6804962,-0.07386687,16.6199996285141,15
10.23026,0.2833333,-18.87546,0.4675746710832289,0.1034962183129193,-8.390330175603488,3.433569,96.98721,0.5155356,0.02322139,0.7484487,-0.01945548,16.639999628067,15
10.29082,0.4833333,-18.87392,0.6787068336724751,0.5308944231681612,-8.535287827750004,6.865862,97.03382,1.034476,0.04641365,0.7474184,-0.03888843,16.65999962762,15
10.35136,0.6833332,-18.87236,1.162915802601077,0.0486117173136808,-8.806973683514602,10.29687,97.11201,1.558281,0.06954193,0.7457021,-0.05829624,16.6799996271729,15
10.41188,0.883333,-18.87079,1.6576637392212596,-0.4383750443866532,-9.001108675682808,13.72619,97.22308,2.091756,0.0925899,0.7433022,-0.07765561,16.6999996267259,15
10.5802,0.2833332,-18.95563,1.933618063476336,-0.025089165622951,-9.188522207133058,3.376229,104.628,0.4641252,0.02121293,0.7909502,-0.02083781,16.7199996262789,15
10.63923,0.4833332,-18.96274,2.453691968800402,-0.2568218431642168,-9.484303285892596,6.75161,104.6689,0.9273203,0.04237514,0.7899006,-0.04167495,16.7399996258318,15
10.69825,0.6833332,-18.96984,2.937399049891132,-0.4676458892703257,-9.680778203871364,10.1256,104.7379,1.396927,0.0634942,0.7881535,-0.06246929,16.7599996253848,15
10.75725,0.8833331,-18.97694,3.192516120231547,0.008364872102445,-9.843491898928452,13.49795,104.8361,1.876387,0.08455116,0.7857111,-0.08320253,16.7799996249378,15
10.97625,0.2833332,-19.12694,3.40991641677976,0.4796710333187514,-9.915447340030866,3.330101,110.476,0.3271809,0.01891168,0.82113,-0.02224338,16.7999996244907,15
11.03267,0.4833331,-19.14198,3.9891899110830975,0.0412955656280419,-10.186202527446934,6.65932,110.5043,0.6526399,0.03777531,0.8200796,-0.04448175,16.8199996240437,15
11.08906,0.683333,-19.15701,4.507965067589764,-0.4017840614913171,-10.344813646785775,9.987361,110.5521,0.9824618,0.05660137,0.8183311,-0.06667577,16.8399996235967,15
11.285,0.2833332,-19.28816,4.721194773114869,0.0554086353552071,-10.475484966111765,3.290897,113.0967,0.1404899,0.01685089,0.8339874,-0.02328247,16.8599996231496,15
11.33875,0.4833332,-19.30849,4.8695600004830215,0.5078966525069196,-10.508859604791551,6.580797,113.1089,0.2817841,0.03368223,0.8329541,-0.04653921,16.8799996227026,15
11.39249,0.6833332,-19.3288,5.238706319678263,0.050703731768228,-10.615221749068729,9.869593,113.1291,0.422967,0.05046636,0.8312332,-0.06975925,16.8999996222556,15
11.44622,0.8833331,-19.34911,5.525465943121215,-0.4111932442936108,-10.601384463791716,13.15739,113.1577,0.5661513,0.06719837,0.828827,-0.09291892,16.9199996218085,15
11.69032,0.2833332,-19.51476,5.6026654371423135,0.0271827285048036,-10.517446392191529,3.244853,114.6243,359.9833,0.01516826,0.8412899,-0.02390743,16.9399996213615,15
11.74164,0.4833333,-19.53866,5.60816916054741,0.4608540632506065,-10.333957437828875,6.48872,114.6228,359.9665,0.03031927,0.8402783,-0.04778875,16.9599996209145,15
11.79294,0.6833333,-19.56255,5.933350670887352,-0.0151566813084688,-10.308261507787783,9.731653,114.6204,359.9493,0.0454412,0.838594,-0.07162522,16.9799996204674,15
11.84424,0.8833332,-19.58643,6.117828433254921,-0.4958715432184058,-10.127642807477391,12.9734,114.6166,359.9299,0.06050698,0.8362384,-0.09540472,16.9999996200204,15
12.1426,0.2833335,-19.78057,6.001491431981201,-0.0763135999249735,-9.858687068432817,6.178284,113.4056,359.6364,0.02693593,0.8347092,-0.04678198,17.0199996195734,15
12.23953,0.4833334,-19.82951,5.766723699634216,0.3385397858124878,-9.468923793021002,12.3554,113.3456,359.2642,0.05378916,0.8310568,-0.09342069,17.0399996191263,15
12.33645,0.683333,-19.87845,5.94922409340562,-0.1562880828386064,-9.333764489822215,18.53106,113.2415,358.874,0.08048147,0.8249828,-0.1397803,17.0599996186793,15
12.43335,0.883333,-19.92738,5.834979767808857,0.0644675784970484,-9.060656770682286,24.70489,113.0867,358.4544,0.1069348,0.8165057,-0.1857255,17.0799996182323,15
12.67424,0.2833333,-20.10777,5.589808972930603,0.3082221364886069,-8.670469772806129,7.363016,112.9959,358.7039,0.02602739,0.8324929,-0.05976963,17.0999996177852,15
12.7843,0.4833332,-20.17938,5.71749736904372,-0.1176088960114792,-8.512107060522311,14.72124,112.7387,357.3637,0.05193984,0.8271773,-0.1192781,17.1199996173382,15
12.89435,0.6833332,-20.25098,5.723899887961245,-0.548144382484739,-8.23887513785483,22.07028,112.2851,355.9296,0.0776272,0.8183449,-0.1782722,17.1399996168911,15
13.00438,0.8833326,-20.32257,5.40620228352028,-0.0784068283629381,-7.810075008223841,29.40454,111.5923,354.3374,0.1029803,0.8060341,-0.2365019,17.1599996164441,15
13.33277,0.2833333,-20.57992,4.984265468155394,0.3866263897428846,-7.290046459794201,7.5481,116.9023,358.0714,0.02012433,0.8508054,-0.06487146,17.1799996159971,15
13.43546,0.4833336,-20.67023,4.478441187790084,0.6819008574109442,-6.698578824844741,15.09376,116.5079,356.0668,0.04013294,0.844897,-0.1295218,17.19999961555,15
13.53813,0.6833333,-20.7605,4.461048747504801,-0.0696802958341085,-6.431873637689947,22.62158,115.81,353.9126,0.05995319,0.835076,-0.1935855,17.219999615103,15
13.86996,0.2833333,-21.02342,4.198736385694984,0.1082479489035568,-5.973358652595689,7.044382,121.1644,358.2028,0.01653678,0.8697822,-0.06119561,17.239999614656,15
13.95901,0.4833336,-21.11416,3.8315597269327375,0.3096630313951895,-5.428244589553863,14.09591,120.8225,356.3429,0.03301675,0.864515,-0.1222812,17.2599996142089,15
14.04803,0.6833335,-21.20488,3.382933074530019,0.4822945252699556,-4.819010867037267,21.1303,120.2227,354.3644,0.0493588,0.8557584,-0.1828562,17.2799996137619,15
14.13703,0.8833333,-21.29557,3.5331409457771343,-0.2798795966284507,-4.629475386662122,28.13745,119.3141,352.1889,0.06549707,0.8435509,-0.242676,17.2999996133149,15
14.59059,0.2833334,-21.65649,3.421706676859065,-0.1125443738600958,-4.22467562640972,7.73619,131.7232,359.2051,0.02127073,0.910651,-0.06438982,17.3199996128678,15
14.6821,0.4833336,-21.75682,3.242932691212479,0.0782780884484864,-3.768416376701108,15.46873,131.557,358.3805,0.04243709,0.9043598,-0.128466,17.3399996124208,15
14.77359,0.6833331,-21.85712,3.4969025433041985,-0.3999979070876144,-3.6244275852482417,23.19592,131.2621,357.4916,0.06340179,0.8939106,-0.1919345,17.3599996119738,15
14.86506,0.8833329,-21.95738,3.49390041066588,-0.1622023083546492,-3.290340708117089,30.91666,130.806,356.4913,0.08406034,0.8793508,-0.2545194,17.3799996115267,15
15.21323,0.2833334,-22.21335,3.4098932374046136,0.0990800373557732,-2.905244399637162,7.020961,136.0686,359.9099,0.0221757,0.9256855,-0.05707978,17.3999996110797,15
15.297,0.4833337,-22.30254,3.269294129836988,0.331578822675416,-2.4902378048366103,14.03962,136.0516,359.817,0.04426115,0.9204728,-0.1139268,17.4199996106327,15
15.38074,0.6833338,-22.39171,3.723201492491675,-0.3707281940354856,-2.5390764230124603,21.056,136.0218,359.7184,0.06617387,0.9118108,-0.1703285,17.4399996101856,15
15.46447,0.8833335,-22.48084,3.8573857496487705,-0.143525921050815,-2.3958367555924305,28.07008,135.9767,359.61,0.0878319,0.8997353,-0.2260739,17.4599996097386,15
15.90199,0.2833332,-22.80275,3.9059829737342895,0.1071630936842533,-2.23158199418134,3.399347,132.0855,359.3257,0.006668658,0.9135017,-0.02949306,17.4799996092916,15
15.9375,0.4833333,-22.85065,3.897603317082016,0.3290685289497981,-2.0664901896800245,6.793973,132.0251,358.646,0.01331109,0.9122502,-0.0589276,17.4999996088445,15
15.97301,0.6833332,-22.89853,4.312106607512725,-0.3838317506976278,-2.2083199026973155,10.18216,131.9231,357.9552,0.01991097,0.9101695,-0.0882698,17.5199996083975,15
16.00853,0.883333,-22.94639,4.37900733877764,-0.1672229069569349,-2.158186987412055,13.56365,131.7775,357.2481,0.02646234,0.9072647,-0.1174958,17.5399996079504,15
16.52639,0.2833333,-23.33019,4.336867347802944,0.0728731653471718,-2.08878315911722,3.479898,127.8525,359.1608,0.006770294,0.8978887,-0.03048958,17.5599996075034,15
16.56504,0.4833333,-23.3786,4.209240439274534,0.2841860536955463,-2.018118809197229,6.952356,127.776,358.3196,0.01354079,0.8965785,-0.06088115,17.5799996070564,15
16.60369,0.6833333,-23.42699,4.618383594359422,-0.4393074536929044,-2.3524679189426827,10.419,127.6471,357.4661,0.02028363,0.8943999,-0.09117898,17.5999996066093,15
17.0938,0.2833332,-23.78465,4.7493099939467776,-0.233292130669643,-2.522406614304717,4.57362,126.8916,359.6992,0.01549162,0.8938431,-0.03686501,17.6199996061623,15
17.15455,0.4833331,-23.83659,4.7647996382804365,-0.0037899393141443,-2.6605252231414127,9.144862,126.8553,359.3958,0.03095919,0.8916994,-0.07364879,17.6399996057153,15
17.21528,0.6833331,-23.88853,4.687901233054738,0.1969282783648026,-2.7835034071581006,13.71382,126.7941,359.0874,0.04639223,0.8881336,-0.1102877,17.6599996052682,15
17.27598,0.8833331,-23.94047,5.20387490263855,-0.5371577882243964,-3.208625040717173,18.28102,126.7065,358.7698,0.0617677,0.8831533,-0.1467292,17.6799996048212,15
17.33666,0.9766704,-23.99241,5.346503910700378,-0.3417351512450748,-3.3799290253007257,22.84639,126.5893,358.4364,0.07704991,0.8767666,-0.1829216,17.6999996043742,15
17.91453,0.2833332,-24.39681,5.38065532453145,-0.1228268244600768,-3.4925202940287754,3.929779,126.3483,359.9792,0.01531133,0.8918603,-0.03067897,17.7199996039271,15
17.96947,0.4833331,-24.43761,5.847633207121273,-0.5730149391834748,-3.844857405941664,7.858212,126.3461,359.9583,0.03060005,0.8902875,-0.06131106,17.7399996034801,15
18.0244,0.683333,-24.4784,5.922666703829005,-0.307132190641384,-3.914386265380944,11.78531,126.3425,359.9372,0.04584861,0.8876696,-0.09186023,17.7599996030331,15
18.07932,0.883333,-24.51921,5.891301519148357,-0.0177625083417545,-3.904203457860192,15.70873,126.3379,359.9178,0.06104671,0.8840141,-0.1222642,17.779999602586,15
18.74975,0.2833336,-24.99218,5.780149476328262,0.2428233185869859,-3.8335933996133376,6.748932,123.5848,359.7415,0.02583741,0.8797734,-0.0529354,17.799999602139,15
18.84582,0.4833334,-25.06141,6.260207749274496,-0.4313962604783187,-4.06294994919967,13.49662,123.538,359.4758,0.05158132,0.8751889,-0.1056781,17.819999601692,15
18.94188,0.6833336,-25.13063,6.212551952558076,-0.1761057674451085,-3.885503949028841,20.24285,123.4563,359.1945,0.07714178,0.8675677,-0.158045,17.8399996012449,15
19.48681,0.2833329,-25.52186,6.049725414105126,0.1026705326540368,-3.599683144654758,6.454763,120.7453,359.1501,0.02139362,0.8680632,-0.05259768,17.8599996007979,15
19.5764,0.483333,-25.59254,5.798060004835371,0.3526636391273969,-3.225632900464209,12.90691,120.5985,358.2782,0.04271414,0.8638603,-0.1050163,17.8799996003509,15
19.66598,0.6833328,-25.66322,5.87719585075569,-0.3321496219099721,-2.9959116854178767,19.3549,120.343,357.3601,0.06389296,0.8568724,-0.1570873,17.8999995999038,15
19.75554,0.8833328,-25.73389,5.5775402439555,-0.0874539196813258,-2.4988783786262694,25.79678,119.9609,356.3662,0.08486179,0.8471233,-0.208643,17.9199995994568,15
20.43213,0.2833332,-26.24722,5.207909186888145,0.1807280485486386,-1.934360121395862,6.826249,122.463,357.9247,0.01280176,0.8753921,-0.06087825,17.9399995990098,15
20.5134,0.4833329,-26.34228,4.795368934212313,0.4201261836226999,-1.3240388840474535,13.64884,122.0813,355.781,0.02551686,0.8702934,-0.1215956,17.9599995985627,15
20.59463,0.6833328,-26.4373,4.843459203701681,-0.2752812955082916,-0.9615199316188416,20.45286,121.4137,353.5082,0.03813007,0.8618143,-0.1818514,17.9799995981157,15
20.67584,0.8833328,-26.53228,4.423087290059513,-0.0411788221531992,-0.2865175707324674,27.22556,120.4077,351.0239,0.0505964,0.8499866,-0.2414098,17.9999995976686,15
21.17974,0.2833333,-26.89634,3.998008047912585,0.2164095329275883,0.3820581266003557,7.211817,124.7149,357.9866,0.01364221,0.8844818,-0.06384125,18.0199995972216,15
21.2632,0.4833331,-26.9971,3.968261438092952,-0.1950973103322162,0.8116596508095171,14.42388,124.3233,355.9042,0.02723775,0.8788073,-0.1274956,18.0399995967746,15
21.34663,0.6833333,-27.09783,3.952987462029309,-0.610819985730394,1.2005202226144718,21.6144,123.6346,353.6826,0.04071291,0.8693767,-0.1905866,18.0599995963275,15
21.43004,0.8833333,-27.19853,3.4121643403276813,-0.125783031761571,1.925040953984059,28.77028,122.5878,351.2285,0.05401015,0.8562337,-0.2528451,18.0799995958805,15
22.07449,0.2833333,-27.66275,2.893757624956365,0.3550371246319055,2.602141376155849,7.785071,133.0902,359.0698,0.01958956,0.9154467,-0.06549773,18.0999995954335,15
22.16261,0.4833328,-27.76748,2.679640761955625,-0.0733368649348982,3.071776780390156,15.56591,132.8944,358.1044,0.03908256,0.9090187,-0.1306711,18.1199995949864,15
22.25071,0.6833326,-27.87218,1.9791721216692049,0.2143608499710971,3.8292335221581446,23.34002,132.5468,357.063,0.05838728,0.8983433,-0.1952152,18.1399995945394,15
22.33878,0.8833322,-27.97684,1.2857952266440478,0.525545876637793,4.524573106467955,31.10577,132.0098,355.892,0.07742134,0.8834707,-0.2588403,18.1599995940924,15
23.04743,0.2833334,-28.36297,0.635053350793477,0.8079468847623807,5.134079001714362,7.848206,136.0142,0.5314896,0.02991858,0.9249276,-0.06172143,18.1799995936453,15
23.14939,0.4833332,-28.45489,0.4065937550537377,0.1555415552575666,5.469262549734555,15.69345,136.1271,1.08373,0.05969024,0.91839,-0.1231334,18.1999995931983,15
23.25132,0.6833324,-28.54678,0.2474884089965243,-0.3996913807615502,5.680547063540143,23.53498,136.3279,1.680613,0.08917516,0.907533,-0.1839477,18.2199995927513,15
23.83793,0.2833333,-28.90247,-0.4246451701246521,0.0449565165686493,6.167595755295551,7.505775,130.4633,0.6472716,0.03253917,0.9058927,-0.05706999,18.2399995923042,15
23.94512,0.4833326,-28.97854,-0.7405989856132713,-0.1554135970500955,6.41514823056735,15.00884,130.5955,1.322699,0.06497203,0.9000202,-0.1138612,18.2599995918572,15
24.05226,0.6833329,-29.05461,-0.9664733585845688,-0.334875438332328,6.510360675487327,22.50673,130.83,2.050502,0.09713499,0.8902663,-0.1701272,18.2799995914102,15
24.15937,0.8833326,-29.13067,-1.0640280117957597,-0.5477906920099985,6.429948713895726,29.99829,131.1912,2.865244,0.1288899,0.8766773,-0.2256292,18.2999995909631,15
24.87018,0.2833333,-29.52641,-1.7336353554590218,0.1118623094518413,6.669219226164671,7.608264,119.2114,0.4398281,0.03687072,0.8605283,-0.05528946,18.3199995905161,15
24.98993,0.4833338,-29.5843,-1.9991782024963167,-0.1135978698012843,6.668193669352551,15.21508,119.3044,0.9086801,0.07366893,0.8548211,-0.1102717,18.3399995900691,15
25.10965,0.6833331,-29.64217,-2.1978360081441224,-0.3181505354248652,6.537716726761506,22.81875,119.469,1.412747,0.1101316,0.8453379,-0.1647512,18.359999589622,15
25.22933,0.883333,-29.70002,-2.837196451886289,0.1641322605963082,6.64565844336105,30.41844,119.7222,1.976666,0.1460975,0.8321239,-0.2184873,18.379999589175,15
25.71737,0.2833328,-29.95708,-3.4013973310769323,0.6417108982342421,6.633092133818398,8.071038,115.8727,0.5942225,0.04174242,0.8451526,-0.05689303,18.399999588728,15
25.84848,0.4833326,-30.00902,-3.727228058142881,0.2096072446973487,6.47914337289189,16.12749,116.0034,1.216137,0.08323777,0.8388425,-0.1133873,18.4199995882809,15
25.97931,0.6833323,-30.06087,-3.9325506458137234,-0.2272002701518448,6.179671000488519,24.16552,116.2361,1.889974,0.1242381,0.82839,-0.1692032,18.4399995878339,15
26.10995,0.8833322,-30.11263,-4.691168630017778,0.2362645580435905,6.2481957514630615,32.18842,116.5976,2.653768,0.1645652,0.8138623,-0.2241019,18.4599995873868,15
26.68664,0.2833326,-30.41925,-5.196443468545411,0.0547109860487509,6.214708905345816,8.133429,108.5879,359.473,0.03766414,0.8101591,-0.06026366,18.4799995869398,15
26.81823,0.4833325,-30.47326,-5.57774923032764,-0.1059341980916707,6.090468988769654,16.26378,108.4716,358.9242,0.07512701,0.8040112,-0.1202052,18.4999995864928,15
26.94977,0.6833316,-30.52725,-5.804958741127855,-0.3000327879194763,5.862110283894477,24.39031,108.2639,358.3278,0.1121995,0.7938035,-0.1795228,18.5199995860457,15
27.42309,0.2833338,-30.77425,-6.355161089120742,0.3784370148637658,5.839520591994571,7.710969,103.6687,358.3773,0.03043814,0.7849581,-0.06159099,18.5399995855987,15
27.54701,0.4833343,-30.83373,-6.564299705380144,0.1717941052761251,5.718386390854011,15.4133,103.3307,356.6944,0.06072226,0.7793918,-0.1228735,18.5599995851517,15
27.67089,0.6833336,-30.89318,-6.601286543656872,-0.0139408633702625,5.516690638532918,23.09975,102.7314,354.8817,0.0907101,0.7701478,-0.1835591,18.5799995847046,15
27.79474,0.8833334,-30.95263,-6.438306242683133,-0.2331285112305695,5.222337425549579,30.76064,101.8084,352.8484,0.1202597,0.7572728,-0.2433609,18.5999995842576,15
28.14801,0.2833332,-31.1384,-6.578722507883025,-0.2200618974733094,5.25891413170384,7.118897,103.9185,358.1703,0.02570241,0.7865641,-0.0587093,18.6199995838106,15
28.26067,0.4833332,-31.19944,-6.553268363961514,-0.1615187725310239,5.24610392779643,14.22575,103.5681,356.2818,0.05126832,0.7817127,-0.1171504,18.6399995833635,15
28.37331,0.6833335,-31.26046,-6.337444222984384,-0.1108154502151583,5.173839175741829,21.31174,102.9525,354.2687,0.07658672,0.7736551,-0.1750844,18.6599995829165,15
28.48594,0.8833332,-31.32145,-5.906460752673258,-0.121268427458305,5.032433263594626,28.36851,102.018,352.0486,0.1015623,0.7624249,-0.2322929,18.6799995824695,15
28.92073,0.2833333,-31.53676,-5.982776785617837,-0.1395637948941039,5.186159831144838,7.192847,108.1281,358.1103,0.02348395,0.808576,-0.06044093,18.6999995820224,15
29.02964,0.4833337,-31.60729,-5.898298802842728,-0.1123835963705738,5.278657735967219,14.37537,107.7615,356.1553,0.04682803,0.803467,-0.1206325,18.7199995815754,15
29.13853,0.6833331,-31.6778,-5.632304460258151,-0.0930429345035029,5.300466584325132,21.53882,107.1174,354.0705,0.06996904,0.7949801,-0.1803,18.7399995811284,15
29.50446,0.2833335,-31.84577,-5.745772288608755,0.5854272329539079,5.559219522365375,7.642709,112.9027,358.5019,0.02595738,0.8319744,-0.06274755,18.7599995806813,15
29.6171,0.4833335,-31.92185,-5.702668690130238,0.3787848237696235,5.810659663008117,15.28048,112.5932,356.9476,0.05178774,0.8262079,-0.1252146,18.7799995802343,15
29.72971,0.6833333,-31.99791,-5.497171483990993,0.1930503204182078,5.9918904252694105,22.90455,112.045,355.2757,0.07737182,0.8166299,-0.187086,18.7999995797873,15
29.84229,0.8833327,-32.07395,-5.110466497206812,-0.0261369618967527,6.092218048336196,30.50689,111.202,353.4042,0.1025916,0.8032879,-0.248077,18.8199995793402,15
30.2669,0.2833338,-32.25443,-5.256087784909138,-0.0130690407660364,6.553810139454285,7.923247,122.6548,0.1355149,0.03418392,0.8752394,-0.06005028,18.8399995788932,15
30.38464,0.4833335,-32.32699,-5.290610032124562,0.0454735508424515,6.94538486803949,15.84422,122.6839,0.2764303,0.06819558,0.8689609,-0.1197964,18.8599995784461,15
30.50234,0.6833333,-32.39953,-5.19851271133858,0.096175696983926,7.254709715540212,23.76284,122.7357,0.4290218,0.1018728,0.8585345,-0.1789529,18.8799995779991,15
30.62002,0.8833336,-32.47205,-4.964214425986739,0.0857208820826395,7.469907768636659,31.679,122.8162,0.6015989,0.1350549,0.8440135,-0.2372379,18.8999995775521,15
30.86242,0.2833329,-32.54832,-5.027266720925091,0.0674268621815017,7.953499408485634,7.6702,126.6094,1.061192,0.03830146,0.8910913,-0.05560226,18.919999577105,15
30.98098,0.4833333,-32.61309,-4.986364871070634,0.0946081048091773,8.373364576613792,15.3354,126.8293,2.1615,0.07641864,0.884989,-0.1109332,18.939999576658,15
31.09952,0.6833331,-32.67784,-4.8284219261133,0.1139485249249731,8.71360993455388,22.99259,127.2191,3.34596,0.114178,0.8748536,-0.1657417,18.959999576211,15
31.3513,0.2833329,-32.7532,-4.540465704437544,0.0721329030013129,8.958872890244276,7.465525,120.7485,0.7837145,0.03811422,0.8671883,-0.05321723,18.9799995757639,15
31.47032,0.4833329,-32.80785,-4.796531701228147,0.0224773334875844,9.492568679154832,14.92542,120.9082,1.604786,0.07612032,0.8616107,-0.1061331,18.9999995753169,15
31.58929,0.6833326,-32.86247,-4.962479549162694,0.0182969263174589,9.969437778027997,22.38005,121.1904,2.484991,0.1137897,0.8523436,-0.1585792,19.0199995748699,15
31.70824,0.8833319,-32.91708,-5.026441334167039,0.0062769586206564,10.373158430294826,29.82731,121.6225,3.465127,0.1509615,0.8394297,-0.2103316,19.0399995744228,15
32.00271,0.2833333,-32.98346,-5.530824262955484,0.0130716173549779,11.011138957774406,7.827727,111.9229,0.6058838,0.04257738,0.8265147,-0.05360819,19.0599995739758,15
32.13347,0.4833333,-33.02451,-5.9598322202748975,0.0653408790509487,11.584768694139122,15.65503,112.0528,1.242973,0.0850121,0.8206944,-0.1069314,19.0799995735288,15
32.26419,0.6833338,-33.06554,-6.300097658816135,0.1097701689381682,12.080195997135846,23.47809,112.2837,1.9309,0.1270357,0.8110255,-0.1597375,19.0999995730817,15
32.52803,0.2833328,-33.10754,-6.538532216964555,0.0930432479520652,12.484439058656545,8.206672,103.2376,0.1250121,0.04528112,0.7818388,-0.05541651,19.1199995726347,15
32.66802,0.4833333,-33.13808,-7.1348015723121065,0.0684758712190795,13.07764739859629,16.41095,103.2655,0.255493,0.09031846,0.7758221,-0.1105321,19.1399995721877,15
32.80798,0.6833338,-33.16861,-7.642763639577339,0.0893839011073779,13.562575239108424,24.61285,103.3154,0.3976941,0.1348817,0.7658329,-0.1650651,19.1599995717406,15
32.94791,0.8833336,-33.19912,-8.045454867011713,0.1024511273883106,13.929950229743266,32.81238,103.3937,0.5601972,0.1787438,0.7519255,-0.2187372,19.1799995712936,15
33.08547,0.2833332,-33.19622,-8.326354077203973,0.0543621524659739,14.171396904204087,7.903447,90.66812,358.696,0.04036868,0.7100319,-0.05699157,19.1999995708466,15
33.22312,0.4833332,-33.22048,-9.0735491787568,-0.0015678277409137,14.511738884247194,15.80047,90.38924,357.3414,0.08053064,0.7048285,-0.1136872,19.2199995703995,15
33.36074,0.6833333,-33.24474,-9.718490583475578,-0.0120228723712465,14.73954264145402,23.68619,89.89333,355.8769,0.1202901,0.6961881,-0.1698105,19.2399995699525,15
33.49832,0.8833323,-33.26898,-10.243692278086762,-0.0303175812852918,14.85147324533563,31.55423,89.12515,354.224,0.1594536,0.6841558,-0.2250891,19.2599995695055,15
33.64202,0.2833333,-33.23362,-10.94085938876266,0.6105188438798452,14.962144033244424,7.08779,71.60581,357.159,0.03564304,0.5849435,-0.0562163,19.2799995690584,15
33.77496,0.4833333,-33.24144,-11.809312738172151,0.3662416428978532,15.098170417673284,14.1559,71.06484,354.2303,0.07112128,0.5810505,-0.1121644,19.2999995686114,15
33.90786,0.6833333,-33.24924,-12.57118628004188,0.1428726578001824,15.12176339042123,21.18438,70.11711,351.1147,0.1062776,0.5745844,-0.1675968,19.3199995681643,15
34.03348,0.2833338,-33.19262,-13.20813747851821,-0.1139488485672428,15.035133516410628,6.359676,60.21272,356.8787,0.03432879,0.5019556,-0.0513388,19.3399995677173,15
34.15672,0.4833338,-33.18448,-14.306312461138385,-0.1385168654401778,15.099379470234824,12.703,59.68423,353.6928,0.06860605,0.4990874,-0.1023916,19.3599995672703,15
34.27992,0.6833333,-33.17636,-15.288214952178414,-0.1176087963489685,15.047391185806418,19.00509,58.76883,350.3479,0.1026282,0.4943207,-0.1530189,19.3799995668232,15
34.4031,0.8833328,-33.16825,-16.13914427020469,-0.1045401963109857,14.886007488640992,25.24168,57.40917,346.744,0.1362681,0.4876764,-0.2030341,19.3999995663762,15
34.51417,0.2833338,-33.03376,-17.107828141431092,-0.7929442369983848,14.81210764423288,6.81896,42.7277,357.1418,0.04629849,0.3649127,-0.04484323,19.4199995659292,15
34.63151,0.4833335,-32.97998,-18.037309399827038,-0.5585975853624013,14.620860120550043,13.63266,42.20768,354.2183,0.09255497,0.3626437,-0.08939825,19.4399995654821,15
34.74881,0.6833329,-32.92621,-18.78585496319036,-0.3075254909513392,14.310278096739104,20.40831,41.29954,351.1219,0.1384139,0.3588662,-0.1335682,19.4599995650351,15
34.86609,0.8833331,-32.87246,-19.344893280984756,-0.0919971124010765,13.891490085162804,27.12229,39.93465,347.7416,0.1836837,0.3535971,-0.1771694,19.4799995645881,15
34.84161,0.283334,-32.73236,-19.866838712277787,0.6421747879120318,13.389248096930586,7.463395,33.8246,358.2238,0.05776278,0.291221,-0.03372874,19.499999564141,15
34.93968,0.4833337,-32.64109,-20.50251548516408,0.3796716719776997,12.964247731036714,14.9177,33.4673,356.3868,0.115255,0.2892639,-0.06729297,19.519999563694,15
35.03772,0.6833336,-32.54982,-20.905635792793685,0.138565281293702,12.432090604034968,22.35445,32.83697,354.4186,0.1722189,0.2860138,-0.1005418,19.539999563247,15
35.00103,0.2833333,-32.37305,-21.07476388524982,-0.1355053598219633,11.807351712832483,7.291935,26.92937,359.1075,0.06003156,0.2328493,-0.02236568,19.5599995627999,15
35.07204,0.4833332,-32.26609,-21.527877580655357,-0.1768342913074764,11.302408618032846,14.58039,26.75433,358.1867,0.1198052,0.2314146,-0.04462451,19.5799995623529,15
35.14302,0.6833331,-32.15913,-21.750514403163777,-0.1721996599803444,10.704991323103265,21.86333,26.44643,357.204,0.1790756,0.2290317,-0.06668557,19.5999995619059,15
35.21397,0.8833332,-32.0522,-21.74799468410056,-0.1749193403633823,10.030471044745092,29.13813,25.97733,356.1165,0.2375995,0.2257114,-0.08845916,19.6199995614588,15
35.10026,0.2833331,-31.81354,-21.68652985433705,0.4819811027166146,9.29612325918669,6.482743,8.903521,359.2455,0.05586036,0.07786505,-0.01094289,19.6399995610118,15
35.12981,0.4833331,-31.70319,-21.91056224813638,0.2542561620001213,8.773511134510947,12.96374,8.773014,358.4739,0.1115361,0.07748755,-0.02182692,19.6599995605648,15
35.15935,0.6833332,-31.59288,-21.92663015280179,0.0479259998917356,8.179875230221828,19.44324,8.547233,357.666,0.1668609,0.07686376,-0.03259918,19.6799995601177,15
35.18888,0.8833332,-31.4826,-21.74625528587387,-0.1913691521894198,7.533091393319768,25.91977,8.211126,356.7957,0.2216551,0.07599754,-0.0432269,19.6999995596707,15
35.01467,0.2833329,-31.3283,-21.81264049888513,-0.1979207558497514,7.063447320886638,6.227968,348.3518,358.9722,0.05494877,-0.1008363,-0.00339783,19.7199995592237,15
35.00933,0.4833329,-31.2179,-21.665692767688103,-0.1585091862001205,6.532258662549523,12.46672,348.1839,357.9401,0.1098232,-0.1003659,-0.006599163,19.7399995587766,15
35.004,0.6833331,-31.10753,-21.32091590193449,-0.1264512532736831,5.960156741955423,18.70254,347.8936,356.861,0.1643702,-0.09958626,-0.009747035,19.7599995583296,15
34.99868,0.8833331,-30.99721,-20.795036493567387,-0.1550611840674821,5.368367590881359,24.93293,347.4626,355.703,0.2184236,-0.09849798,-0.01283238,19.7799995578825,15
34.7272,0.283334,-30.76994,-20.113419852716483,0.5488983637574604,4.707220426645428,7.078157,327.3011,359.2118,0.06116418,-0.2805439,0.01078876,19.7999995574355,15
34.67119,0.4833339,-30.65852,-19.77696613915558,0.256671069036956,4.276796660622249,14.15893,327.1525,358.4069,0.1221064,-0.2789128,0.02160966,19.8199995569885,15
34.6152,0.6833339,-30.54715,-19.261182446868773,-0.013673009058727,3.820111144616149,21.23787,326.8927,357.554,0.1825754,-0.2761994,0.03238168,19.8399995565414,15
34.34466,0.2833333,-30.31167,-18.579789253887597,0.4037929010498791,3.283921798050123,7.184448,312.6944,358.5186,0.06256311,-0.39963,0.01331636,19.8599995560944,15
34.26933,0.4833337,-30.20773,-18.203055100138887,0.1772174574907399,2.9608077541740982,14.36264,312.4082,356.9907,0.1248546,-0.3971731,0.02658394,19.8799995556474,15
34.194,0.6833346,-30.10382,-17.654370113807616,-0.0274736587816062,2.611051404609544,21.52902,311.9055,355.3625,0.1866197,-0.3930903,0.03974814,19.8999995552003,15
33.87279,0.2833333,-29.82273,-16.96018303404099,-0.264641946328849,2.260708318173254,6.539455,300.6189,357.3362,0.06102922,-0.4932235,0.008084203,19.9199995547533,15
33.7976,0.4833338,-29.72472,-16.133653022907342,0.3717335836509289,1.7843924071933586,13.06347,300.1529,354.6032,0.1218123,-0.4904153,0.01614475,19.9399995543063,15
33.72242,0.6833332,-29.62675,-15.863783655711984,0.1239714824969667,1.6097040354730083,19.55632,299.3426,351.7233,0.1821199,-0.485748,0.0241515,19.9599995538592,15
33.64724,0.8833332,-29.52881,-15.4644833753674,-0.1019061287216884,1.3800567919602005,25.99862,298.1326,348.6035,0.2417225,-0.4792396,0.03207342,19.9799995534122,15
33.57206,0.9766696,-29.43089,-14.967310680454904,-0.3602614800930084,1.1190017458489052,32.36536,296.4333,345.1245,0.3003957,-0.4709159,0.03988105,19.9999995529652,15
33.21739,0.2833333,-29.17255,-14.8070772576227,-0.3853870304582948,1.0386479787976448,5.79663,295.3714,356.826,0.05750194,-0.5324911,0.003643437,20.0199995525181,15
33.14916,0.4833335,-29.07933,-14.5133062426856,-0.3640612915705764,0.8808299517319078,11.57435,294.8817,353.5878,0.1147987,-0.5298362,0.007282641,20.0399995520711,15
33.08095,0.6833336,-28.98615,-14.119751026694786,-0.3496003023853505,0.6649181182029764,17.31611,294.0393,350.2159,0.1717117,-0.5254189,0.01092528,20.0599995516241,15
32.72443,0.2833335,-28.72164,-13.499666243870111,0.324967920520655,0.3074313905656609,6.221381,299.1436,357.0365,0.05985229,-0.504333,0.00520965,20.079999551177,15
32.65454,0.4833338,-28.62367,-13.260401559767068,0.1153980427291888,0.1669208467253504,12.4411,298.6535,354.0187,0.1195279,-0.5015851,0.01059225,20.09999955073,15
32.58467,0.6833329,-28.52572,-12.912370826428637,-0.0722872020799133,-0.0325726255546392,18.62409,297.8045,350.8537,0.1787548,-0.497023,0.01593556,20.119999550283,15
32.51483,0.8833324,-28.4278,-12.492683491407496,-0.2924502178813006,-0.2748487028942783,24.74842,296.545,347.4511,0.2373181,-0.4906652,0.02121948,20.1399995498359,15
32.00721,0.283334,-28.07846,-11.81783469267168,0.3609321440329933,-0.702122471618118,7.384316,304.7532,358.1922,0.06434748,-0.4617378,0.01590593,20.1599995493889,15
31.91927,0.4833334,-27.97903,-11.695951411057056,0.1301758000440152,-0.8114720082397149,14.76631,304.3943,356.3275,0.1284329,-0.458684,0.0317983,20.1799995489419,15
31.83135,0.6833335,-27.87964,-11.450676354735492,-0.0786968075766836,-0.9712775966580978,22.13019,303.7614,354.3317,0.1919346,-0.4536123,0.04754669,20.1999995484948,15
31.33743,0.2833333,-27.54433,-11.120978408793563,-0.3200471378394163,-1.1671569179077323,7.863257,311.532,359.6385,0.06381533,-0.4092987,0.02527373,20.2199995480478,15
31.23879,0.4833332,-27.44867,-11.029486250246482,-0.3281655446506163,-1.1484252365559442,15.724,311.4552,359.2632,0.1273114,-0.4064014,0.05042252,20.2399995476007,15
31.14018,0.6833324,-27.35303,-10.786873402494797,-0.289833000747713,-1.174090640598649,23.58188,311.3185,358.8578,0.1901896,-0.4015898,0.07532819,20.2599995471537,15
31.0416,0.8833319,-27.25742,-10.432744822180172,-0.2583654603208016,-1.2298803962687437,31.43642,311.107,358.4009,0.252154,-0.3948879,0.09987359,20.2799995467067,15
30.94304,0.9766694,-27.16184,-10.007233773057877,-0.2870793054815083,-1.3016994199595295,39.28678,310.7933,357.8602,0.3129134,-0.3863288,0.1239431,20.2999995462596,15
30.38187,0.2833334,-26.84703,-9.931545465804628,-0.3226577682744646,-1.1273196012686846,7.63353,313.142,0.7690892,0.05841369,-0.3971315,0.03261133,20.3199995458126,15
30.27526,0.4833327,-26.76598,-9.68062809159792,-0.3117849200350217,-0.9875241707598548,15.2635,313.3006,1.566515,0.1165479,-0.3944611,0.06507079,20.3399995453656,15
30.16868,0.6833325,-26.68496,-9.291647071032852,-0.3077770633364647,-0.869866265798251,22.88821,313.5818,2.424679,0.1741419,-0.3900251,0.09723321,20.3599995449185,15
29.64007,0.2833338,-26.399,-8.544415353962837,0.3563380412830386,-0.9110665804669652,7.336147,303.116,0.3287923,0.05489032,-0.4754528,0.03298754,20.3799995444715,15
29.52951,0.4833337,-26.33419,-8.178019373219065,0.1363134217690482,-0.7225788370387356,14.67136,303.1837,0.6828722,0.1094931,-0.472516,0.0659423,20.3999995440245,15
29.41899,0.6833334,-26.26938,-7.673876601451379,-0.061827778833112,-0.5518870625060579,22.00322,303.3041,1.064496,0.1636145,-0.4676388,0.09863521,20.4199995435774,15
29.30851,0.883333,-26.20458,-6.772953477484688,0.4278428892018885,-0.5986964684165201,29.33178,303.489,1.490639,0.217038,-0.4608419,0.1309318,20.4399995431304,15
28.58503,0.2833338,-25.83845,-6.307666912931339,0.2734701822671552,-0.4070325924161828,7.774245,295.1976,0.5165393,0.0548267,-0.5348643,0.04012221,20.4599995426834,15
28.45831,0.4833337,-25.789,-5.720654357546234,0.1409823131282047,-0.2508905245586739,15.54939,295.3082,1.062358,0.109368,-0.5311478,0.08013478,20.4799995422363,15
28.33163,0.6833336,-25.73957,-5.049070908491604,-0.0239831776835038,-0.1151581271004964,23.32088,295.5046,1.651126,0.1633882,-0.5249775,0.1197657,20.4999995417893,15
27.66888,0.2833333,-25.4163,-4.330275378668485,-0.1477398777220115,0.0151550431603091,8.195506,292.0668,0.3232796,0.05769252,-0.5574459,0.04225804,20.5199995413423,15
27.53414,0.4833332,-25.36783,-3.9626683329474055,-0.1792412578386442,0.2875321594639537,16.38847,292.1388,0.6602098,0.1150735,-0.5531619,0.08428841,20.5399995408952,15
27.39943,0.6833332,-25.31938,-3.515176927096064,-0.1647795673569377,0.5096206813748694,24.57859,292.2675,1.026895,0.1718498,-0.546049,0.1258765,20.5599995404482,15
27.26476,0.8833328,-25.27094,-3.02789278266901,-0.1576711078047561,0.6999179265427635,32.76547,292.4687,1.445275,0.2277314,-0.536146,0.1668103,20.5799995400012,15
26.69862,0.2833333,-24.97171,-2.1950127714481624,0.5090559057002184,0.6710605171058432,7.97364,287.8625,359.2266,0.06016196,-0.586938,0.03549152,20.5999995395541,15
