pX,pY,pZ,aX,aY,aZ,reX,reY,reZ,rtX,rtY,rtZ,t,ID
-45.03911,0.2299999,-38.98453,3.518262666479273,0.0092926950169011,6.012952510483977,0.8818297,359.3058,2.168389,0.007579197,-0.006202342,0.01896734,1.93999995663762,6
-45.04387,0.4299999,-38.98098,3.807143013973807,-0.0959687862955126,6.319563932991976,1.087923,358.9401,2.438916,0.009294389,-0.009448474,0.02136787,1.95999995619059,6
-45.04864,0.6299999,-38.97745,4.147266328902113,-0.4166543732153382,6.645712290738516,1.296389,358.5758,2.707468,0.01101526,-0.01269137,0.02376214,1.97999995574355,6
-45.04726,0.2833333,-38.97846,4.433037685340125,-0.4989514305578721,6.897749779173701,0.07605147,1.466249,0.108098,0.0006756896,0.01279445,0.0009347637,1.99999995529652,6
-45.04907,0.4833333,-38.9771,4.665260507705668,-0.3681940691227336,7.077249358395847,0.1527424,1.097259,0.215544,0.001350876,0.009572715,0.001868124,2.01999995484948,6
-45.05089,0.6833333,-38.97574,4.990600231403548,-0.6889841707366795,7.326703680037404,0.2291624,0.7287757,0.3211842,0.002017595,0.006354082,0.002790077,2.03999995440245,6
-45.03843,0.2833333,-38.93902,5.248069831725587,-0.7674131818476584,7.488802281451733,0.9459724,5.749451,0.4373987,0.00843605,0.05011883,0.003398072,2.05999995395541,6
-45.04436,0.4833333,-38.92163,5.439593535546671,-0.6288147863791673,7.566881304062292,1.894663,5.392043,0.8689122,0.01687114,0.04690408,0.006795533,2.07999995350838,6
-45.05029,0.6833333,-38.90425,5.655548988845588,-0.937791771135341,7.640768742927484,2.848219,5.041939,1.295189,0.02532419,0.04368801,0.01019491,2.09999995306134,6
-45.01043,0.2833333,-38.85378,5.7999494805371725,-1.000435102372048,7.627411954638838,1.737432,9.570106,0.09130758,0.01517498,0.08339623,-0.0004707882,2.11999995261431,6
-45.00678,0.4833334,-38.82343,5.982434317723104,-1.2689546912816372,7.634796232007226,3.475825,9.2067,0.1708653,0.03034939,0.08017512,-0.0009484225,2.13999995216727,6
-44.95071,0.283333,-38.73628,6.086834399962157,-1.2895379827404592,7.550833950432796,2.849469,13.94501,0.02163496,0.02470278,0.1213508,-0.002830939,2.15999995172024,6
-44.93883,0.4833328,-38.68764,6.116847206245666,-1.087518408815097,7.381370333345863,5.700925,13.57884,0.02397333,0.0494054,0.118064,-0.005671563,2.1799999512732,6
-44.92696,0.6833327,-38.63903,6.163593007614132,-1.3274982114763707,7.210607984865092,8.554503,13.21086,0.00773976,0.07409547,0.1147059,-0.008512448,2.19999995082617,6
-44.85585,0.2833333,-38.5486,6.133845413365989,-1.3155688371722225,6.95627972235539,4.08461,18.49446,0.1019694,0.03531715,0.1605614,-0.004849015,2.21999995037913,6
-44.83458,0.4833332,-38.48016,6.032253592312408,-1.0770642899832457,6.625498094755102,8.17369,18.13724,0.1778341,0.07062149,0.1571071,-0.009704521,2.2399999499321,6
-44.81333,0.6833332,-38.41174,6.000910491937269,-1.2765861443853883,6.359093167036626,12.265,17.78129,0.2285671,0.1058508,0.1534539,-0.01455076,2.25999994948506,6
-44.6979,0.2833333,-38.27611,5.8909791841456,-1.2202265378432071,6.014204032863212,4.175801,24.76348,0.2297322,0.03601479,0.2142099,-0.005855164,2.27999994903803,6
-44.67071,0.483334,-38.20821,5.7083654913535895,-0.9333185924589552,5.599445444377011,8.354034,24.42145,0.4331186,0.07198707,0.2106753,-0.01172138,2.29999994859099,6
-44.54906,0.2833338,-38.05522,5.540317212535506,-1.0804658789207138,5.195674594963265,3.712693,28.78898,0.1959442,0.03180157,0.2484122,-0.006397567,2.31999994814396,6
-44.52063,0.4833336,-37.99694,5.302452107132055,-0.9677587755278332,4.730113409676285,7.425481,28.44237,0.3695901,0.06356013,0.2449465,-0.01278793,2.33999994769692,6
-44.49222,0.6833336,-37.93866,5.101899215438181,-1.047407632109655,4.309654718217146,11.13731,28.10368,0.520912,0.09523226,0.2412234,-0.0191717,2.35999994724989,6
-44.36964,0.2833333,-37.80546,4.833423293864982,-0.8655996401175012,3.834833326670548,3.663609,31.66865,0.1720202,0.03116199,0.2726708,-0.007278552,2.37999994680285,6
-44.33843,0.4833331,-37.7496,4.504777109701799,-0.4476684322497342,3.316531622825032,7.327156,31.32065,0.3220061,0.0622827,0.2692082,-0.01454795,2.39999994635582,6
-44.30722,0.6833328,-37.69376,4.273417683492973,-0.4582154655478168,2.916365376355401,10.99047,30.97915,0.45085,0.09332994,0.2654705,-0.02180048,2.41999994590878,6
-44.19872,0.2833331,-37.58879,3.9792135373932354,-0.2033326666517653,2.476860038661449,3.616219,34.6062,0.1782621,0.03058674,0.2972313,-0.00789997,2.43999994546175,6
-44.16525,0.4833331,-37.53522,3.6312984090777007,0.2916461737958843,2.0103365526342287,7.232374,34.25973,0.3348534,0.06113327,0.2937746,-0.01579023,2.45999994501472,6
-44.04236,0.2833333,-37.40405,3.3394015981037484,0.122022456819978,1.616625352624432,3.565536,37.92328,0.2920588,0.03024966,0.3247018,-0.007699522,2.47999994456768,6
-44.00795,0.4833333,-37.35199,3.008655392509695,-0.0459986130883927,1.2071281430003395,7.131697,37.58804,0.5636196,0.06046034,0.3212498,-0.0153899,2.49999994412065,6
-43.97354,0.683333,-37.29995,2.759179692215021,-0.0371124299358873,0.9157283552188104,10.69835,37.26704,0.8164696,0.09060277,0.3174849,-0.02306385,2.51999994367361,6
-43.80262,0.2833333,-37.11614,2.4777672462496483,-0.0078409794108297,0.6259375245178305,3.503057,40.59782,0.3473196,0.02971781,0.3466673,-0.007762189,2.53999994322658,6
-43.76726,0.4833333,-37.06593,2.1753013571362203,-0.0115000844171287,0.3515297236616064,7.00708,40.26836,0.6749458,0.05939837,0.3432326,-0.01551528,2.55999994277954,6
-43.73191,0.6833334,-37.01572,1.9388868203491607,-0.0214315405699809,0.1527343593619434,10.51154,39.95642,0.9846171,0.08900966,0.3394741,-0.0232545,2.57999994233251,6
-43.61386,0.2833333,-36.89408,1.6965831528735364,-0.0109777032150101,-0.0372273611753186,3.455451,41.4987,0.3234822,0.02919392,0.3540384,-0.008042872,2.59999994188547,6
-43.57799,0.4833333,-36.84531,1.4607558843753026,-0.0334540761444432,-0.2057985980882435,6.911461,41.16772,0.6268478,0.05834801,0.3506247,-0.01608014,2.61999994143844,6
-43.44206,0.2833333,-36.69974,1.3322529389302105,-0.0622024944377415,-0.2376694567364907,3.413663,41.89801,0.2844333,0.02870356,0.3573081,-0.008332308,2.6399999409914,6
-43.40583,0.483333,-36.65221,1.201009204861684,-0.0705652579466271,-0.259490928431056,6.827729,41.56394,0.5488495,0.05736934,0.3539124,-0.01665809,2.65999994054437,6
-43.36961,0.683333,-36.60469,1.016304002025784,0.3683339837819978,-0.3277365198462334,10.24222,41.24322,0.7953189,0.0859746,0.3502005,-0.02496679,2.67999994009733,6
-43.25166,0.2833333,-36.48399,0.9191228828437304,0.1360783327262177,-0.3117002040136611,3.382503,41.28835,0.1922531,0.0282097,0.3523628,-0.008836091,2.6999999396503,6
-43.21509,0.4833333,-36.43755,0.8270300486127056,-0.1014037957129699,-0.2915945826650272,6.764888,40.94695,0.3642032,0.05638314,0.348987,-0.0176644,2.71999993920326,6
-43.17853,0.6833331,-36.39112,0.6807437663202691,0.3218136950569275,-0.3082683290867898,10.14728,40.6132,0.5171453,0.08449887,0.3453061,-0.026475,2.73999993875623,6
-43.01337,0.2833338,-36.21963,0.6804126933977415,0.0738768302965066,-0.1988988773874211,3.337527,40.41026,0.1128107,0.02766909,0.3452086,-0.009134488,2.75999993830919,6
-42.97697,0.4833336,-36.17413,0.6840180804000937,-0.1792868159747765,-0.1066145325900649,6.674467,40.0628,0.2053317,0.05530385,0.3418556,-0.01825928,2.77999993786216,6
-42.94059,0.683334,-36.12864,0.5897664726450884,0.2282492508757709,-0.1051053686922713,10.01087,39.71818,0.2780351,0.08288235,0.3382125,-0.02736618,2.79999993741512,6
-42.82819,0.2833335,-36.01569,0.5802020953702609,-0.0353694256514478,-0.0434087103481353,3.292478,39.45911,0.007647921,0.0270644,0.3374397,-0.009635339,2.81999993696809,6
-42.79165,0.4833336,-35.97137,0.4657675232829561,0.1759770823276524,-0.0969208989683281,6.583987,39.10354,-0.005078226,0.05409858,0.3341087,-0.01925929,2.83999993652105,6
-42.66117,0.2833333,-35.83611,0.3557464931003409,0.3831421324115504,-0.1570820490596851,3.256357,38.6802,359.9356,0.02662385,0.3310562,-0.009939752,2.85999993607402,6
-42.62465,0.4833329,-35.79258,0.388597938467889,-0.1064591104077902,-0.0921422908633324,6.511366,38.31921,359.8506,0.05321873,0.3277407,-0.01986869,2.87999993562698,6
-42.58813,0.6833326,-35.74905,0.317480150278584,0.0923430447939152,-0.1245908610025594,9.76466,37.9507,359.744,0.07976063,0.3241606,-0.02977937,2.89999993517995,6
-42.41151,0.2833333,-35.56449,0.362398373010329,-0.1399121153543258,-0.0517590954952673,3.213383,36.09689,359.816,0.02616151,0.3097416,-0.01021271,2.91999993473291,6
-42.37575,0.4833333,-35.52119,0.4066117013023884,-0.3773935456332604,0.0078258937980564,6.424589,35.72698,359.6111,0.05229446,0.3064474,-0.02041427,2.93999993428588,6
-42.34001,0.6833333,-35.4779,0.3677592924142914,0.0458243472713651,0.0036841935765856,9.633445,35.34285,359.3835,0.07837804,0.3029118,-0.03059661,2.95999993383884,6
-42.21556,0.2833333,-35.34884,0.3357003730555661,0.4382021455314575,-0.0008426011762772,3.309345,35.60846,359.7976,0.02695262,0.3056861,-0.01051018,2.97999993339181,6
-42.17892,0.483333,-35.30405,0.3336842284264634,0.3749547925989898,0.0268161401141817,6.616457,35.23742,359.5735,0.05387536,0.3023793,-0.02100837,2.99999993294477,6
-42.03288,0.2833335,-35.15087,0.329493934021194,0.3362747932262364,0.0472620340013811,3.525548,36.81001,359.7873,0.02860205,0.3156362,-0.01147269,3.01999993249774,6
-41.99286,0.4833333,-35.10392,0.4376688905061527,-0.1580303408738526,0.1735140877981322,7.048794,36.43731,359.5513,0.05716961,0.3122791,-0.02293138,3.0399999320507,6
-41.95285,0.6833332,-35.057,0.3864782633116661,0.0371126185450387,0.1393266769847301,10.57092,36.04655,359.2893,0.08568528,0.3086252,-0.03437363,3.05999993160367,6
-41.82556,0.2833333,-34.92703,0.3304396824220887,0.2291194911634642,0.0961722366891457,3.558857,38.17873,359.8268,0.02885032,0.3269288,-0.01158268,3.07999993115664,6
-41.78465,0.4833331,-34.88021,0.2794301900910412,0.365719704427291,0.0529134556729999,7.115786,37.81051,359.63,0.05766509,0.3235676,-0.02315507,3.0999999307096,6
-41.74375,0.6833333,-34.83341,0.2578266604352777,0.261178360342484,0.0421779132701694,10.67029,37.42665,359.4082,0.08641513,0.3198939,-0.03470115,3.11999993026257,6
-41.56867,0.2833337,-34.65326,0.234323166149359,0.1822495016001464,0.0272841618654453,3.584484,39.88587,359.9291,0.0291889,0.3409354,-0.0112491,3.13999992981553,6
-41.52747,0.483334,-34.60619,0.1977027531074924,0.1289335673599773,-0.0027598673573443,7.16764,39.52826,359.8356,0.0583422,0.3375716,-0.02248476,3.1599999293685,6
-41.48627,0.683334,-34.55913,0.1530163676679947,0.1012303447066189,-0.0428416097784918,10.74916,39.16151,359.7185,0.08742992,0.3338775,-0.03369535,3.17999992892146,6
-41.36749,0.2833328,-34.43661,0.1103852078017624,0.0458235849054544,-0.0835233309431373,3.588448,40.80943,0.05366265,0.02950859,0.3484644,-0.01047751,3.19999992847443,6
-41.32714,0.4833331,-34.38873,-0.0181895747961746,0.6296855403117165,-0.2032441888074068,7.176064,40.46467,0.08631799,0.05898058,0.3451056,-0.0209372,3.21999992802739,6
-41.28681,0.6833336,-34.34085,-0.0274423586384102,0.3085699315428049,-0.210281651107234,10.76276,40.11893,0.09737295,0.08838563,0.3414085,-0.03137304,3.23999992758036,6
-41.11856,0.283333,-34.16847,-0.0302936297710942,-0.0114994427090773,-0.2116569849854066,3.567945,41.84758,0.08146429,0.02933201,0.356932,-0.01045403,3.25999992713332,6
-41.07794,0.4833332,-34.12127,-0.0785338634552772,-0.091473820297558,-0.2595640287898391,7.135097,41.50641,0.1414652,0.05862433,0.3535846,-0.0208969,3.27999992668629,6
-41.03733,0.6833333,-34.07409,-0.1285490654721499,-0.1447900368857912,-0.3102021998783435,10.70152,41.16605,0.1804973,0.08785107,0.3498944,-0.03131613,3.29999992623925,6
-40.92337,0.2833332,-33.95939,-0.1701405903259569,-0.2247647439529451,-0.3538540118369582,3.651338,42.40615,0.096668,0.0300068,0.3614659,-0.01073634,3.31999992579222,6
-40.8815,0.4833332,-33.91133,-0.1409187157996356,-0.3047391533393443,-0.3194244577221425,7.302124,42.0676,0.1718667,0.05997402,0.3581006,-0.02145885,3.33999992534518,6
-40.83963,0.6833332,-33.86327,-0.1113902483895685,-0.3580557025424803,-0.2841262978195757,10.95244,41.73077,0.225752,0.08987239,0.3543715,-0.03215803,3.35999992489815,6
-40.67729,0.2833333,-33.69872,-0.1837685320688535,0.0421620865179954,-0.3469078574681177,3.632941,43.24712,0.1151128,0.02983732,0.3682918,-0.01074757,3.37999992445111,6
-40.63518,0.4833333,-33.65131,-0.1624657061488505,-0.2225006233264677,-0.317471638858823,7.265437,42.91134,0.2090449,0.05963544,0.3649381,-0.02148159,3.39999992400408,6
-40.48742,0.2833335,-33.49878,-0.1338754776046471,-0.4861175088034483,-0.2783644110620606,3.587898,44.63451,0.1826683,0.02956529,0.379502,-0.0104137,3.41999992355704,6
-40.44556,0.4833339,-33.45213,-0.2555648877664538,-0.0827630854085406,-0.3886542686597067,7.175717,44.30573,0.3450269,0.05909238,0.3761638,-0.02081394,3.43999992311001,6
-40.40372,0.6833339,-33.40549,-0.2273299508308923,-0.3442899826986636,-0.3504174151374748,10.76339,43.98438,0.4880047,0.08855251,0.3724557,-0.03119091,3.45999992266297,6
-40.36189,0.8833335,-33.35887,-0.1937189186097399,-0.604771666576863,-0.3059332121676377,14.35046,43.66798,0.6117584,0.1179127,0.3683818,-0.04153677,3.47999992221594,6
-40.20691,0.2833335,-33.20238,-0.2507741180479215,-0.1982811504574932,-0.3482502783263257,3.527469,45.6899,0.2452381,0.02919425,0.3879932,-0.009977927,3.4999999217689,6
-40.16573,0.4833337,-33.15645,-0.2131863775816498,-0.4566712517229685,-0.3032524736894118,7.055242,45.36811,0.4710691,0.05835196,0.3846819,-0.01994302,3.51999992132187,6
-40.0266,0.2833332,-33.01295,-0.2910638798163631,-0.2338244244579511,-0.3738394980491932,3.485465,45.82401,0.2731632,0.0289399,0.389069,-0.009645059,3.53999992087483,6
-39.98619,0.4833331,-32.96728,-0.3623313447123379,-0.0088860283447866,-0.4380704066681247,6.971357,45.50524,0.5273106,0.05784368,0.3857756,-0.01927827,3.5599999204278,6
-39.94578,0.6833332,-32.92162,-0.2882341267249302,-0.4744421209124434,-0.3619311701317826,10.45692,45.19955,0.7642225,0.08668008,0.3821232,-0.02888735,3.57999991998076,6
-39.90538,0.8833334,-32.87598,-0.3090502354615623,-0.2453224360864073,-0.3772349491180797,13.94262,44.90499,0.985068,0.1154265,0.3781156,-0.0384666,3.59999991953373,6
-39.75839,0.2833332,-32.72772,-0.2107697447458321,-0.440988046336313,-0.2725792290650055,3.42852,45.31081,0.2630268,0.02849039,0.3849511,-0.009405592,3.61999991908669,6
-39.71896,0.4833331,-32.6825,-0.1111704420349539,-0.6356081342553732,-0.1655688167726019,6.857032,44.99216,0.5075027,0.05694347,0.381687,-0.01879723,3.63999991863966,6
-39.58698,0.2833334,-32.54734,-0.1618167324814621,-0.1632567905538817,-0.20705667171136,3.387485,44.24873,0.1786297,0.02796754,0.3764105,-0.009688294,3.65999991819263,6
-39.54784,0.4833332,-32.50295,-0.2110636620226174,0.2845269747374361,-0.2465312917480666,6.774657,43.92298,0.3381332,0.05589945,0.3731666,-0.01936507,3.67999991774559,6
-39.50871,0.683333,-32.45857,-0.1300562866486245,-0.1972338969261838,-0.1587593324563734,10.1617,43.60424,0.4794154,0.08377379,0.3695957,-0.02902245,3.69999991729856,6
-39.4696,0.8833332,-32.4142,-0.138662483844584,0.0167275227069848,-0.156623584107745,13.54845,43.29045,0.6030672,0.1115657,0.3657012,-0.03865144,3.71999991685152,6
-39.3286,0.283333,-32.27303,-0.0366515924052421,-0.1930513574662775,-0.0471414719595841,3.339103,42.57498,0.09542386,0.02744936,0.3628709,-0.009801825,3.73999991640449,6
-39.29028,0.4833335,-32.22912,0.0663570043570302,-0.4007402002312523,0.0612933301180795,6.677246,42.24311,0.1717314,0.05486356,0.3596544,-0.01958996,3.75999991595745,6
-39.16552,0.2833333,-32.10254,0.0263757607711312,0.0595893405545874,0.0282574481308373,3.293173,41.42954,-9.706359e-05,0.0268765,0.35357,-0.01016461,3.77999991551042,6
-39.12737,0.4833333,-32.05958,-0.0114977514786787,0.4963972703447973,-0.004172278476787,6.585318,41.09,359.9803,0.05372262,0.3503729,-0.02031787,3.79999991506338,6
-39.08923,0.6833333,-32.01663,0.0764461256368136,0.0047055215117315,0.0817635646558514,9.875998,40.7468,359.9404,0.08051272,0.3468866,-0.03045222,3.81999991461635,6
-38.91667,0.2833331,-31.84027,0.0830963328895109,0.2097801840618043,0.0915043637330867,3.250141,39.57957,359.9002,0.02638942,0.338457,-0.01042064,3.83999991416931,6
-38.87908,0.4833331,-31.79778,0.1917828524901637,-0.0078391495932867,0.1990741928257939,6.498629,39.23257,359.7806,0.05274942,0.3352812,-0.02082925,3.85999991372228,6
-38.8415,0.683333,-31.75531,0.3019800605459579,-0.2223217153627023,0.3063149439882942,9.745391,38.87622,359.6401,0.07905885,0.3318356,-0.03121822,3.87999991327524,6
-38.72406,0.2833333,-31.6355,0.278423912397244,0.2322585181820998,0.2824690689183278,3.209588,37.30839,359.8164,0.02602188,0.3197723,-0.01047468,3.89999991282821,6
-38.68745,0.4833333,-31.593,0.4088415192076908,0.0240476311857904,0.410650289156802,6.417066,36.95548,359.6129,0.05201545,0.3166169,-0.02093793,3.91999991238117,6
-38.65086,0.6833332,-31.55052,0.4059993867088636,0.2991649159226183,0.4049594903408007,9.622281,36.58858,359.3878,0.07796019,0.3132129,-0.03138142,3.93999991193414,6
-38.48321,0.2833332,-31.37908,0.3918718430933197,0.5784635331053452,0.3873186865592366,3.370812,37.0808,359.7914,0.02730653,0.3178859,-0.01107729,3.9599999114871,6
-38.44469,0.483333,-31.33444,0.4655785217009409,0.1693586221133682,0.4545905909668057,6.739392,36.72572,359.5616,0.05458182,0.3147003,-0.0221418,3.97999991104007,6
-38.40618,0.683333,-31.28982,0.5342705558441097,-0.2632677488994849,0.5167973140043642,10.10548,36.35417,359.3087,0.08180135,0.3112419,-0.03318377,3.99999991059303,6
-38.29111,0.2833333,-31.17503,0.4716286456691065,0.185560847444721,0.4514388077571212,3.543044,38.25258,359.8014,0.02863987,0.327545,-0.01176558,4.019999910146,6
-38.24995,0.4833333,-31.12873,0.5505127217959895,-0.029446242357821,0.5272330151352733,7.083839,37.89829,359.5805,0.05724404,0.3243202,-0.02351669,4.03999990969896,6
-38.20881,0.6833338,-31.08245,0.5017506799691276,0.2378299234931374,0.4769832054871266,10.62348,37.52697,359.3349,0.08579421,0.3207844,-0.0352493,4.05999990925193,6
-38.04606,0.2833332,-30.91868,0.4401251705490026,0.508242183898028,0.414259396079359,3.566757,40.04034,359.8656,0.02883886,0.3422192,-0.01175573,4.07999990880489,6
-38.00409,0.4833335,-30.87266,0.4591171766401984,0.0892065837363336,0.4280743792569552,7.131754,39.69291,359.709,0.05764133,0.3389908,-0.02349967,4.09999990835786,6
-37.85633,0.2833333,-30.71996,0.4734314132201689,-0.3543962867877883,0.4376648395339266,3.60186,41.10033,359.9803,0.02936676,0.350859,-0.01119277,4.11999990791082,6
-37.81462,0.4833336,-30.67294,0.364999956457396,0.082411280854659,0.3294453659679526,7.202763,40.76435,359.9398,0.05869913,0.3476235,-0.02236868,4.13999990746379,6
-37.77292,0.6833334,-30.62593,0.394459095700796,-0.1456623625940162,0.3562006108815545,10.8024,40.42276,359.8774,0.08796515,0.3440449,-0.03351938,4.15999990701675,6
-37.73124,0.8833334,-30.57894,0.3068196858004839,0.1075014620940635,0.2687746826002524,14.40054,40.07262,359.7921,0.117135,0.3401268,-0.04463382,4.17999990656972,6
-37.57706,0.2833334,-30.42259,0.210924308781685,0.3627561834310767,0.1735096273763581,3.557564,41.91288,0.07030619,0.02920669,0.3574679,-0.01052925,4.19999990612268,6
-37.53638,0.4833334,-30.37569,0.194819509822878,-0.0724828832260701,0.1522686810703497,7.114142,41.58673,0.1207235,0.05837493,0.3542535,-0.02104208,4.21999990567565,6
-37.39515,0.2833333,-30.23065,0.1802981337833671,-0.5333348388414128,0.1326782556403785,3.615927,42.66425,0.07775794,0.02963484,0.3635724,-0.01084517,4.23999990522861,6
-37.35324,0.4833331,-30.18345,0.0552531375555247,-0.1148215203064466,0.0084830565156828,7.231229,42.33949,0.1351302,0.05923168,0.3603438,-0.02167642,4.25999990478158,6
-37.31135,0.6833332,-30.13627,0.0695091360361672,-0.3622354284531625,0.019184971534095,10.84625,42.01542,0.1718811,0.08876343,0.3567562,-0.03248724,4.27999990433455,6
-37.26947,0.8833335,-30.0891,-0.0172093975311753,-0.1294568707891669,-0.06716613494617,14.46034,41.68944,0.1880161,0.1181972,0.3528136,-0.04326278,4.29999990388751,6
-37.12003,0.2833331,-29.93957,0.0098555764991417,-0.3225096183032679,-0.0391427456195074,3.647999,43.15665,0.09843875,0.02991443,0.3675609,-0.01090756,4.31999990344048,6
-37.0776,0.483333,-29.89208,0.0340622054495014,-0.5155624678320506,-0.0127485159392435,7.295422,42.83524,0.176572,0.05978954,0.3643316,-0.02180065,4.33999990299344,6
-36.94378,0.2833334,-29.75615,-0.0952665971890951,-0.0426879915393519,-0.1376729937129788,3.60339,43.98371,0.1210858,0.02954813,0.3742587,-0.0107943,4.35999990254641,6
-36.9015,0.4833339,-29.70957,-0.2240223404152388,0.4045738170737951,-0.261233401911106,7.206302,43.66504,0.2222831,0.05905767,0.3710458,-0.02157474,4.37999990209937,6
-36.85923,0.6833339,-29.663,-0.2185440300780712,-0.0787540691750501,-0.2535483249776966,10.80873,43.34998,0.3040552,0.08850014,0.3674658,-0.03233117,4.39999990165234,6
-36.67574,0.2833334,-29.47631,-0.3040685562892307,0.1325933629472928,-0.3320059344365447,3.555468,45.80723,0.2168038,0.02931247,0.38894,-0.01033134,4.4199999012053,6
-36.63377,0.4833335,-29.43048,-0.2719437411962389,-0.0808451719441697,-0.2948887159962154,7.111023,45.49842,0.4147612,0.05858771,0.3857444,-0.02064968,4.43999990075827,6
-36.59181,0.6833337,-29.38466,-0.2318064613206729,-0.2932381254390681,-0.2500780921821217,10.66651,45.19942,0.5951461,0.08779727,0.3821762,-0.03094472,4.45999990031123,6
-36.4654,0.2833334,-29.25646,-0.3305859179508132,0.1613410360368486,-0.3423908024623365,3.501151,46.08917,0.2487892,0.0289602,0.3912027,-0.009961211,4.4799998998642,6
-36.42428,0.4833333,-29.21108,-0.4209632764415261,0.5913533557688104,-0.4274259282688142,7.002602,45.78405,0.4792428,0.05788452,0.3880309,-0.01991063,4.49999989941716,6
-36.38317,0.6833327,-29.16572,-0.3778863272294046,0.0918218845446103,-0.3876304280658651,10.50387,45.49068,0.6929947,0.0867436,0.3844953,-0.02983641,4.51999989897013,6
-36.20863,0.2833331,-28.98749,-0.4120910395933705,0.2880115689524836,-0.419789253860376,3.450244,46.03868,0.2801766,0.02866295,0.3907957,-0.009522794,4.53999989852309,6
-36.16857,0.4833329,-28.9423,-0.4354399524531374,0.4873376198082395,-0.4417299808042259,6.900586,45.73714,0.542875,0.05728926,0.3876471,-0.01903063,4.55999989807606,6
-36.12852,0.6833326,-28.89711,-0.3098544526508355,-0.0027868053464419,-0.3189416956789728,10.35125,45.44921,0.7894839,0.0858548,0.3841448,-0.02851831,4.57999989762902,6
-36.00972,0.2833332,-28.77711,-0.3161878655516794,0.2028103294436156,-0.3236566905303348,3.408658,45.31104,0.2397944,0.02825245,0.384961,-0.009525923,4.59999989718199,6
-35.97025,0.4833333,-28.73242,-0.2041052240771286,-0.0153323843908331,-0.2079604207307568,6.817206,45.00655,0.4617856,0.0564683,0.3818347,-0.01903948,4.61999989673495,6
-35.93081,0.6833333,-28.68774,-0.2181794343127734,0.2488080381642597,-0.2166760027545073,10.22591,44.71308,0.6673861,0.08462588,0.378369,-0.02853291,4.63999989628792,6
-35.7636,0.2833333,-28.51779,-0.2359361915875482,0.5160843570808,-0.2281704786290852,3.365206,43.64995,0.1455573,0.02773014,0.3715773,-0.009737578,4.65999989584088,6
-35.72478,0.4833336,-28.47366,-0.2480884661403699,0.7342263717095856,-0.2335656439522324,6.729799,43.33787,0.273021,0.0554251,0.3684753,-0.01946221,4.67999989539385,6
-35.68599,0.6833335,-28.42955,-0.1233665018829768,-0.0027885731362864,-0.1081458853375707,10.09411,43.03098,0.3829671,0.08306419,0.3650552,-0.0291674,4.69999989494681,6
-35.57389,0.2833334,-28.31764,-0.1240222968570137,0.1693555192466764,-0.1045760684413821,3.318079,42.36542,0.05622785,0.0271727,0.3611784,-0.01000415,4.71999989449978,6
-35.53548,0.4833333,-28.27432,-0.1195015829110985,0.3446354339411485,-0.0971152234357859,6.635465,42.04637,0.09404866,0.05431462,0.3581,-0.01999687,4.73999989405274,6
-35.49709,0.6833335,-28.231,-0.0833389291703774,0.3106595450369648,-0.0605373586178927,9.951664,41.72715,0.1133449,0.08139928,0.3547215,-0.02996954,4.75999989360571,6
-35.33647,0.2833336,-28.06942,-0.0537757889651295,0.3075235430890156,-0.0313310694258319,3.275189,40.79853,359.945,0.02661809,0.3484305,-0.01041069,4.77999989315867,6
-35.29828,0.4833338,-28.0269,-0.0215263608920572,0.281911351768365,-0.0005285771663459,6.54905,40.47085,359.8712,0.0532065,0.3453737,-0.02080947,4.79999989271164,6
-35.15487,0.2833333,-27.87917,0.0982995433447158,-0.4598076590289957,0.110198305749332,3.234176,39.23334,359.8874,0.02625198,0.3356179,-0.01039967,4.8199998922646,6
-35.11755,0.4833332,-27.83681,0.1013057530855654,-0.2934125033760226,0.1085358236301878,6.466715,38.9015,359.7558,0.05247524,0.3325789,-0.02078785,4.83999989181757,6
-35.08024,0.6833335,-27.79446,0.1106755619669606,-0.1249263930538088,0.1121695586917681,9.697432,38.5598,359.6043,0.07864819,0.3292752,-0.03115609,4.85999989137053,6
-35.04293,0.8833334,-27.75213,0.1538843462063326,-0.1667427756881399,0.1476711642685373,12.92605,38.20584,359.4317,0.1047494,0.3257097,-0.04149383,4.8799998909235,6
-34.88982,0.2833335,-27.59734,0.193332526058743,-0.1787656538960263,0.1791463784471147,3.192401,36.57864,359.7823,0.02585219,0.3137434,-0.0105446,4.89999989047647,6
-34.85347,0.4833336,-27.55498,0.2382110057525537,-0.2143105479349204,0.2157771236334333,6.38255,36.23943,359.5454,0.05167647,0.3107286,-0.02107776,4.91999989002943,6
-34.71228,0.283333,-27.4103,0.2710788989184323,-0.2467183243981912,0.2395927166340321,3.545895,37.64297,359.7684,0.02863265,0.3225248,-0.01189369,4.9399998895824,6
-34.67111,0.483333,-27.36384,0.2905753244842515,-0.2493324468541416,0.2508517921074009,7.089397,37.30068,359.5152,0.05722961,0.3194251,-0.02377262,4.95999988913536,6
-34.62997,0.6833329,-27.31741,0.3060038819740605,-0.275468528427552,0.2588732822709119,10.63135,36.93946,359.2379,0.08577139,0.3160186,-0.03562947,4.97999988868833,6
-34.58884,0.8833329,-27.27099,0.3079633740437373,-0.2984673817860246,0.2538393848221432,14.17206,36.55594,358.9338,0.1142349,0.3123083,-0.04745414,4.99999988824129,6
-34.43948,0.2833335,-27.12297,0.3027527934398222,-0.2916717357482187,0.2434851908949831,3.576344,39.35032,359.8259,0.02887129,0.3365673,-0.011936,5.01999988779426,6
-34.39743,0.483334,-27.07676,0.2999089360129296,-0.3083971715538897,0.2371619271917211,7.150767,39.01447,359.6301,0.05770612,0.3334639,-0.02386052,5.03999988734722,6
-34.35538,0.6833342,-27.03056,0.2848200847974667,-0.321986826864492,0.2178458437190897,10.72299,38.66322,359.4112,0.08647633,0.3300354,-0.0357585,5.05999988690019,6
-34.19265,0.283333,-26.86686,0.2568356718741,-0.3057820539538757,0.1865849039295533,3.589577,40.98544,359.9281,0.02911818,0.349935,-0.01155237,5.07999988645315,6
-34.1505,0.4833329,-26.82051,0.2256681831079774,-0.3130987654570538,0.1527474618409385,7.177737,40.66017,359.8356,0.05819985,0.3468306,-0.02309014,5.09999988600612,6
-34.00313,0.2833332,-26.66814,0.2571274024996022,-0.3172803258025279,0.1850436284933465,3.590154,41.89621,0.0537438,0.02942205,0.3573331,-0.01076155,5.11999988555908,6
-33.96188,0.4833332,-26.62099,0.2758277215241165,-0.2916678636333347,0.2052501581298038,7.17954,41.58352,0.08850673,0.05880841,0.3542308,-0.02150499,5.13999988511205,6
-33.92063,0.6833332,-26.57386,0.2920107346421048,-0.2895772167504877,0.2232344490885687,10.76803,41.27026,0.1037306,0.08812827,0.3507811,-0.03222391,5.15999988466501,6
-33.8794,0.883333,-26.52674,0.1624893934497038,0.3559637850493677,0.0984557625776076,14.35554,40.95389,0.09891396,0.1173527,0.3469878,-0.04290837,5.17999988421798,6
-33.7239,0.2833331,-26.3711,0.1568663111253201,0.1007092871689345,0.0920315296042737,3.568262,42.63406,0.0768299,0.02924745,0.3633325,-0.01069376,5.19999988377094,6
-33.68259,0.4833331,-26.3245,0.146564379031588,-0.1493180855217987,0.0807862709782867,7.135691,42.32473,0.1342708,0.05845582,0.3602442,-0.02137532,5.21999988332391,6
-33.64128,0.6833327,-26.27792,0.1605298578210785,-0.1550676932313552,0.0970883999575917,10.7024,42.01631,0.1726815,0.08759907,0.3568068,-0.03203324,5.23999988287687,6
-33.4709,0.2833331,-26.1057,0.1677028576450538,-0.1299775834283619,0.1066256313958327,3.646864,43.37629,0.1040078,0.02990222,0.3693404,-0.01091608,5.25999988242984,6
-33.42838,0.4833331,-26.05831,0.1786338657522641,-0.1273641659278355,0.1197099681784372,7.29317,43.07061,0.1887153,0.05976521,0.3662333,-0.02181784,5.2799998819828,6
-33.38586,0.6833333,-26.01093,0.0571062939107243,0.5197451435434197,0.0046803133556032,10.9388,42.76759,0.25449,0.08955841,0.3627555,-0.03269417,5.29999988153577,6
-33.27249,0.2833333,-25.89856,0.0599000500197846,0.267103718265034,0.0104217884652157,3.623789,43.88175,0.103793,0.0296664,0.3734361,-0.0109744,5.31999988108873,6
-33.22984,0.4833334,-25.85185,-0.0605996215470625,0.5009273526534791,-0.1050435587766855,7.247007,43.57696,0.1884351,0.05929402,0.3703421,-0.02193471,5.3399998806417,6
-33.1872,0.6833334,-25.80516,-0.1810139353131816,0.7420692873954492,-0.219466430973533,10.86958,43.27483,0.2543127,0.08885336,0.3668778,-0.03286987,5.35999988019466,6
-33.02444,0.2833332,-25.64234,-0.1591670427100133,0.2979436512193483,-0.1948212957061237,3.573739,45.77369,0.1976781,0.02939744,0.3886732,-0.01053845,5.37999987974763,6
-32.98204,0.4833331,-25.5965,-0.1322100160677806,-0.1665676328588757,-0.1637035510755602,7.147409,45.4786,0.37724,0.05875728,0.3855958,-0.02106354,5.39999987930059,6
-32.93966,0.6833329,-25.55067,-0.1110785591309628,-0.1733630846244872,-0.135929544520966,10.72092,45.1923,0.5398263,0.08805104,0.3821423,-0.03156493,5.41999987885356,6
-32.76339,0.2833332,-25.37266,-0.088429958326337,-0.1493190790977476,-0.1076350888577266,3.512843,46.56792,0.2552037,0.02903412,0.3950389,-0.01007104,5.43999987840652,6
-32.72182,0.4833328,-25.32741,-0.1797212847263374,0.3324412229911618,-0.1917138030720195,7.025936,46.27882,0.4929946,0.05803193,0.3919853,-0.02013014,5.45999987795949,6
-32.68027,0.6833328,-25.28216,-0.268972814075461,0.7938159406866635,-0.2744670495085017,10.53872,46.00213,0.7150973,0.08696319,0.3885618,-0.03016491,5.47999987751245,6
-32.56126,0.2833334,-25.16216,-0.2239336024545508,0.3298281524799389,-0.2303362302723144,3.460109,46.45424,0.2800428,0.02870684,0.3941281,-0.009661688,5.49999987706542,6
-32.52076,0.4833336,-25.11713,-0.1720569504875868,-0.154545110787639,-0.1812070314230069,6.920193,46.16808,0.5434894,0.05737648,0.3910984,-0.01930802,5.51999987661839,6
-32.48026,0.6833336,-25.07212,-0.2335357190633082,0.2456728082522595,-0.2395665813388028,10.38056,45.89574,0.791734,0.08598512,0.38771,-0.02893408,5.53999987617135,6
-32.31228,0.2833336,-24.90236,-0.1483652473913075,-0.0148092876049522,-0.153674436382186,3.413925,45.75577,0.2463076,0.02827968,0.3885359,-0.009601017,5.55999987572432,6
-32.27249,0.4833336,-24.85782,-0.0602886466494361,-0.2700650391944169,-0.0638658336958393,6.827765,45.46719,0.4758183,0.05652335,0.3855298,-0.01918913,5.57999987527728,6
-32.23272,0.6833335,-24.8133,-0.1044398339748369,0.1458339908385003,-0.1016723612415084,10.24172,45.19022,0.6898742,0.08470817,0.3821799,-0.02875738,5.59999987483025,6
-32.05181,0.2833331,-24.62904,-0.0680906266578134,-0.098965853743748,-0.0620937228196005,3.366958,43.98124,0.1457871,0.02771679,0.3742582,-0.00982157,5.61999987438321,6
-32.01273,0.483333,-24.58511,-0.1534773154406821,0.1416533886121239,-0.1426514930974889,6.733247,43.68441,0.2743379,0.05539813,0.3712781,-0.01963027,5.63999987393618,6
-31.97366,0.6833329,-24.54119,-0.2381941310494362,0.3885449089357855,-0.2225005880330677,10.09918,43.39298,0.3863305,0.08302341,0.3679772,-0.0294188,5.65999987348914,6
-31.93461,0.8833328,-24.49729,-0.1824490492721828,-0.0508764293818381,-0.1685004538720917,13.46468,43.10501,0.4820654,0.1105684,0.3643588,-0.03917929,5.67999987304211,6
-31.78035,0.2833333,-24.34323,-0.1223562864777108,-0.5117286617697201,-0.1116147939477905,3.315587,42.16567,0.03146823,0.02709213,0.3595593,-0.01015047,5.69999987259507,6
-31.74181,0.4833333,-24.30009,-0.1854026922679885,-0.0890346122485999,-0.1729619888489644,6.630312,41.85995,0.04521754,0.0541532,0.3566076,-0.0202898,5.71999987214804,6
-31.60334,0.2833333,-24.15968,-0.0956800833405289,-0.3280852908073994,-0.085985081975938,3.269264,41.02629,359.9413,0.02653749,0.3502933,-0.01047603,5.739999871701,6
-31.56502,0.4833333,-24.11743,-0.0055065712652364,-0.5629535081378753,-6.400527245631338e-05,6.537198,40.71344,359.8646,0.05304533,0.347361,-0.02094048,5.75999987125397,6
-31.5267,0.6833332,-24.07519,-0.0601321660604838,-0.1277138854092433,-0.0566987840025916,9.803396,40.39386,359.769,0.07949874,0.3441463,-0.03138555,5.77999987080693,6
-31.48839,0.8833334,-24.03296,-0.114247330268391,0.2860950245408081,-0.1141276917050113,13.06803,40.0653,359.6536,0.105879,0.3406521,-0.0418019,5.7999998703599,6
-31.34119,0.2833333,-23.88576,-0.0456644108888077,-0.2265050577853085,-0.0571496174565098,3.225308,38.52715,359.8426,0.02611358,0.3298198,-0.01058115,5.81999986991286,6
-31.30388,0.4833333,-23.84354,-0.0574732766702865,-0.0402479479457248,-0.0754900015056811,6.448748,38.20726,359.6669,0.05219847,0.3269128,-0.02115083,5.83999986946583,6
-31.26659,0.6833336,-23.80134,-0.0651667343146158,0.1522817212514196,-0.0901397801398999,9.670163,37.87511,359.4716,0.07823372,0.3237468,-0.03170026,5.85999986901879,6
-31.10563,0.2833333,-23.63902,0.0686462625822024,-0.3415013361224799,0.0317923395874686,3.282433,37.24476,359.7874,0.02654887,0.3192483,-0.01090344,5.87999986857176,6
-31.06789,0.4833331,-23.59576,0.0645752408498872,-0.1364272691081527,0.0201277753583077,6.562735,36.92073,359.5558,0.05306827,0.3163375,-0.02179512,5.89999986812472,6
-30.92023,0.2833333,-23.44486,0.1730498992182312,-0.3519561261952581,0.1205617254259365,3.528446,38.28356,359.7805,0.02845655,0.3278065,-0.01190394,5.91999986767769,6
-30.87891,0.4833333,-23.39897,0.2760902764721855,-0.5622576635591175,0.2169246886082341,7.05469,37.95786,359.5406,0.05687835,0.3248349,-0.02379328,5.93999986723065,6
-30.83761,0.6833332,-23.3531,0.2227626812830578,-0.1014057046333075,0.1602489471941339,10.58003,37.61428,359.2776,0.08524927,0.3215544,-0.03566388,5.95999986678362,6
-30.79633,0.8833331,-23.30725,0.1660210964052524,0.3390613428823669,0.1012996809854342,14.10371,37.24969,358.9894,0.1135384,0.317968,-0.04750078,5.97999986633658,6
-30.63984,0.2833333,-23.15212,0.2356116960703929,-0.1458345470846552,0.1662130948269968,3.559784,39.99379,359.84,0.02871011,0.3418446,-0.01193307,5.99999986588955,6
-30.59765,0.4833333,-23.10644,0.2113006218584772,0.0691715186507839,0.1431610002590986,7.117845,39.67464,359.6595,0.05738469,0.3388683,-0.02385502,6.01999986544251,6
-30.55548,0.6833333,-23.06077,0.1865839804848477,0.2914954270240045,0.1214734892604738,10.67382,39.34129,359.4571,0.08599542,0.3355648,-0.03575025,6.03999986499548,6
-30.38549,0.2833336,-22.88944,0.3000458064343441,-0.1714475753438558,0.2433955294843635,3.595077,41.56725,359.9701,0.02923411,0.3546728,-0.01137429,6.05999986454844,6
-30.34336,0.4833333,-22.84296,0.2630908793256061,0.0655119634208554,0.2192121783499949,7.189275,41.2612,359.9212,0.05843459,0.3516886,-0.02273313,6.07999986410141,6
-30.30124,0.683333,-22.79649,0.2223908286231193,0.3097896367543412,0.1919886329084903,10.78214,40.9493,359.8523,0.08756895,0.3483588,-0.03406626,6.09999986365438,6
-30.1889,0.2833336,-22.68362,0.3202972538927611,-0.131200054187353,0.3171212607055942,3.563331,42.27168,0.06546941,0.02920528,0.3603894,-0.01067813,6.11999986320734,6
-30.14781,0.4833339,-22.63695,0.2473421560335253,0.1277131022218028,0.2728966593991373,7.125699,41.97557,0.1129916,0.05837305,0.3574193,-0.02133897,6.13999986276031,6
-30.10674,0.6833338,-22.59029,0.1649538451213281,0.3939442063325377,0.2185824838013843,10.68729,41.67986,0.1422758,0.08747609,0.354104,-0.0319761,6.15999986231327,6
-29.94328,0.2833333,-22.42692,0.0831963264389337,0.6152228461484087,0.1636932189517495,3.593745,43.26744,0.0890255,0.02943373,0.3684677,-0.01083833,6.17999986186624,6
-29.9013,0.4833331,-22.3803,0.1085308143704892,-0.1144734307948891,0.2305749672969526,7.186907,42.97446,0.1597703,0.05883006,0.365492,-0.02166318,6.1999998614192,6
-29.85933,0.683333,-22.3337,0.0040048472346967,0.0691702158945561,0.1696380351945876,10.77961,42.6833,0.2121698,0.08816074,0.3621567,-0.03246723,6.21999986097217,6
-29.68154,0.2833333,-22.1545,-0.0968077767989896,0.260131665670406,0.1089285060999287,3.641768,43.82537,0.1035526,0.0298165,0.372978,-0.01102028,6.23999986052513,6
-29.63871,0.4833336,-22.10752,-0.2009865803958739,0.2460187078022098,0.0574755504618131,7.282937,43.53474,0.1887656,0.05959375,0.3699927,-0.02202626,6.2599998600781,6
-29.59589,0.6833335,-22.06054,-0.308181847472305,0.2669270205612734,-0.0010358018294418,10.92349,43.24695,0.2560335,0.08930219,0.3666338,-0.03300703,6.27999985963106,6
-29.55309,0.8833337,-22.01358,-0.4082110754190253,0.2695406609956783,-0.0566829286047401,14.56371,42.95966,0.3052312,0.1189143,0.3629049,-0.04395385,6.29999985918403,6
-29.40412,0.2833333,-21.86671,-0.3862525939132091,-0.4397706280482508,0.0081462251177306,3.604393,45.05516,0.1504833,0.02955222,0.3829001,-0.0108366,6.31999985873699,6
-29.36134,0.4833333,-21.82055,-0.4819480448076589,-0.2367866604699265,-0.0426356812587904,7.208437,44.77013,0.2832507,0.05906621,0.3799312,-0.02165934,6.33999985828996,6
-29.31858,0.6833335,-21.77439,-0.5675693412218301,-0.0275299964980927,-0.0871583117914447,10.81201,44.49103,0.3990744,0.08851245,0.3765863,-0.03245742,6.35999985784292,6
-29.15558,0.2833331,-21.6121,-0.6326529044003628,0.1357281120573765,-0.1155482047588982,3.5441,46.62629,0.233969,0.02920606,0.3955082,-0.01036384,6.37999985739589,6
-29.11332,0.4833328,-21.56678,-0.7394963123005525,0.0672537927505521,-0.1638859578572358,7.088263,46.34977,0.4511807,0.05837522,0.3925596,-0.02071468,6.39999985694885,6
-28.96534,0.2833333,-21.41679,-0.82871208859655,0.0338008753571789,-0.2002983341285329,3.503949,46.87193,0.2692518,0.02898485,0.397471,-0.01000474,6.41999985650182,6
-28.92383,0.4833333,-21.37168,-1.0225479712806198,0.4622451474637047,-0.3451093325482333,7.00813,46.59906,0.5221931,0.05793355,0.3945386,-0.01999724,6.43999985605478,6
-28.88233,0.6833333,-21.32658,-1.1196160554082653,0.2341717063020407,-0.3563399728450171,10.5118,46.33961,0.7605695,0.08681425,0.3912356,-0.02996537,6.45999985560775,6
-28.84084,0.8833334,-21.2815,-1.2013124785348417,0.0155070608792831,-0.3608673164385401,14.01544,46.092,0.98575,0.1156043,0.3875655,-0.03990226,6.47999985516071,6
-28.68643,0.2833333,-21.12676,-1.258480721739364,-0.2481101410958491,-0.3501828162233877,3.441808,46.16581,0.275584,0.02856898,0.3918183,-0.009562589,6.49999985471368,6
-28.64634,0.4833333,-21.0818,-1.3421154673647742,-0.2909721722943957,-0.2893135919008252,6.883452,45.89435,0.5356566,0.05710118,0.3889164,-0.01910888,6.51999985426664,6
-28.60626,0.6833335,-21.03685,-1.4126674965944446,-0.2998583027407696,-0.2271835846004499,10.32524,45.63657,0.7814768,0.08557279,0.3856619,-0.028635,6.53999985381961,6
-28.44543,0.2833335,-20.86738,-1.4609963462767226,-0.3280845970030326,-0.1553129960167396,3.394961,44.09275,0.1705727,0.02801477,0.3751509,-0.009739837,6.55999985337257,6
-28.40624,0.4833335,-20.82286,-1.6314883950555057,0.2913206482590839,-0.2160536609328787,6.789373,43.81247,0.3249213,0.05599411,0.3722768,-0.01946579,6.57999985292554,6
-28.36707,0.6833338,-20.77836,-1.7432202576118847,0.0141127368506862,-0.1592676722268002,10.18348,43.53927,0.4637373,0.08391551,0.3690756,-0.02917179,6.5999998524785,6
-28.2038,0.2833333,-20.59713,-1.8304095658462067,-0.2536861055309727,-0.0988381477320423,3.341721,41.43309,0.07724462,0.02751093,0.3535761,-0.009684215,6.61999985203147,6
-28.16612,0.4833331,-20.55262,-1.9686753075564736,0.1538498297720354,-0.106133870084939,6.682438,41.14532,0.1383418,0.05498888,0.3507316,-0.01935172,6.63999985158443,6
-28.12845,0.683333,-20.50812,-2.0444764494937253,-0.0951325685573999,-0.0437273428877169,10.02244,40.85899,0.18291,0.08241158,0.3475892,-0.02900008,6.6599998511374,6
-28.0908,0.883333,-20.46364,-2.0818121326784613,-0.3347062354407027,0.0320597469845047,13.36167,40.57215,0.2108971,0.109756,0.344152,-0.03862084,6.67999985069036,6
-27.96285,0.2833333,-20.31347,-2.2191975687107046,0.1010560680873903,-0.0106772868712283,3.290444,39.07457,359.9539,0.02692291,0.3342932,-0.009980815,6.69999985024333,6
-27.92593,0.4833331,-20.26951,-2.439889360666996,-0.1196995543067079,-0.1152672157310306,6.579667,38.77719,359.8905,0.05381573,0.3314779,-0.01995063,6.7199998497963,6
-27.88902,0.683333,-20.22556,-2.6007392884465155,-0.331046647541682,-0.1893916405372415,9.867179,38.47396,359.8095,0.0806532,0.32839,-0.02989914,6.73999984934926,6
-27.75578,0.2833333,-20.07281,-2.8580013921269902,0.1329414291984533,-0.3848719197317187,3.240582,37.27048,359.8806,0.02646049,0.3194422,-0.01002185,6.75999984890223,6
-27.71978,0.4833333,-20.02917,-3.061707669993666,0.5807255319832583,-0.5539384461971935,6.479545,36.96785,359.744,0.05289186,0.3166508,-0.02003263,6.77999984845519,6
-27.68379,0.6833332,-19.98554,-3.355041049789758,0.1073289096187765,-0.8300985909517422,9.716782,36.65524,359.589,0.07927278,0.3136067,-0.03002446,6.79999984800816,6
-27.54976,0.2833333,-19.84102,-3.56766534479085,-0.3822721027745744,-1.0490694274722363,3.192539,33.32011,359.7596,0.02608603,0.2866368,-0.009994957,6.81999984756112,6
-27.51556,0.4833332,-19.79685,-3.821723089804721,0.0169008020041778,-1.3247187757456145,6.38283,33.00839,359.5016,0.052144,0.2838744,-0.01997906,6.83999984711409,6
-27.48137,0.6833334,-19.7527,-4.165956873303585,-0.2404444660304715,-1.6443541712681746,9.570659,32.67997,359.2241,0.07815301,0.2808914,-0.0299443,6.85999984666705,6
-27.44719,0.8833333,-19.70857,-4.411318489648266,-0.4883812793915226,-1.889624906557985,12.75575,32.33258,358.9257,0.1040938,0.2776909,-0.0398763,6.87999984622002,6
-27.34205,0.2833333,-19.57239,-4.698107571028292,-0.060982197959236,-2.1946391241463807,3.527243,32.5488,359.7476,0.02892586,0.2801695,-0.01073821,6.89999984577298,6
-27.30507,0.4833332,-19.52291,-5.041310352866713,-0.2901004639013186,-2.535638214638931,7.05219,32.23465,359.4754,0.05781661,0.2773473,-0.02146335,6.91999984532595,6
-27.26809,0.6833332,-19.47346,-5.401766979639479,-0.0296184224925881,-2.9147972076991184,10.57588,31.90084,359.1814,0.08665568,0.2742619,-0.03216527,6.93999984487891,6
-27.15685,0.2833335,-19.30982,-5.6635277390956205,0.2413179956160223,-3.2162613579457062,3.556679,31.44656,359.7804,0.02935262,0.2709178,-0.01025326,6.95999984443188,6
-27.12108,0.4833335,-19.25895,-5.947847420524152,-0.1698767196576097,-3.4831295943549563,7.111439,31.13622,359.542,0.0586728,0.2681037,-0.02048736,6.97999984398484,6
-27.08533,0.6833335,-19.2081,-6.118171602446463,-0.5983209766927946,-3.657885238267049,10.66382,30.80811,359.2818,0.08792754,0.2650313,-0.03069916,6.99999984353781,6
-26.97632,0.283333,-19.00955,-6.308122563963153,-0.1390370531088415,-3.868387375261237,3.590768,29.61888,359.8919,0.03004845,0.2555081,-0.008919789,7.01999984309077,6
-26.94361,0.483333,-18.95608,-6.562429979237017,-0.33731661149243,-3.986572106337954,7.180254,29.31981,359.7666,0.06006546,0.2527072,-0.01781398,7.03999984264374,6
-26.9109,0.6833329,-18.90262,-6.693894068501216,-0.527233143359169,-4.017656049349228,10.768,29.01008,359.6211,0.09001451,0.2496592,-0.0266881,7.0599998421967,6
-26.8782,0.8833327,-18.84918,-6.846769018190809,-0.0428599011740459,-4.107660265839922,14.35389,28.6869,359.4536,0.1198662,0.2463672,-0.03553347,7.07999984174967,6
-26.81166,0.2833332,-18.69351,-6.891171975309788,0.4242640383001528,-4.120322308886532,3.554772,30.27032,0.04289912,0.03003809,0.2609601,-0.007737044,7.09999984130263,6
-26.78092,0.4833332,-18.63964,-6.971504781872245,-0.0308389554953393,-4.051454576016869,7.108428,29.9866,0.06912801,0.06003823,0.2581723,-0.01545635,7.1199998408556,6
-26.75019,0.6833332,-18.58578,-7.076980618070294,0.2170977261439397,-4.063876644989611,10.66117,29.70205,0.07773321,0.08997183,0.2551373,-0.02315857,7.13999984040856,6
-26.69219,0.2833333,-18.47686,-7.074752586073771,0.4754887049447497,-4.00921819815659,3.625176,30.21549,0.06811489,0.03069197,0.2604864,-0.007670394,7.15999983996153,6
-26.66125,0.4833333,-18.42167,-7.063071774416663,0.0517489504943441,-3.83563107099814,7.249619,29.93497,0.1185632,0.06134433,0.2576908,-0.015331,7.17999983951449,6
-26.63031,0.6833333,-18.36649,-6.936059680754877,-0.3892399578701667,-3.596277579238542,10.87383,29.65516,0.151678,0.09193167,0.2546384,-0.02297367,7.19999983906746,6
-26.71228,0.2833332,-18.38213,-6.803915473289614,0.0574987711192562,-3.415122940314829,3.637966,31.30378,0.1066177,0.03081575,0.2696274,-0.007668245,7.21999983862042,6
-26.68074,0.4833329,-18.327,-6.621316250726789,-0.1533258448229137,-3.078342440016005,7.275364,31.02781,0.1958675,0.0615914,0.2668284,-0.01532658,7.23999983817339,6
-26.64922,0.6833329,-18.27189,-6.336377546653061,-0.3557871366545975,-2.693591578858797,10.91205,30.75508,0.26819,0.09229533,0.2637615,-0.02296715,7.25999983772635,6
-26.6177,0.8833331,-18.2168,-6.067352279071447,0.1160412979122686,-2.388323021508427,14.54814,30.48337,0.3234301,0.1228976,0.2604296,-0.03058478,7.27999983727932,6
-26.72587,0.2833335,-18.29312,-5.713553168716185,0.5706203565023272,-2.04338475302255,3.591847,29.454,0.1138914,0.0305626,0.2540586,-0.007006196,7.29999983683228,6
-26.69667,0.4833333,-18.23764,-5.244902811621127,0.1029731160386497,-1.5859152049711067,7.18319,29.17979,0.2108362,0.06108652,0.251292,-0.01400288,7.31999983638525,6
-26.66749,0.6833333,-18.18217,-4.818936738689871,0.3383647077116053,-1.2117484410231807,10.77386,28.90932,0.2912467,0.09154077,0.2482795,-0.02098368,7.33999983593822,6
-26.79459,0.2833332,-18.22087,-4.332748603058182,0.5842106192837833,-0.8113021028362812,3.530526,28.95586,0.1968509,0.03025577,0.2498368,-0.006038894,7.35999983549118,6
-26.76767,0.4833332,-18.16537,-3.720208271976549,0.1479255525430052,-0.2639597115982255,7.060884,28.69009,0.3776076,0.06047345,0.2470926,-0.01207029,7.37999983504415,6
-26.74075,0.6833332,-18.10988,-3.0577886335842277,-0.3056088085454136,0.3038793020914347,10.59099,28.43337,0.5434688,0.0906245,0.2441144,-0.01808801,7.39999983459711,6
-26.8518,0.2833335,-18.15366,-2.4349465707793847,0.1285851383512019,0.7845752408442355,3.473211,28.05355,0.2411919,0.02991108,0.2422016,-0.005304032,7.41999983415008,6
-26.8269,0.4833336,-18.09826,-1.672781672889954,-0.0947844955981731,1.4143908652072152,6.946493,27.79245,0.4669397,0.05978569,0.2394813,-0.01060133,7.43999983370304,6
-26.802,0.6833339,-18.04288,-0.8951090799049304,-0.3097908284360992,2.0342418418823627,10.4193,27.54322,0.679474,0.08959419,0.2365418,-0.0158796,7.45999983325601,6
-26.89283,0.2833335,-18.03165,-0.1964728619925431,0.149492528273789,2.5098284655012986,3.426998,23.7951,0.1890986,0.0295994,0.2060216,-0.004550579,7.47999983280897,6
-26.87162,0.4833334,-17.97565,0.4979772083114291,0.5915264716334308,2.9635440649486195,6.853487,23.53004,0.3642518,0.05916329,0.2033468,-0.009081065,7.49999983236194,6
-26.85041,0.6833334,-17.91967,1.3102147796824042,0.11133374455711,3.494624410003908,10.27975,23.27349,0.5248683,0.08866534,0.200491,-0.01360201,7.5199998319149,6
-26.98677,0.2833334,-17.85657,2.007923456767301,0.3341804365285295,3.817485159528635,3.38028,20.47839,0.1137851,0.02920093,0.1776517,-0.004266107,7.53999983146787,6
-26.96788,0.4833334,-17.80067,2.6668110088853965,0.5674812887997761,4.088627392909624,6.759715,20.20721,0.2126946,0.0583661,0.1750155,-0.008518307,7.55999983102083,6
-26.94899,0.6833332,-17.74478,3.4264663630444616,0.1186518029851254,4.419965205247921,10.13864,19.93985,0.2962319,0.08747208,0.1722285,-0.01276187,7.5799998305738,6
-26.93011,0.8833332,-17.68891,4.122051740882043,-0.3474266683453572,4.687017033235946,13.51692,19.6745,0.3645622,0.1164929,0.1692931,-0.01699338,7.59999983012676,6
-27.04654,0.2833333,-17.63195,4.707453814628909,0.0742224398320242,4.769633740296115,3.327843,17.59851,0.031153,0.02873664,0.1529007,-0.004173301,7.61999982967973,6
-27.02938,0.4833336,-17.57649,5.3719629245137455,-0.1616918947552229,4.910276188857541,6.654413,17.32108,0.04691739,0.05743786,0.1503027,-0.00833529,7.63999982923269,6
-27.01223,0.6833336,-17.52103,5.939284381398444,-0.3892430302457079,4.962105344322286,9.980104,17.04249,0.0464733,0.08608243,0.1475796,-0.01248921,7.65999982878566,6
-27.08596,0.2833334,-17.41936,6.371567027403106,0.0574958881373268,4.861787400018285,3.277033,14.41194,359.9115,0.02827089,0.1254072,-0.004352844,7.67999982833862,6
-27.07011,0.4833335,-17.3644,6.692453840764173,0.4869853183361157,4.668948482157932,6.552635,14.12498,359.8064,0.0565103,0.1228464,-0.008700554,7.69999982789159,6
-27.05426,0.6833334,-17.30947,7.097409672153248,-0.005751556007241,4.56131210394917,9.826408,13.82991,359.6844,0.0846929,0.1201873,-0.01303508,7.71999982744455,6
-27.08483,0.2833333,-17.16275,7.494870586853025,0.2045504096266204,4.427263009710515,3.227773,12.11883,359.838,0.0278574,0.1055573,-0.004377779,7.73999982699752,6
-27.07012,0.4833332,-17.10832,7.75973074572061,0.4253068630352727,4.195012788867398,6.453762,11.82662,359.6594,0.05568444,0.1030263,-0.008750796,7.75999982655048,6
-27.05542,0.6833332,-17.05391,7.888081069885086,0.6042469407789983,3.868301982629079,9.677814,11.52217,359.4628,0.08345857,0.1004152,-0.01311549,7.77999982610345,6
-27.04071,0.8833331,-16.9995,8.006748589142365,-0.164652168182448,3.555703849035993,12.89956,11.20331,359.2469,0.111156,0.09772655,-0.01746439,7.79999982565641,6
-26.99482,0.2833333,-16.87942,8.134383799975659,-0.0170751704457627,3.2989019091017955,3.283642,12.06063,359.8067,0.02831557,0.1050594,-0.004686526,7.81999982520938,6
-26.97941,0.4833334,-16.82412,8.122137447153037,0.1409559596260073,2.962278089762714,6.565313,11.76654,359.5963,0.05659939,0.1025339,-0.009367547,7.83999982476234,6
-26.964,0.6833335,-16.76884,8.11155766226371,-0.3831432656373985,2.674664031076784,9.844909,11.45808,359.3672,0.0848283,0.09992582,-0.01403947,7.85999982431531,6
-26.88314,0.2833334,-16.60297,8.127272618783351,-0.2042034076913167,2.4139551292286576,3.534224,17.268,359.8723,0.03032026,0.1500845,-0.005731051,7.87999982386827,6
-26.86251,0.4833333,-16.54476,8.004686124098303,-0.0148093122592372,2.085804321735805,7.066832,16.9793,359.7264,0.06060331,0.1474953,-0.0114558,7.89999982342124,6
-26.8419,0.6833335,-16.48658,7.901537782032875,-0.5075457178229195,1.837190266534554,10.59953,16.67868,359.5591,0.09083354,0.1447661,-0.01718659,7.91999982297421,6
-26.71707,0.2833333,-16.29538,7.806075666852955,-0.2972438640480271,1.6346967872850744,3.559771,24.44663,359.9837,0.03032567,0.2116247,-0.006714865,7.93999982252717,6
-26.69093,0.4833333,-16.23903,7.57504736583731,-0.0764880379730369,1.379837464746176,7.118684,24.16889,359.9477,0.06061112,0.208977,-0.01344282,7.95999982208014,6
-26.66479,0.6833333,-16.1827,7.210346806368214,0.1024508533164275,1.0799262549791582,10.67638,23.88641,359.8936,0.09082895,0.2061289,-0.02015736,7.9799998216331,6
-26.63866,0.8833332,-16.12638,6.982335395708116,0.0538392687696911,0.9043536311545745,14.23274,23.59684,359.8206,0.12095,0.2030835,-0.0268509,7.99999982118607,6
-26.49289,0.2833332,-15.97905,6.629590948146838,0.0444306774957349,0.6892465985011373,3.585077,30.84221,0.1319723,0.03046049,0.2657462,-0.007208187,8.01999982073903,6
-26.46263,0.4833332,-15.92424,6.15601818667642,0.0209089097755835,0.4425858325981995,7.170057,30.57959,0.2457317,0.06088069,0.2630553,-0.01442467,8.039999820292,6
-26.43238,0.6833332,-15.86945,5.898205743847299,0.0099321699940391,0.2890693752169753,10.75451,30.32188,0.3438887,0.09123237,0.2601076,-0.02162499,8.05999981984496,6
-26.26597,0.2833333,-15.7114,5.534619252647055,0.0381583162435415,0.1028907615363259,3.553472,35.52486,0.1784078,0.03000161,0.3048778,-0.007976716,8.07999981939793,6
-26.23232,0.4833333,-15.65923,5.071380543520384,0.0522717390582411,-0.1074815528466555,7.106649,35.26732,0.3391316,0.05995985,0.3021713,-0.01595974,8.09999981895089,6
-26.19869,0.6833333,-15.60708,4.673247281507326,-0.6413583507425641,-0.1932896990369261,10.65949,35.01769,0.4851473,0.08985149,0.2991745,-0.02392513,8.11999981850386,6
-26.01845,0.2833333,-15.43141,4.331508728321079,-0.418511526439546,-0.3059903090342342,3.628854,39.05699,0.1779434,0.03035985,0.3340613,-0.00912118,8.13999981805682,6
-25.9808,0.4833332,-15.38039,3.911773112739617,-0.1852108412598099,-0.4348317498196135,7.257456,38.8007,0.3398298,0.06068012,0.3313224,-0.01823147,8.15999981760979,6
-25.94317,0.6833333,-15.32938,3.422360232928689,0.0062732517678251,-0.5707494289377539,10.88642,38.55238,0.4860658,0.0909343,0.3282508,-0.02732895,8.17999981716275,6
-25.90555,0.8833331,-15.27838,2.980789790528121,0.7101293888525642,-0.7602272461894852,14.515,38.31009,0.6171066,0.1210857,0.3248495,-0.0364048,8.19999981671572,6
-25.67991,0.2833334,-15.06299,2.6624294652659266,0.4110367541208723,-0.8044148835086276,3.616313,42.54277,0.201277,0.03004028,0.362553,-0.009810988,8.21999981626868,6
-25.63969,0.4833333,-15.01424,2.2945791611384294,0.1270678205968061,-0.8521260782913256,7.232476,42.28975,0.3868692,0.0600418,0.3598084,-0.01960967,8.23999981582165,6
-25.59948,0.6833333,-14.96551,1.9433182561959583,0.5241491367517198,-1.004213136627074,10.84834,42.04634,0.5579699,0.08997396,0.3567052,-0.02938646,8.25999981537461,6
-25.55929,0.8833333,-14.91679,1.7093758112934374,0.2704273531761667,-1.0324836436688312,14.46391,41.81059,0.7143506,0.119804,0.3532457,-0.03914136,8.27999981492758,6
-25.39664,0.2833335,-14.76982,1.4495375537842214,0.0318292312568593,-1.062532734422673,3.55592,45.64342,0.2643614,0.02949172,0.3876112,-0.009908608,8.29999981448054,6
-25.35538,0.4833332,-14.72326,1.1755369491882277,-0.246006476146569,-1.0851695046605645,7.111984,45.39714,0.5138119,0.05894638,0.3848797,-0.01980515,8.31999981403351,6
-25.31414,0.683333,-14.67672,1.017575962180853,-0.2973712962400642,-1.0335368603111057,10.668,45.16445,0.7500513,0.08833483,0.381776,-0.02967989,8.33999981358647,6
-25.13826,0.2833332,-14.51417,0.8497139842982868,-0.3090454573413724,-0.9803978224028428,3.494929,47.15224,0.2976785,0.02898734,0.3997071,-0.009816873,8.35999981313944,6
-25.09698,0.4833333,-14.469,0.6840772680732954,-0.3343450357794219,-0.9168416219836342,6.990059,46.90945,0.5809569,0.05793838,0.3969954,-0.01962178,8.3799998126924,6
-25.05571,0.6833334,-14.42384,0.4543711766381548,0.2937024731806274,-0.9667872344812558,10.48494,46.68213,0.8512858,0.08682188,0.3939122,-0.0294081,8.39999981224537,6
-24.8665,0.2833335,-14.24672,0.3570251787324281,0.0308510435812063,-0.905183225678913,3.437901,47.61537,0.3051042,0.02851848,0.4034119,-0.009673852,8.41999981179833,6
-24.82569,0.4833333,-14.20245,0.2693239850473645,-0.2168771111640031,-0.8391136832030188,6.875744,47.37366,0.5959743,0.0569992,0.4007233,-0.01933621,8.4399998113513,6
-24.78488,0.6833333,-14.15819,0.0782627622998894,0.2164452228203942,-0.920068195632144,10.31374,47.14773,0.8746762,0.08541965,0.3976718,-0.02897833,8.45999981090426,6
-24.74409,0.8833332,-14.11395,0.0347010996086396,-0.0010353310557307,-0.8773025959234761,13.7518,46.93636,1.142977,0.1137543,0.3942605,-0.03859123,8.47999981045723,6
-24.58202,0.2833334,-13.96745,-0.0012537612906839,-0.2033921575889599,-0.835646900263546,3.392751,46.56944,0.1976323,0.02787332,0.3950799,-0.01011857,8.49999981001019,6
-24.5413,0.4833334,-13.92435,-0.0177415552472588,-0.4449866229222635,-0.7870739645580915,6.785015,46.31886,0.3803685,0.05570997,0.392419,-0.0202267,8.51999980956316,6
-24.5006,0.6833333,-13.88126,-0.1464311065395804,0.1802038475474955,-0.8329069828162741,10.17707,46.0773,0.5496247,0.08348947,0.3894137,-0.03031414,8.53999980911613,6
-24.32553,0.2833334,-13.72072,-0.070653904512099,-0.0855049375630647,-0.7060606303420354,3.340842,45.36666,0.1107903,0.02726813,0.3854476,-0.01034975,8.55999980866909,6
-24.28531,0.4833334,-13.67849,0.0159243871818475,-0.3360898577720834,-0.5792942866492492,6.680779,45.10904,0.2065741,0.05450134,0.3828131,-0.0206873,8.57999980822206,6
-24.24511,0.6833335,-13.63627,-0.0382325760388404,0.0943755831212611,-0.5682514805573362,10.02015,44.85512,0.287922,0.08168012,0.3798534,-0.03100429,8.59999980777502,6
-24.0564,0.2833332,-13.46255,0.079369085815923,-0.1259625496354727,-0.4098746900734102,3.290925,43.91808,359.9795,0.02656468,0.3737942,-0.01090361,8.61999980732799,6
-24.01621,0.4833333,-13.42155,0.2018487133707545,-0.3311771350342216,-0.2543343955812158,6.580711,43.64979,359.9435,0.0530991,0.3711846,-0.02179506,8.63999980688095,6
-23.97604,0.6833334,-13.38055,0.1647799148789772,0.1446586939853458,-0.2413078090394869,9.868982,43.37738,359.8912,0.07957771,0.3682693,-0.03266721,8.65999980643392,6
-23.93588,0.8833333,-13.33956,0.1306591228757199,0.6100057411351258,-0.2297069190463556,13.15604,43.09896,359.8223,0.1059829,0.3650513,-0.04350943,8.67999980598688,6
-23.89574,0.9766707,-13.29858,0.236458365649657,0.1598866169978015,-0.1027194709467345,16.44177,42.81244,359.7358,0.1322926,0.3615334,-0.05431243,8.69999980553985,6
-23.70403,0.2833335,-13.12618,0.3509201009969231,-0.3007213028610043,0.0251342917484329,3.234352,41.22116,359.8441,0.02593641,0.3519099,-0.01120673,8.71999980509281,6
-23.66471,0.4833335,-13.08562,0.2594192655393179,0.1331590108319685,-0.0348896830084122,6.466997,40.94276,359.6724,0.05184456,0.3493324,-0.0224012,8.73999980464578,6
-23.6254,0.6833333,-13.04507,0.311624342054607,-0.0837636786792521,0.0275195971041775,9.69782,40.65257,359.4834,0.07770358,0.3464766,-0.03357451,8.75999980419874,6
-23.45662,0.2833332,-12.89129,0.3578766484924465,-0.2855625166179141,0.0800181553082879,3.284717,40.07728,359.7908,0.02630036,0.3425616,-0.01153467,8.77999980375171,6
-23.41683,0.4833332,-12.84987,0.408796941137755,-0.5265993226610871,0.1313153708563188,6.567434,39.79482,359.5652,0.05257133,0.3399802,-0.0230562,8.79999980330467,6
-23.37705,0.6833332,-12.80846,0.4857199396549454,-0.5411652777223575,0.2128314518895653,9.848042,39.49717,359.3214,0.07879114,0.337119,-0.03455567,8.81999980285764,6
-23.19133,0.2833334,-12.63909,0.5503789875991778,-0.5160402371691265,0.2820955871517547,3.534818,41.77971,359.8094,0.02822197,0.3564504,-0.01255088,8.8399998024106,6
-23.14761,0.4833334,-12.59539,0.6135946018565228,-0.5045399028118718,0.34824992116401,7.067747,41.49814,359.601,0.05640931,0.3538008,-0.02508666,8.85999980196357,6
-23.10391,0.6833333,-12.55171,0.5245260194162107,0.1603071938206942,0.2811402383939132,10.60057,41.20098,359.3724,0.0845487,0.3508135,-0.03760631,8.87999980151653,6
-23.06023,0.8833333,-12.50804,0.436927136611974,0.6741774179916452,0.2147036782836195,14.13112,40.88553,359.1219,0.1125989,0.3474922,-0.05008645,8.8999998010695,6
-22.90341,0.2833334,-12.36848,0.5192207332959065,0.1610196436191903,0.2960569278562452,3.564159,43.48368,359.8678,0.02845862,0.3702792,-0.01259087,8.91999980062246,6
-22.85883,0.4833333,-12.32505,0.4253886663616697,0.3581489141663094,0.2201261375430157,7.126868,43.20845,359.7178,0.05688206,0.3676225,-0.02516975,8.93999980017543,6
-22.81427,0.6833332,-12.28163,0.3241860692125016,0.5729806229601329,0.1374588151713975,10.68778,42.92131,359.549,0.08524192,0.3646104,-0.03772067,8.95999979972839,6
-22.64362,0.2833334,-12.12656,0.361347883139782,0.1129300571314744,0.1745404199467426,3.593095,45.05609,0.01211282,0.02899871,0.3829442,-0.01191391,8.97999979928136,6
-22.5993,0.4833335,-12.08222,0.395015411108826,-0.3571216590847711,0.207523604512291,7.185408,44.79525,0.00822948,0.05796352,0.3802791,-0.02381051,8.99999979883432,6
-22.55499,0.6833335,-12.03788,0.2907366749408879,0.0678027431579884,0.1230671659136124,10.77665,44.53181,359.9876,0.08686275,0.3772406,-0.0356806,9.01999979838729,6
-22.51068,0.8833334,-11.99356,0.3391437562058961,-0.1575879734189206,0.1734563506150568,14.36675,44.26361,359.9498,0.1156681,0.3738323,-0.04751215,9.03999979794025,6
-22.29534,0.2833333,-11.79863,0.3814180911938223,-0.3673671679995126,0.2181611657776123,3.570299,46.30423,0.08490452,0.02893404,0.3929614,-0.01156709,9.05999979749322,6
-22.25122,0.4833335,-11.75462,0.2676211326425566,0.1043918002321971,0.1259298459637587,7.139747,46.05125,0.1541105,0.05782999,0.3903064,-0.02311945,9.07999979704618,6
-22.20712,0.6833336,-11.71063,0.1524114580615503,0.5661496149400888,0.032258004803408,10.70846,45.80044,0.2079725,0.0866614,0.387273,-0.03464601,9.09999979659915,6
-22.01313,0.2833332,-11.53361,0.1683342771165605,0.1129292191475128,0.050134035622138,3.64741,46.94936,0.1058936,0.02955829,0.3981149,-0.01182981,9.11999979615211,6
-21.96777,0.4833331,-11.48891,0.0111293748363152,0.3699962098625264,-0.0861708854755196,7.294226,46.6993,0.1960099,0.05907809,0.395438,-0.02364444,9.13999979570508,6
-21.92242,0.6833331,-11.44422,-0.1500679865466416,0.644765315008216,-0.2257048299677162,10.94033,46.45275,0.2708249,0.08852904,0.3923609,-0.03543172,9.15999979525805,6
-21.87709,0.8833331,-11.39955,-0.3046032665512648,0.884966095930166,-0.3591640659117381,14.58637,46.20777,0.3303521,0.1178865,0.3888866,-0.04718339,9.17999979481101,6
-21.71317,0.2833333,-11.25298,-0.2730914281439318,0.1845759923996321,-0.3293697400537496,3.619034,47.74251,0.1246364,0.02931553,0.4044494,-0.01178445,9.19999979436398,6
-21.6678,0.4833332,-11.20902,-0.2348778785731795,-0.4244267991088507,-0.2927645691029674,7.237534,47.49522,0.2338256,0.05859313,0.4017868,-0.02355385,9.21999979391694,6
-21.62243,0.6833333,-11.16507,-0.3603018362550152,-0.0393326151653143,-0.3970766233876954,10.85538,47.2527,0.3281968,0.08780315,0.3987237,-0.03529628,9.23999979346991,6
-21.44401,0.2833333,-11.0045,-0.3290930537580294,-0.3050416745220049,-0.3632106651031108,3.55987,49.65236,0.2209456,0.02899938,0.4196091,-0.01129226,9.25999979302287,6
-21.39908,0.4833335,-10.96146,-0.2927021345456495,-0.555626977264297,-0.3240258416817703,7.119578,49.41474,0.4274633,0.05796181,0.4169641,-0.02257019,9.27999979257584,6
-21.35416,0.6833333,-10.91842,-0.3951219123261964,-0.1251617497218943,-0.405683961823863,10.67908,49.18809,0.6209263,0.08685958,0.4139157,-0.03382315,9.2999997921288,6
-21.16146,0.2833335,-10.74354,-0.3260433636353319,-0.3454991683758611,-0.3370153396580875,3.497839,50.11771,0.2666521,0.028632,0.4232862,-0.01081957,9.31999979168177,6
-21.11753,0.4833334,-10.70093,-0.2531291500544199,-0.5507130705114636,-0.2668613680549487,6.995754,49.88476,0.5194868,0.05722877,0.4206659,-0.02162582,9.33999979123473,6
-21.0736,0.6833336,-10.65834,-0.3404136777987432,-0.0748768270735895,-0.3392278072286103,10.49317,49.66557,0.7603287,0.08576034,0.4176521,-0.03240596,9.3599997907877,6
-21.02969,0.8833336,-10.61576,-0.4264654918481234,0.3904703533660806,-0.4113512371521661,13.99047,49.45884,0.9905388,0.1142032,0.4142479,-0.04315279,9.37999979034066,6
-20.98579,0.9766705,-10.57319,-0.3732372194071018,-0.0596486651847432,-0.3642744708868886,17.48755,49.26349,1.211476,0.1425306,0.4104567,-0.05385611,9.39999978989363,6
-20.79358,0.2833333,-10.4009,-0.3135760283704982,-0.5202565071604323,-0.3127919675808037,3.435102,49.58382,0.2678868,0.02818983,0.4190708,-0.01044678,9.41999978944659,6
-20.7509,0.4833334,-10.35858,-0.3728284724541488,-0.0863761432877402,-0.36283670942532,6.869823,49.35191,0.52254,0.05634317,0.4164831,-0.02087708,9.43999978899956,6
-20.70822,0.6833333,-10.31627,-0.4214630786913851,0.3370153971600844,-0.4031118546068075,10.30455,49.13363,0.7653027,0.08443737,0.4135196,-0.03128577,9.45999978855252,6
-20.53872,0.2833334,-10.16367,-0.2753327717065517,-0.1550593547726244,-0.2705790461278567,3.382837,48.0251,0.167485,0.02755654,0.4067196,-0.01067684,9.47999978810549,6
-20.4967,0.4833332,-10.12212,-0.2719871780263823,0.0626647582397821,-0.2623805077865846,6.764988,47.78465,0.3209542,0.05507764,0.4041609,-0.02134021,9.49999978765845,6
-20.4547,0.6833332,-10.08058,-0.2665253764698221,0.2976031151500369,-0.2517112087171904,10.14676,47.55152,0.4613194,0.08254238,0.4012497,-0.03198195,9.51999978721142,6
-20.2716,0.2833333,-9.914505,-0.0971821210255043,-0.1428284659294225,-0.0971673232385281,3.329456,46.33673,0.06762952,0.02694011,0.3932525,-0.01088726,9.53999978676438,6
-20.2303,0.4833332,-9.873638,0.076911072129846,-0.5937488889898003,0.0611812794826311,6.657817,46.0881,0.1208872,0.05384638,0.3907216,-0.02176082,9.55999978631735,6
-20.18902,0.6833332,-9.832783,0.0611783610482881,-0.1501808723782149,0.0518213540901051,9.985405,45.84074,0.1599443,0.08069912,0.3878615,-0.03261278,9.57999978587031,6
-20.14775,0.8833331,-9.791939,0.0482341180389944,0.2828979810499528,0.0443576838614676,13.31218,45.59298,0.1847172,0.1074757,0.3846748,-0.04343412,9.59999978542328,6
-19.99239,0.2833334,-9.653892,0.1678752458979673,-0.1994896124489902,0.1493850596883925,3.278399,44.59918,359.947,0.02629069,0.3793065,-0.01128224,9.61999978497624,6
-19.95148,0.4833334,-9.61391,0.1166455464709947,0.0279224227569662,0.1019362926634341,6.555577,44.3411,359.8791,0.05255206,0.3768032,-0.02255206,9.63999978452921,6
-19.91058,0.6833333,-9.573936,0.062615583251965,0.2725490536415443,0.051425966617141,9.831124,44.07719,359.7956,0.07875935,0.3739921,-0.03380021,9.65999978408217,6
-19.8697,0.8833333,-9.533976,0.1498790546782338,-0.1581944454707328,0.1221658614139356,13.10528,43.80556,359.6956,0.104894,0.3708759,-0.04501761,9.67999978363514,6
-19.67073,0.2833333,-9.355473,0.2370840179406741,-0.5994268564322195,0.1914670556216187,3.222966,41.39962,359.8011,0.02569329,0.3533771,-0.01156322,9.6999997831881,6
-19.63086,0.4833333,-9.315674,0.1919729604552849,-0.1461711494469525,0.145884172831316,6.444036,41.13032,359.5868,0.05135849,0.3509046,-0.02311376,9.71999978274107,6
-19.591,0.6833333,-9.275887,0.1505582145859207,0.2965958596498703,0.1033618872842732,9.663094,40.84691,359.3556,0.07697521,0.3481542,-0.03464242,9.73999978229403,6
-19.41368,0.2833332,-9.11524,0.3045085174936552,-0.1761035509997361,0.2320943056506887,3.373734,41.15452,359.7885,0.02691039,0.3513681,-0.01207385,9.759999781847,6
-19.37205,0.4833331,-9.073415,0.2988569825691023,0.0609962161349864,0.2208045987664642,6.745533,40.88393,359.5606,0.05378985,0.3488623,-0.0241338,9.77999978139997,6
-19.33043,0.6833331,-9.031601,0.2859081484635304,0.3153104081978819,0.2037467509538881,10.11522,40.59761,359.3148,0.08061454,0.3460537,-0.0361693,9.79999978095293,6
-19.13707,0.2833335,-8.856559,0.4332617952923812,-0.1057455942902017,0.3299181303909844,3.537628,42.86882,359.8214,0.02816263,0.3653061,-0.01272968,9.8199997805059,6
-19.09267,0.4833334,-8.813522,0.3953980750582353,0.1829974348227541,0.2925554329171493,7.073543,42.60098,359.6259,0.05629092,0.362753,-0.02544518,9.83999978005886,6
-19.04828,0.6833334,-8.770502,0.3412090874167113,0.4889549827766258,0.2417338950131613,10.60867,42.31846,359.4112,0.08436549,0.3598536,-0.03814006,9.85999977961183,6
-19.00391,0.8833333,-8.727494,0.2808328004723037,0.7598562646246391,0.1863939979512325,14.14168,42.01873,359.1758,0.1123511,0.3566112,-0.050795,9.87999977916479,6
-18.8395,0.2833333,-8.581156,0.3516293164662194,0.089678267126649,0.2455163537150015,3.567575,44.31858,359.8857,0.02845276,0.3770287,-0.01266419,9.89999977871776,6
-18.79449,0.4833334,-8.538111,0.4203494024685952,-0.4895996409887097,0.3043332543504071,7.133799,44.05761,359.7548,0.05687072,0.3744687,-0.02531479,9.91999977827072,6
-18.74948,0.6833333,-8.495077,0.3198267579971929,-0.0752683416474881,0.2166327576059519,10.69838,43.78603,359.606,0.0852253,0.371546,-0.03793727,9.93999977782369,6
-18.70449,0.8833333,-8.452056,0.2198977675329789,0.328086102655637,0.1299824222903645,14.26119,43.50142,359.4379,0.1134888,0.368264,-0.05051935,9.95999977737665,6
-18.49613,0.2833332,-8.264445,0.3063867637119788,-0.1845137893185753,0.2061607040529693,3.577592,46.01734,0.05489653,0.02891915,0.3906661,-0.0117604,9.97999977692962,6
-18.45179,0.4833331,-8.220494,0.2398049001973152,0.0121975938123271,0.1497487128413741,7.154468,45.77333,0.09511999,0.05780422,0.388104,-0.02350236,9.99999977648258,6
-18.40746,0.683333,-8.176556,0.1668511613722678,0.2256358598589515,0.0884710464772506,10.73044,45.52973,0.1202714,0.08662435,0.3851642,-0.03521778,10.0199997760355,6
-18.22102,0.2833333,-8.008221,0.2494030878032518,-0.2367843689292322,0.1636085485026948,3.597868,46.89061,0.08492118,0.02909514,0.397656,-0.01181055,10.0399997755885,6
-18.1761,0.4833333,-7.964334,0.1588850518514561,0.0101066004628826,0.0859922186615778,7.195022,46.65017,0.1548559,0.05815299,0.3950891,-0.02360608,10.0599997751415,6
-18.1312,0.6833332,-7.920459,0.0574281062285439,0.2737242686041614,-0.0013372974700267,10.79163,46.41201,0.2099272,0.0871461,0.3921332,-0.03537728,10.0799997746944,6
-18.08631,0.8833332,-7.876596,-0.0441267247024921,0.5017979839248371,-0.0889524372850578,14.38741,46.17429,0.2503452,0.1160446,0.3887915,-0.04711026,10.0999997742474,6
-17.9291,0.2833332,-7.737143,-0.0131370603316778,-0.2116948127584319,-0.0632821956035014,3.64278,47.37741,0.1022924,0.02946429,0.4015381,-0.01195268,10.1199997738004,6
-17.88344,0.4833332,-7.69288,-0.112882694434397,-0.0024386951880335,-0.1487729663675869,7.284888,47.13969,0.1896227,0.05889001,0.398962,-0.02388977,10.1399997733533,6
-17.83778,0.6833332,-7.64863,-0.2102639052641812,0.223543989845344,-0.2311781763471012,10.92629,46.90542,0.2624584,0.08824758,0.3959832,-0.03579928,10.1599997729063,6
-17.66597,0.2833333,-7.495606,-0.1577940435894991,-0.2263313643311651,-0.1817239731854556,3.604842,48.73726,0.1535825,0.02920354,0.4123628,-0.01175742,10.1799997724593,6
-17.62036,0.4833333,-7.452215,-0.0984628800646181,-0.6871836340053685,-0.1242606174513252,7.20923,48.50508,0.2927822,0.05836938,0.4097989,-0.02349982,10.1999997720122,6
-17.57477,0.6833332,-7.408835,-0.2102928892816962,-0.25403532408633,-0.2149318635985926,10.81308,48.27973,0.4185029,0.08746862,0.4068294,-0.03521536,10.2199997715652,6
-17.52919,0.8833333,-7.365466,-0.3124297875824702,0.1681360826185902,-0.2962425919538374,14.41613,48.05951,0.5310767,0.1164697,0.4034574,-0.04689398,10.2399997711182,6
-17.31292,0.2833333,-7.172422,-0.2043925117142055,-0.3256464570155567,-0.1942681487658557,3.538145,50.50683,0.2551343,0.0288702,0.4263561,-0.01115761,10.2599997706711,6
-17.26803,0.4833333,-7.129827,-0.2482226707734991,-0.110117678944092,-0.2259025598597945,7.076237,50.28489,0.4969507,0.05770408,0.4238141,-0.02230125,10.2799997702241,6
-17.22315,0.6833335,-7.087243,-0.2885709407056236,0.122137930730841,-0.2553121840868666,10.61414,50.07622,0.7271083,0.08647373,0.4208666,-0.03342013,10.2999997697771,6
-17.03047,0.2833334,-6.913324,-0.1538431482824567,-0.3214644731915475,-0.1330669280744647,3.470687,50.48068,0.283482,0.02844595,0.4261516,-0.01067642,10.31999976933,6
-16.98682,0.4833335,-6.871067,-0.1942137116021509,-0.055756036986872,-0.1670569775050134,6.941117,50.26169,0.5543893,0.05685555,0.4236379,-0.02133644,10.339999768883,6
-16.94319,0.6833335,-6.828821,-0.2407234853229809,0.2266791662671458,-0.2075651595877552,10.41137,50.05758,0.8142624,0.08520303,0.4207337,-0.03197316,10.359999768436,6
-16.89957,0.8833336,-6.786587,-0.2833538785543492,0.47357015151466,-0.2457284710662319,13.88149,49.8672,1.064732,0.1134634,0.417442,-0.04257754,10.3799997679889,6
-16.73677,0.2833333,-6.641244,-0.1845396184526642,-0.2211056148151031,-0.1616179092798457,3.416878,49.63389,0.2461819,0.02796153,0.4194749,-0.01056421,10.3999997675419,6
-16.69405,0.4833334,-6.59945,-0.221040175134048,0.0069679984037719,-0.1936928870213492,6.833288,49.41214,0.4796038,0.05588686,0.4169902,-0.02111341,10.4199997670949,6
-16.65134,0.6833335,-6.557667,-0.2555174174097558,0.25176808412747,-0.2230156567679051,10.24958,49.20276,0.7016253,0.08375406,0.4141335,-0.03164089,10.4399997666478,6
-16.60864,0.8833336,-6.515897,-0.2780542463648832,0.4610242159851486,-0.2408656429162334,13.66565,49.00458,0.9135916,0.1115382,0.4109078,-0.04213696,10.4599997662008,6
-16.40144,0.2833334,-6.330864,-0.1037956256452812,-0.2712860600556109,-0.0861974319453766,3.36258,47.45795,0.1225145,0.02728945,0.4022086,-0.01082832,10.4799997657537,6
-16.35958,0.4833335,-6.289711,-0.1154729438875143,-0.0808468652485132,-0.0943941443023508,6.724201,47.22591,0.2316279,0.0545439,0.3997574,-0.02164209,10.4999997653067,6
-16.31773,0.6833336,-6.24857,-0.1279458808126694,0.1263189215887206,-0.103561500649846,10.08527,46.99858,0.3278528,0.08174334,0.3969622,-0.03243409,10.5199997648597,6
-16.13421,0.2833333,-6.083699,0.0218261237801353,-0.3423732913196697,0.0278242359379294,3.306022,45.74487,0.003423246,0.02658996,0.3885182,-0.01118456,10.5399997644126,6
-16.09285,0.4833333,-6.043498,0.0034417192200049,-0.1017544101532677,0.0107400559669357,6.611049,45.50304,359.9929,0.05314976,0.3860954,-0.02235655,10.5599997639656,6
-16.05151,0.6833333,-6.003305,-0.0222161578640953,0.1555909328024963,-0.0134916654589649,9.914625,45.25879,359.968,0.07965355,0.383352,-0.03350649,10.5799997635186,6
-16.01018,0.8833333,-5.963124,-0.0452745945915111,0.3773924322702111,-0.0363388760413601,13.21713,45.01041,359.9283,0.1060832,0.3802906,-0.04462538,10.5999997630715,6
-15.85472,0.2833334,-5.825367,0.0631924758360433,-0.3423728044195397,0.051161515987701,3.253748,43.8647,359.9027,0.02601873,0.3733833,-0.01139148,10.6199997626245,6
-15.81408,0.4833333,-5.785703,0.0451484832026309,-0.1393887651434499,0.0299288920237117,6.506089,43.61525,359.7911,0.05200867,0.3709882,-0.02277038,10.6399997621775,6
-15.77345,0.6833333,-5.746049,0.0293715251044481,0.0803218836734087,0.0100614222491501,9.756948,43.3576,359.6643,0.07794879,0.3682947,-0.0341275,10.6599997617304,6
-15.60491,0.2833333,-5.594736,0.0256091086719454,0.2644883832195276,8.76699034697559e-05,3.205603,41.26248,359.7988,0.02555813,0.3522595,-0.01149827,10.6799997612834,6
-15.56531,0.4833332,-5.55509,0.0587910171392245,0.2273765014276234,0.0210593575625188,6.40934,41.00516,359.5829,0.0510885,0.3498901,-0.02298402,10.6999997608364,6
-15.52572,0.6833332,-5.515456,0.0857292089615882,0.2357398947094654,0.0367258357647926,9.611125,40.73382,359.3508,0.07657123,0.3472466,-0.03444811,10.7199997603893,6
-15.48614,0.8833331,-5.475834,0.1163975575782476,0.2362628463574679,0.0559803610872409,12.81057,40.44649,359.101,0.1019851,0.3443318,-0.04587837,10.7399997599423,6
-15.26909,0.2833333,-5.282139,0.3029445566390851,-0.4646849007820343,0.2117711046705599,3.462442,42.21402,359.7972,0.02754709,0.3599959,-0.01252924,10.7599997594953,6
-15.22574,0.4833332,-5.239831,0.2901503649420434,-0.242883280133772,0.1937743724507798,6.923035,41.95594,359.5785,0.05506143,0.3575607,-0.02504369,10.7799997590482,6
-15.18241,0.6833333,-5.197537,0.2708894007595059,-0.0043551848898656,0.1714255458373834,10.38229,41.68225,359.3417,0.08252184,0.3547985,-0.03753667,10.7999997586012,6
-14.98821,0.2833334,-5.023711,0.4135139048426914,-0.4416853551001906,0.2933028991008704,3.540762,44.00629,359.847,0.02814397,0.3745166,-0.01281164,10.8199997581542,6
-14.94326,0.4833334,-4.98122,0.372015709047707,-0.1697042326947658,0.2539495894170076,7.080415,43.75304,359.6777,0.0562562,0.3720562,-0.02561296,10.8399997577071,6
-14.89833,0.6833335,-4.938742,0.3157413531514255,0.1190034550828152,0.2028151103713646,10.61826,43.48695,359.4909,0.08430636,0.3692407,-0.0383862,10.8599997572601,6
-14.85341,0.8833333,-4.896276,0.2550068997183263,0.3721670417656773,0.1488508878172894,14.15419,43.2056,359.2847,0.1122677,0.366073,-0.05111925,10.879999756813,6
-14.689,0.2833332,-4.749744,0.2001306328110139,0.423686474734801,0.1010126756092861,3.589146,45.40073,359.9698,0.02878867,0.3857302,-0.01232797,10.899999756366,6
-14.64395,0.4833332,-4.706232,0.1788305685181885,0.3558041844311611,0.0817745492992534,7.177493,45.15988,359.9248,0.05754482,0.3832569,-0.02463923,10.919999755919,6
-14.59891,0.6833332,-4.662732,0.1484840148022677,0.3338850266664575,0.0556965712284438,10.76459,44.914,359.864,0.08623597,0.3804084,-0.03692292,10.9399997554719,6
-14.55388,0.8833331,-4.619245,0.1197967372787705,0.3046130313080814,0.0320001402612448,14.35037,44.661,359.7865,0.1148341,0.3771878,-0.04916685,10.9599997550249,6
-14.34496,0.2833334,-4.433044,0.2395960358080042,-0.425641846404986,0.13684538459988,3.563791,46.72635,0.07806776,0.02881547,0.3963467,-0.01170583,10.9799997545779,6
-14.30054,0.4833334,-4.389517,0.1678765875061447,-0.2326594075658789,0.0757236369167384,7.12668,46.49665,0.1421686,0.05759408,0.3938827,-0.02339469,10.9999997541308,6
-14.25612,0.6833333,-4.346002,0.0917952754457509,-0.0224626526084507,0.0113892073538917,10.68878,46.26898,0.1923696,0.08630857,0.3910385,-0.03505754,11.0199997536838,6
-14.0684,0.2833333,-4.177941,0.1739655397778463,-0.487636428824312,0.0846339545996213,3.636469,47.52135,0.1008811,0.02939392,0.4026886,-0.01197877,11.0399997532368,6
-14.02269,0.4833334,-4.133879,0.0845423016872217,-0.2430106989968199,0.0078053924054715,7.272264,47.29462,0.187526,0.05874962,0.4002024,-0.02394198,11.0599997527897,6
-13.97699,0.6833333,-4.089832,-0.0139396397105517,0.0188294899960511,-0.0766070343940152,10.90798,47.07135,0.2601668,0.08804192,0.3973134,-0.03588174,11.0799997523427,6
-13.93131,0.8833333,-4.045798,-0.110631968311134,0.2456134855391203,-0.1591588336333342,14.54291,46.84986,0.3192173,0.1172368,0.3940249,-0.04778198,11.0999997518957,6
-13.77409,0.2833333,-3.907673,-0.0727998978922581,-0.4686811664000382,-0.1258713822231862,3.628631,48.11279,0.1139884,0.02931588,0.4074023,-0.01199805,11.1199997514486,6
-13.72819,0.4833332,-3.864016,-0.1642336092578435,-0.2597388143648838,-0.2015752434484194,7.256629,47.88824,0.2139228,0.05859365,0.4049233,-0.02398061,11.1399997510016,6
-13.68231,0.6833332,-3.820372,-0.2513429958281836,-0.033581792339814,-0.2720777724716596,10.88392,47.66807,0.3003713,0.0878038,0.4020387,-0.03593571,11.1599997505546,6
-13.63644,0.883333,-3.776739,-0.3230612331957605,0.1575190208156379,-0.3278557228390601,14.51051,47.45057,0.3734523,0.1169167,0.3987515,-0.04785306,11.1799997501075,6
-13.43445,0.2833333,-3.599008,-0.3490866331961584,0.1278291801188362,-0.3449946727586999,3.568535,50.42799,0.2302517,0.02902523,0.4257363,-0.01144705,11.1999997496605,6
-13.38893,0.4833332,-3.556346,-0.3733545406494176,0.1441027021256066,-0.3600011874110336,7.136865,50.21519,0.4475919,0.05801342,0.4232734,-0.02287967,11.2199997492135,6
-13.34343,0.6833332,-3.513697,-0.3846653988098598,0.1530235243587094,-0.3634030538180097,10.7049,50.01427,0.6535376,0.08693638,0.420399,-0.03428661,11.2399997487664,6
-13.16472,0.2833333,-3.354816,-0.2234869332291502,-0.5390383697167802,-0.2190939292974114,3.500372,50.89945,0.2699333,0.02858977,0.4294523,-0.0109983,11.2599997483194,6
-13.12022,0.4833333,-3.312735,-0.2544062762930164,-0.3078632459662616,-0.2427346233108855,7.000704,50.69063,0.5275342,0.05714422,0.4270157,-0.02198286,11.2799997478724,6
-13.07574,0.6833332,-3.270664,-0.2819297239885099,-0.0594735573767459,-0.2640262276159255,10.50044,50.49608,0.774625,0.08563323,0.4241791,-0.03294122,11.2999997474253,6
-12.88289,0.2833333,-3.097709,-0.1352672592929273,-0.486454149671722,-0.1346258082319407,3.440608,50.60818,0.2845501,0.02820085,0.427161,-0.01058748,11.3199997469783,6
-12.83957,0.4833332,-3.055861,-0.1644567870634503,-0.203635810028168,-0.1599158461629657,6.880812,50.40103,0.5573322,0.05636523,0.424751,-0.02115855,11.3399997465312,6
-12.79626,0.6833333,-3.014024,-0.2003631060496928,0.0963969616000797,-0.1910260255032474,10.32095,50.20885,0.819904,0.08447017,0.4219561,-0.03170736,11.3599997460842,6
-12.75297,0.8833332,-2.9722,-0.2331238358859604,0.361373392549822,-0.2192260056404847,13.76094,50.03063,1.073924,0.1124903,0.4187793,-0.04222445,11.3799997456372,6
-12.70969,0.9766704,-2.930387,-0.2528699317118406,0.4251938970651254,-0.2357855818657683,17.20067,49.86559,1.320949,0.1404,0.415224,-0.05270024,11.3999997451901,6
-12.51604,0.2833333,-2.759918,-0.2342050608288328,0.3701003469019542,-0.2189564416465806,3.388227,48.59066,0.1679041,0.02754787,0.4112203,-0.01082873,11.4199997447431,6
-12.47356,0.4833333,-2.718706,-0.2192861847152514,0.3614579318807929,-0.2041372119227953,6.775654,48.37388,0.3232383,0.05506009,0.4088455,-0.02164307,11.4399997442961,6
-12.43109,0.6833333,-2.677506,-0.1979998065936836,0.3459506962434323,-0.182739848449148,10.16268,48.16475,0.4669131,0.08251616,0.4061131,-0.0324353,11.459999743849,6
-12.26108,0.2833334,-2.526744,-0.023717629281597,-0.3700512698260236,-0.0301907291207342,3.331045,46.96543,0.069401,0.02689885,0.3982878,-0.01102626,11.479999743402,6
-12.21935,0.4833333,-2.486284,-0.0353309683763161,-0.1623285784853349,-0.0391853582351109,6.660947,46.74049,0.1257709,0.05376353,0.3959425,-0.02203879,11.499999742955,6
-12.17763,0.6833333,-2.445834,-0.0473828050761842,0.0630964234748133,-0.0490586601829239,9.990082,46.5172,0.1693774,0.08057491,0.3932634,-0.03302931,11.5199997425079,6
-11.99359,0.2833332,-2.282105,0.1028375762548243,-0.3863607638994162,0.0806709249457255,3.279199,45.28341,359.9489,0.02623585,0.3848213,-0.011426,11.5399997420609,6
-11.95223,0.4833332,-2.242574,0.0829673378836748,-0.1255310211750377,0.0613850050624956,6.557187,45.04871,359.8843,0.05244225,0.3825022,-0.02283935,11.5599997416139,6
-11.91088,0.6833332,-2.20305,0.0541976819806535,0.1530009254497713,0.0336989044103036,9.833578,44.80853,359.8055,0.07859451,0.3798707,-0.03423089,11.5799997411668,6
-11.86954,0.8833331,-2.163538,0.026183198683686,0.3969646501268723,0.0059132221838339,13.10867,44.56116,359.7115,0.1046747,0.3769292,-0.04559118,11.5999997407198,6
-11.71399,0.2833333,-2.026089,0.2085480444767888,-0.2996624073724778,0.1596531909434408,3.228498,42.79069,359.8466,0.02574068,0.3646911,-0.01152254,11.6199997402728,6
-11.67369,0.4833332,-1.98665,0.2529864375408053,-0.0725644750210155,0.1952248204950762,6.455393,42.54832,359.6793,0.05145331,0.3624009,-0.02303247,11.6399997398257,6
-11.6334,0.6833333,-1.947223,0.2883400329702468,0.1722359008042092,0.2222478230197208,9.680571,42.29471,359.4969,0.07711717,0.3598232,-0.03452049,11.6599997393787,6
-11.59312,0.8833332,-1.907806,0.324677032501512,0.382467961814393,0.2495423572804062,12.90369,42.02801,359.2982,0.1027108,0.3569607,-0.04597437,11.6799997389317,6
-11.39093,0.2833333,-1.729299,0.4985066740823587,-0.3478905048814391,0.3938888669844092,3.338355,41.67399,359.7848,0.02655565,0.35561,-0.01211563,11.6999997384846,6
-11.34929,0.4833333,-1.688353,0.4900199333773081,-0.1545242992700196,0.3814216880605557,6.674845,41.42658,359.5549,0.05308113,0.3533008,-0.02421758,11.7199997380376,6
-11.30767,0.6833333,-1.647418,0.4762021171361699,0.0565443524286886,0.3651305753077327,10.00935,41.16372,359.3084,0.07955378,0.3506915,-0.03629538,11.7399997375906,6
-11.12709,0.2833333,-1.487842,0.6097209824471044,-0.4072693821798185,0.477738807936022,3.527542,43.48225,359.8221,0.02801452,0.3702821,-0.01284225,11.7599997371435,6
-11.08236,0.4833333,-1.44539,0.5796984799773277,-0.1607961702244968,0.4495899571039245,7.053435,43.23776,359.6287,0.05599495,0.3679166,-0.02567007,11.7799997366965,6
-11.03765,0.6833333,-1.402954,0.5396485502811608,0.1033792620964753,0.4142792319546131,10.57886,42.97899,359.4178,0.08392412,0.3652018,-0.03847779,11.7999997362494,6
-10.84244,0.2833334,-1.229739,0.4998816516493747,0.3329865022639533,0.3807655265827355,3.564996,45.00903,359.8876,0.02836154,0.382599,-0.01281136,11.8199997358024,6
-10.79698,0.4833333,-1.187237,0.4841430104744511,0.3422910919663073,0.3670428451211531,7.128793,44.77115,359.76,0.05668912,0.3802205,-0.02560949,11.8399997353554,6
-10.75152,0.6833333,-1.144748,0.4461711599054343,0.3980468081860321,0.334675918629187,10.69099,44.52311,359.6161,0.08495343,0.3774744,-0.0383791,11.8599997349083,6
-10.70608,0.8833332,-1.10227,0.3967016406027728,0.4469376951649177,0.2928517152758271,14.25152,44.26265,359.4544,0.1131271,0.3743638,-0.05110799,11.8799997344613,6
-10.66065,0.9766704,-1.059805,0.3464813350639932,0.4356477971447507,0.2507598996932451,17.81025,43.98719,359.2729,0.1411829,0.370892,-0.06378374,11.8999997340143,6
-10.46626,0.2833333,-0.8880805,0.4272238538420803,-0.4148444907718762,0.3193464743172541,3.57656,46.56329,0.05321926,0.02884875,0.3950455,-0.01190793,11.9199997335672,6
-10.42151,0.4833333,-0.8445776,0.3327675973191502,-0.242491094318955,0.238758656176908,7.152399,46.34219,0.09328416,0.05766398,0.3926652,-0.02379663,11.9399997331202,6
-10.37676,0.6833333,-0.8010871,0.2351866459254941,-0.0529232478479979,0.1560898989090844,10.72734,46.12167,0.1197001,0.08641461,0.3899031,-0.03565882,11.9599997326732,6
-10.20409,0.2833334,-0.64893,0.2825629328698547,-0.5387255708381578,0.1968734927529769,3.597299,47.51212,0.08629448,0.02903093,0.4026233,-0.01195521,11.9799997322261,6
-10.15873,0.4833333,-0.6055125,0.1783329215619424,-0.3147289571854374,0.1074280258114506,7.193876,47.29478,0.1590621,0.05802484,0.4002366,-0.02389527,11.9999997317791,6
-10.11338,0.6833333,-0.5621073,0.0702992819812653,-0.0735176800766244,0.0148327951153615,10.78989,47.08012,0.218458,0.08695408,0.3974559,-0.03581078,12.0199997313321,6
-9.92486,0.2833334,-0.3949676,-0.0306218957787169,0.1326373821514631,-0.0715401724403417,3.642946,48.06047,0.1043522,0.02940116,0.4069863,-0.01211228,12.039999730885,6
-9.8787,0.4833333,-0.351215,-0.0994327452273857,0.1180017983678769,-0.1310414179429286,7.285228,47.84562,0.1951995,0.05876412,0.4045868,-0.02420891,12.059999730438,6
-9.832554,0.6833333,-0.3074745,-0.1815453185586308,0.1493294789321214,-0.2012258411462064,10.92677,47.63467,0.2730677,0.08805905,0.4017789,-0.03627754,12.079999729991,6
-9.786423,0.8833332,-0.2637481,-0.2657335186573011,0.1733044680859836,-0.2724041068095493,14.56798,47.42596,0.3380579,0.1172593,0.3985655,-0.04830875,12.0999997295439,6
-9.552944,0.2833334,-0.0576235,-0.1817332538199139,-0.5037031439864295,-0.1959257637510201,3.59832,49.90493,0.1882286,0.02915811,0.4216109,-0.01175639,12.1199997290969,6
-9.506949,0.4833333,-0.014771,-0.2347860322607955,-0.25747384939486,-0.2352211910888955,7.196266,49.69884,0.3637929,0.05827876,0.4192236,-0.02349788,12.1399997286499,6
-9.460967,0.6833333,0.02806914,-0.2902164087655263,0.0059700189217005,-0.2758449488184382,10.79374,49.50211,0.5278993,0.08733299,0.4164226,-0.03521272,12.1599997282028,6
-9.414998,0.8833332,0.07089954,-0.3363249677189239,0.2343575826264315,-0.3079332792449802,14.39047,49.3134,0.6812699,0.1162895,0.4132111,-0.04689066,12.1799997277558,6
-9.250555,0.2833334,0.2148867,-0.3614167687354408,0.2615892436798215,-0.3216217251197346,3.530622,50.94904,0.2490937,0.02874503,0.4298441,-0.01128828,12.1999997273088,6
-9.205381,0.4833333,0.2569799,-0.3776007392758105,0.1699065147391861,-0.3317211689960155,7.061078,50.74921,0.4862579,0.05745406,0.4274815,-0.02256243,12.2199997268617,6
-9.160221,0.6833333,0.2990609,-0.3887121182251096,0.1246749185883882,-0.3385521260174591,10.59127,50.56255,0.7131238,0.08609962,0.4247119,-0.03381174,12.2399997264147,6
-8.981414,0.2833333,0.4571949,-0.3838842094128321,0.0725783922274809,-0.3328947323314288,3.468387,51.02449,0.2839999,0.0283788,0.4304378,-0.01079857,12.2599997259676,6
-8.937414,0.4833333,0.4990273,-0.3814690235997959,0.040275140041265,-0.3320620501729698,6.936417,50.82819,0.5567992,0.05672141,0.4281008,-0.02158071,12.2799997255206,6
-8.893427,0.6833332,0.5408484,-0.3797002223202375,0.0544230201221794,-0.3325845741782451,10.40422,50.64705,0.8199839,0.08500252,0.4253699,-0.03233946,12.2999997250736,6
-8.849452,0.8833331,0.5826576,-0.3682628232677798,0.0617060761893081,-0.3254499719832631,13.8718,50.48014,1.075256,0.1131969,0.4222479,-0.04306544,12.3199997246265,6
-8.625978,0.2833334,0.7801621,-0.365475502534009,0.0887821663350917,-0.326339824493242,3.412348,49.83034,0.2221177,0.02781913,0.4210361,-0.01078586,12.3399997241795,6
-8.582911,0.4833333,0.8214452,-0.3726513362927983,0.1623094949443294,-0.3345039396139273,6.824062,49.62896,0.4326313,0.05560224,0.4187306,-0.02155682,12.3599997237325,6
-8.539855,0.6833334,0.8627165,-0.3795931879246286,0.2289719990170795,-0.3411170630055458,10.23548,49.43872,0.632813,0.08332764,0.4160531,-0.0323054,12.3799997232854,6
-8.496812,0.8833333,0.9039762,-0.3760806760984403,0.2354537356014082,-0.3373482593912449,13.64657,49.25853,0.8238281,0.1109708,0.4130063,-0.04302229,12.3999997228384,6
-8.340423,0.2833333,1.040576,-0.1514944915521141,-0.5972667940037673,-0.1412251659507064,3.356458,48.08913,0.1255129,0.02719128,0.4072428,-0.01093283,12.4199997223914,6
-8.298231,0.4833333,1.081242,-0.099165996438562,-0.407141635580455,-0.093193633883629,6.71195,47.87981,0.2389806,0.05434795,0.4049699,-0.02185111,12.4399997219443,6
-8.256052,0.6833333,1.121896,-0.0488691084526422,-0.1998020234801691,-0.0475241325098187,10.06687,47.67562,0.3409762,0.08145004,0.4023499,-0.03274744,12.4599997214973,6
-8.085209,0.2833334,1.27158,0.0099303747658705,-0.0275185030763601,0.0046907436002463,3.304288,46.43393,0.005875512,0.02651675,0.3940488,-0.01131862,12.4799997210503,6
-8.043432,0.4833333,1.311299,0.0640093294246186,-0.0760258656440291,0.0506938898340303,6.607601,46.21472,-0.0009108367,0.05300352,0.3918034,-0.02262459,12.4999997206032,6
-8.001666,0.6833334,1.35101,0.1149825155059787,-0.0785698683830066,0.0938307530785711,9.909526,45.99346,359.9792,0.07943474,0.3892331,-0.03390856,12.5199997201562,6
-7.959912,0.8833333,1.39071,0.1731285541826697,-0.0884665742932371,0.1428809527868688,13.21041,45.76862,359.9461,0.1057921,0.3863403,-0.04516131,12.5399997197092,6
-7.744871,0.2833333,1.579655,0.0768452112373401,0.5612559488234186,0.0580721630764706,3.249086,43.98745,359.874,0.02587491,0.3743832,-0.01163654,12.5599997192621,6
-7.703849,0.4833333,1.618833,0.1637565961105576,0.3263520079727644,0.1281444785047831,6.496692,43.75786,359.7347,0.05172127,0.3721686,-0.02326022,12.5799997188151,6
-7.662838,0.6833333,1.658,0.2459479280859824,0.1128441628608433,0.1934101667945831,9.742749,43.51863,359.5812,0.07751822,0.3696552,-0.0348618,12.5999997183681,6
-7.472814,0.2833334,1.827362,0.3337240847024283,-0.1336288336527153,0.2628110145008362,3.197244,41.44304,359.7822,0.02542051,0.3537375,-0.01164825,12.619999717921,6
-7.432977,0.4833333,1.866589,0.3641970651863095,-0.1473586154928815,0.280106087339806,6.392653,41.2066,359.5508,0.05081366,0.35155,-0.02328384,12.639999717474,6
-7.393153,0.6833333,1.905805,0.3762284266423048,-0.1151251580750824,0.281451211647846,9.586113,40.95546,359.3044,0.07615945,0.3490886,-0.0348977,12.6599997170269,6
-7.353336,0.8833332,1.945009,0.3799880248211984,-0.09024440435124,0.2757949903029533,12.77724,40.68778,359.0415,0.1014372,0.3463557,-0.04647681,12.6799997165799,6
-7.31353,0.9766705,1.984202,0.3856500269224359,-0.1260322972732873,0.2720819332949276,15.96618,40.40127,358.7593,0.1266281,0.3433534,-0.05801627,12.6999997161329,6
-7.113897,0.2833333,2.156734,0.3799403061690718,-0.1691730006083223,0.2585068166009026,3.517137,43.34254,359.8095,0.02790536,0.3691538,-0.01287637,12.7199997156858,6
-7.069222,0.4833333,2.199034,0.3655934937140008,-0.1663503451600768,0.2392217703327182,7.032558,43.10763,359.6043,0.05577682,0.3668782,-0.02573732,12.7399997152388,6
-7.02457,0.6833332,2.241318,0.3529997935343258,-0.1708803939284957,0.2232653915837952,10.5478,42.85782,359.3819,0.08359945,0.3642561,-0.03858062,12.7599997147918,6
-6.851002,0.2833333,2.392185,0.19209116331879,0.4842089053325801,0.0803425578929677,3.559534,45.10682,359.8696,0.02824615,0.3833919,-0.01296284,12.7799997143447,6
-6.805308,0.4833333,2.43432,0.2049053781193315,0.2546716333846126,0.0861650088762249,7.117822,44.87791,359.7243,0.05645806,0.3810997,-0.0259135,12.7999997138977,6
-6.759626,0.6833333,2.476444,0.2116447789594531,0.046530576700687,0.0885255644772504,10.67447,44.63781,359.5632,0.08460717,0.3784403,-0.03883549,12.8199997134507,6
-6.571476,0.2833333,2.642547,0.2231164709743955,-0.1945756180558817,0.0966315571210012,3.591763,46.51849,0.01039901,0.02882774,0.3946955,-0.01229216,12.8399997130036,6
-6.526048,0.4833333,2.685728,0.1790955671120775,-0.2029388110544173,0.0555543355792318,7.182781,46.3035,0.007750765,0.05762244,0.3923917,-0.02456617,12.8599997125566,6
-6.480632,0.6833333,2.728896,0.1194659797182904,-0.1653386447469642,0.0022259952735508,10.77274,46.08642,359.9914,0.08635212,0.3897033,-0.03681264,12.8799997121096,6
-6.43523,0.8833332,2.772052,0.0550258042286087,-0.1350913021814916,-0.0542057847824795,14.36159,45.86544,359.9608,0.1149886,0.3866332,-0.04901938,12.8999997116625,6
-6.202053,0.2833333,2.977428,-0.003423195400293,-0.1655126201136002,-0.1045935146204541,3.569858,47.65334,0.08338084,0.02878696,0.4037543,-0.01191753,12.9199997112155,6
-6.156919,0.4833333,3.020377,0.011890708390521,-0.2032865227370572,-0.0895955096129705,7.138833,47.44605,0.1539775,0.05753655,0.4014583,-0.02381948,12.9399997107685,6
-6.111797,0.6833333,3.063313,0.0163313290509368,-0.1950971738189723,-0.0834911235915347,10.70702,47.24141,0.2121214,0.08622193,0.3987735,-0.03569498,12.9599997103214,6
-6.066688,0.8833333,3.106237,0.0212458414451135,-0.1942605296402539,-0.0766330407357891,14.27437,47.03787,0.2579224,0.1148152,0.3957026,-0.04753248,12.9799997098744,6
-5.89996,0.2833333,3.251101,-0.1164922038456053,0.4661953419972328,-0.1902829265246799,3.646862,48.24417,0.105442,0.02941676,0.4084485,-0.01216468,12.9999997094274,6
-5.853621,0.4833333,3.294774,-0.1256502255448919,0.2420248548183232,-0.1955996032679783,7.29304,48.03997,0.1980483,0.05879522,0.4061302,-0.02431358,13.0199997089803,6
-5.807295,0.6833333,3.338434,-0.1337658323101371,0.0392502222366963,-0.1985726064025037,10.93849,47.8399,0.2783578,0.08810558,0.4034011,-0.03643446,13.0399997085333,6
-5.760986,0.8833332,3.38208,-0.129410471878629,-0.1964895766436718,-0.1894365984434705,14.58385,47.64236,0.3465506,0.1173232,0.400264,-0.0485184,13.0599997080863,6
-5.549515,0.2833333,3.565316,-0.1712888339636915,-0.1994860428934516,-0.220367818246375,3.610455,49.76094,0.161809,0.02917193,0.420477,-0.01197334,13.0799997076392,6
-5.50317,0.4833333,3.608072,-0.2186249605769283,-0.1565192586470967,-0.2537914117767048,7.220399,49.56289,0.311381,0.05830616,0.4181693,-0.02393134,13.0999997071922,6
-5.456839,0.6833333,3.650816,-0.259989175638895,-0.1209052869045523,-0.2800824106145949,10.82977,49.37263,0.4497091,0.08737364,0.4154466,-0.0358622,13.1199997067451,6
-5.268347,0.2833334,3.815168,-0.4628508024376891,0.5743280307766645,-0.4459261809239052,3.545908,51.24146,0.237309,0.0287919,0.4321463,-0.01151195,13.1399997062981,6
-5.222623,0.4833333,3.857038,-0.4647692377363706,0.3849348813543397,-0.4419324133153068,7.091568,51.05087,0.4631824,0.05754753,0.4298578,-0.02300949,13.1599997058511,6
-5.176913,0.6833333,3.898897,-0.465183395562101,0.2169378245345119,-0.437338747982726,10.63689,50.87285,0.6791977,0.08623918,0.4271566,-0.03448152,13.179999705404,6
-5.131215,0.8833332,3.940746,-0.4528454377374964,0.0159755064577873,-0.4227518908886871,14.18142,50.70633,0.8866312,0.1148358,0.4240459,-0.04591668,13.199999704957,6
-4.974217,0.2833333,4.076946,-0.2536793472084473,-0.7845810422574989,-0.2509144888742129,3.483064,51.45128,0.2754614,0.0284214,0.4337947,-0.01102687,13.21999970451,6
-4.92962,0.4833333,4.118495,-0.228817547916901,-0.5627796795643784,-0.226685992541026,6.966008,51.26469,0.5399976,0.05680788,0.4315328,-0.02204015,13.2399997040629,6
-4.885033,0.6833333,4.160033,-0.2024708530706314,-0.3242518532524285,-0.2021216213644212,10.44833,51.09293,0.7956318,0.08513068,0.4288708,-0.03302651,13.2599997036159,6
-4.840457,0.8833332,4.20156,-0.1641827813833778,-0.1212678691217643,-0.1682403173188955,13.93037,50.93509,1.04383,0.1133661,0.4258114,-0.04397908,13.2799997031689,6
-4.638145,0.2833333,4.37721,-0.2582765538706271,0.6003601102557715,-0.2464305533552861,3.425074,50.74723,0.2551445,0.02795567,0.4282665,-0.01079538,13.2999997027218,6
-4.594619,0.4833333,4.418391,-0.1774421521854656,0.3253120549814089,-0.175811400033611,6.849556,50.55928,0.4996075,0.0558752,0.4260344,-0.02157478,13.3199997022748,6
-4.551105,0.6833333,4.459561,-0.092485192623744,0.0716600912641334,-0.0996507360583276,10.27382,50.38467,0.7348127,0.0837365,0.4234204,-0.03233175,13.3399997018278,6
-4.372232,0.2833333,4.615777,-0.164020483082476,0.5053308604426364,-0.1578361170322209,3.370264,49.00901,0.1511732,0.02730506,0.4145497,-0.01099703,13.3599997013807,6
-4.329508,0.4833333,4.656259,-0.0938162106623754,0.2944711993648512,-0.0963621590891481,6.739609,48.81211,0.2909596,0.05457484,0.412349,-0.02197976,13.3799997009337,6
-4.286796,0.6833333,4.696729,-0.0252024194274897,0.1050075097961339,-0.0355242500503738,10.10845,48.62205,0.420186,0.08178944,0.4097918,-0.03294034,13.3999997004867,6
-4.244096,0.8833332,4.737188,0.0522782761889,-0.1174213353558637,0.0334197194096548,13.47672,48.43764,0.5395005,0.1089252,0.4068806,-0.04386923,13.4199997000396,6
-4.020509,0.2833333,4.931932,0.0782281931658275,-0.1071068499680948,0.0549602674140246,3.311927,46.7985,0.005977434,0.02654212,0.3969687,-0.01142858,13.4399996995926,6
-3.97839,0.4833333,4.971482,0.0911189120077367,-0.0508292357003247,0.0648479075208383,6.622872,46.5896,-0.0001323644,0.05305411,0.3948019,-0.02284425,13.4599996991456,6
-3.936281,0.6833333,5.011023,0.1010467777839205,-0.0019043287854542,0.0715604944423544,9.932386,46.37876,359.9814,0.07951012,0.3923062,-0.03423701,13.4799996986985,6
-3.894184,0.8833332,5.050552,0.1181225622340913,-0.0136480855043975,0.0835815734109299,13.24087,46.16452,359.9501,0.105892,0.3894841,-0.04559802,13.4999996982515,6
-3.737049,0.2833334,5.185938,0.208618647170202,-0.0327444428572076,0.1585094348312212,3.255594,44.93448,359.9044,0.02593165,0.3820227,-0.01162668,13.5199996978045,6
-3.695683,0.4833333,5.224891,0.2841390405234545,-0.0058776708073134,0.2196197004178328,6.50985,44.71774,359.7963,0.05183462,0.3798856,-0.02324053,13.5399996973574,6
-3.654329,0.6833333,5.263833,0.3549803210123803,0.0136363944123903,0.2756694314858476,9.762713,44.49321,359.6748,0.07768796,0.3774426,-0.03483224,13.5599996969104,6
-3.483762,0.2833333,5.412621,0.4314471448972061,-0.027518190150029,0.3354136690937714,3.2062,42.3276,359.7998,0.02545835,0.3609392,-0.0117286,13.5799996964633,6
-3.443449,0.4833333,5.451554,0.453163416892179,-0.0760254682136496,0.3459003627552386,6.410668,42.10282,359.5868,0.05088913,0.3588293,-0.02344443,13.5999996960163,6
-3.403147,0.6833332,5.490477,0.4623813345381491,-0.0785694968265476,0.345614320036228,9.613315,41.8644,359.3595,0.07627237,0.3564385,-0.03513835,13.6199996955693,6
-3.362854,0.8833332,5.529388,0.469230618518766,-0.0884663389886653,0.3433264077740583,12.81378,41.6106,359.1163,0.1015871,0.3537689,-0.04679773,13.6399996951222,6
-3.143249,0.2833333,5.719702,0.3131678686001848,0.5612560570234473,0.2018059621501882,3.462328,43.28296,359.7984,0.02743173,0.3686781,-0.01277612,13.6599996946752,6
-3.099148,0.4833333,5.761218,0.3322813353221026,0.3263521044119213,0.2090784650555415,6.922926,43.05733,359.5828,0.0548308,0.3664993,-0.02553722,13.6799996942282,6
-3.055065,0.6833332,5.802722,0.3374397095861388,0.1128442428347774,0.2060083685118057,10.38235,42.81655,359.351,0.08217631,0.3639853,-0.03827652,13.6999996937811,6
-2.858452,0.2833333,5.973385,0.3391321189446259,-0.1336286681293225,0.201619785792773,3.540838,45.09065,359.8483,0.02802628,0.3832686,-0.01306754,13.7199996933341,6
-2.812738,0.4833333,6.015047,0.3665986621366193,-0.1473584753207023,0.2210016369366823,7.080668,44.86978,359.6822,0.05602089,0.3810618,-0.0261247,13.7399996928871,6
-2.767038,0.6833332,6.056696,0.378051036787448,-0.1151250341067726,0.2284590381845008,10.61881,44.63655,359.5007,0.0839538,0.3784913,-0.03915313,13.75999969244,6
-2.72135,0.8833332,6.098333,0.3844182626327698,-0.0902444074874728,0.2332436739546022,14.15516,44.38882,359.3019,0.1117982,0.3755601,-0.05214045,13.779999691993,6
-2.675675,0.9766704,6.139959,0.3966304162314665,-0.1260324188894241,0.2446067033462906,17.6896,44.12404,359.0836,0.1395275,0.3722711,-0.06507427,13.799999691546,6
-2.478951,0.2833333,6.309414,0.4376224961112748,-0.1691730058353755,0.2817534389636034,3.583812,46.89815,-0.001037763,0.02868353,0.3977395,-0.01245152,13.8199996910989,6
-2.433205,0.4833333,6.352056,0.460635227560848,-0.1663503454214285,0.3047148197422924,7.166934,46.69241,359.9854,0.0573347,0.3955185,-0.02488603,13.8399996906519,6
-2.387471,0.6833332,6.394686,0.4770123211268384,-0.1708803939284952,0.3229883244997378,10.74897,46.48397,359.9585,0.08592152,0.3929117,-0.03729267,13.8599996902049,6
-2.214111,0.2833334,6.544747,0.3355877363727327,0.4842090076086148,0.2079472738269165,3.559411,47.84713,0.07407737,0.02865057,0.4053035,-0.01200342,13.8799996897578,6
-2.168864,0.4833333,6.587306,0.322814140620888,0.2546717137070164,0.1994299635645848,7.117876,47.64904,0.1360815,0.05726435,0.4030901,-0.02399022,13.8999996893108,6
-2.123629,0.6833333,6.629852,0.3026967187696761,0.0465304041207698,0.1852950785510421,10.67552,47.45315,0.1861731,0.08581459,0.4004886,-0.03595048,13.9199996888638,6
-1.933559,0.2833334,6.794673,0.286705239225713,-0.1945760487651771,0.1751643769234947,3.63513,48.64912,0.1004835,0.02926253,0.4116723,-0.01226582,13.9399996884167,6
-1.887013,0.4833333,6.83782,0.0691431985226061,0.4373748080361871,-0.0065768943310668,7.269553,48.45427,0.1887445,0.05848715,0.4094337,-0.02451592,13.9599996879697,6
-1.840483,0.6833333,6.880952,0.0336131050366895,0.1846993146457936,-0.0360012762754315,10.90388,48.2633,0.2651096,0.08764897,0.4067835,-0.0367418,13.9799996875226,6
-1.793967,0.8833333,6.924071,-0.010744234836883,-0.0465802088036466,-0.0723236949381895,14.5374,48.07477,0.3300684,0.116714,0.4037247,-0.04892715,13.9999996870756,6
-1.558026,0.2833334,7.127881,-0.0523717224095937,-0.3108248894044818,-0.105785163705665,3.622594,49.62508,0.1344986,0.02918226,0.4194071,-0.0121994,14.0199996866286,6
-1.511315,0.4833333,7.170528,-0.0645154073349814,-0.3423264678007188,-0.1118358809447066,7.244579,49.43427,0.257139,0.0583268,0.4171736,-0.02438312,14.0399996861815,6
-1.464617,0.6833333,7.213164,-0.0855051015087755,-0.3278646931634321,-0.1236619245697188,10.86589,49.24961,0.3687143,0.08740429,0.4145235,-0.03653895,14.0599996857345,6
-1.417934,0.8833332,7.255788,-0.1033857805990302,-0.3207556284925694,-0.1313054429350284,14.48648,49.06973,0.4695859,0.1163849,0.4114597,-0.04865653,14.0799996852875,6
-1.251693,0.2833333,7.39762,-0.2613313204840973,0.3459728851770559,-0.2566873393801199,3.560737,51.4116,0.222622,0.02883576,0.4334857,-0.01172622,14.0999996848404,6
-1.205485,0.4833333,7.439318,-0.2020395695341222,0.1280747023625645,-0.1994164089470267,7.121136,51.22969,0.4342766,0.05763496,0.4312696,-0.0234377,14.1199996843934,6
-1.159291,0.6833332,7.481004,-0.1417585014813974,-0.0684272704149394,-0.1419504893426353,10.68112,51.05957,0.6364506,0.08636968,0.4286363,-0.03512305,14.1399996839464,6
-1.113109,0.8833331,7.522681,-0.0685483177069027,-0.2978945065401601,-0.0743867488972931,14.24027,50.9002,0.8302743,0.1150086,0.4255889,-0.04677117,14.1599996834993,6
-0.9017661,0.2833333,7.704043,-0.1857185983562126,0.3456956609346738,-0.168584274932428,3.491027,51.97628,0.2786762,0.0284453,0.437914,-0.0111622,14.1799996830523,6
-0.8567188,0.4833333,7.745315,-0.1631275177585485,0.1046591329707997,-0.1496972176422151,6.981892,51.79998,0.547032,0.05685548,0.4357247,-0.02231061,14.1999996826053,6
-0.811681,0.6833334,7.786575,-0.1366317396244041,-0.1149812906297033,-0.1288565478474623,10.47205,51.63885,0.8071058,0.0852012,0.4331295,-0.03343179,14.2199996821582,6
-0.6238671,0.2833333,7.949023,-0.2783582839925491,0.3527010314718579,-0.2518343520315884,3.430402,51.47766,0.2682088,0.02797763,0.4340108,-0.01089089,14.2399996817112,6
-0.5798917,0.4833333,7.989886,-0.4172899660500242,0.8161666767430348,-0.3723757137141525,6.860202,51.30062,0.5263772,0.05591893,0.4318497,-0.02176573,14.2599996812642,6
-0.5359289,0.6833332,8.030737,-0.3646636663255318,0.370438948351238,-0.3323486271175806,10.28977,51.13786,0.7760504,0.08380169,0.4293001,-0.03261793,14.2799996808171,6
-0.4919786,0.8833331,8.071576,-0.3104991073670056,-0.0795052444782935,-0.2896243812509151,13.71902,50.98857,1.018839,0.1116008,0.4263647,-0.04343764,14.2999996803701,6
-0.2593423,0.2833333,8.272618,-0.2439353471198364,-0.4610261006872562,-0.2349941883900683,3.377664,49.39832,0.1522783,0.02733021,0.4176363,-0.01110795,14.3199996799231,6
-0.2162624,0.4833333,8.312912,-0.182037720281037,-0.5106830586809046,-0.1843300344846845,6.754401,49.21141,0.2938151,0.05462544,0.4155096,-0.02220086,14.339999679476,6
-0.1731946,0.6833333,8.353194,-0.1259513159457566,-0.5148645417530886,-0.1377196077305704,10.13061,49.03153,0.4253784,0.08186518,0.4130221,-0.03327132,14.359999679029,6
-0.1301393,0.8833333,8.393465,-0.0647923045299043,-0.5268866123810474,-0.0861052467467384,13.50624,48.85758,0.5476515,0.1090257,0.4101763,-0.04430969,14.379999678582,6
0.03512067,0.2833333,8.534323,-0.1408999697876254,0.1202226621560584,-0.1494121123086724,3.31891,47.6284,0.03672413,0.02662268,0.4035942,-0.01139972,14.3999996781349,6
0.07753356,0.4833332,8.573741,-0.0023638276414019,-0.1177825306612738,-0.0334396205543612,6.636946,47.43199,0.06210047,0.05321505,0.4015002,-0.02278657,14.4199996776879,6
0.1199362,0.6833332,8.613151,0.1330537664586164,-0.3348795110789885,0.079421975753199,9.953651,47.2356,0.07605901,0.07975113,0.3990704,-0.03415023,14.4399996772408,6
0.1623267,0.8833331,8.652549,0.1025863102656523,0.1348583489126196,0.0516492027833113,13.26944,47.03788,0.07852243,0.1062126,0.396307,-0.045482,14.4599996767938,6
0.3727678,0.2833334,8.831923,0.0695875786713817,0.5998918535481512,0.0216167262223017,3.260967,45.41951,359.8995,0.02590905,0.3859296,-0.01179359,14.4799996763468,6
0.4145874,0.4833333,8.870531,0.1734374975213253,0.1552437467872984,0.1024740197927904,6.520607,45.2121,359.787,0.05178947,0.3838676,-0.02357422,14.4999996758997,6
0.4563951,0.6833333,8.909127,0.2798870595202527,-0.2941087158523338,0.1849865734353972,9.778814,44.99671,359.6617,0.07761974,0.3814953,-0.03533241,14.5199996754527,6
0.6418489,0.2833333,9.069415,0.1723446030398037,0.1568117211468556,0.0853640138164575,3.207702,42.76731,359.7978,0.02541886,0.3645138,-0.01184758,14.5399996750057,6
0.6824988,0.4833333,9.108037,0.207984892906075,-0.0372862723611459,0.1036725659745894,6.413698,42.5521,359.5833,0.05081015,0.3624807,-0.0236823,14.5599996745586,6
0.723137,0.6833333,9.146647,0.2333203181094982,-0.210476055037643,0.1132781036903836,9.617899,42.32322,359.3549,0.0761539,0.3601635,-0.03549484,14.5799996741116,6
0.763767,0.8833333,9.185246,0.2589396854354944,-0.4171188740230052,0.1232223893872159,12.81992,42.079,359.1114,0.1014291,0.3575644,-0.04727197,14.5999996736646,6
0.9982548,0.2833333,9.386674,0.1518913163897255,0.2488078309115168,0.0234533929642228,3.462575,43.69943,359.7976,0.02738478,0.3720524,-0.01288239,14.6199996732175,6
1.042664,0.4833333,9.427867,0.2444752578414504,0.0296199607271574,0.0914109170478383,6.923459,43.48345,359.5819,0.05473698,0.3699496,-0.02574963,14.6399996727705,6
1.087056,0.6833333,9.469047,0.3280508140348646,-0.1686595780549772,0.1539968637631901,10.38318,43.2524,359.3506,0.08203558,0.3675086,-0.03859464,14.6599996723235,6
1.131428,0.8833333,9.510208,0.4137522871668988,-0.4003921387715727,0.2206780909710453,13.84237,43.00415,359.1019,0.1092623,0.3647314,-0.05140604,14.6799996718764,6
1.299765,0.2833333,9.651873,0.3144232147686647,0.240444505842737,0.1332419925839101,3.540678,45.48976,359.848,0.0279783,0.3864814,-0.01316695,14.6999996714294,6
1.345766,0.4833332,9.693213,0.3391438179271668,-0.0038331840430892,0.1486698627159803,7.080373,45.27875,359.6822,0.05592498,0.3843517,-0.02632332,14.7199996709824,6
1.391754,0.6833332,9.734541,0.3614668192408614,-0.2272027821000211,0.1648597023673108,10.61841,45.05549,359.5016,0.08381008,0.3818552,-0.03945085,14.7399996705353,6
1.437729,0.883333,9.775858,0.2211310017120733,0.2362626859740056,0.0456276498946408,14.15471,44.81792,359.3045,0.111607,0.3789947,-0.05253688,14.7599996700883,6
1.6512,0.2833333,9.95728,0.082171565981286,0.6950235847311914,-0.0705438323412472,3.584094,47.46633,0.002070288,0.02863461,0.4022803,-0.01256976,14.7799996696413,6
1.697331,0.4833333,9.999513,0.1268023498042105,0.2441031111426209,-0.03483405409035,7.167506,47.27052,359.9922,0.05723671,0.4001328,-0.02512274,14.7999996691942,6
1.74345,0.6833333,10.04173,0.1724601276003401,-0.2115215854704255,0.0040120884304517,10.74983,47.07234,359.9697,0.08577439,0.3975948,-0.03764769,14.8199996687472,6
1.933313,0.2833333,10.20423,0.0041201638150782,0.2331265246880106,-0.1368404868522148,3.559502,48.3709,0.07438768,0.02859724,0.4094753,-0.01213211,14.8399996683002,6
1.978941,0.4833334,10.24638,-0.0183297854912427,0.0327562053846711,-0.1572064024492565,7.118036,48.18246,0.1372936,0.05715763,0.4073353,-0.02424745,14.8599996678531,6
2.024556,0.6833333,10.28852,-0.0494835010820104,-0.1467060215670696,-0.1836272282542239,10.67575,47.99635,0.1889039,0.08565464,0.4048031,-0.03633597,14.8799996674061,6
2.070159,0.8833333,10.33065,-0.0779008613062499,-0.3596215100266069,-0.2066611718752398,14.23259,47.81116,0.2293123,0.1140607,0.4018816,-0.048386,14.899999666959,6
2.307766,0.2833333,10.53299,-0.2388619616796816,0.3000326460044642,-0.3376596002742058,3.633834,49.33662,0.1090185,0.02920921,0.4171272,-0.01236879,14.919999666512,6
2.354709,0.4833333,10.57567,-0.1942056052329315,0.0745724670126902,-0.2981298321986472,7.266974,49.15238,0.2065184,0.05838066,0.4149623,-0.02472165,14.939999666065,6
2.401636,0.6833333,10.61835,-0.1533789194643215,-0.129979486773181,-0.2604600792467266,10.89983,48.97269,0.2928795,0.08748774,0.4123805,-0.03704954,14.9599996656179,6
2.448549,0.8833332,10.66101,-0.1044509269320741,-0.3679844619708086,-0.2147574437658264,14.53211,48.79626,0.3687069,0.1165,0.4093848,-0.04933744,14.9799996651709,6
2.616486,0.2833333,10.80167,-0.2372428340578105,0.2665797553561851,-0.3191859106533439,3.615191,50.15567,0.1272992,0.02904037,0.4236061,-0.0123639,14.9999996647239,6
2.663567,0.4833333,10.84371,-0.2360570347453778,0.016029838814821,-0.313333485212981,7.229726,49.97389,0.2433145,0.05804325,0.421449,-0.024712,15.0199996642768,6
2.710634,0.6833333,10.88573,-0.2305666856304453,-0.2136118909394935,-0.3009079907771959,10.84355,49.79791,0.3487952,0.08697964,0.4188729,-0.03703197,15.0399996638298,6
2.893963,0.2833333,11.03993,-0.3813302604653543,0.2435812084773467,-0.4182853414272252,3.558815,52.06095,0.2228386,0.02875462,0.4385825,-0.01188038,15.0599996633828,6
2.940608,0.4833333,11.08109,-0.5225252130472962,0.6960698356263237,-0.5265406516790794,7.117254,51.88856,0.4353147,0.0574728,0.4364381,-0.02374576,15.0799996629357,6
2.98724,0.6833333,11.12223,-0.4630231720567632,0.2388769484278985,-0.4725808660231596,10.67524,51.72809,0.6389107,0.08612664,0.4338721,-0.03558476,15.0999996624887,6
3.03386,0.8833333,11.16337,-0.3887545401337817,-0.2230204233219672,-0.40592815675374,14.23241,51.57858,0.8348222,0.1146856,0.4308873,-0.04738605,15.1199996620417,6
3.262429,0.2833333,11.35625,-0.5207664909228482,0.2153552165130706,-0.5125862446623444,3.490514,52.59639,0.2783875,0.02837935,0.4427697,-0.01131624,15.1399996615946,6
3.307913,0.4833333,11.39703,-0.4963406619555934,0.0087123120653698,-0.4934244917173753,6.980824,52.42951,0.547028,0.0567237,0.4406517,-0.02261854,15.1599996611476,6
3.353387,0.6833333,11.43779,-0.4710704267207477,-0.1770223880846492,-0.474286994918998,10.4704,52.27791,0.8079955,0.08500402,0.4381234,-0.03389319,15.1799996607006,6
3.398848,0.8833331,11.47855,-0.4342212812570807,-0.3962103573216939,-0.4463033468879711,13.95963,52.14085,1.062855,0.1131969,0.4351875,-0.04513304,15.1999996602535,6
3.557874,0.2833333,11.61178,-0.5238827937576307,0.2571713108753461,-0.5212661250326214,3.429965,52.08136,0.268064,0.02791588,0.4387484,-0.01103759,15.2199996598065,6
3.602269,0.4833333,11.65218,-0.4024636440948921,0.0254385307966933,-0.422259285431835,6.859286,51.91393,0.5266717,0.05579558,0.4366602,-0.0220589,15.2399996593595,6
3.646652,0.6833333,11.69256,-0.2806951668927198,-0.1853860172808833,-0.3208624979795491,10.28833,51.76088,0.7773699,0.08361686,0.4341794,-0.03305728,15.2599996589124,6
3.691023,0.8833331,11.73293,-0.1477308580923155,-0.4296634599270328,-0.2080991432908074,13.71703,51.62148,1.021801,0.1113548,0.4313084,-0.04402275,15.2799996584654,6
3.896237,0.2833333,11.90455,-0.1938089067283526,0.1986284173173415,-0.2431833241329908,3.377504,50.09872,0.1541595,0.02726749,0.4231787,-0.01125933,15.2999996580184,6
3.939781,0.4833333,11.94434,-0.1084208955006751,-0.0581941644294385,-0.172684763315388,6.754074,49.92157,0.2981149,0.05450001,0.4211247,-0.02250379,15.3199996575713,6
3.983312,0.6833333,11.98412,-0.0187233198086147,-0.2941087516576564,-0.0968441484047009,10.13009,49.75166,0.4327013,0.08167716,0.4187051,-0.03372547,15.3399996571243,6
4.164553,0.2833334,12.13626,-0.0866587073163334,0.1568116432637414,-0.1514596811200199,3.319115,48.42079,0.03908173,0.02655327,0.4099075,-0.01156552,15.3599996566772,6
4.20748,0.4833333,12.17512,-0.1483673931128919,0.603027477754291,-0.2001183230964418,6.63737,48.23395,0.06737313,0.05307642,0.4078846,-0.02311802,15.3799996562302,6
4.250397,0.6833332,12.21398,-0.0195270944390335,0.1395619349333852,-0.0967286653465748,9.954296,48.04736,0.08477834,0.0795432,0.4055204,-0.03464737,15.3999996557832,6
4.293301,0.8833332,12.25282,0.1160661004586405,-0.3286079564484272,0.0125397735238781,13.27031,47.85976,0.09132672,0.1059356,0.4028172,-0.04614423,15.4199996553361,6
4.520028,0.2833333,12.44274,0.0385333564466288,0.1034951791744768,-0.0560667111600317,3.261052,46.1569,359.8994,0.02583316,0.3918552,-0.01196069,15.4399996548891,6
4.562339,0.4833333,12.48081,0.1086211204346154,-0.1094200011501959,-0.0071250241804854,6.520761,45.95881,359.7875,0.05163749,0.3898648,-0.02390818,15.4599996544421,6
4.604638,0.6833333,12.51887,0.1705103025225094,-0.3014269884153503,0.0348602111327842,9.779078,45.75283,359.6632,0.07739204,0.3875592,-0.03583284,15.479999653995,6
4.646926,0.8833332,12.55692,0.2343738946937525,-0.5268870287159431,0.0782470114261588,13.03563,45.53742,359.5254,0.1030734,0.3849408,-0.04772425,15.499999653548,6
4.805984,0.2833335,12.68955,0.165090851432871,0.1202223325031529,0.0137078634011675,3.207312,43.46797,359.7974,0.0253415,0.3701982,-0.01200474,15.519999653101,6
4.8471,0.4833335,12.72767,0.2984485509712753,-0.1177829899451317,0.112381977458968,6.412966,43.26221,359.583,0.0506557,0.3682389,-0.02399634,15.5399996526539,6
4.888205,0.6833334,12.76577,0.422495053461934,-0.3348800895396904,0.204278344133332,9.616878,43.04285,359.3553,0.07592264,0.365991,-0.03596555,15.5599996522069,6
4.929301,0.8833333,12.80386,0.3842111547064517,0.1348576750581723,0.1635062907545972,12.81866,42.8083,359.1131,0.1011214,0.3634568,-0.0478989,15.5799996517599,6
5.138888,0.2833335,12.97687,0.3393721514708883,0.5998910013640277,0.1189897671640078,3.462452,44.54703,359.8001,0.02729603,0.3789036,-0.01306396,15.5999996513128,6
5.183866,0.4833334,13.01743,0.4197621332981249,0.1552428462529209,0.1753531659342044,6.923276,44.34073,359.5875,0.0545598,0.3768722,-0.02611253,15.6199996508658,6
5.228827,0.6833334,13.05798,0.4976907535124901,-0.2941095480865334,0.2326595427665161,10.38299,44.11962,359.3599,0.08177,0.3744962,-0.03913892,15.6399996504188,6
5.414032,0.2833334,13.21082,0.3653960574046948,0.1568110743859733,0.117557127344547,3.540933,46.4545,359.851,0.02787869,0.3942274,-0.01337918,15.6599996499717,6
5.460688,0.4833334,13.25143,0.2281236625250757,0.6030271251894634,0.0004133031966215,7.080933,46.25299,359.6887,0.05572575,0.3921657,-0.02674805,15.6799996495247,6
5.50733,0.6833333,13.29202,0.2687339098169943,0.1395614683316497,0.026057851291549,10.61932,46.03953,359.5122,0.08351149,0.3897297,-0.04008752,15.6999996490777,6
5.553959,0.8833333,13.3326,0.3022973984925343,-0.3286082810485153,0.0490231767540354,14.156,45.81214,359.3199,0.1112093,0.3869223,-0.05338478,15.7199996486306,6
5.785321,0.2833333,13.52454,0.2033353434237481,0.1034947996032006,-0.0329238662140962,3.584149,48.35272,0.001661812,0.0285355,0.409346,-0.01279432,15.7399996481836,6
5.832102,0.4833333,13.56606,0.2534111209045084,-0.1094204197501463,0.0045704319405626,7.167598,48.16606,359.9919,0.05703847,0.4072662,-0.02557159,15.7599996477365,6
5.87887,0.6833333,13.60756,0.2954606655408964,-0.301427430624164,0.0381019955093684,10.74997,47.97712,359.9702,0.08547737,0.4047889,-0.03832022,15.7799996472895,6
5.925624,0.8833333,13.64905,0.3407385287906663,-0.5268873595884949,0.0766630832245507,14.33125,47.78432,359.936,0.1138245,0.4019169,-0.05102775,15.7999996468425,6
6.086662,0.2833334,13.7812,0.2073967769955826,0.1202219144259069,-0.0283350350358766,3.559203,49.2258,0.07389952,0.02850179,0.4162663,-0.0123479,15.8199996463954,6
6.132912,0.4833332,13.82266,0.2780456016923311,-0.1177833613273577,0.0286570041600313,7.11746,49.04667,0.1369413,0.0569673,0.4141956,-0.02467852,15.8399996459484,6
6.17915,0.6833332,13.86411,0.3391657620931791,-0.3348804008979066,0.0796966740192406,10.67487,48.86995,0.18925,0.08536944,0.4117262,-0.03698201,15.8599996455014,6
6.225374,0.8833331,13.90555,0.237010613531531,0.1348574232012601,-0.0008723518494733,14.23139,48.69432,0.230971,0.1136809,0.4088609,-0.04924627,15.8799996450543,6
6.434974,0.2833333,14.07639,0.130117922347619,0.5998909146820375,-0.0833806236633147,3.633645,50.31702,0.1113494,0.02910947,0.4248822,-0.01259913,15.8999996446073,6
6.48261,0.4833333,14.1183,0.1564638827927105,0.1552430437484653,-0.0629448615500809,7.266582,50.14231,0.2117805,0.05818124,0.422785,-0.0251821,15.9199996441603,6
6.530229,0.6833333,14.16019,0.1840519447228139,-0.2941090536071733,-0.0391131169510323,10.89923,49.97243,0.3016814,0.08718874,0.4202629,-0.03773987,15.9399996437132,6
6.716347,0.2833335,14.31204,0.0038656202655644,0.1568117591301174,-0.1839477503689757,3.615335,51.23829,0.1300653,0.02893383,0.4321394,-0.0126165,15.9599996432662,6
6.764184,0.4833335,14.35322,-0.1765072046263984,0.6030281069174221,-0.3267848213367426,7.230005,51.06587,0.2494361,0.05783029,0.4300474,-0.02521691,15.9799996428192,6
6.812006,0.6833335,14.39439,-0.1796573265039338,0.1395627342371417,-0.3319882931463986,10.84396,50.89956,0.3589218,0.08666059,0.4275278,-0.03778851,15.9999996423721,6
6.859814,0.8833334,14.43554,-0.1824229889373025,-0.3286068632970901,-0.3332435528700515,14.45712,50.73809,0.4587919,0.1153946,0.4245832,-0.05032123,16.0199996419251,6
7.09248,0.2833333,14.62473,-0.3132456402039381,0.1034962235399732,-0.4348738363331943,3.550753,53.45065,0.2443215,0.02862988,0.4494379,-0.01202922,16.0399996414781,6
7.13977,0.4833333,14.66497,-0.2974984824148929,-0.1094189223732552,-0.4270450153999707,7.10115,53.28948,0.4790345,0.05722354,0.447361,-0.02404327,16.059999641031,6
7.187047,0.6833332,14.7052,-0.2715169556968408,-0.3014257925523878,-0.4111527746140009,10.65114,53.14169,0.7058002,0.08575357,0.4448535,-0.03603078,16.079999640584,6
7.234311,0.8833331,14.74541,-0.2240906484540907,-0.5268858465304411,-0.3782468894733028,14.20027,53.00648,0.9259977,0.1141889,0.4419182,-0.04798011,16.099999640137,6
7.395746,0.2833333,14.87585,-0.3462478224993681,0.1202235831630689,-0.4813388664672917,3.484379,53.69608,0.2786991,0.02822293,0.4513497,-0.01156146,16.1199996396899,6
7.441911,0.4833334,14.91569,-0.2796760881452602,-0.1177818154259785,-0.4903965679223958,6.968497,53.5384,0.5482258,0.05641102,0.4493004,-0.02310868,16.1399996392429,6
7.488067,0.6833334,14.95552,-0.2039312154502148,-0.3348791096412004,-0.492573871354697,10.45187,53.3961,0.8106214,0.08453561,0.4468342,-0.03462817,16.1599996387959,6
7.53421,0.8833332,14.99533,-0.2770819689301866,0.1348583541396754,-0.6137941795070532,13.93485,53.26851,1.067517,0.1125735,0.4439536,-0.04611221,16.1799996383488,6
7.742433,0.2833332,15.16327,-0.3418987981292289,0.5998914986311482,-0.7260451844082532,3.425433,53.04448,0.2576889,0.02774636,0.4462844,-0.01133514,16.1999996379018,6
7.787544,0.4833332,15.20272,-0.2958748076913071,0.1552433863818882,-0.8297466446730848,6.850155,52.88524,0.506388,0.05545675,0.4442652,-0.02265383,16.2199996374547,6
7.832642,0.6833332,15.24217,-0.2303956165954321,-0.2941091806245983,-0.9115771591721272,10.27455,52.73984,0.7475935,0.08310928,0.4418479,-0.03394906,16.2399996370077,6
