pX,pY,pZ,aX,aY,aZ,reX,reY,reZ,rtX,rtY,rtZ,t,ID
-45.00161,0.23,-37.94738,4.828704674922761,-0.1201400925538719,9.170482126103188,2.7636,359.3717,0.05672191,0.02411154,-0.005493222,0.0006270582,4.8199998922646,12
-45.00059,0.4300001,-37.92547,5.095318153405628,-0.2916103888581768,9.348176968916968,4.001981,358.7344,359.9804,0.03491653,-0.01103155,0.0002150063,4.83999989181757,12
-44.99958,0.6300001,-37.90358,5.288545214912332,-0.2456352570057289,9.423901499658186,5.24202,358.0948,359.8891,0.04573903,-0.01656304,-0.0002065351,4.85999989137053,12
-44.99858,0.83,-37.88171,5.581295534198155,-0.6468175766679988,9.491092515396808,6.483483,357.4525,359.7831,0.0565768,-0.02208673,-0.0006320262,4.8799998909235,12
-44.99955,0.2833333,-37.89198,5.789238296208687,-0.8012477543704362,9.45341612408552,0.2615832,2.797622,0.03028098,0.002288512,0.02441076,0.000208447,4.89999989047647,12
-44.99954,0.4833333,-37.87381,5.916211692243408,-0.7342597264161502,9.316393010050412,1.179577,1.550691,0.03438217,0.01029669,0.01352811,0.000160706,4.91999989002943,12
-44.98581,0.2833332,-37.83997,6.1427249419554855,-1.1104565048082105,9.192231351192277,1.128896,5.347866,0.532773,0.01005737,0.04660348,0.004184439,4.9399998895824,12
-44.9931,0.4833332,-37.81933,6.27718593680342,-1.2359290414280877,8.966587256108632,2.268559,4.140893,1.041672,0.02011023,0.03593985,0.008367313,4.95999988913536,12
-45.00038,0.6833332,-37.7987,6.324428752652402,-1.1360110063475857,8.646356237721562,3.41954,2.944274,1.529746,0.03016698,0.02527892,0.01257235,4.97999988868833,12
-45.00764,0.883333,-37.7781,6.406739311128391,-1.4753051730418454,8.293370213123048,4.582181,1.757139,1.99527,0.04023242,0.01462279,0.01678229,4.99999988824129,12
-44.94993,0.2833333,-37.72723,6.399386788116338,-1.5599023882414278,7.854468687345751,1.701439,9.738318,0.1628712,0.01491435,0.08485013,0.0001557856,5.01999988779426,12
-44.94729,0.4833334,-37.69741,6.307988916921239,-1.4151367632686522,7.337457647806595,3.405993,8.526724,0.2891993,0.02982372,0.0742332,0.0003063433,5.03999988734722,12
-44.94466,0.6833333,-37.66761,6.311117927596634,-1.7056107140681358,6.85107857658447,5.115041,7.317223,0.3767456,0.04474073,0.06360113,0.0004303516,5.05999988690019,12
-44.83568,0.2833326,-37.49897,6.224761297862031,-1.7374153034220212,6.292628938383828,6.675201,14.70769,0.07059275,0.05781901,0.127744,-0.006841929,5.07999988645315,12
-44.80067,0.4833327,-37.37182,6.055391236339595,-1.5358836591823246,5.670933264468346,13.68543,12.84362,359.8935,0.1182934,0.1111604,-0.01424283,5.09999988600612,12
-44.45911,0.2833334,-36.67678,5.990625303841696,-1.7656181838775478,5.1105405297256254,3.441525,17.25343,0.1718887,0.02991359,0.149884,-0.003021782,5.11999988555908,12
-44.44273,0.4833333,-36.61799,5.83650673333662,-1.7327110032113784,4.491543052650506,6.891922,15.07724,0.2095292,0.05982693,0.1308481,-0.006076299,5.13999988511205,12
-44.42635,0.6833334,-36.55922,5.600651996666812,-1.4624955482049915,3.8240944041055087,10.34396,12.88544,0.1133318,0.0896867,0.1116644,-0.009136452,5.15999988466501,12
-44.40998,0.8833332,-36.50047,5.290824898919169,-0.9792601991161496,3.118590759977224,13.79245,10.66134,359.8796,0.1194552,0.09235702,-0.01219351,5.17999988421798,12
-44.27691,0.2833333,-36.3932,5.071762754467713,-1.1600004865518827,2.4655726673990728,2.987154,18.68808,0.05063042,0.02579075,0.1622958,-0.003796132,5.19999988377094,12
-44.25994,0.4833335,-36.34337,4.776700230183607,-1.0707114205045656,1.7855614466553078,5.974778,16.51245,359.9875,0.05156042,0.1434106,-0.007591307,5.21999988332391,12
-44.24298,0.6833335,-36.29356,4.544256521205035,-1.1636017019291829,1.1667234992846716,8.960333,14.32076,359.8092,0.07729783,0.1243951,-0.0113833,5.23999988287687,12
-44.07429,0.2833335,-36.15297,4.23924564021992,-0.9848588818112946,0.5338610422553742,2.959087,21.63634,0.05001303,0.02544304,0.1876191,-0.004417687,5.25999988242984,12
-44.05501,0.4833335,-36.10468,3.87149845716668,-0.5598175613353508,-0.1003006078908086,5.917618,19.46736,359.988,0.0508572,0.1688487,-0.008830348,5.2799998819828,12
-44.03574,0.6833335,-36.05639,3.451046003325814,0.0872343353885154,-0.722817452074267,8.871319,17.28274,359.8123,0.07621617,0.1499242,-0.01323445,5.29999988153577,12
-43.90508,0.2833333,-35.96674,3.1368404459215355,0.0793006144400462,-1.2469628199455831,3.008038,23.688,0.04907465,0.02577614,0.205166,-0.004968155,5.31999988108873,12
-43.88374,0.4833336,-35.91845,2.772158486054714,0.3503867475870664,-1.7420780677864762,6.015303,21.52521,359.9845,0.05152115,0.1864899,-0.009930691,5.3399998806417,12
-43.86239,0.6833336,-35.87017,2.3671251374467275,0.6350631437768961,-2.220385408139084,9.017563,19.34615,359.8048,0.07720872,0.1676379,-0.01488312,5.35999988019466,12
-43.68193,0.2833333,-35.73848,2.0961048948068424,0.2410242776644102,-2.579714559248078,3.003212,28.46959,0.1431306,0.02570739,0.2457798,-0.005233413,5.37999987974763,12
-43.65812,0.4833336,-35.69143,1.7894468556841048,-0.1665699781511304,-2.909857649866094,6.009147,26.32073,0.1735072,0.05138325,0.2272868,-0.0104615,5.39999987930059,12
-43.63432,0.6833338,-35.64438,1.6002391987460598,-0.173365269533285,-3.071666872829681,9.013633,24.16072,0.09008768,0.07700159,0.2085759,-0.01567863,5.41999987885356,12
-43.4451,0.2833336,-35.49759,1.388981830777027,-0.1493209365315783,-3.17913375508331,2.997038,32.01944,0.2046622,0.02562921,0.2756608,-0.005496321,5.43999987840652,12
-43.4194,0.4833335,-35.45161,1.152259890912582,0.3324391547327988,-3.2381260573744197,5.999162,29.88194,0.2975027,0.05122779,0.2573384,-0.01098653,5.45999987795949,12
-43.39371,0.6833335,-35.40565,0.9266747657159656,0.7938137625730386,-3.2218731846723614,9.002439,27.73662,0.2771594,0.07677027,0.2387669,-0.01647006,5.47999987751245,12
-43.2581,0.2833333,-35.30846,0.8801689558447663,0.3298258315806067,-3.0380237813406303,3.071451,33.37891,0.2279367,0.0262423,0.2870294,-0.005791951,5.49999987706542,12
-43.23097,0.4833333,-35.26187,0.856541841718915,-0.1545473811587743,-2.7627633781954124,6.149291,31.24964,0.3414537,0.052456,0.2687942,-0.01158085,5.51999987661839,12
-43.20386,0.683333,-35.2153,0.7932803513462474,0.2456706087948299,-2.418851093397585,9.231193,29.11317,0.3399249,0.07862994,0.2502888,-0.01736312,5.53999987617135,12
-43.01484,0.2833328,-35.0744,0.9294372291916346,-0.0148110884994762,-1.874136107258117,3.256384,35.2487,0.2292104,0.02768514,0.3025979,-0.006697293,5.55999987572432,12
-42.98437,0.4833326,-35.02621,1.0935939310596652,-0.2700654053495864,-1.2247429073076148,6.520803,33.12584,0.3370413,0.05535104,0.2844451,-0.01339827,5.57999987527728,12
-42.95391,0.683333,-34.97804,1.1733025489044238,0.1458346874306351,-0.6244105276213112,9.785943,30.99394,0.3230675,0.08294398,0.265981,-0.02008268,5.59999987483025,12
-42.75387,0.2833336,-34.82169,1.3567099699278984,-0.0989647161624438,0.0125219667115992,3.321702,34.93602,0.1284677,0.02798305,0.300016,-0.007631051,5.61999987438321,12
-42.7216,0.4833333,-34.77348,1.1749062092363047,0.1416543459471619,-0.0437543231948396,6.645517,32.81073,0.1329637,0.05592798,0.2818918,-0.01525865,5.63999987393618,12
-42.68933,0.6833333,-34.72528,0.98700539433856,0.3885459559148105,-0.1093697391724255,9.966204,30.66977,0.01252778,0.08379816,0.2634516,-0.0228665,5.65999987348914,12
-42.65708,0.8833333,-34.6771,0.9660873231913384,-0.0508752645327347,-0.0920784423925802,13.27912,28.49815,359.7635,0.1115609,0.2447176,-0.03044622,5.67999987304211,12
-42.47792,0.283333,-34.55408,0.945822206985298,-0.5117271522834879,-0.0854144270041423,3.302313,33.76411,0.0003080835,0.02757315,0.2902819,-0.008365122,5.69999987259507,12
-42.44501,0.4833327,-34.50679,0.7991417786454704,-0.0890323451008119,-0.1424217291992668,6.601406,31.63635,359.8778,0.05510579,0.2721922,-0.0167185,5.71999987214804,12
-42.29062,0.2833335,-34.38783,0.8363824775374198,-0.3280831052887792,-0.0904369991680908,3.264194,33.69419,359.9136,0.02704084,0.2897215,-0.008975667,5.739999871701,12
-42.2569,0.483334,-34.34191,0.8764849713653291,-0.5629522323009816,-0.041033954931585,6.521947,31.56351,359.7057,0.0540421,0.2716732,-0.01793867,5.75999987125397,12
-42.2232,0.6833338,-34.29599,0.7507259594874967,-0.1277132992821946,-0.0966291857670391,9.768548,29.40554,359.373,0.08097062,0.2533299,-0.02688251,5.77999987080693,12
-42.1895,0.883334,-34.25009,0.6309713696981092,0.2860952696025475,-0.1524351888649171,12.99928,27.20567,358.9114,0.1077968,0.2347132,-0.03579561,5.7999998703599,12
-42.01642,0.2833333,-34.1353,0.6730914194595101,-0.2265048216095594,-0.1327000698536444,3.222007,31.65469,359.8061,0.0265864,0.272677,-0.009295016,5.81999986991286,12
-41.9832,0.483333,-34.08982,0.5954634219614263,-0.0402473767157823,-0.1593200124605971,6.43373,29.52377,359.4921,0.0531351,0.254639,-0.01857737,5.83999986946583,12
-41.94998,0.683333,-34.04436,0.5273922312210999,0.1522823978936283,-0.1816500242912546,9.630499,27.36028,359.055,0.07961544,0.2363313,-0.02783642,5.85999986901879,12
-41.76405,0.2833333,-33.91378,0.6399373799045733,-0.3415003578792219,-0.1065280422618357,3.280474,31.64636,359.7607,0.02696978,0.2726147,-0.009813063,5.87999986857176,12
-41.7296,0.4833333,-33.86786,0.5775119830404378,-0.1364252728089078,-0.1258615753847927,6.548932,29.51718,359.3992,0.05390042,0.2546171,-0.01961239,5.89999986812472,12
-41.5655,0.2833333,-33.7389,0.6542054964399213,-0.3519547661156669,-0.0579439990654968,3.525553,33.00215,359.7552,0.02888801,0.2839613,-0.01078426,5.91999986767769,12
-41.52746,0.4833333,-33.69028,0.7314799708159114,-0.5622572370314675,0.009070037318164,7.038742,30.87341,359.3791,0.05773104,0.2659884,-0.02155245,5.93999986723065,12
-41.48944,0.6833332,-33.64168,0.6242691358289534,-0.1014058333930831,-0.0373205856944238,10.53585,28.703,358.866,0.08650119,0.2476911,-0.03230284,5.95999986678362,12
-41.45143,0.8833332,-33.59311,0.5195428505397359,0.3390602607949593,-0.0826558576842373,14.01094,26.4736,358.2102,0.1151597,0.2290933,-0.04301361,5.97999986633658,12
-41.26955,0.2833335,-33.47007,0.5801033650211309,-0.1458365578454185,-0.0402179594480607,3.556465,34.4745,359.7887,0.02909109,0.2962405,-0.01095568,5.99999986588955,12
-41.23048,0.4833335,-33.42171,0.5169035974509271,0.0691693338291026,-0.0542090595165731,7.101995,32.35684,359.4451,0.05813687,0.2783792,-0.0218987,6.01999986544251,12
-41.19143,0.6833332,-33.37335,0.458560939632946,0.2914931157076052,-0.063702740878913,10.63134,30.1992,358.9655,0.087099,0.2601745,-0.03281121,6.03999986499548,12
-40.99665,0.2833333,-33.23377,0.5843845056341195,-0.1714494720677118,0.0336269137695772,3.594306,36.79793,359.9291,0.02956274,0.315495,-0.01048546,6.05999986454844,12
-40.9572,0.4833335,-33.18499,0.5264042046602952,0.0655107176395236,0.0236353031920337,7.182848,34.69936,359.7262,0.05907981,0.297759,-0.02095595,6.07999986410141,12
-40.91776,0.6833333,-33.13623,0.4663972439657939,0.3097888939898914,0.0120828331475202,10.76056,32.56917,359.388,0.08851156,0.2796498,-0.03139636,6.09999986365438,12
-40.78588,0.2833335,-33.04809,0.5966767084367461,-0.1311998005009729,0.1178873029760083,3.563625,37.46595,0.01374758,0.02948483,0.3209993,-0.009872361,6.11999986320734,12
-40.74737,0.4833336,-32.99928,0.524283597346205,0.1277134345753549,0.0918087961015849,7.124167,35.38191,359.8981,0.05892209,0.3033482,-0.01972598,6.13999986276031,12
-40.70886,0.6833336,-32.95048,0.44083774004811,0.3939451920679055,0.0560984132546522,10.67711,33.27229,359.6498,0.08827455,0.2853222,-0.02955233,6.15999986231327,12
-40.5196,0.2833332,-32.81979,0.3589229654300538,0.6152239277131102,0.0175729304925127,3.594214,39.28537,0.04923803,0.02967971,0.3359752,-0.01013738,6.17999986186624,12
-40.47966,0.4833332,-32.77142,0.4445434516505884,-0.1144728915370959,0.0631173369342903,7.186807,37.21069,359.9682,0.05931178,0.318437,-0.02025886,6.1999998614192,12
-40.43973,0.6833335,-32.72306,0.3617552710662295,0.069171225587259,0.0192260910309443,10.77328,35.11219,359.7536,0.0888577,0.3004991,-0.03035752,6.21999986097217,12
-40.23679,0.2833333,-32.57606,0.2792737007893819,0.2601334397327147,-0.0262911695743319,3.642463,40.0254,0.05514865,0.0300267,0.3420411,-0.01042443,6.23999986052513,12
-40.19576,0.4833333,-32.5275,0.2307388528878107,0.2460207024462188,-0.0563886280062142,7.283504,37.95724,359.9787,0.06000459,0.3245697,-0.02083246,6.2599998600781,12
-40.15473,0.683333,-32.47895,0.169411085206022,0.2669285853671675,-0.0946086852598853,10.91839,35.86505,359.7679,0.089894,0.3066829,-0.03121085,6.27999985963106,12
-40.11373,0.8833335,-32.43041,0.1081680655017791,0.2695415831352155,-0.1336665348148322,14.54239,33.73093,359.417,0.1196563,0.2884048,-0.04154951,6.29999985918403,12
-39.93846,0.2833332,-32.31679,0.2396715319099769,-0.4397706446005897,-0.0542218309536544,3.606109,40.97055,0.0920541,0.02975531,0.3497696,-0.01025921,6.31999985873699,12
-39.89755,0.4833333,-32.26896,0.2071617878091061,-0.236786635380064,-0.0573313795626972,7.21207,38.91438,0.05458523,0.05946207,0.3324146,-0.02050244,6.33999985828996,12
-39.85665,0.6833335,-32.22114,0.1731311189377322,-0.0275299093805176,-0.0615083188434084,10.8133,36.83725,359.8853,0.08908201,0.3146412,-0.03071664,6.35999985784292,12
-39.6674,0.2833333,-32.09214,0.1508280874203862,0.1357288956799693,-0.0592426259191434,3.546238,43.24327,0.1916247,0.02938052,0.3682506,-0.00984746,6.37999985739589,12
-39.62661,0.4833336,-32.0455,0.1305027119871695,0.0672548433885152,-0.0593102117342638,7.095953,41.20287,0.256989,0.0587143,0.3510599,-0.01967966,6.39999985694885,12
-39.45995,0.2833331,-31.91962,0.1111749024887629,0.0338025650025582,-0.0561490808087974,3.506694,43.50318,0.2277621,0.02915455,0.3703525,-0.009493461,6.41999985650182,12
-39.41989,0.4833333,-31.87322,-0.0502441557004758,0.4622474777717344,-0.1426152870300647,7.018153,41.47032,0.3311988,0.05826325,0.3532181,-0.01897208,6.43999985605478,12
-39.37983,0.6833332,-31.82684,-0.0395659279508535,0.2341735220065517,-0.1325731743939329,10.52945,39.42659,0.3088248,0.08728474,0.3356566,-0.0284246,6.45999985560775,12
-39.33979,0.8833333,-31.78046,-0.0322868276315162,0.0155085123452113,-0.1262155340954649,14.03664,37.35605,0.1572904,0.1161877,0.3176909,-0.03783964,6.47999985516071,12
-39.15898,0.2833333,-31.65929,-0.0163064412824383,-0.2481092513640497,-0.1169334526127734,3.445346,42.63113,0.2235621,0.02871414,0.3632847,-0.009110904,6.49999985471368,12
-39.12032,0.4833332,-31.61309,0.0289051760204728,-0.2909714035689106,-0.0750969095776135,6.895,40.60617,0.3258375,0.05738245,0.3461965,-0.01820358,6.51999985426664,12
-39.08167,0.6833332,-31.56691,0.0641923503966381,-0.2998576010958153,-0.0399419099870144,10.34511,38.57094,0.3052234,0.08597227,0.3287022,-0.02727215,6.53999985381961,12
-38.88713,0.2833333,-31.43138,0.1017158068038597,-0.3280835611750583,-0.0048120438171395,3.396179,41.68442,0.1386986,0.02812428,0.3556056,-0.009412577,6.55999985337257,12
-38.84872,0.4833332,-31.38619,-0.0333341115670791,0.2913223287571183,-0.0725628074026865,6.793779,39.65799,0.1570535,0.05620311,0.3385413,-0.01881213,6.57999985292554,12
-38.81033,0.683333,-31.34101,-0.0132907270144144,0.0141143362422575,-0.0621663527395597,10.18892,37.61667,0.05361818,0.0842066,0.3210905,-0.02818759,6.5999998524785,12
-38.60359,0.2833333,-31.19081,0.0032008217096048,-0.2536847783818247,-0.054638610147581,3.342264,39.97396,0.04857504,0.02755099,0.3416497,-0.009569779,6.61999985203147,12
-38.56599,0.4833333,-31.14624,-0.0826194773825577,0.1538511742575801,-0.090794015706102,6.682768,37.9459,359.9788,0.05505859,0.3245792,-0.0191243,6.63999985158443,12
-38.52839,0.6833336,-31.10167,0.0096530804069772,-0.0951311952359398,-0.0278002202198486,10.01772,35.89833,359.7887,0.08249425,0.3071488,-0.02865402,6.6599998511374,12
-38.49081,0.8833333,-31.05712,0.1044935245671041,-0.3347050198020516,0.0348874789526867,13.34286,33.81669,359.4741,0.1098265,0.2893792,-0.03814937,6.67999985069036,12
-38.30954,0.2833332,-30.93756,0.0334062972232374,0.1010567271318507,0.0056366029853975,3.289473,37.73286,359.9123,0.02691269,0.3232506,-0.01000517,6.69999985024333,12
-38.27243,0.4833331,-30.89376,0.1492489681087079,-0.1196990914510297,0.0894884717444171,6.572809,35.7014,359.7078,0.05378666,0.3061717,-0.01999642,6.7199998497963,12
-38.23533,0.6833329,-30.84996,0.260342999335144,-0.3310465667836891,0.168391330420544,9.845498,33.64325,359.3837,0.08058883,0.2887632,-0.02996206,6.73999984934926,12
-38.04193,0.2833335,-30.7161,0.1833777139465695,0.1329415022029821,0.1307638817632082,3.238734,36.35876,359.8413,0.02641707,0.3119053,-0.01013181,6.75999984890223,12
-38.00544,0.4833335,-30.67287,0.1025126538441583,0.5807252799521136,0.087961257084963,6.468935,34.32777,359.5676,0.05279717,0.2948371,-0.02024999,6.77999984845519,12
-37.96896,0.6833332,-30.62965,0.1803047547192662,0.1073290828956365,0.1225217837628918,9.68644,32.2669,359.176,0.07911135,0.2774594,-0.03034307,6.79999984800816,12
-37.76402,0.2833331,-30.48145,0.2585369648747146,-0.3822713770851701,0.1546277553241992,3.191227,33.83912,359.7379,0.02597423,0.2909761,-0.0102915,6.81999984756112,12
-37.72846,0.4833333,-30.43837,0.1882089584907404,0.0169022514663997,0.1129065211120483,6.370222,31.80601,359.3622,0.05191195,0.2738795,-0.02056882,6.83999984711409,12
-37.69291,0.6833332,-30.39529,0.2906613966501652,-0.2404433434333904,0.1670328276578629,9.532903,29.73807,358.8698,0.07778582,0.2565027,-0.03082161,6.85999984666705,12
-37.65737,0.8833333,-30.35223,0.3906285184771647,-0.4883803599526288,0.2183623028441417,12.67455,27.62202,358.256,0.1035663,0.2388652,-0.04103586,6.87999984622002,12
-37.47162,0.2833335,-30.22867,0.3223826744212203,-0.0609818237892487,0.1764927509595146,3.526343,34.75373,359.7296,0.0286595,0.2985825,-0.01144025,6.89999984577298,12
-37.43179,0.483334,-30.18144,0.3543722307661525,-0.2901015778737579,0.1776961670138241,7.040039,32.72336,359.3338,0.05727524,0.2815061,-0.02286302,6.91999984532595,12
-37.39197,0.6833339,-30.13423,0.2359203187966656,-0.029620318171035,0.0866818832160802,10.53773,30.65101,358.8077,0.08582082,0.2640929,-0.03426185,6.93999984487891,12
-37.19452,0.2833332,-29.99863,0.1138107057206809,0.2413146624104608,-0.005066897573382,3.558151,37.25759,359.8021,0.02886765,0.3193319,-0.01155313,6.95999984443188,12
-37.15335,0.4833333,-29.95201,0.1596302817367743,-0.1698800438029428,-0.005417267039121,7.106352,35.23951,359.4778,0.05769017,0.3023826,-0.02309399,6.97999984398484,12
-37.1122,0.6833332,-29.90541,0.2055388222210936,-0.5983244848304476,-0.004162434191631,10.63984,33.18348,359.0238,0.08643111,0.2850668,-0.03460329,6.99999984353781,12
-36.90134,0.2833332,-29.75345,0.0950561734286949,-0.1390408182433417,-0.0839243418575286,3.594344,38.75891,359.9202,0.02935344,0.3316802,-0.01106339,7.01999984309077,12
-36.86016,0.4833333,-29.70612,0.1662547283221513,-0.3373208005410534,-0.0565146087334511,7.182986,36.75762,359.7148,0.05866358,0.3148258,-0.02210868,7.03999984264374,12
-36.81899,0.6833333,-29.6588,0.2354011067575214,-0.5272375380052714,-0.0295647170206656,10.76121,34.72538,359.3801,0.08788995,0.2975843,-0.0331235,7.0599998421967,12
-36.77784,0.8833332,-29.61149,0.1282185152883244,-0.0428646043034829,-0.1029700559342465,14.32427,32.64528,358.9103,0.1169952,0.2799782,-0.04409349,7.07999984174967,12
-36.59558,0.2833336,-29.49109,0.0234286254572353,0.4242592685257697,-0.1732766488181987,3.556051,39.23225,0.01038384,0.02925709,0.3355524,-0.0103311,7.09999984130263,12
-36.55566,0.4833336,-29.44359,0.0792729602882573,-0.0308426312472047,-0.162862457016601,7.10909,37.24772,359.8979,0.05846824,0.3187918,-0.02064204,7.1199998408556,12
-36.51575,0.6833335,-29.3961,-0.0586840454458013,0.2170942273278656,-0.2704000961652149,10.65506,35.23878,359.6594,0.08759715,0.3016466,-0.03092507,7.13999984040856,12
-36.31758,0.2833334,-29.25996,-0.1977738497274828,0.4754848779567713,-0.3762008199381412,3.625631,40.85281,0.05068155,0.02979947,0.3488162,-0.01062624,7.15999983996153,12
-36.27602,0.4833333,-29.21224,-0.1643592415040018,0.0517452331873925,-0.3878482132930791,7.249825,38.87757,359.9762,0.05955144,0.3321461,-0.02123679,7.17999983951449,12
-36.23448,0.683333,-29.16452,-0.126994025461137,-0.3892435165360128,-0.3953752937914636,10.86888,36.87942,359.7734,0.0892214,0.3150619,-0.03182346,7.19999983906746,12
-36.02243,0.2833334,-29.01289,-0.2452059720685575,0.057496138774592,-0.4812986791107647,3.638975,41.32693,0.05203912,0.02986833,0.3526869,-0.01077944,7.21999983862042,12
-35.98036,0.4833334,-28.96532,-0.1784708513149233,-0.1533279015817568,-0.4556040035629287,7.276553,39.35769,359.9789,0.05968912,0.33608,-0.02154213,7.23999983817339,12
-35.93829,0.6833333,-28.91777,-0.1107014619917698,-0.3557886078962142,-0.4255546775915846,10.9084,37.3656,359.778,0.0894235,0.3190522,-0.03227445,7.25999983772635,12
-35.89624,0.8833329,-28.87023,-0.2162597811104518,0.1160400758269171,-0.4915328947129929,14.5302,35.33363,359.4438,0.1190336,0.3016261,-0.0429655,7.27999983727932,12
-35.71255,0.2833337,-28.75127,-0.3151499641793513,0.5706191528859013,-0.5494905102701324,3.592317,42.61491,0.1190571,0.02957854,0.3631634,-0.01042197,7.29999983683228,12
-35.67084,0.4833339,-28.70445,-0.2460312368625743,0.102972391743123,-0.5183719902931934,7.185557,40.66014,0.1155276,0.05911068,0.3466856,-0.02082795,7.31999983638525,12
-35.62914,0.6833342,-28.65764,-0.3649487487150225,0.3383646034318659,-0.598131824560852,10.77551,38.68765,359.9874,0.08855859,0.3297826,-0.03120508,7.33999983593822,12
-35.43148,0.2833333,-28.52373,-0.4786311999248518,0.5842107159842918,-0.6696047823941775,3.530841,44.40918,0.2052762,0.02919947,0.3776838,-0.009984867,7.35999983549118,12
-35.39014,0.4833334,-28.47791,-0.4080489060494479,0.1479264434073327,-0.6369539688031232,7.065562,42.46854,0.2910497,0.05835404,0.3613469,-0.0199545,7.37999983504415,12
-35.34882,0.6833333,-28.43212,-0.3227124405488624,-0.3056074363564788,-0.590287949710472,10.60011,40.51654,0.2559366,0.08742741,0.3445778,-0.02989746,7.39999983459711,12
-35.21531,0.2833334,-28.34738,-0.3901339606809522,0.1285865584548009,-0.6191228566777305,3.475086,44.35102,0.2229611,0.0288124,0.3772161,-0.009643609,7.41999983415008,12
-35.17494,0.4833331,-28.30198,-0.2671356263690043,-0.0947831967622366,-0.5350659131455622,6.95475,42.41795,0.3287584,0.05758186,0.3609408,-0.01927317,7.43999983370304,12
-35.13457,0.6833329,-28.25659,-0.1381349956377278,-0.3097894496262277,-0.4450767679955731,10.43458,40.47533,0.3164662,0.08627047,0.344245,-0.02887456,7.45999983325601,12
-34.94436,0.2833336,-28.13114,-0.1800851399916041,0.149495253834261,-0.4485844961957639,3.427131,44.66764,0.229394,0.02842006,0.3797762,-0.009512301,7.47999983280897,12
-34.90441,0.4833333,-28.08647,-0.2148894042228128,0.5915308149672807,-0.444343673596812,6.858771,42.74102,0.3434982,0.05679554,0.3635764,-0.01901108,7.49999983236194,12
-34.86447,0.6833333,-28.04181,-0.0875641315883726,0.1113386623442519,-0.3555423243197531,10.29129,40.80579,0.341427,0.08509527,0.3469625,-0.02848541,7.5199998319149,12
-34.66111,0.283333,-27.90215,-0.1519912812581694,0.3341855939761245,-0.3800474790666754,3.381498,43.18229,0.1224317,0.02782757,0.3677911,-0.009864196,7.53999983146787,12
-34.62154,0.4833329,-27.85833,-0.2158745646150919,0.56748673800413,-0.4003940414942946,6.763803,41.252,0.1307578,0.05561094,0.3515896,-0.01971447,7.55999983102083,12
-34.58199,0.6833326,-27.81453,-0.1082823550171347,0.1186572364211985,-0.3272202698085849,10.14354,39.30713,0.02359551,0.08332241,0.3349982,-0.02953979,7.5799998305738,12
-34.54245,0.8833326,-27.77073,0.0030599874350834,-0.347421558725313,-0.2488502919191049,13.51666,37.33356,359.7974,0.1109292,0.3180364,-0.03932899,7.59999983012676,12
-34.36601,0.2833331,-27.6608,-0.0391902682550835,0.0742272628352465,-0.2467711177241511,3.328713,41.14868,0.01401721,0.02723484,0.3512708,-0.01009239,7.61999982967973,12
-34.32725,0.4833333,-27.61755,0.1051953263310032,-0.161687855810182,-0.1361305857492531,6.654573,39.21682,359.9157,0.0544273,0.3350643,-0.02016894,7.63999982923269,12
-34.2885,0.683333,-27.57431,0.2511746846926144,-0.3892395689773076,-0.0238326941688917,9.974345,37.26467,359.703,0.08155131,0.318497,-0.03022075,7.65999982878566,12
-34.09846,0.2833336,-27.451,0.2209674058449664,0.0574986691916939,-0.0100399695318031,3.277153,40.19829,359.9109,0.02658599,0.3435259,-0.01055667,7.67999982833862,12
-34.05965,0.4833335,-27.40899,0.1928773280141307,0.486987687498585,0.0053679498041212,6.548542,38.26363,359.7109,0.05313532,0.3273426,-0.02109896,7.69999982789159,12
-34.02085,0.6833337,-27.36698,0.4071646888218012,-0.005748985167584,0.1634516506284349,9.809911,36.30337,359.3972,0.079614,0.310816,-0.03161742,7.71999982744455,12
-33.81865,0.2833334,-27.22945,0.4140564034177139,0.2045527429837655,0.1932184804372276,3.225919,37.84309,359.8039,0.02607204,0.3241898,-0.01074557,7.73999982699752,12
-33.78072,0.4833332,-27.18773,0.4062984700556313,0.4253084653888404,0.2116386032033297,6.442534,35.90558,359.4985,0.05210889,0.3079772,-0.02147663,7.75999982655048,12
-33.7428,0.6833332,-27.14602,0.3952588350433785,0.6042477690057901,0.224646215537053,9.645928,33.93725,359.0808,0.07808154,0.2914504,-0.0321821,7.77999982610345,12
-33.70489,0.8833329,-27.10432,0.5432303894126171,-0.1646514267247618,0.3132135147352848,12.83188,31.9251,358.5463,0.1039612,0.2746274,-0.04284846,7.79999982565641,12
-33.52758,0.2833333,-26.99355,0.5218150337202339,-0.0170743085915863,0.3127868912557439,3.278937,36.04472,359.7348,0.02649077,0.3093236,-0.0110512,7.81999982520938,12
-33.48945,0.4833333,-26.95063,0.4940707429704503,0.1409568033597279,0.3064113570071427,6.546191,34.10833,359.3585,0.05294475,0.2930982,-0.02208732,7.83999982476234,12
-33.45133,0.6833333,-26.90772,0.6385186527584423,-0.3831436312698639,0.3914684538661674,9.797858,32.13629,358.8676,0.07933302,0.2765667,-0.03309624,7.85999982431531,12
-33.25721,0.2833334,-26.78156,0.5916915794037116,-0.2042043902033343,0.3665003911694739,3.531292,38.32576,359.766,0.028434,0.3281577,-0.0120423,7.87999982386827,12
-33.21498,0.4833332,-26.73642,0.5321256165888428,-0.0148111601101343,0.3317548267607293,7.051849,36.39462,359.4124,0.05682527,0.3119946,-0.02406766,7.89999982342124,12
-33.17279,0.6833332,-26.6913,0.6536271141399403,-0.5075484409440991,0.4010092222779491,10.55929,34.42478,358.9344,0.08515182,0.2954638,-0.03607319,7.91999982297421,12
-32.96576,0.2833335,-26.55177,0.6521902142710587,-0.2972470070759199,0.4130588549032055,3.561938,40.06081,359.8195,0.02865949,0.3423989,-0.01212438,7.93999982252717,12
-32.92259,0.4833337,-26.50694,0.6396237392050317,-0.0764912250824225,0.4165290005811215,7.11508,38.13998,359.5188,0.05727571,0.3263367,-0.02423435,7.95999982208014,12
-32.87944,0.6833339,-26.46212,0.6283337718392836,0.1024486136106772,0.4180561281229735,10.65504,36.18346,359.0945,0.08581226,0.3098856,-0.03631151,7.9799998216331,12
-32.83629,0.8833342,-26.41731,0.604187611197812,0.0538363330816291,0.4041552905745575,14.17737,34.17517,358.5402,0.1142339,0.2930663,-0.04834121,7.99999982118607,12
-32.65855,0.2833332,-26.30644,0.5667321936172094,0.0444272950687448,0.3817092816920215,3.592192,41.05495,359.9514,0.02920393,0.3504966,-0.01138734,8.01999982073903,12
-32.61598,0.4833334,-26.26042,0.5285466174998241,0.0209052226113128,0.3574619165631247,7.179989,39.15393,359.784,0.05836593,0.334526,-0.02275382,8.039999820292,12
-32.57343,0.6833336,-26.21441,0.4743583093754324,0.0099288803472669,0.3152116521611461,10.7592,37.22531,359.494,0.08744649,0.318152,-0.03408891,8.05999981984496,12
-32.38126,0.2833336,-26.09012,0.4015414409734994,0.038155675971177,0.2607451776178209,3.562509,42.60758,0.03429117,0.02906838,0.3631286,-0.01101446,8.07999981939793,12
-32.33887,0.4833335,-26.04465,0.3227754091615296,0.0522696840417495,0.2009617170637092,7.123038,40.7202,359.951,0.05809084,0.3472721,-0.02201263,8.09999981895089,12
-32.29649,0.6833335,-25.9992,0.4341632269882503,-0.6413597475857716,0.2488232854936924,10.67784,38.81099,359.7478,0.08703282,0.3310025,-0.03298151,8.11999981850386,12
-32.08842,0.2833331,-25.85893,0.3784375462950251,-0.4185127754442285,0.211890129067104,3.636899,43.45242,0.05172996,0.02964545,0.369972,-0.01132736,8.13999981805682,12
-32.04466,0.4833331,-25.81295,0.3155165723901554,-0.1852124250573339,0.1685636315594649,7.272468,41.57195,359.9839,0.05924412,0.354172,-0.02263759,8.15999981760979,12
-32.00091,0.6833329,-25.76698,0.2584058442091965,0.0062718226911124,0.1260890132651226,10.90344,39.66977,359.7939,0.08876296,0.337936,-0.03392091,8.17999981716275,12
-31.95718,0.8833328,-25.72102,0.0384856700436166,0.7101276436261724,-0.0044295453920817,14.52504,37.72969,359.477,0.11816,0.3212856,-0.04515887,8.19999981671572,12
-31.69884,0.2833333,-25.54828,0.0227943485222184,0.4110350596840275,-0.0324605662184893,3.624119,44.32767,0.08114808,0.02955163,0.3770468,-0.01127377,8.21999981626868,12
-31.65491,0.4833333,-25.50276,0.005828305210862,0.1270658492131874,-0.0596870910809315,7.2479,42.45761,0.04395903,0.05905715,0.3613466,-0.02253021,8.23999981582165,12
-31.611,0.6833332,-25.45726,-0.1952732529741752,0.52414722504364,-0.1933277868367575,10.86747,40.5681,359.8862,0.08847913,0.3452048,-0.03375575,8.25999981537461,12
-31.5671,0.8833331,-25.41178,-0.2286052824478446,0.2704258367205279,-0.2386321407989839,14.47878,38.64314,359.603,0.1177798,0.3286421,-0.04493764,8.27999981492758,12
-31.38182,0.2833333,-25.29599,-0.2645450545831558,0.0318280993381995,-0.2836064585377826,3.563732,45.58584,0.1612363,0.02921109,0.3871736,-0.01074947,8.29999981448054,12
-31.33865,0.4833336,-25.25116,-0.2897984447635515,-0.2460069936249677,-0.3209113021007397,7.129729,43.73106,0.2071753,0.05837733,0.371604,-0.02148243,8.31999981403351,12
-31.29549,0.6833338,-25.20635,-0.2772220992762015,-0.2973716347789644,-0.324600313264014,10.69427,41.86286,0.1361801,0.08746266,0.3555921,-0.0321869,8.33999981358647,12
-31.09589,0.2833334,-25.07599,-0.2644151187191568,-0.3090454793821184,-0.3267382047050837,3.500838,46.58245,0.2245213,0.02883085,0.3951646,-0.01027913,8.35999981313944,12
-31.0535,0.4833333,-25.03184,-0.2384509536627739,-0.3343448038724372,-0.3203129176091508,7.006048,44.73925,0.3365142,0.05761852,0.3797015,-0.02054323,8.3799998126924,12
-31.01112,0.6833333,-24.98771,-0.3736591036862826,0.293703216119311,-0.3982540505209222,10.5116,42.8874,0.3350144,0.08632538,0.3637989,-0.03077875,8.39999981224537,12
-30.79815,0.2833333,-24.84286,-0.3499672873371047,0.0308521950142048,-0.4006953724779194,3.443208,46.29655,0.2371019,0.02843735,0.3928765,-0.009908631,8.41999981179833,12
-30.75687,0.4833333,-24.79902,-0.3188259512671259,-0.2168751735820036,-0.396509015787192,6.890827,44.46011,0.3642481,0.05683077,0.3774639,-0.01979931,8.4399998113513,12
-30.7156,0.6833332,-24.75519,-0.4658593016174706,0.2164474987670576,-0.4923971707589523,10.33975,42.61647,0.380269,0.08514957,0.3616263,-0.02966505,8.45999981090426,12
-30.67435,0.8833334,-24.71138,-0.4442934938720881,-0.0010332050384153,-0.4978173214027706,13.78636,40.7518,0.282364,0.1133603,0.3453827,-0.0394945,8.47999981045723,12
-30.48944,0.2833332,-24.59637,-0.422694137148337,-0.2033905656894992,-0.4991625910055504,3.39606,44.32699,0.1286989,0.0278659,0.3770541,-0.01013897,8.49999981001019,12
-30.44895,0.4833332,-24.55306,-0.3889930776243702,-0.4449864203739011,-0.4899534269335177,6.793104,42.48825,0.1484545,0.05568876,0.3616341,-0.02026208,8.51999980956316,12
-30.40846,0.6833332,-24.50976,-0.4926773757268243,0.1802041053284052,-0.5430225268522015,10.18805,40.6362,0.05779894,0.08344029,0.3458184,-0.03035974,8.53999980911613,12
-30.21023,0.2833336,-24.38109,-0.3631727698206575,-0.085504635003727,-0.4670111092227564,3.341928,43.2691,0.06092753,0.02730146,0.368514,-0.01025672,8.55999980866909,12
-30.17035,0.4833337,-24.33854,-0.229569142593359,-0.3360900021259058,-0.3865845380137749,6.682724,41.43008,0.01450061,0.05456135,0.3531122,-0.02049833,8.57999980822206,12
-30.13049,0.6833336,-24.296,-0.2589522630403813,0.0943749638895332,-0.3891055377052979,10.01938,39.57437,359.859,0.08175324,0.3373351,-0.03071507,8.59999980777502,12
-29.91877,0.2833333,-24.15406,-0.094148059791614,-0.1259631145929501,-0.2777632301002057,3.290096,41.56023,359.9287,0.02661957,0.3546529,-0.01076607,8.61999980732799,12
-29.87909,0.4833333,-24.11257,0.0701260939917993,-0.331177917437168,-0.1646678816560225,6.575239,39.71552,359.7513,0.05320231,0.3392434,-0.0215179,8.63999980688095,12
-29.83942,0.6833328,-24.07109,0.0475132549519301,0.1446581411372119,-0.1569931717141344,9.851679,37.847,359.4652,0.07971648,0.3234832,-0.03224525,8.65999980643392,12
-29.79976,0.8833327,-24.02962,0.0248691058554264,0.6100052117216177,-0.1480136321479719,13.11602,35.94177,359.0663,0.1061363,0.3073898,-0.0429355,8.67999980598688,12
-29.76011,0.9766704,-23.98816,0.1658916832462544,0.1598864912871401,-0.0584762526097577,16.36443,33.9861,358.5489,0.132434,0.290981,-0.05357749,8.69999980553985,12
-29.53921,0.2833333,-23.856,0.3114761115022233,-0.3007209770412713,0.0353849203063454,3.23132,38.5727,359.7935,0.02601743,0.3302056,-0.011013,8.71999980509281,12
-29.50059,0.4833333,-23.81477,0.2163089328746466,0.1331592634729386,-0.0121396337824464,6.453414,36.72614,359.4825,0.05199978,0.3147759,-0.02201139,8.73999980464578,12
-29.46198,0.6833332,-23.77356,0.2885759586979759,-0.0837633585221628,0.0287888392034076,9.662804,34.84898,359.0642,0.07791968,0.299031,-0.03298407,8.75999980419874,12
-29.26967,0.2833333,-23.65224,0.3508489433635446,-0.2855622160622765,0.0642053657558285,3.282379,37.96463,359.7531,0.02638208,0.3252005,-0.01135276,8.77999980375171,12
-29.23036,0.4833333,-23.61035,0.4151802636999946,-0.5265987702485408,0.100582224191541,6.554236,36.11949,359.4001,0.05272798,0.3097819,-0.02269052,8.79999980330467,12
-29.19106,0.6833333,-23.56847,0.5078561148822658,-0.5411643225652571,0.1642515554944061,9.812023,34.2406,358.9377,0.07900958,0.2940455,-0.03400111,8.81999980285764,12
-28.98198,0.2833333,-23.43146,0.5851942896296656,-0.5160394619969387,0.219543660725435,3.531916,39.6911,359.7639,0.02828756,0.3393836,-0.01239887,8.8399998024106,12
-28.9387,0.4833333,-23.38732,0.6596261610718734,-0.5045401730505896,0.2732371061732834,7.053545,37.84929,359.4138,0.05653322,0.3240035,-0.02477995,8.85999980196357,12
-28.89544,0.683333,-23.3432,0.5557635245804242,0.1603064070618693,0.2293449368236793,10.56297,35.96975,358.9449,0.08471663,0.3082482,-0.03714053,8.87999980151653,12
-28.8522,0.8833334,-23.2991,0.4531066563177717,0.6741768933696042,0.186249327026708,14.05398,34.03733,358.3516,0.1127891,0.2921374,-0.04945365,8.8999998010695,12
-28.67183,0.2833333,-23.19213,0.555272468941812,0.1610192527226284,0.2320823017260203,3.56171,41.04268,359.814,0.02853605,0.3504337,-0.01241323,8.91999980062246,12
-28.62787,0.4833333,-23.14808,0.4537651693601923,0.3581486747672087,0.159729447667015,7.114919,39.21243,359.5137,0.05703006,0.3351523,-0.02481096,8.93999980017543,12
-28.58392,0.6833333,-23.10403,0.3438124393566468,0.5729803255407303,0.0833609873656726,10.65563,37.34731,359.0953,0.08544639,0.3194787,-0.03717566,8.95999979972839,12
-28.38947,0.2833333,-22.98192,0.3627814028491372,0.1129300375300188,0.0383598635489015,3.592942,43.15659,359.9721,0.02906254,0.3675986,-0.01175586,8.97999979928136,12
-28.34552,0.4833333,-22.93719,0.3828526301789381,-0.3571212383939995,-0.003449882120126,7.182445,41.34641,359.8307,0.05808359,0.3524303,-0.02349329,8.99999979883432,12
-28.30159,0.683333,-22.89248,0.2441589320899915,0.0678039677697478,-0.1207792318570888,10.76467,39.51106,359.5727,0.08702511,0.3368441,-0.03519925,9.01999979838729,12
-28.25767,0.8833332,-22.84779,0.0608849926157901,-0.1575865385924501,-0.3695265682372834,14.33569,37.63524,359.1931,0.1158506,0.3208597,-0.04685964,9.03999979794025,12
-28.01243,0.2833333,-22.69425,-0.0968352188359915,-0.3673655292307975,-0.5893169372150595,3.570937,44.66135,0.04402761,0.02896657,0.3797559,-0.01148302,9.05999979749322,12
-27.96848,0.4833333,-22.65008,-0.4066391433086096,0.1043932637203503,-0.8767486675269538,7.140329,42.86529,359.9758,0.05788776,0.3647102,-0.02295006,9.07999979704618,12
-27.92454,0.6833333,-22.60591,-0.6885344994191875,0.5661507229885321,-1.1343881993920348,10.7048,41.04905,359.7934,0.08673031,0.3492365,-0.03438647,9.09999979659915,12
-27.70674,0.2833333,-22.46201,-1.0070396402273616,0.1129300301250257,-1.5331030147811688,3.648415,45.11208,0.0556127,0.02958403,0.3833782,-0.01176278,9.11999979615211,12
-27.6616,0.483333,-22.41708,-1.4724623259925131,0.3699964742643667,-1.9908912563477517,7.295794,43.32214,-0.002878107,0.0591226,0.368369,-0.02350819,9.13999979570508,12
-27.61647,0.683333,-22.37217,-1.8914233704974703,0.644764927944828,-2.396117430997659,10.93846,41.51183,359.8222,0.08857795,0.352912,-0.03522124,9.15999979525805,12
-27.57136,0.8833329,-22.32727,-2.254072720513296,0.8849660170016431,-2.7443696433485307,14.57343,39.66558,359.526,0.1179185,0.337027,-0.04689132,9.17999979481101,12
-27.38368,0.2833331,-22.21384,-2.601313584928757,0.184576729240086,-3.237376131865563,3.620458,45.40302,0.06667084,0.02936634,0.3857208,-0.01165476,9.19999979436398,12
-27.33882,0.4833331,-22.16935,-2.8656207040028683,-0.4244253621044415,-3.642299642634157,7.24015,43.62144,0.02068366,0.05868731,0.3707896,-0.02329196,9.21999979391694,12
-27.29397,0.6833329,-22.12488,-3.255032921720151,-0.0393306304527051,-4.064406136901081,10.8556,41.82067,359.8599,0.08792694,0.355414,-0.03489754,9.23999979346991,12
-27.09153,0.2833331,-21.99779,-3.6083886907331753,-0.3050396121005215,-4.625985656952945,3.56204,47.73959,0.1787664,0.02905227,0.4044192,-0.01115076,9.25999979302287,12
-27.04695,0.4833331,-21.95438,-3.865951498149357,-0.5556250531855211,-5.074889743986851,7.126806,45.97414,0.2478208,0.05806044,0.3896437,-0.02228509,9.27999979257584,12
-27.00239,0.683333,-21.91098,-4.204053728882048,-0.1251599804510511,-5.505315827337508,10.69095,44.19752,0.2058963,0.08698985,0.3744125,-0.03338991,9.2999997921288,12
-26.78547,0.2833333,-21.76986,-4.4285575594418845,-0.3454980244349758,-6.064077782046873,3.500293,48.63876,0.2296512,0.02865586,0.4115739,-0.01075208,9.31999979168177,12
-26.74162,0.4833333,-21.72717,-4.554140419581596,-0.5507124381249828,-6.48960068787105,7.004943,46.88342,0.3521579,0.05726942,0.3968987,-0.02148885,9.33999979123473,12
-26.69778,0.6833332,-21.68448,-4.777592741003794,-0.0748765812277908,-6.895776226301198,10.51027,45.12085,0.3667025,0.08580405,0.3817722,-0.03219657,9.3599997907877,12
-26.65396,0.8833331,-21.64182,-4.916284165323802,0.3904703494457893,-7.184003444619616,14.01337,43.33738,0.2704867,0.1142297,0.3662128,-0.04286428,9.37999979034066,12
-26.61014,0.9766705,-21.59916,-4.922287646542113,-0.059648556374888,-7.624203867314073,17.51078,41.5185,0.05850119,0.142513,0.3502391,-0.05348004,9.39999978989363,12
-26.38653,0.2833331,-21.47991,-4.835392342702157,-0.5202571631557792,-7.916803377364936,3.436608,49.30651,0.2465078,0.02814919,0.4168786,-0.0105535,9.41999978944659,12
-26.34323,0.4833331,-21.43821,-4.814357603697779,-0.0863769779612298,-8.139094247268766,6.877665,47.56154,0.3883213,0.05625376,0.4023238,-0.02109183,9.43999978899956,12
-26.29994,0.683333,-21.39653,-4.708514227159977,0.3370142752599464,-8.226131291404293,10.32044,45.81105,0.4249404,0.08428594,0.3873255,-0.03160394,9.45999978855252,12
-26.13921,0.2833333,-21.32769,-4.39281611046777,-0.155060673906954,-8.431822586790414,3.382285,49.64323,0.1629656,0.02738212,0.4195732,-0.01109864,9.47999978810549,12
-26.09546,0.4833336,-21.28799,-4.175815620866956,0.0626637576944261,-8.571932529170848,6.76654,47.89602,0.2219983,0.05471944,0.4050948,-0.0221871,9.49999978765845,12
-26.05172,0.6833336,-21.24829,-3.891992117590508,0.2976026037698689,-8.567813993512733,10.15008,46.13868,0.1767844,0.08198834,0.3901827,-0.03324889,9.51999978721142,12
-26.05662,0.2833332,-21.3387,-3.383843165702117,-0.1428287151728081,-8.637985867777726,3.32917,48.83688,0.0505042,0.02663216,0.4132114,-0.0116074,9.53999978676438,12
-26.01287,0.4833332,-21.30047,-2.814923946345253,-0.5937490748987045,-8.549527178060874,6.656934,47.0852,-0.001380682,0.05322251,0.3987576,-0.02320199,9.55999978631735,12
-25.96914,0.6833332,-21.26226,-2.4213701242359,-0.1501812332192122,-8.437911277709503,9.980604,45.31728,359.8432,0.07974791,0.3838892,-0.03476887,9.57999978587031,12
-25.92543,0.8833331,-21.22406,-1.983764542090128,0.2828975533026569,-8.19181002443607,13.29694,43.52065,359.5808,0.1061797,0.3686226,-0.04629596,9.59999978542328,12
-25.95255,0.2833333,-21.35115,-1.3546264920951216,-0.1994894388236611,-7.972169218912089,3.277391,48.09838,359.9286,0.02586047,0.4073704,-0.01222281,9.61999978497624,12
-25.90858,0.4833331,-21.31457,-0.8964646903643079,0.0279225752998419,-7.730995980385874,6.550148,46.34347,359.7566,0.05168639,0.3929564,-0.02442955,9.63999978452921,12
-25.86464,0.6833328,-21.27799,-0.4207665649603171,0.2725493501897711,-7.369605174426368,9.814741,44.56581,359.4811,0.07744519,0.3781447,-0.03661164,9.65999978408217,12
-25.8207,0.883333,-21.24142,0.2517007093223817,-0.1581941584183206,-6.974241676342075,13.0682,42.75323,359.0988,0.1031146,0.3629513,-0.04875264,9.67999978363514,12
-25.82434,0.2833334,-21.398,0.9289040086391936,-0.5994264912353431,-6.463546007653694,3.223132,48.4426,359.825,0.02502138,0.4101385,-0.01293003,9.6999997831881,12
-25.77969,0.4833336,-21.36368,1.445050850539911,-0.1461705101781824,-5.927347748959786,6.438438,46.68629,359.5509,0.05000909,0.3958108,-0.02584367,9.71999978274107,12
-25.73506,0.6833336,-21.32936,1.957294128112196,0.2965967181064609,-5.300047662016414,9.642873,44.90221,359.175,0.07493842,0.3810929,-0.03872785,9.73999978229403,12
-25.72993,0.2833331,-21.5035,2.704301970436319,-0.1761027124059535,-4.567054023341754,3.373383,50.26557,359.7975,0.02589707,0.4245799,-0.01410052,9.759999781847,12
-25.68184,0.4833329,-21.46931,3.237123534475621,0.0609971575275089,-3.858062226332656,6.738103,48.51051,359.4912,0.05175818,0.4103263,-0.02818238,9.77999978139997,12
-25.63377,0.6833331,-21.43514,3.72983490349338,0.3153113503744626,-3.092552414280128,10.09079,46.72367,359.078,0.07755437,0.3956369,-0.04222998,9.79999978095293,12
-25.56368,0.2833331,-21.61933,4.410975385811064,-0.1057445116800883,-2.2126821236384515,3.535671,53.45287,359.8162,0.02683279,0.4495607,-0.01530588,9.8199997805059,12
-25.51165,0.4833331,-21.58595,4.826675758848559,0.1829983327436071,-1.4163446684822496,7.063221,51.70292,359.5239,0.05362619,0.435438,-0.03059124,9.83999978005886,12
-25.45965,0.683333,-21.55259,5.168078212427897,0.4889554914561503,-0.6079911122557036,10.58023,49.91948,359.1183,0.08035233,0.4208146,-0.04585102,9.85999977961183,12
-25.40767,0.883333,-21.51923,5.441669956817918,0.7598566591801393,0.202862822932385,14.08187,48.08814,358.5948,0.1069757,0.4057089,-0.06105323,9.87999977916479,12
-25.3162,0.2833331,-21.73829,5.797564244867047,0.0896790632941708,1.0768800756970158,3.565964,56.3055,359.8767,0.0269254,0.4716246,-0.01562857,9.89999977871776,12
-25.26274,0.4833328,-21.70637,6.078723352922406,-0.4895990986818012,1.9283296337496303,7.125771,54.56775,359.644,0.05380858,0.4576828,-0.03124247,9.91999977827072,12
-25.20929,0.683333,-21.67446,6.076973500586682,-0.0752678154573311,2.6556041778197432,10.67575,52.80008,359.2995,0.08061903,0.4432087,-0.04681497,9.93999977782369,12
-25.15586,0.883333,-21.64256,5.991558219815396,0.3280866508865404,3.3314979867221446,14.21239,50.9879,358.8377,0.1073256,0.4282202,-0.06232817,9.95999977737665,12
-24.99011,0.2833331,-21.84647,6.0245494366213,-0.1845127401616123,4.046154090092408,3.576289,61.22644,0.07805555,0.02720158,0.5089737,-0.01530435,9.97999977692962,12
-24.9356,0.4833333,-21.81606,5.82075434238622,0.0121987983870456,4.646367737234822,7.152333,59.51445,0.04833127,0.05435923,0.4953367,-0.03059307,9.99999977648258,12
-24.88111,0.6833333,-21.78566,5.512501154318514,0.2256363951964532,5.1535807240260745,10.72489,57.78541,359.9098,0.08144416,0.4811206,-0.04584148,10.0199997760355,12
-24.68373,0.2833331,-21.9563,5.2729559429103645,-0.2367844496872223,5.648795669220419,3.594404,65.17673,0.1144811,0.02696219,0.5383081,-0.01605019,10.0399997755885,12
-24.6272,0.4833332,-21.92902,4.980648572937628,0.010106434852372,6.1776537320392855,7.189521,63.47335,0.1220362,0.05388318,0.5249241,-0.03207685,10.0599997751415,12
-24.57071,0.6833331,-21.90175,4.592486370465799,0.2737237895446144,6.594389680409851,10.78247,61.75491,0.01930659,0.08072541,0.5109197,-0.04807459,10.0799997746944,12
-24.51422,0.883333,-21.87449,4.117326718796662,0.501797082345047,6.890536217399134,14.36968,60.00735,359.8042,0.1074624,0.4963134,-0.0640106,10.0999997742474,12
-24.32392,0.2833335,-21.99292,3.696475275171309,-0.2116960202080292,7.126867975065917,3.64209,65.81681,0.08022188,0.02705895,0.5430045,-0.0166774,10.1199997738004,12
-24.26611,0.4833334,-21.96647,3.273328753863094,-0.0024399856606825,7.416918904000667,7.283936,64.11686,0.05237608,0.05407707,0.5296872,-0.03332961,10.1399997733533,12
-24.20831,0.6833334,-21.94003,2.782134842336258,0.2235428530480997,7.57878345533641,10.92229,62.39941,359.9143,0.08102033,0.515732,-0.04993706,10.1599997729063,12
-23.98663,0.2833334,-21.98785,2.388068577223549,-0.226332082528457,7.699204677526257,3.606457,66.10463,0.09508497,0.02682718,0.5451124,-0.01646713,10.1799997724593,12
-23.92937,0.4833334,-21.96169,1.925691748407715,-0.6871839061606744,7.666672056349991,7.213092,64.41134,0.08353609,0.05361382,0.5318655,-0.03290999,10.1999997720122,12
-23.87214,0.6833335,-21.93553,1.463201779996524,-0.2540355202751114,7.706180443159084,10.81673,62.70202,359.9635,0.08032742,0.517989,-0.04930869,10.2199997715652,12
-23.81492,0.8833337,-21.90938,0.960293490410713,0.168135660098349,7.608444202073347,14.4139,60.9624,359.7311,0.1069342,0.5035003,-0.06564296,10.2399997711182,12
-23.53858,0.2833332,-21.86203,0.642066341786343,-0.3256475148842749,7.499253855397701,3.542511,63.26892,0.1224179,0.02687659,0.5242191,-0.01530274,10.2599997706711,12
-23.48393,0.4833335,-21.83309,0.3309452431291539,-0.1101189424102919,7.479874550700448,7.085997,61.58521,0.1408281,0.05371363,0.5108879,-0.03058244,10.2799997702241,12
-23.4293,0.6833334,-21.80415,-0.0073808187905726,0.1221362649556763,7.323788037720771,10.62747,59.88804,0.05367754,0.08048002,0.4969709,-0.04582212,10.2999997697771,12
-23.16587,0.2833335,-21.71272,-0.1803735775777326,-0.3214665117428179,7.140342790245853,3.47465,60.27361,0.1611131,0.02692491,0.5017982,-0.01400596,10.31999976933,12
-23.11417,0.4833334,-21.68093,-0.4045572946059792,-0.0557581792080589,7.061427595721032,6.951189,58.59869,0.2210215,0.05381018,0.4883696,-0.02798842,10.339999768883,12
-23.06248,0.6833333,-21.64917,-0.64904026921824,0.2266766697387795,6.8524976086318325,10.42693,56.9138,0.1798304,0.0806323,0.4744003,-0.04192366,10.359999768436,12
-23.01081,0.8833333,-21.61741,-0.9022030815129832,0.4735677292975849,6.511235196555276,13.89891,55.20585,0.03298352,0.1073545,0.4599063,-0.05580815,10.3799997679889,12
-22.82463,0.2833333,-21.51987,-1.005122086560636,-0.221107573566674,6.11957461359923,3.419784,56.51391,0.1292777,0.02681687,0.4731858,-0.0131332,10.3999997675419,12
-22.77563,0.4833333,-21.48575,-1.1592991478060704,0.0069664008416696,5.885926660949352,6.840519,54.84307,0.1604209,0.05359968,0.4596385,-0.02623467,10.4199997670949,12
-22.72664,0.6833334,-21.45165,-1.3122959924075277,0.2517672272389956,5.541960371966418,10.25971,53.16074,0.09061533,0.08031535,0.4455971,-0.03930383,10.4399997666478,12
-22.67766,0.8833334,-21.41756,-1.45227164304519,0.4610238154185377,5.087276791712736,13.67438,51.4544,359.9168,0.1069343,0.4310775,-0.05232693,10.4599997662008,12
-22.44577,0.2833336,-21.28966,-1.366315841276105,-0.2712859669269222,4.638731045402633,3.362237,52.28303,0.02351755,0.02642632,0.4403947,-0.01274136,10.4799997657537,12
-22.39911,0.4833336,-21.25411,-1.403472811466191,-0.0808464795790039,4.348027893314523,6.722396,50.60963,359.9499,0.05281809,0.4267218,-0.02545498,10.4999997653067,12
-22.35246,0.6833335,-21.21857,-1.433002411404825,0.1263192524612733,3.966886618226788,10.07804,48.91899,359.7762,0.07914593,0.412605,-0.03813815,10.5199997648597,12
-22.1506,0.2833333,-21.09807,-1.2690520823618847,-0.3423731635181866,3.6019723419211545,3.303681,48.87685,359.917,0.02594375,0.4135621,-0.01258522,10.5399997644126,12
-22.10571,0.4833333,-21.06189,-1.264653228480725,-0.1017540350249868,3.3799095632538467,6.602561,47.19939,359.737,0.05185277,0.3997998,-0.02515367,10.5599997639656,12
-22.06083,0.6833332,-21.02572,-1.257936419841485,0.1555914725829952,3.0933514567020524,9.893471,45.49918,359.4586,0.07770018,0.3856354,-0.03768573,10.5799997635186,12
-22.01596,0.8833331,-20.98956,-1.237357053116611,0.3773931607473788,2.746275697515877,13.17369,43.76425,359.077,0.1034589,0.3710835,-0.05017573,10.5999997630715,12
-21.847,0.2833333,-20.88851,-1.0510832634847027,-0.3423717431532342,2.4145346527670632,3.248527,44.91993,359.8146,0.02557703,0.3819262,-0.01232335,10.6199997626245,12
-21.80417,0.4833333,-20.85126,-1.0056348780347868,-0.139387719993895,2.196736758573021,6.489329,43.24083,359.5338,0.05112071,0.3680761,-0.0246304,10.6399997621775,12
-21.76134,0.6833333,-20.81402,-0.9484894857705086,0.0803230830210734,1.9437561701112145,9.719487,41.53376,359.1548,0.07660477,0.3538665,-0.03690912,10.6599997617304,12
-21.57324,0.2833333,-20.68873,-0.8685695816695471,0.2644900004702006,1.6611794761535492,3.19962,41.52628,359.7325,0.02527782,0.3544273,-0.01207916,10.6799997612834,12
-21.5322,0.4833334,-20.65061,-0.7576034216206651,0.2273780281631373,1.55034436707356,6.389139,39.84575,359.3708,0.05052293,0.340508,-0.02414281,10.6999997608364,12
-21.49117,0.6833335,-20.6125,-0.6473097482733081,0.2357414222290348,1.417950271554318,9.565672,38.1334,358.9119,0.07571054,0.3262647,-0.03617909,10.7199997603893,12
-21.45014,0.8833334,-20.5744,-0.5266059689386395,0.2362643192543184,1.2709648358705756,12.72599,36.37814,358.3521,0.100817,0.3117128,-0.04816939,10.7399997599423,12
-21.20871,0.2833333,-20.41325,-0.2206996499524294,-0.4646840047777708,1.2114085169714528,3.457937,41.53362,359.7316,0.02738117,0.3544691,-0.012887,10.7599997594953,12
-21.16455,0.4833332,-20.37178,-0.1660357321356933,-0.2428825249986271,1.1139291420574686,6.905714,39.85641,359.3615,0.05472431,0.3405339,-0.02575642,10.7799997590482,12
-21.12042,0.683333,-20.33033,-0.1150601808121756,-0.0043550150105937,1.0054999416399042,10.34086,38.14294,358.8859,0.08200444,0.3262305,-0.0385955,10.7999997586012,12
-20.90672,0.2833333,-20.18257,0.1227421128193491,-0.4416852031671394,1.0044228460701738,3.537401,42.50851,359.7826,0.02807794,0.3623885,-0.01295581,10.8199997581542,12
-20.8616,0.4833331,-20.14027,0.1051476904349151,-0.1697042245057142,0.9188031264841996,7.066678,40.83998,359.4618,0.0561203,0.3485033,-0.02589548,10.8399997577071,12
-20.81649,0.683333,-20.09797,0.0692686392499055,0.1190033137781074,0.8196872130651087,10.58401,39.13704,359.0337,0.08408904,0.3342273,-0.03880218,10.8599997572601,12
-20.77139,0.883333,-20.0557,0.0262266677442113,0.3721668919234464,0.71456784456295,14.08601,37.38579,358.4925,0.1119521,0.3195776,-0.05166092,10.879999756813,12
-20.58823,0.2833333,-19.93454,-0.0129000308307567,0.4236866846010403,0.6109633722950321,3.587534,42.97203,359.9034,0.02881795,0.3661191,-0.0122496,10.899999756366,12
-20.5437,0.4833333,-19.8905,-0.0108465998793292,0.3558042039454971,0.5380114629391741,7.170237,41.32098,359.7038,0.05759926,0.3522893,-0.0244769,10.919999755919,12
-20.49918,0.6833332,-19.84648,-0.021824154907172,0.3338849855469604,0.457316639291168,10.74465,39.64256,359.3974,0.08630402,0.3380564,-0.03667247,10.9399997554719,12
-20.45467,0.8833331,-19.80247,-0.0341959221917669,0.3046130592728234,0.3764705533967678,14.30751,37.92274,358.9792,0.1148983,0.3234375,-0.04882192,10.9599997550249,12
-20.22173,0.2833334,-19.64866,0.1220006638446591,-0.4256417258342617,0.3900637962091053,3.564254,44.49179,0.0317056,0.0288889,0.3783912,-0.01151755,10.9799997545779,12
-20.17791,0.4833334,-19.60453,0.0608654695637014,-0.2326595304887775,0.2947538492984556,7.126802,42.85949,359.962,0.0577352,0.3646728,-0.0230163,10.9999997541308,12
-20.13411,0.6833333,-19.5604,-0.008216084683557,-0.0224629292938713,0.1966442919777442,10.6849,41.20844,359.7885,0.08650576,0.3505421,-0.03448543,11.0199997536838,12
-19.92742,0.2833333,-19.41807,0.1001897943588083,-0.4876364232487875,0.2052653775672119,3.637388,45.13933,0.05320358,0.02948435,0.3835995,-0.0117523,11.0399997532368,12
-19.88244,0.4833333,-19.37326,0.0165818460996618,-0.2430104404318546,0.1110637578772255,7.273783,43.51361,0.003117886,0.05892455,0.3699197,-0.02348739,11.0599997527897,12
-19.83747,0.6833332,-19.32847,-0.079588125517457,0.0188299605180774,0.0117598970004628,10.90688,41.86967,359.8474,0.08828956,0.3558065,-0.035195,11.0799997523427,12
-19.79251,0.8833332,-19.2837,-0.1763813188471097,0.245614355320996,-0.0848547227226497,14.53296,40.19351,359.5822,0.1175395,0.3412777,-0.04685742,11.0999997518957,12
-19.61601,0.2833332,-19.17169,-0.1178817622755552,-0.4686802410371503,-0.0964768606924941,3.629757,45.29888,0.06106316,0.02943294,0.384883,-0.01170444,11.1199997514486,12
-19.5711,0.4833333,-19.12701,-0.2036706554816305,-0.2597378159103485,-0.1765790496087902,7.258707,43.68046,0.01953552,0.0588216,0.3712635,-0.02339159,11.1399997510016,12
-19.52621,0.6833334,-19.08234,-0.2867984813580975,-0.0335810490526594,-0.2493648083244011,10.88397,42.04454,359.8734,0.08813086,0.3572115,-0.03504784,11.1599997505546,12
-19.48134,0.8833335,-19.03769,-0.3549253663646432,0.1575196336877822,-0.307085385670085,14.50254,40.37725,359.6185,0.1173257,0.3427443,-0.04665976,11.1799997501075,12
-19.2547,0.2833333,-18.89325,-0.3692235558871939,0.1278296672803197,-0.337331780309297,3.570407,48.19723,0.1954423,0.02913351,0.4080611,-0.01116371,11.1999997496605,12
-19.20992,0.4833333,-18.84981,-0.3842229983347778,0.1441029349037685,-0.3621748467085837,7.143824,46.59817,0.2913128,0.05822412,0.3946157,-0.02231164,11.2199997492135,12
-19.16516,0.6833335,-18.80639,-0.387360041250691,0.1530233469002087,-0.3740291355939877,10.71743,44.99105,0.2867332,0.08723772,0.380722,-0.03343061,11.2399997487664,12
-18.96694,0.2833333,-18.67402,-0.1955543204137715,-0.53903900759167,-0.2689863957113374,3.502885,48.7764,0.2321981,0.02867269,0.4126667,-0.0107756,11.2599997483194,12
-18.92304,0.4833332,-18.63131,-0.2243374534057647,-0.3078640353386134,-0.2935400923714617,7.009855,47.18561,0.3672864,0.05730447,0.3993037,-0.02153616,11.2799997478724,12
-18.87916,0.683333,-18.58861,-0.2516969893827117,-0.0594747224000835,-0.3131462686591426,10.51772,45.58974,0.4047124,0.0858591,0.3855014,-0.03226794,11.2999997474253,12
-18.66703,0.2833333,-18.442,-0.0835192190002693,-0.486455421501209,-0.2114555778690494,3.443741,48.24579,0.2402865,0.02828028,0.4084523,-0.01036745,11.3199997469783,12
-18.62441,0.4833333,-18.39945,-0.1155752634791049,-0.2036372527823404,-0.2316886783662184,6.891372,46.66055,0.3857836,0.05651874,0.3951268,-0.02071649,11.3399997465312,12
-18.5818,0.6833332,-18.35691,-0.1566616109353606,0.0963956172887707,-0.2546032665527669,10.34072,45.07127,0.4357115,0.08468686,0.3813793,-0.03104029,11.3599997460842,12
-18.5392,0.8833331,-18.31438,-0.1954681437082115,0.3613726571903655,-0.2734869767857244,13.78912,43.46611,0.3878601,0.1127534,0.3672256,-0.04132803,11.3799997456372,12
-18.49662,0.9766705,-18.27186,-0.2206925411594849,0.4251935906726113,-0.2815875348610106,17.23382,41.83251,0.2382546,0.1406876,0.3526815,-0.0515684,11.3999997451901,12
-18.27815,0.2833332,-18.13515,-0.2000309964255535,0.3700998113902173,-0.2670295694397318,3.390004,45.96455,0.1218705,0.02764628,0.3902463,-0.01057035,11.4199997447431,12
-18.23652,0.4833332,-18.09308,-0.184887827401841,0.3614571750904129,-0.251990654018698,6.78063,44.37667,0.1499617,0.05525165,0.3769194,-0.02112381,11.4399997442961,12
-18.19491,0.6833333,-18.05102,-0.1635567231168444,0.345949951736629,-0.2300474703592385,10.16976,42.77802,0.0829596,0.08278996,0.3632031,-0.03165226,11.459999743849,12
-18.00493,0.2833333,-17.92748,0.0349362909246639,-0.3700521019731058,-0.1098994750217716,3.331384,44.80449,0.03610723,0.02699404,0.380937,-0.0107867,11.479999743402,12
-17.96384,0.4833333,-17.88636,0.0185963180704877,-0.1623293719522138,-0.1122888749036832,6.661072,43.21397,359.9795,0.05394804,0.3676256,-0.02155912,11.499999742955,12
-17.92277,0.6833333,-17.84526,0.0007022199377146,0.0630955682415741,-0.1138878744454618,9.986943,41.60814,359.8288,0.08083829,0.3539466,-0.03230668,11.5199997425079,12
-17.71892,0.2833334,-17.70866,0.1680573216300374,-0.3863614483822067,-0.0073350733541204,3.278231,43.15141,359.9123,0.02631847,0.3676001,-0.01123011,11.5399997420609,12
-17.67812,0.4833335,-17.66854,0.1412357976648373,-0.1255313285258441,-0.0171573360763748,6.551801,41.55523,359.733,0.05260248,0.3542855,-0.02244591,11.5599997416139,12
-17.63734,0.6833335,-17.62844,0.1040253721302644,0.1530010831325826,-0.0331524278721477,9.817764,39.93708,359.4598,0.07882207,0.3406269,-0.03363682,11.5799997411668,12
-17.59657,0.8833335,-17.58834,0.0676690995776585,0.3969653628357606,-0.0491806504819738,13.07376,38.28583,359.0891,0.1049545,0.3266383,-0.04479145,11.5999997407198,12
-17.42088,0.2833333,-17.47844,0.2714339117434594,-0.2996618073937354,0.0754815859655586,3.225973,40.36487,359.8041,0.02583031,0.3449184,-0.01131522,11.6199997402728,12
-17.38128,0.4833333,-17.43831,0.3131498404951625,-0.0725638290441914,0.114622258199601,6.44433,38.76625,359.518,0.05162756,0.3315788,-0.02261612,11.6399997398257,12
-17.34169,0.6833332,-17.39819,0.3449427202014039,0.1722366048013383,0.1466451718642876,9.652452,37.14023,359.1388,0.07736629,0.3179262,-0.03389198,11.6599997393787,12
-17.3021,0.8833332,-17.35807,0.3785489696677917,0.3824684824290235,0.1781047658615193,12.84732,35.476,358.6628,0.1030204,0.3039749,-0.04512773,11.6799997389317,12
-17.07426,0.2833333,-17.21454,0.5746722898231145,-0.3478904367554942,0.292324366619086,3.336602,39.93895,359.7556,0.02663465,0.3414323,-0.0119464,11.6999997384846,12
-17.03303,0.4833334,-17.17319,0.5589522979075596,-0.1545243679186698,0.2895314903974064,6.664218,38.34126,359.4178,0.05323398,0.3281021,-0.0238772,11.7199997380376,12
-16.9918,0.6833334,-17.13185,0.5371108937115956,0.0565441553687327,0.2841161834908625,9.980119,36.71168,358.9833,0.07977034,0.3144441,-0.03578056,11.7399997375906,12
-16.79078,0.2833334,-17.00028,0.6865201668547982,-0.4072697397974671,0.3746942957226959,3.525307,41.91178,359.7865,0.02805865,0.3575328,-0.01274003,11.7599997371435,12
-16.74629,0.4833334,-16.95758,0.6479831758609738,-0.1607964943018788,0.3576243821258487,7.042527,40.31945,359.4745,0.0560781,0.3442486,-0.02546379,11.7799997366965,12
-16.70182,0.6833332,-16.9149,0.5981119269259594,0.1033792995570319,0.3353280586617657,10.55002,38.694,359.0598,0.08403518,0.330586,-0.03816476,11.7999997362494,12
-16.48628,0.2833332,-16.76964,0.5488317097591775,0.3329868978648634,0.3145298177398103,3.563235,43.24418,359.8442,0.02840168,0.3683438,-0.01271937,11.8199997358024,12
-16.44111,0.4833332,-16.72682,0.530442566002975,0.3422915109147276,0.3034493071611042,7.120085,41.66154,359.5894,0.05676372,0.3551284,-0.02542325,11.8399997353554,12
-16.39595,0.6833332,-16.68402,0.4874736338727725,0.3980471296498865,0.2772243469302786,10.66748,40.049,359.2326,0.08505213,0.3415165,-0.0380946,11.8599997349083,12
-16.3508,0.8833333,-16.64123,0.4323216049914791,0.4469381451271952,0.2427689711659919,14.20237,38.39318,358.7682,0.1132341,0.3275243,-0.05071915,11.8799997344613,12
-16.30567,0.9766705,-16.59845,0.3773773079693381,0.4356483891957952,0.2069934505077775,17.72141,36.67954,358.1889,0.1412773,0.3131682,-0.06328305,11.8999997340143,12
-16.08557,0.2833332,-16.46211,0.4790243092951911,-0.4148441955304137,0.2465451783106562,3.576741,44.57749,0.007176286,0.0288999,0.3790878,-0.01177843,11.9199997335672,12
-16.04127,0.4833332,-16.41815,0.376333099284313,-0.2424908422006915,0.1765662607639289,7.151447,43.01797,359.9175,0.057761,0.3659751,-0.02353515,11.9399997331202,12
-15.99697,0.6833333,-16.37421,0.2704558252977964,-0.0529232120426753,0.1049289556240982,10.72134,41.43896,359.7282,0.08654672,0.3524518,-0.035262,11.9599997326732,12
-15.80343,0.2833333,-16.25075,0.3346226676515087,-0.5387255920948462,0.1222541585644219,3.597916,46.00359,0.05201185,0.02907391,0.3905542,-0.01184937,11.9799997322261,12
-15.75829,0.4833333,-16.2071,0.2229551675599737,-0.3147287833858737,0.0425155548500768,7.194888,44.45283,0.006555022,0.05810533,0.3775189,-0.02368193,11.9999997317791,12
-15.71317,0.6833332,-16.16346,0.106878638254459,-0.073517512113937,-0.03922236237781,10.78849,42.88519,359.8614,0.08706106,0.3640555,-0.03548759,12.0199997313321,12
-15.50379,0.2833335,-16.02511,-0.0010232133424903,0.132637569628487,-0.1158465127636638,3.643639,46.59714,0.06517436,0.02942383,0.395306,-0.0120521,12.039999730885,12
-15.45777,0.4833336,-15.98121,-0.0694873566196072,0.1180018968107379,-0.1763517685670361,7.28665,45.05211,0.03202586,0.05880387,0.3823128,-0.02408674,12.059999730438,12
-15.41177,0.6833336,-15.93732,-0.1531106114368281,0.1493294588079609,-0.244603379806616,10.92643,43.49068,359.8987,0.08810562,0.368877,-0.03608977,12.079999729991,12
-15.36578,0.8833336,-15.89345,-0.2390127836264977,0.1733042854875444,-0.3131850882520126,14.56059,41.89942,359.6609,0.1172964,0.3550145,-0.04805046,12.0999997295439,12
-15.10614,0.2833332,-15.72349,-0.1319130496835985,-0.5037038674978949,-0.2684474602545172,3.60011,48.38685,0.1466953,0.02917709,0.4095791,-0.01170595,12.1199997290969,12
-15.06029,0.4833332,-15.68048,-0.1863963814778948,-0.2574745611454527,-0.3057263689152751,7.201776,46.85591,0.1972205,0.05831115,0.3967109,-0.02339527,12.1399997286499,12
-15.01446,0.6833334,-15.63748,-0.243863917113396,0.0059692046337205,-0.3430340089524506,10.8024,45.31442,0.1503998,0.08736813,0.3833923,-0.03505431,12.1599997282028,12
-14.96864,0.8833332,-15.59449,-0.2909115721695894,0.2343568977951687,-0.3728565765862477,14.39922,43.74959,0.002849771,0.1163122,0.3696391,-0.04667118,12.1799997277558,12
-14.78325,0.2833335,-15.47958,-0.3141640894320332,0.2615884806169755,-0.3876844496803322,3.533474,49.0432,0.2015065,0.02877917,0.414789,-0.01119664,12.1999997273088,12
-14.73843,0.4833332,-15.43711,-0.3266876155333591,0.1699057987198321,-0.4026227443015528,7.070057,47.52363,0.3094216,0.05751757,0.4020149,-0.0223778,12.2199997268617,12
-14.69363,0.6833333,-15.39465,-0.3354195756614082,0.1246741347915612,-0.412176057644336,10.60715,45.99771,0.3230507,0.08618191,0.3887986,-0.03353054,12.2399997264147,12
-14.49358,0.2833335,-15.266,-0.3278491541692236,0.072577638747569,-0.4094579021673805,3.470813,49.52483,0.2496327,0.02841137,0.4186035,-0.01070735,12.2599997259676,12
-14.44979,0.4833334,-15.22396,-0.3219914816372391,0.0402742882056089,-0.4133281875819481,6.945699,48.01428,0.4080945,0.05678135,0.4059037,-0.02139779,12.2799997255206,12
-14.406,0.6833335,-15.18192,-0.3186837144084826,0.0544222742214965,-0.4156509338067735,10.4224,46.50095,0.4749287,0.08507957,0.3927706,-0.0320617,12.2999997250736,12
-14.36223,0.8833333,-15.1399,-0.3059557320689947,0.0617056410370181,-0.4097043142301046,13.89868,44.97342,0.4481526,0.1132764,0.3792192,-0.04268826,12.3199997246265,12
-14.11198,0.2833335,-14.9796,-0.3014479725066046,0.0887819414846294,-0.4130427991161145,3.414202,48.56387,0.1887117,0.02783156,0.4109992,-0.01075002,12.3399997241795,12
-14.06895,0.4833334,-14.93828,-0.3093361989147123,0.1623093943235306,-0.4199711727878128,6.830784,47.05386,0.28754,0.05562195,0.3983328,-0.02148431,12.3599997237325,12
-14.02593,0.6833335,-14.89697,-0.3177545619058222,0.2289721505145415,-0.4239751749692466,10.24778,45.53777,0.2958187,0.08334482,0.3852545,-0.03219321,12.3799997232854,12
-13.98293,0.8833334,-14.85567,-0.3148282476936508,0.2354538012880603,-0.4185731622047957,13.66284,44.00446,0.211295,0.1109711,0.3717788,-0.04286563,12.3999997228384,12
-13.80504,0.2833332,-14.74903,-0.0584792494587329,-0.5972666056555693,-0.2661771500989953,3.357531,46.63594,0.08566508,0.02719876,0.3956434,-0.01091004,12.4199997223914,12
-13.76294,0.4833332,-14.70828,-0.0049018794686386,-0.4071412222946773,-0.2196487245052463,6.714722,45.12292,0.0827678,0.05435815,0.3829767,-0.02180343,12.4399997219443,12
-13.72085,0.683333,-14.66753,0.0457663994539032,-0.1998012686063775,-0.1739091224235487,10.06972,43.59813,359.9899,0.08145364,0.3699269,-0.03267191,12.4599997214973,12
-13.52812,0.2833333,-14.54831,0.1057853997970497,-0.0275177419301023,-0.122438577747042,3.303999,45.51952,359.9771,0.02650672,0.3867126,-0.01133734,12.4799997210503,12
-13.48618,0.4833333,-14.50876,0.1613423250344805,-0.0760250733967987,-0.0786410267963724,6.605273,44.00175,359.8665,0.05297894,0.3740606,-0.02266029,12.4999997206032,12
-13.44426,0.6833333,-14.46922,0.21188926659776,-0.0785690202062913,-0.0348498528522274,9.901084,42.46627,359.6661,0.07938579,0.3610455,-0.03395914,12.5199997201562,12
-13.40234,0.8833332,-14.4297,0.2694433535444993,-0.088465538639499,0.0152824874568722,13.1894,40.90236,359.3728,0.1057053,0.347681,-0.04522151,12.5399997197092,12
-13.15979,0.2833333,-14.2791,0.1488318752811999,0.5612569572093571,-0.0355941505713506,3.247651,43.37631,359.8448,0.02583108,0.3694416,-0.01172981,12.5599997192621,12
-13.11839,0.4833334,-14.24032,0.2418355760357577,0.3263529606034543,0.025275134733425,6.489091,41.85362,359.6031,0.05162903,0.3567835,-0.02344495,12.5799997188151,12
-13.07701,0.6833334,-14.20155,0.3287028367281408,0.1128450040681523,0.0835762113324207,9.72198,40.30629,359.2723,0.0773689,0.3437896,-0.03513429,12.5999997183681,12
-12.86473,0.2833333,-14.06322,0.4214913309356056,-0.1336284935457006,0.1458047660344057,3.194465,40.72367,359.7466,0.02536241,0.3478694,-0.01177095,12.619999717921,12
-12.82451,0.4833333,-14.02439,0.4517084192222391,-0.1473582078697453,0.1623268320450908,6.38018,39.19772,359.4078,0.05069315,0.3351795,-0.02352741,12.639999717474,12
-12.78431,0.6833333,-13.98556,0.4608865084550153,-0.1151246473918538,0.1668009032409703,9.554737,37.64233,358.9806,0.07596803,0.3221831,-0.03525838,12.6599997170269,12
-12.74411,0.8833332,-13.94675,0.460932210335141,-0.0902441146853012,0.1657510493371568,12.71532,36.04734,358.4613,0.1011622,0.3088932,-0.04694892,12.6799997165799,12
-12.70393,0.9766704,-13.90795,0.4637482598318616,-0.1260319934943006,0.1656820435054626,15.85935,34.40169,357.8437,0.1262528,0.2953224,-0.05859247,12.6999997161329,12
-12.47679,0.2833333,-13.77402,0.4559483009512792,-0.1691729011200501,0.1536856222954732,3.514908,42.49906,359.7683,0.02785093,0.362317,-0.01299869,12.7199997156858,12
-12.43176,0.4833333,-13.73208,0.4382874949743218,-0.1663500958295755,0.1381007671632321,7.021574,40.9789,359.4429,0.05566329,0.3496528,-0.02597994,12.7399997152388,12
-12.38677,0.6833333,-13.69015,0.4229512124205694,-0.1708800936342127,0.1254504414306101,10.51898,39.42554,359.0195,0.08341741,0.336611,-0.0389394,12.7599997147918,12
-12.1907,0.2833333,-13.57085,0.23573355612724,0.4842091310542198,0.0187812164110994,3.558064,44.7552,359.8383,0.02817004,0.3805656,-0.01312356,12.7799997143447,12
-12.14443,0.4833335,-13.52936,0.2536350156950817,0.254671658474473,0.0162150026977485,7.109927,43.24555,359.5819,0.05630036,0.3679929,-0.02623404,12.7999997138977,12
-12.09817,0.6833335,-13.48787,0.2648160564712647,0.0465302740542291,0.0116144977642616,10.65275,41.70658,359.2281,0.08435875,0.3550155,-0.03931171,12.8199997134507,12
-11.88722,0.2833333,-13.35371,0.2818791200130643,-0.1945761636732597,0.0116777364123805,3.591596,46.23759,359.9743,0.02873295,0.3924524,-0.01251015,12.8399997130036,12
-11.84109,0.4833333,-13.31128,0.2384160665768639,-0.202939395874702,-0.031251452679859,7.180579,44.74505,359.8553,0.05742806,0.3799528,-0.0250007,12.8599997125566,12
-11.79498,0.6833334,-13.26885,0.1773984906059151,-0.1653391850501674,-0.0831850795413604,10.76417,43.2316,359.6401,0.08604863,0.3670289,-0.03745945,12.8799997121096,12
-11.74889,0.8833332,-13.22644,0.1113640974582121,-0.1350918337729375,-0.1374336556046422,14.33984,41.68458,359.3246,0.1145623,0.353696,-0.04987254,12.8999997116625,12
-11.48713,0.2833335,-13.0612,0.0528709239914029,-0.165513178275907,-0.1873397254346134,3.57052,47.34826,0.04450054,0.02868771,0.4013282,-0.01215376,12.9199997112155,12
-11.44129,0.4833334,-13.019,0.0763432101481935,-0.2032870088531303,-0.1843262239527892,7.139868,45.86835,-0.003288409,0.05733364,0.3889188,-0.02429008,12.9399997107685,12
-11.39546,0.6833335,-12.97682,0.0874483680313282,-0.1950975816163431,-0.1875333878052902,10.70574,44.37236,359.8548,0.0859059,0.3760798,-0.03639586,12.9599997103214,12
-11.34964,0.8833333,-12.93465,0.0993388926011089,-0.1942606117050107,-0.1898996144120648,14.2657,42.84801,359.6151,0.1143725,0.3628262,-0.04845782,12.9799997098744,12
-11.16039,0.2833332,-12.82168,-0.0556771657816721,0.4661953816357291,-0.2785553466614665,3.647909,47.5868,0.05904518,0.02933116,0.4032204,-0.01236971,12.9999997094274,12
-11.11352,0.4833333,-12.77857,-0.057971177145335,0.2420246931281029,-0.2937762419862348,7.295061,46.11391,0.02426945,0.0586191,0.3908402,-0.02472142,13.0199997089803,12
-11.06667,0.6833333,-12.73548,-0.0598805800938144,0.0392501092451985,-0.3052633215786251,10.93909,44.62513,359.8938,0.08782971,0.378012,-0.03704113,13.0399997085333,12
-11.01983,0.8833332,-12.6924,-0.0481705953742679,-0.1964896171533436,-0.3058225292966057,14.57814,43.10767,359.6638,0.1169338,0.3647511,-0.04931727,13.0599997080863,12
-10.7796,0.2833335,-12.54987,-0.0879994102094006,-0.1994861066635181,-0.3400100707863345,3.611364,49.73452,0.1321493,0.02907311,0.4202754,-0.01220467,13.0799997076392,12
-10.73247,0.4833335,-12.50799,-0.1352787544579898,-0.1565194547487591,-0.3734049730143471,7.223865,48.27462,0.1723073,0.0581039,0.4080257,-0.02439209,13.0999997071922,12
-10.68534,0.6833333,-12.46613,-0.1768079013852892,-0.1209055114936634,-0.398908660701295,10.83519,46.80406,0.1192532,0.08705899,0.3953159,-0.03654856,13.1199997067451,12
-10.47335,0.2833333,-12.33502,-0.4045628135098216,0.5743278948732466,-0.5289590233718293,3.547713,51.33389,0.203585,0.0286694,0.4328813,-0.01180712,13.1399997062981,12
-10.42672,0.4833333,-12.29417,-0.3999139731319188,0.3849347383943973,-0.534542092593723,7.098382,49.88519,0.3175966,0.05729793,0.420744,-0.02359783,13.1599997058511,12
-10.3801,0.6833332,-12.25333,-0.3952643765734693,0.2169376854948611,-0.5369290531835329,10.64975,48.43103,0.3414284,0.08585351,0.4081459,-0.03535916,13.179999705404,12
-10.33349,0.8833332,-12.21251,-0.3775886726199395,0.0159754890342733,-0.52927176675664,14.19911,46.95983,0.2725413,0.1143002,0.3951021,-0.04707832,13.199999704957,12
-10.15358,0.2833332,-12.10898,-0.145793424186813,-0.7845810332843881,-0.4036109712337818,3.485785,51.34833,0.2354339,0.02830143,0.4329951,-0.01132629,13.21999970451,12
-10.10814,0.4833333,-12.06835,-0.120043727791602,-0.5627797260851637,-0.3804553200038114,6.975338,49.90838,0.3834438,0.05656341,0.4209253,-0.02263704,13.2399997040629,12
-10.06271,0.6833333,-12.02774,-0.0937776288992493,-0.3242518242422759,-0.3552371950179953,10.46607,48.46558,0.4439998,0.08475315,0.4084089,-0.03391658,13.2599997036159,12
-10.01729,0.8833333,-11.98714,-0.0547181206257034,-0.1212679803709099,-0.3215581849524742,13.95621,47.00888,0.4148716,0.1128424,0.39546,-0.0451569,13.2799997031689,12
-9.785648,0.2833332,-11.85324,-0.1719839686195214,0.6003600954457846,-0.3659220785505646,3.426777,51.35565,0.2298854,0.02781589,0.4330616,-0.01114867,13.2999997027218,12
-9.740952,0.4833333,-11.81333,-0.0830239660408684,0.3253120131649709,-0.3072137969795996,6.856803,49.92095,0.3740834,0.05559054,0.4210585,-0.02228126,13.3199997022748,12
-9.696267,0.6833333,-11.77343,0.0091964205171981,0.0716599918629793,-0.2413169650974023,10.28838,48.48347,0.4323398,0.08329843,0.4086222,-0.03338769,13.3399997018278,12
-9.493346,0.2833334,-11.65139,-0.0807798303605356,0.5053309124518289,-0.2731691544492385,3.371231,49.82096,0.1216018,0.02712546,0.4209909,-0.01142773,13.3599997013807,12
-9.449282,0.4833335,-11.61238,-0.0045326377244778,0.2944711854260394,-0.2211131622410374,6.743027,48.38093,0.1583844,0.05421118,0.4089875,-0.02284003,13.3799997009337,12
-9.40523,0.6833335,-11.57337,0.0686748153583076,0.1050075455143384,-0.1671911812571078,10.11371,46.93194,0.1095176,0.08123349,0.396577,-0.03422614,13.3999997004867,12
-9.36119,0.8833334,-11.53438,0.151120820756085,-0.1174211477046051,-0.1052766035246968,13.48114,45.46354,359.9725,0.1081648,0.3837725,-0.04557484,13.4199997000396,12
-9.10744,0.2833334,-11.38261,0.1762096066332334,-0.1071069678381739,-0.0836454924446457,3.311676,47.66804,359.9731,0.02633666,0.403926,-0.01189129,13.4399996995926,12
-9.063931,0.4833334,-11.34459,0.1854525374775164,-0.0508294378131004,-0.0692978968025954,6.620646,46.22096,359.8624,0.05263931,0.391914,-0.02376746,13.4599996991456,12
-9.020432,0.6833334,-11.30659,0.1907360746949988,-0.001904741200057,-0.056346928316536,9.924356,44.75663,359.666,0.07887794,0.3795251,-0.03561693,13.4799996986985,12
-8.976945,0.8833333,-11.26859,0.2039676846103448,-0.0136487019483618,-0.0389202438546991,13.22102,43.26476,359.3807,0.1050306,0.3667721,-0.04742851,13.4999996982515,12
-8.796365,0.2833333,-11.16697,0.2993039584522003,-0.0327451113974833,0.0279289643336255,3.254081,45.54177,359.8658,0.02572717,0.3869215,-0.0120693,13.5199996978045,12
-8.753732,0.4833333,-11.12941,0.3774106417640572,-0.0058783600815719,0.0846194251332885,6.502796,44.09159,359.6489,0.05142191,0.3749027,-0.02412358,13.5399996973574,12
-8.711111,0.6833333,-11.09186,0.450482819546635,0.0136358086338095,0.1371904425097589,9.743984,42.61863,359.3472,0.07705931,0.3625346,-0.03615152,13.5599996969104,12
-8.516276,0.2833333,-10.97783,0.5307154487376025,-0.0275186682512837,0.1916624394362287,3.20427,43.38521,359.7719,0.02524322,0.3695334,-0.01218345,13.5799996964633,12
-8.474517,0.4833333,-10.94045,0.5500954268536216,-0.0760261812710059,0.2040852793994592,6.400838,41.93184,359.4622,0.05045521,0.3574953,-0.02435199,13.5999996960163,12
-8.43277,0.6833333,-10.90308,0.5549827437542341,-0.0785703488364366,0.2089742515340233,9.587527,40.451,359.0681,0.07561219,0.3451329,-0.03649445,13.6199996955693,12
-8.391032,0.8833332,-10.86572,0.5573739095092991,-0.0884671149449121,0.2123975793556844,12.76175,38.93293,358.5859,0.1006892,0.3324584,-0.04859707,13.6399996951222,12
-8.140757,0.2833333,-10.71941,0.3713604873043614,0.5612554787369796,0.1132511146740054,3.460526,44.5825,359.7672,0.02716733,0.3791979,-0.01333215,13.6599996946752,12
-8.094934,0.4833333,-10.6798,0.3929573428825579,0.3263517258860549,0.1150422485440731,6.913182,43.13168,359.4463,0.05429811,0.3671681,-0.02664683,13.6799996942282,12
-8.04913,0.6833333,-10.64019,0.3992011945596347,0.1128441734020688,0.1090468361555725,10.35622,41.64928,359.0334,0.08136677,0.3547571,-0.03993597,13.6999996937811,12
-7.82717,0.2833332,-10.50583,0.4024642556621236,-0.1336287582960129,0.1015641647124994,3.538873,46.26049,359.8101,0.02774475,0.3926818,-0.01365267,13.7199996933341,12
-7.779756,0.4833332,-10.46612,0.4342031738708849,-0.1473583429891058,0.1122495822757265,7.071452,44.81704,359.5302,0.05545364,0.3807128,-0.0272924,13.7399996928871,12
-7.732355,0.6833332,-10.42642,0.4485612462725026,-0.1151247823369774,0.1138619125489057,10.59479,43.34363,359.1573,0.08309291,0.3683333,-0.04089854,13.75999969244,12
-7.684968,0.8833331,-10.38673,0.4583331419683238,-0.0902440326205455,0.1129273387193325,14.10634,41.82813,358.6864,0.110632,0.3555575,-0.05445614,13.779999691993,12
-7.637594,0.9766704,-10.34705,0.4763224395741341,-0.1260320373144428,0.1159521480624796,17.60323,40.25733,358.1102,0.1380402,0.3424,-0.06795063,13.799999691546,12
-7.4109,0.2833334,-10.22112,0.5310698656853265,-0.1691722809300295,0.1240051634631242,3.583453,47.92348,359.9584,0.02842451,0.4059383,-0.01302952,13.8199996910989,12
-7.363496,0.4833334,-10.18033,0.5659228652305277,-0.1663493930520918,0.1225084782868233,7.164132,46.50077,359.828,0.0568129,0.3940646,-0.02603927,13.8399996906519,12
-7.316105,0.6833333,-10.13955,0.5940173947694438,-0.1708793294388372,0.1182496737490161,10.73944,45.05714,359.6061,0.08512898,0.3817576,-0.03901649,13.8599996902049,12
-7.117759,0.2833333,-10.02563,0.43852942832011,0.4842100688749205,0.0193799781203853,3.559901,49.34281,0.04432831,0.02838704,0.4172012,-0.01261393,13.8799996897578,12
-7.070642,0.4833334,-9.985152,0.4607134258668512,0.2546726425546077,-0.048241555253532,7.118619,47.93251,0.0009492429,0.05673269,0.4054145,-0.02520995,13.8999996893108,12
-7.023538,0.6833334,-9.944684,0.4719901313240164,0.046531283746931,-0.1142723861635834,10.67417,46.50711,359.8682,0.08500681,0.3931873,-0.0377748,13.9199996888638,12
-6.807735,0.2833333,-9.817004,0.4857059895105067,-0.1945752557338864,-0.171940516986309,3.6358,50.21956,0.06586845,0.02896887,0.4241239,-0.01294156,13.9399996884167,12
-6.759195,0.4833333,-9.776114,0.2634527404604947,0.4373755966244824,-0.3499082390534473,7.271094,48.81528,0.0425717,0.05789588,0.4123728,-0.0258649,13.9599996879697,12
-6.710673,0.6833333,-9.735236,0.2607378849972006,0.1846999675049063,-0.4476847633060821,10.90433,47.39654,359.9282,0.08675166,0.4001563,-0.03875977,13.9799996875226,12
-6.662166,0.8833331,-9.69437,0.2449256695449531,-0.0465797034345878,-0.5423700371253792,14.5326,45.9513,359.7194,0.1154989,0.387489,-0.05160694,13.9999996870756,12
-6.394005,0.2833332,-9.537244,0.2294611838957791,-0.3108245438090595,-0.6271765681558072,3.623693,51.19129,0.0975296,0.02888215,0.4317768,-0.01289206,14.0199996866286,12
-6.345303,0.4833332,-9.496886,0.2519755173504818,-0.3423259479701438,-0.7088109853479532,7.247623,49.79571,0.1068033,0.05772255,0.4201065,-0.02576581,14.0399996861815,12
-6.296614,0.6833333,-9.45654,0.2603005286321487,-0.3278642242966402,-0.7831868802633251,10.86962,48.38798,0.02639758,0.08648779,0.4079651,-0.03860684,14.0599996857345,12
-6.24794,0.8833332,-9.416203,0.2683555651604967,-0.3207552090214445,-0.8435056678654469,14.48749,46.95621,359.8529,0.1151445,0.395367,-0.0514024,14.0799996852875,12
-6.056896,0.2833332,-9.310806,0.1073356797026492,0.3459732568206325,-0.97481327305558,3.563029,52.66031,0.1799689,0.02855919,0.4432842,-0.01238206,14.0999996848404,12
-6.008895,0.4833333,-9.271187,0.1938861547547579,0.1280750277467086,-0.993840751681316,7.128294,51.27822,0.2741111,0.05707785,0.431729,-0.02474685,14.1199996843934,12
-5.960907,0.6833332,-9.231579,0.2769157494663181,-0.0684271097701304,-0.9985876437618408,10.69374,49.88992,0.2817261,0.08552427,0.4197033,-0.03708097,14.1399996839464,12
-5.912932,0.8833331,-9.19198,0.3703731019283145,-0.2978944028702448,-0.9825175080152428,14.25691,48.48425,0.2003973,0.1138638,0.4072213,-0.04936996,14.1599996834993,12
-5.669756,0.2833334,-9.057293,0.2378904060923115,0.345695495237046,-1.0699127360629408,3.492742,53.96392,0.2541912,0.02816386,0.4534378,-0.01185101,14.1799996830523,12
-5.62262,0.4833334,-9.018426,0.2621556791100468,0.1046589380016668,-1.0894700890477278,6.989541,52.59424,0.4251038,0.05628894,0.4419965,-0.02368594,14.1999996826053,12
-5.575494,0.6833333,-8.979568,0.2867527045675033,-0.1149815281993318,-1.0932136933109229,10.48796,51.22363,0.5126135,0.08434139,0.4300895,-0.03549096,14.2199996821582,12
-5.36054,0.2833333,-8.857633,0.113214496541127,0.3527009647397975,-1.189093428368964,3.431454,54.37479,0.2521024,0.02763735,0.4566377,-0.01172383,14.2399996817112,12
-5.313979,0.4833333,-8.819745,-0.0602874601196607,0.816166888612978,-1.2708345497812976,6.866509,53.00896,0.4224067,0.05523343,0.4452662,-0.02343205,14.2599996812642,12
-5.267431,0.6833332,-8.781869,-0.0174670347071499,0.3704390946216469,-1.2522551142335097,10.30366,51.64244,0.511052,0.08276378,0.4334402,-0.035113,14.2799996808171,12
-5.220896,0.8833331,-8.744003,0.024990875307326,-0.0795050411458727,-1.2176788114337391,13.74095,50.26521,0.5165271,0.1101996,0.4211724,-0.0467546,14.2999996803701,12
-4.950144,0.2833334,-8.606267,0.0800351963738861,-0.4610259438756203,-1.1616263945308818,3.377479,53.74809,0.1482839,0.02687179,0.4518,-0.01216747,14.3199996799231,12
-4.903709,0.4833334,-8.569897,0.1194126541784355,-0.5106830653018399,-1.106542178841723,6.756139,52.37843,0.2153792,0.05370318,0.4404699,-0.02432176,14.339999679476,12
-4.857288,0.6833333,-8.533537,0.1508608993690687,-0.5148648292410873,-1.041176818183683,10.13447,51.0021,0.2010913,0.08047231,0.4287044,-0.03644846,14.359999679029,12
-4.810881,0.8833333,-8.497188,0.187386512807453,-0.5268870724489654,-0.9603695745315396,13.51051,49.6092,0.1033031,0.1071521,0.4165161,-0.04853544,14.379999678582,12
-4.596456,0.2833333,-8.431971,0.0607798861219102,0.1202221506016555,-0.946793984353552,3.318647,52.67545,0.02326775,0.0260408,0.4434701,-0.01266503,14.3999996781349,12
-4.550235,0.4833333,-8.397104,0.1724058441973763,-0.1177830926567546,-0.8129204407416424,6.635895,51.30046,359.9668,0.05204799,0.4321657,-0.02531417,14.4199996776879,12
-4.504026,0.6833333,-8.362244,0.2804680844780776,-0.3348802558471425,-0.669625473698237,9.949432,49.9118,359.8287,0.07799127,0.4204483,-0.03793746,14.4399996772408,12
-4.457831,0.8833332,-8.327393,0.1957631456084336,0.1348576486615472,-0.6165251787181365,13.2577,48.49977,359.6066,0.1038504,0.4083302,-0.05052067,14.4599996767938,12
-4.206618,0.2833334,-8.224287,0.1090588200465325,0.5998911988595711,-0.5564413829357031,3.26021,51.76775,359.8939,0.02518885,0.4363955,-0.0132515,14.4799996763468,12
-4.160386,0.4833333,-8.191106,0.1842295696235467,0.155243125900339,-0.4151751977969544,6.515976,50.38738,359.7089,0.05034609,0.4251209,-0.02648688,14.4999996758997,12
-4.114166,0.6833333,-8.157934,0.2633569215802391,-0.2941091807988346,-0.2660001890416366,9.765345,48.98648,359.4431,0.07544759,0.4134529,-0.03969384,14.5199996754527,12
-3.891082,0.2833334,-8.065827,0.095869945657768,0.1568114419350257,-0.2436514695829013,3.20624,49.46538,359.7787,0.0246022,0.4182699,-0.01345788,14.5399996750057,12
-3.845667,0.4833333,-8.032945,0.0979795430525443,-0.0372864550467019,-0.1373194592751909,6.405311,48.07981,359.4796,0.04917435,0.4069641,-0.02689952,14.5599996745586,12
-3.800265,0.6833333,-8.000072,0.0905172100786773,-0.2104762432116069,-0.0350642431103693,9.595214,46.66781,359.1,0.07369346,0.3952922,-0.04031267,14.5799996741116,12
-3.754874,0.8833333,-7.967206,0.0864024840721138,-0.4171190629810255,0.0678503206831955,12.77354,45.22,358.636,0.09813514,0.3832656,-0.05368305,14.5999996736646,12
-3.484582,0.2833333,-7.845232,-0.0723651829366629,0.2488076592027749,0.0980318257961059,3.460634,50.26168,359.7641,0.026463,0.4245485,-0.01468623,14.6199996732175,12
-3.435052,0.4833333,-7.810356,0.0054624213996632,0.0296198243010337,0.2430715104653176,6.913697,48.87761,359.4442,0.05289081,0.4132298,-0.02935334,14.6399996727705,12
-3.38554,0.6833333,-7.775491,0.0773447601406261,-0.168659674494133,0.3808376973464185,10.35766,47.46258,359.0365,0.07925908,0.4014856,-0.04399141,14.6599996723235,12
-3.336051,0.8833331,-7.740641,0.1568614877605203,-0.4003922972384435,0.5163329564079344,13.79088,46.00544,358.536,0.1055465,0.3893284,-0.05858608,14.6799996718764,12
-3.144049,0.2833333,-7.657263,0.0232437456563736,0.2404443962488269,0.540385443004876,3.53853,51.44279,359.8019,0.02706562,0.4338361,-0.01495573,14.6999996714294,12
-3.093182,0.4833333,-7.622077,0.0430496081464607,-0.0038333739594039,0.621793687289486,7.070923,50.06681,359.5182,0.0540974,0.4225724,-0.02989553,14.7199996709824,12
-3.042329,0.6833333,-7.586901,0.0655825159394378,-0.2272028219127532,0.6957082536965995,10.59443,48.66121,359.1458,0.08106206,0.4108572,-0.04479885,14.7399996705353,12
-2.99149,0.8833332,-7.551735,-0.0970794469589673,0.2362626937274696,0.6672540705719285,14.10668,47.2144,358.6796,0.10793,0.3987037,-0.05964956,14.7599996700883,12
-2.749178,0.2833333,-7.440747,-0.2524756894037385,0.6950237509515254,0.6306675976663447,3.583825,53.4244,359.9633,0.02778843,0.4492984,-0.01434218,14.7799996696413,12
-2.698147,0.4833333,-7.404588,-0.184721956328557,0.2441034272051865,0.6816857634232001,7.165129,52.06868,359.8419,0.05554183,0.4381291,-0.02866348,14.7999996691942,12
-2.64713,0.6833333,-7.368439,-0.1092268210611329,-0.2115212343865953,0.7219615663423182,10.74152,50.69318,359.6332,0.08322523,0.4264821,-0.04294917,14.8199996687472,12
-2.433025,0.2833333,-7.261417,-0.2813048223923367,0.2331267959721413,0.6366760480711315,3.560081,53.98354,0.03152378,0.02780377,0.4536358,-0.01385312,14.8399996683002,12
-2.382679,0.4833333,-7.225029,-0.2761059749143404,0.0327563882444629,0.6184903604433485,7.11875,52.63839,359.9797,0.05556868,0.4425261,-0.02768455,14.8599996678531,12
-2.332347,0.6833333,-7.188652,-0.2749895021394957,-0.1467058162309428,0.5818020993623962,10.67419,51.27818,359.8424,0.08326425,0.4309399,-0.041482,14.8799996674061,12
-2.28203,0.8833332,-7.152285,-0.2643171690176069,-0.3596211713134722,0.5318894826466192,14.22435,49.8918,359.6165,0.11086,0.4188905,-0.05523062,14.899999666959,12
-2.018363,0.2833334,-7.018113,-0.4321701758372156,0.3000330027509362,0.4393548812878975,3.635075,53.85949,0.05091393,0.02847854,0.4526571,-0.01396848,14.919999666512,12
-1.967213,0.4833333,-6.980567,-0.3569203817047961,0.0745727264488314,0.4515481725376107,7.269316,52.52126,0.01688096,0.05691638,0.4415568,-0.02791724,14.939999666065,12
-1.916079,0.6833333,-6.943035,-0.2832939148365304,-0.1299793337947176,0.4501555144584053,10.90119,51.16858,359.8964,0.08528531,0.4299632,-0.04183086,14.9599996656179,12
-1.864961,0.8833333,-6.905515,-0.1973049157216743,-0.3679844251200743,0.4411267499772577,14.52837,49.78989,359.6858,0.1135501,0.41789,-0.0556944,14.9799996651709,12
-1.671831,0.2833334,-6.802748,-0.3311031643012746,0.2665797859344555,0.3484641171447,3.616615,53.77656,0.06839543,0.02841399,0.4520102,-0.01373905,14.9999996647239,12
-1.621192,0.4833333,-6.765077,-0.304075218768965,0.0160296528187962,0.3147887146179267,7.232797,52.44543,0.05275548,0.05678757,0.4409555,-0.02745875,15.0199996642768,12
-1.570567,0.6833333,-6.727416,-0.2714785742853872,-0.2136122647610104,0.2765868570969294,10.84657,51.1012,359.9516,0.08508848,0.4294133,-0.04114381,15.0399996638298,12
-1.360614,0.2833333,-6.613004,-0.4318631032232596,0.2435805544857074,0.1691928486953005,3.561091,55.63504,0.1801418,0.02821393,0.466388,-0.01310996,15.0599996633828,12
-1.310673,0.4833333,-6.575916,-0.5826727427220671,0.6960690343188654,0.0616350392144582,7.124326,54.31855,0.2785848,0.05638829,0.455448,-0.0262019,15.0799996629357,12
-1.260745,0.6833333,-6.538838,-0.4986007271437472,0.2388760248944796,0.0520405828542216,10.68783,52.99673,0.2947539,0.08449216,0.4440172,-0.03926157,15.0999996624887,12
-1.21083,0.8833332,-6.50177,-0.3998893423140937,-0.2230213383178638,0.0448659783244291,14.24938,51.65897,0.2264194,0.1124919,0.4321088,-0.05227392,15.1199996620417,12
-0.9488491,0.2833333,-6.35888,-0.5431181361625823,0.2153543202474529,-0.060787256264053,3.493228,56.0232,0.2390852,0.02788822,0.469375,-0.01247351,15.1399996615946,12
-0.9002208,0.4833333,-6.321914,-0.5049265159760958,0.008711444200082,-0.0889079149775025,6.989966,54.71746,0.3987725,0.05573837,0.4585142,-0.02493019,15.1599996611476,12
-0.8516023,0.6833332,-6.284958,-0.4687996700243995,-0.1770232184022619,-0.1214332905849513,10.48797,53.41067,0.47927,0.08351871,0.4471758,-0.03735306,15.1799996607006,12
-0.8029977,0.8833332,-6.248013,-0.4223864944407069,-0.3962109013709534,-0.1525495245967061,13.98587,52.09284,0.4786964,0.1112019,0.4353721,-0.04973331,15.1999996602535,12
-0.6188329,0.2833333,-6.153008,-0.5244399229093804,0.2571707420846947,-0.2347089218825244,3.432708,55.17731,0.22691,0.0274625,0.4628593,-0.01211693,15.2199996598065,12
-0.5715074,0.4833333,-6.116094,-0.3817324426546158,0.0254380520856161,-0.2033722098392374,6.868241,53.87567,0.376339,0.05488636,0.4520322,-0.02421376,15.2399996593595,12
-0.5241954,0.6833333,-6.07919,-0.2414234692568835,-0.1853864249911392,-0.1726153053357952,10.30529,52.57261,0.4478448,0.08224561,0.4407493,-0.03628255,15.2599996589124,12
-0.4768968,0.8833332,-6.042297,-0.0909994629025567,-0.4296639362859356,-0.1364795108148202,13.74207,51.25852,0.4398673,0.1095119,0.4290225,-0.04831126,15.2799996584654,12
-0.2392896,0.2833334,-5.919972,-0.1478224145418967,0.1986279717109417,-0.1800280753785381,3.378442,53.71559,0.1279064,0.02680244,0.4515518,-0.01232223,15.2999996580184,12
-0.1926807,0.4833333,-5.883822,-0.0498693896019104,-0.0581945737949267,-0.161292050344489,6.757516,52.4103,0.1788208,0.05356657,0.4407359,-0.02462776,15.3199996575713,12
-0.146085,0.6833333,-5.847683,0.0497762604345495,-0.2941090130975022,-0.1381406896550778,10.13591,51.0979,0.1520678,0.08026934,0.4294899,-0.0369056,15.3399996571243,12
0.06238439,0.2833334,-5.736834,-0.0324103190768325,0.1568115213862539,-0.1899427724620963,3.319164,52.16784,0.01068241,0.02605242,0.4395002,-0.01265013,15.3599996566772,12
0.1084105,0.4833333,-5.701698,-0.1101762188446144,0.6030276071238917,-0.2360032137649144,6.636723,50.85631,359.9453,0.05207175,0.428684,-0.02528461,15.3799996562302,12
0.1544251,0.6833333,-5.666569,0.0351241920976557,0.1395623077094918,-0.186472988322075,9.950508,49.53112,359.8022,0.07802881,0.4174633,-0.03789125,15.3999996557832,12
0.2004266,0.8833332,-5.63145,0.1848742676721135,-0.3286073475836916,-0.1306885023942006,13.25915,48.18293,359.5789,0.1039027,0.4058496,-0.05045833,15.4199996553361,12
0.46133,0.2833333,-5.493584,0.0952297749751385,0.1034957905656214,-0.1803142609705181,3.25982,49.92861,359.8691,0.02530423,0.421912,-0.01303949,15.4399996548891,12
0.5067145,0.4833333,-5.459238,0.1787235677868537,-0.1094195012695465,-0.1538721845753943,6.51483,48.61042,359.6631,0.05057709,0.4110827,-0.02606315,15.4599996544421,12
0.552086,0.6833333,-5.424902,0.2511744702987637,-0.3014265817505073,-0.1293464718229691,9.763231,47.27094,359.3795,0.07579463,0.3998782,-0.03905901,15.479999653995,12
0.5974463,0.8833332,-5.390574,0.3244930789700611,-0.526886818065645,-0.1011597440114142,13.0028,45.90094,359.015,0.1009305,0.3883095,-0.05201432,15.499999653548,12
0.7823852,0.2833333,-5.297977,0.2400916751138417,0.12022234949108,-0.1420788631830558,3.204841,47.0048,359.7627,0.02481864,0.3986837,-0.01304966,15.519999653101,12
0.8264914,0.4833333,-5.263366,0.3932510517439924,-0.1177828323494367,-0.0762922942739288,6.402468,45.68328,359.4512,0.04960723,0.3878217,-0.02608358,15.5399996526539,12
0.8705848,0.6833332,-5.228765,0.5348699642988204,-0.3348798038811597,-0.0129455201506778,9.591066,44.3351,359.0628,0.07434309,0.3766162,-0.03909018,15.5599996522069,12
0.9146693,0.8833331,-5.194174,0.4861200091381938,0.1348580762346081,-0.0383815479725591,12.76843,42.95134,358.594,0.09900329,0.3650779,-0.05205319,15.5799996517599,12
1.157723,0.2833333,-5.073121,0.4294722240241033,0.5998915055134364,-0.0646192848670494,3.461044,48.68174,359.7754,0.02670669,0.4120296,-0.01423202,15.5999996513128,12
1.206132,0.4833333,-5.036715,0.5233921600536258,0.1552434408303735,-0.0319160378207969,6.915129,47.36389,359.4707,0.05337812,0.4011789,-0.02844578,15.6199996508658,12
1.254523,0.6833333,-5.000319,0.6140561371015907,-0.2941089690160099,0.0041994617897604,10.36092,46.01649,359.0822,0.07998951,0.3899202,-0.0426333,15.6399996504188,12
1.467876,0.2833333,-4.891124,0.4594888293046999,0.1568115448208809,-0.0775892763470302,3.53944,50.76149,359.8224,0.02723771,0.4284698,-0.01463677,15.6599996499717,12
1.518095,0.4833333,-4.855024,0.2990459775369558,0.6030276062527153,-0.1590744280274845,7.073506,49.45103,359.5628,0.05444027,0.4176857,-0.02926099,15.6799996495247,12
1.5683,0.6833332,-4.818934,0.3508103576953636,0.1395622922025632,-0.1545872778699024,10.59965,48.11299,359.2188,0.08157595,0.4064601,-0.04384982,15.6999996490777,12
1.61849,0.8833331,-4.782855,0.3945055426633552,-0.328607368056321,-0.1497838848145924,14.11577,46.73635,358.7856,0.1086155,0.3948058,-0.05838776,15.7199996486306,12
1.88531,0.2833333,-4.645966,0.2802032910137413,0.1034958815163707,-0.208752576500288,3.583933,52.73294,359.9703,0.02790254,0.4439011,-0.01411972,15.7399996481836,12
1.93581,0.4833333,-4.609067,0.342577493260642,-0.1094194087506806,-0.1938546408383894,7.16563,51.44128,359.8599,0.05576985,0.433204,-0.02821974,15.7599996477365,12
1.986296,0.6833333,-4.572179,0.395705249242523,-0.3014264907997572,-0.1794758893378034,10.7429,50.13111,359.6663,0.08356755,0.4220397,-0.04228514,15.7799996472895,12
2.036767,0.8833332,-4.535301,0.452852834352007,-0.5268867184902559,-0.1598771877381892,14.31377,48.79148,359.3859,0.111265,0.4104208,-0.05630061,15.7999996468425,12
2.224423,0.2833333,-4.44533,0.298819140453491,0.1202223611648345,-0.2319086032071573,3.559727,53.40798,0.03706831,0.02789197,0.4491554,-0.01366871,15.8199996463954,12
2.274319,0.4833332,-4.408337,0.3848346783870648,-0.1177827921882359,-0.2020327196171765,7.118219,52.12784,-0.005257075,0.05574504,0.4385287,-0.02731667,15.8399996459484,12
2.324201,0.6833332,-4.371354,0.4594947121799375,-0.3348797388914473,-0.1737820300815813,10.67385,50.83381,359.8712,0.0835293,0.4274352,-0.04093144,15.8599996455014,12
2.374068,0.8833331,-4.334382,0.3420861244342026,0.1348581490649002,-0.2309212849127098,14.22477,49.51534,359.6634,0.1112145,0.4158873,-0.05449853,15.8799996450543,12
2.618017,0.2833334,-4.218226,0.2188165048591743,0.5998916759154154,-0.2870062123525123,3.63413,55.12879,0.08729976,0.02846161,0.462491,-0.01399791,15.8999996446073,12
2.669605,0.4833333,-4.181291,0.2546062671501223,0.1552435856197849,-0.2846956930795037,7.26827,53.8583,0.09400993,0.05688286,0.4519312,-0.0279764,15.9199996441603,12
2.721173,0.6833333,-4.144366,0.291256183342977,-0.2941087462563677,-0.2767892773927918,10.90107,52.57651,0.01836523,0.08523324,0.4408713,-0.04192521,15.9399996437132,12
2.936399,0.2833333,-4.038789,0.0845109699310073,0.156811829608237,-0.3807135234337564,3.615987,56.25626,0.1025734,0.02824576,0.4711851,-0.01408516,15.9599996432662,12
2.988274,0.4833333,-4.002835,-0.1229292134863824,0.6030280443670024,-0.4805250802771197,7.232297,54.9911,0.1253192,0.0564515,0.4606991,-0.0281508,15.9799996428192,12
3.040136,0.6833333,-3.966891,-0.1068725361856026,0.1395625224543153,-0.4939283074606275,10.84718,53.71591,0.06708869,0.08458573,0.4497082,-0.04218146,15.9999996423721,12
3.091981,0.8833332,-3.930954,-0.0921637928915366,-0.3286072405161916,-0.5018794327583751,14.45873,52.41993,359.9247,0.1126147,0.4382249,-0.05616476,16.0199996419251,12
3.361196,0.2833333,-3.800243,-0.2325041603012279,0.103495904776764,-0.5684806276630665,3.55239,58.58508,0.2148169,0.02794889,0.4889823,-0.01353096,16.0399996414781,12
3.412523,0.4833333,-3.765308,-0.1780375804327478,-0.1050286435621673,-0.5572920651553583,7.107571,57.33564,0.3523418,0.05585901,0.4786387,-0.02704355,16.059999641031,12
3.463835,0.6833332,-3.730384,-0.1180629864442464,-0.2931718736553682,-0.5379221134010872,10.66385,56.08394,0.4123589,0.08370011,0.4677859,-0.04052331,16.079999640584,12
3.515134,0.8833331,-3.695467,-0.039052452622645,-0.5152735131210253,-0.5048341412020636,14.21916,54.82003,0.392897,0.1114383,0.456436,-0.05395626,16.099999640137,12
3.703915,0.2833333,-3.609695,-0.1663004258322846,0.1347103844147738,-0.5563075746974111,3.486847,58.67077,0.2441527,0.02756575,0.4896365,-0.01304866,16.1199996396899,12
3.75404,0.4833332,-3.57497,-0.0409334665667673,-0.0857010319079261,-0.5082749761718157,6.977148,57.429,0.4129693,0.05509438,0.4793597,-0.02607988,16.1399996392429,12
3.804154,0.6833332,-3.540253,0.0825454109058112,-0.287466902029563,-0.4565344410608372,10.46881,56.1873,0.5066929,0.08255451,0.4685899,-0.03907689,16.1599996387959,12
3.854254,0.8833331,-3.505547,0.0191620230077891,0.195435386810509,-0.4831237940734727,13.96067,54.93625,0.5237541,0.1099199,0.4573386,-0.05202984,16.1799996383488,12
4.097739,0.2833333,-3.39542,-0.0450081437527156,0.6715623840244924,-0.5050431859231266,3.426801,58.68162,0.236682,0.02707602,0.4897295,-0.0128514,16.1999996379018,12
4.147042,0.4833333,-3.361351,0.0529672847350433,0.2482516008723299,-0.4707836034254185,6.856495,57.44408,0.399496,0.05411302,0.4795151,-0.02568481,16.2199996374547,12
4.196331,0.6833333,-3.327293,0.1561551250380297,-0.1831088788493172,-0.4264777649797548,10.28791,56.20646,0.488519,0.08108708,0.4688231,-0.03848889,16.2399996370077,12
4.410866,0.2833333,-3.227329,0.0172636491443007,0.2826136870420673,-0.488097738077865,3.371249,57.23738,0.1292775,0.02636178,0.4787415,-0.01309945,16.2599996365607,12
4.459471,0.4833333,-3.194132,-0.1212414359086313,0.7405978488054712,-0.5445357304011003,6.743084,55.99394,0.1852912,0.05268575,0.4685278,-0.02618183,16.2799996361136,12
4.508062,0.6833332,-3.160945,-0.0362493043681118,0.3000493060211537,-0.525594351817755,10.11437,54.74421,0.1675363,0.07895011,0.4578628,-0.03923515,16.2999996356666,12
4.556639,0.8833331,-3.127768,0.0472861733933367,-0.1496093796011425,-0.5016027621485251,13.4835,53.47921,0.07407065,0.1051291,0.4467575,-0.05224673,16.3199996352196,12
4.825437,0.2833333,-3.004431,-0.0226503884593096,0.2968232523776352,-0.531509477519754,3.31184,55.2956,359.983,0.02552896,0.4638452,-0.01354046,16.3399996347725,12
4.873459,0.4833333,-2.972304,0.0956812751204649,0.1053189992975882,-0.4966096252711736,6.621547,54.04448,359.8936,0.05102594,0.4536256,-0.02706424,16.3599996343255,12
4.921469,0.6833333,-2.940184,0.2116827778985994,-0.0703343000192348,-0.4573019712952442,9.927107,52.77879,359.73,0.07646245,0.442984,-0.04055888,16.3799996338785,12
4.969465,0.8833332,-2.908073,0.3381276638355057,-0.2842194083150968,-0.4088314353305153,13.22729,51.48965,359.4896,0.1018186,0.4319311,-0.05401178,16.3999996334314,12
5.159919,0.2833333,-2.827523,0.2548035298277327,0.3699643722217974,-0.4415397090609181,3.254615,53.41154,359.8767,0.02488523,0.4492547,-0.01372338,16.4199996329844,12
5.207137,0.4833333,-2.795917,0.4203931651012524,0.149649559271941,-0.3899958139992956,6.504816,52.15656,359.6818,0.04974005,0.4390305,-0.02743024,16.4399996325374,12
5.254341,0.6833333,-2.764319,0.5759176808581641,-0.0554808860556841,-0.3373566785192912,9.748982,50.88144,359.4134,0.07454139,0.4284106,-0.04110806,16.4599996320903,12
5.301534,0.8833333,-2.732729,0.5376789342709527,0.4208508352830733,-0.3612321578837705,12.98505,49.57743,359.0681,0.09926376,0.4174054,-0.05474297,16.4799996316433,12
5.546867,0.2833333,-2.629155,0.4918951008536556,0.8870219118995013,-0.3827727764534419,3.200596,51.14104,359.7574,0.0242779,0.4315057,-0.01396309,16.4999996311963,12
5.593343,0.4833333,-2.597918,0.7458967708975273,0.4411102661091042,-0.2998328318253853,6.394197,49.88139,359.444,0.0485267,0.421264,-0.02790969,16.5199996307492,12
5.639807,0.6833333,-2.56669,1.0233586099146723,-0.0140409434313211,-0.1983140998042891,9.579144,48.59542,359.0573,0.07272451,0.4106533,-0.04182751,16.5399996303022,12
5.860788,0.2874477,-2.470753,1.0716294854636883,0.4269053328150314,-0.189324944200119,3.529936,52.96502,359.7676,0.02666388,0.4457681,-0.01554864,16.5599996298552,12
5.912825,0.4874476,-2.437426,1.1306919278571517,0.8574711861229759,-0.1682818959213305,7.05305,51.70657,359.4572,0.05329207,0.4354998,-0.03107692,16.5799996294081,12
5.964838,0.6874476,-2.40411,1.3942295391280286,0.3642958852624237,-0.0957729620139682,10.56866,50.41784,359.0648,0.07986271,0.4247759,-0.04657805,16.5999996289611,12
6.016828,0.8874476,-2.370809,1.6690110325671732,-0.1351659538418773,-0.0139753666333142,14.07492,49.08818,358.5856,0.1063507,0.413608,-0.06203238,16.6199996285141,12
6.292896,0.3016734,-2.254206,1.7982005159076238,0.2643605595210921,0.0192190501754813,3.562671,55.67369,359.8493,0.02687419,0.4667655,-0.01567773,16.639999628067,12
6.346076,0.5016734,-2.221899,1.937678645040246,0.6581959107007546,0.0612621829583268,7.120444,54.42744,359.6201,0.05371034,0.4566088,-0.03134038,16.65999962762,12
6.399241,0.7016734,-2.189601,2.42827320681266,0.1281836918509448,0.1776309745678366,10.67133,53.1558,359.3102,0.08048052,0.4459681,-0.04696503,16.6799996271729,12
6.452391,0.9016734,-2.157313,2.9372208552478902,-0.4053069397863338,0.2858577389165153,14.21342,51.84815,358.9149,0.1071557,0.4348552,-0.06253511,16.6999996267259,12
6.646942,0.313123,-2.081442,3.238935338719026,-0.0370671983164464,0.300726248874907,3.592604,57.13774,359.9828,0.02745794,0.4779839,-0.01512188,16.7199996262789,12
6.700118,0.513123,-2.048236,3.606491164532613,-0.3115449581576887,0.2005878720147043,7.183256,55.90889,359.8888,0.05488125,0.4679022,-0.0302215,16.7399996258318,12
6.753279,0.713123,-2.01504,3.9728694081377034,-0.5632667296238982,0.1125663883849472,10.77003,54.66305,359.7156,0.08223644,0.4573176,-0.04528407,16.7599996253848,12
6.806424,0.913123,-1.981853,4.147736695836487,-0.1260711350725746,-0.0381982694956412,14.35115,53.38978,359.4597,0.1094934,0.4462422,-0.06029349,16.7799996249378,12
7.057706,0.3262672,-1.887015,4.3158726367149605,0.3087371520739287,-0.1764356229856865,3.570127,59.43461,0.0744019,0.02737508,0.4954628,-0.01487819,16.7999996244907,12
7.111031,0.5262672,-1.854789,4.545722609795583,-0.1744244555589721,-0.1759819766795797,7.139869,58.2193,0.07265842,0.05470975,0.485504,-0.02973881,16.8199996240437,12
7.164341,0.7262671,-1.822574,4.7683232854794735,-0.6582027997849118,-0.129905265385506,10.70775,56.99316,359.994,0.08197719,0.4750293,-0.04456345,16.8399996235967,12
7.38881,0.3366107,-1.736308,4.729670667683363,-0.2374392007313529,-0.146610006236872,3.647242,60.69619,0.09205819,0.02786787,0.5049741,-0.01538562,16.8599996231496,12
7.443882,0.5366107,-1.704342,4.675018000230246,0.1830707217862807,-0.1290890044544712,7.294587,59.48611,0.1070923,0.05569636,0.4950546,-0.03074996,16.8799996227026,12
7.498939,0.7366107,-1.672384,4.532653602221389,-0.3192906116004922,0.0156263944481764,10.94038,58.26578,0.04391848,0.08345394,0.4845879,-0.04607587,16.8999996222556,12
7.553974,0.9366106,-1.640435,4.37688613296948,-0.819403344269762,0.2127349929528746,14.58365,57.0247,359.8992,0.1111125,0.4735856,-0.06135315,16.9199996218085,12
7.835593,0.3505141,-1.536714,4.050323603458367,-0.4121959856223803,0.4012833616762459,3.610781,62.90721,0.1484074,0.02755101,0.5215137,-0.01533519,16.9399996213615,12
7.89083,0.5505141,-1.506311,3.7190422833830894,-0.0025515704687946,0.6308518112708731,7.222817,61.70742,0.2212882,0.05506327,0.5117241,-0.03064932,16.9599996209145,12
7.946052,0.750514,-1.475917,3.280227818555023,-0.5146112106383688,1.0181634907321917,10.83452,60.50143,0.217945,0.08250634,0.5013786,-0.04592575,16.9799996204674,12
8.001256,0.9501066,-1.445527,2.8346977987095645,-1.0217340118343243,1.4399934706864177,14.44411,59.27912,0.135496,0.1098458,0.490489,-0.06115181,16.9999996200204,12
8.333247,0.3521842,-1.323673,2.163088493158556,-0.6189426924037931,1.80740600156522,6.07708,61.85778,359.9279,0.04514731,0.5132797,-0.02778357,17.0199996195734,12
8.428308,0.5521841,-1.275558,1.4951985165582684,-0.2112146028225272,2.195147721588479,12.1502,60.62283,359.7238,0.09015453,0.502084,-0.05548184,17.0399996191263,12
8.523355,0.752184,-1.227453,0.6645770650748482,-0.7035263475784905,2.740454400100216,18.21636,59.33034,359.3765,0.13489,0.4894313,-0.0830144,17.0599996186793,12
8.618385,0.9504405,-1.179355,-0.3780464606780498,-0.4755523985213598,3.2090827418432832,24.27201,57.94453,358.8649,0.1792232,0.4753594,-0.1103013,17.0799996182323,12
8.887669,0.3402949,-1.096634,-1.4296693957737716,-0.215507900693199,3.666549932676051,6.296394,58.72878,359.2535,0.04467216,0.4899235,-0.03259829,17.0999996177852,12
8.989349,0.5402948,-1.051649,-2.680939685021613,-0.6159990864853718,4.229061732812632,12.57337,57.38326,358.3542,0.08919477,0.4785385,-0.06508906,17.1199996173382,12
9.091015,0.7402948,-1.006674,-3.93914973420824,-1.0121662444661303,4.749572268751226,18.82548,55.89326,357.2719,0.1334264,0.4656471,-0.09736964,17.1399996168911,12
9.192664,0.9402946,-0.9617064,-5.444419096525092,-0.5161314025758124,5.130529825756586,25.04536,54.20789,355.9625,0.177227,0.4512907,-0.1293384,17.1599996164441,12
9.605988,0.3276662,-0.8582395,-6.9320213263866215,-0.017786152487383,5.464224540202569,7.420995,61.829,358.0873,0.04695686,0.5135367,-0.04753244,17.1799996159971,12
9.736949,0.527666,-0.827938,-8.375736495473198,0.3177187997983259,5.753310191162498,14.7972,60.22112,355.9422,0.09371208,0.5011253,-0.09493133,17.19999961555,12
9.867866,0.7276658,-0.7976421,-9.97478662728214,-0.386808296381226,5.958105688203081,22.10521,58.24779,353.4804,0.1400391,0.4864224,-0.1419071,17.219999615103,12
10.05473,0.3282388,-0.8683746,-11.666016500944306,-0.1688436788360932,6.0265910753012895,7.044007,58.44677,357.8875,0.04462131,0.4881993,-0.04604391,17.239999614656,12
10.17934,0.5282387,-0.8367891,-13.27098304256828,0.077653295222038,6.013468754462904,14.04379,56.8295,355.557,0.08913299,0.4760944,-0.09196575,17.2599996142089,12
10.3039,0.7282385,-0.8052126,-14.762961102878087,0.300256047353373,5.928000166403554,20.96648,54.84781,352.9261,0.1332541,0.4619832,-0.1374859,17.2799996137619,12
10.42844,0.9282382,-0.773645,-16.30316827544238,-0.4072129229343137,5.694855776696983,27.78553,52.40094,349.8809,0.1767976,0.4459272,-0.1824121,17.2999996133149,12
10.60949,0.3180803,-0.6276347,-17.894991686374308,-0.196373387410379,5.289926121238242,7.473113,45.28984,358.2165,0.05415838,0.3850901,-0.03942106,17.3199996128678,12
10.7247,0.5180801,-0.5588707,-19.30505662294405,0.040554826226313,4.79534411269894,14.89748,43.71497,356.2129,0.1080561,0.3729316,-0.07864672,17.3399996124208,12
10.83987,0.7180799,-0.4901154,-20.65456304960765,-0.3892371859631829,4.133255320192056,22.25688,41.79322,353.9027,0.1614457,0.3590705,-0.1174972,17.3599996119738,12
10.955,0.9180796,-0.4213855,-21.95175882980656,-0.1132218892494272,3.3273686412098247,29.52935,39.41252,351.1659,0.2140994,0.3435735,-0.1557906,17.3799996115267,12
10.99351,0.3013795,-0.2654456,-23.00031187482721,0.186776215420603,2.4534184882400263,7.46119,35.92314,359.1361,0.05957256,0.3081834,-0.02722012,17.3999996110797,12
11.0827,0.5013794,-0.16922,-23.785521616488765,0.4582079915563137,1.528864604250973,14.89895,34.53837,358.085,0.1188711,0.2963835,-0.05430575,17.4199996106327,12
11.17185,0.7013793,-0.07300708,-24.49218416394609,-0.2052273787021018,0.4036014863738788,22.30572,32.94667,356.7951,0.1776348,0.283292,-0.08113844,17.4399996101856,12
11.26097,0.9013791,0.02319339,-25.156997375152216,0.0438165164466725,-0.8378557818542172,29.67046,31.06259,355.1875,0.2356059,0.268968,-0.107601,17.4599996097386,12
11.24111,0.2833333,0.230914,-25.528147753155363,0.3138033064602131,-2.0977452910251304,6.659944,13.51104,358.7188,0.05636637,0.1180721,-0.01791675,17.4799996092916,12
11.2898,0.4833332,0.3383788,-25.59629031932554,0.5521113143948853,-3.357093347161998,13.24052,11.26047,357.2476,0.1123586,0.1001813,-0.03504906,17.4999996088445,12
11.33847,0.683333,0.4458074,-25.400851269394977,-0.1471438758089238,-4.719612367742705,19.7571,8.757299,355.4576,0.1679444,0.0819355,-0.0520162,17.5199996083975,12
11.38713,0.8833328,0.5531976,-25.205865364147527,0.0770755753677742,-6.1724100185911865,26.18845,5.909942,353.2695,0.2229144,0.06340525,-0.06875715,17.5399996079504,12
11.26331,0.2833333,0.7910533,-24.7587411876264,0.3206040952227459,-7.618382179307478,5.949763,337.14,358.283,0.05382838,-0.1971189,-0.004382646,17.5599996075034,12
11.25243,0.4833332,0.8993666,-24.060713343978072,0.5308111837185245,-9.039794073862144,11.8207,333.8337,356.2499,0.1076129,-0.2217591,-0.008404225,17.5799996070564,12
11.24156,0.6833332,1.007646,-23.16888755909221,-0.1965920103602747,-10.588148290692608,17.56256,330.2261,353.8137,0.1610242,-0.2455701,-0.01237315,17.5999996066093,12
11.03106,0.2833333,1.225615,-22.21283623812838,0.0126780968988859,-12.122738673374023,6.688929,309.3471,358.8165,0.05713917,-0.4264789,0.01563535,17.6199996061623,12
10.9565,0.4833333,1.319386,-21.02358347083857,0.2414737178468346,-13.586640543500916,13.31728,305.0739,357.0774,0.1145347,-0.4552925,0.0309827,17.6399996057153,12
10.88199,0.6833332,1.41325,-19.61189717077425,0.4372263778948902,-14.964017826207948,19.78761,300.4509,354.7771,0.1712739,-0.4819,0.04627727,17.6599996052682,12
10.80751,0.8833331,1.507093,-18.04862536219589,-0.3027678922950519,-16.444819392538424,26.05005,295.3259,351.7974,0.2272084,-0.5061828,0.06137126,17.6799996048212,12
10.73307,0.97667,1.600904,-16.63797127385516,-0.1033807696666077,-17.8572219435066,32.02463,289.5162,347.99,0.2820759,-0.5280303,0.07617009,17.6999996043742,12
10.44805,0.2833334,1.654706,-15.099472278320746,0.1156741766951032,-19.108509863983965,6.687979,270.4281,357.6666,0.05571069,-0.7022721,0.02665603,17.7199996039271,12
10.33274,0.4833332,1.700871,-13.548619538385818,-0.3126991113138644,-20.341627456393947,13.14863,265.3317,354.7578,0.1109183,-0.7261707,0.0533106,17.7399996034801,12
10.21745,0.6833332,1.747017,-11.959516466968523,-0.0330200077711382,-21.25381276141003,19.31594,259.7338,351.158,0.1655459,-0.7461162,0.07967199,17.7599996030331,12
10.1022,0.8833329,1.793152,-10.291032791059802,0.2626470398316522,-21.9414722322666,25.09588,253.4823,346.7566,0.2192948,-0.7620015,0.1056033,17.779999602586,12
9.811707,0.2833335,1.759946,-8.56939672908776,0.5219405176872388,-22.3929412224955,5.915174,239.9119,357.2632,0.04641923,-0.8643934,0.03278275,17.799999602139,12
9.69656,0.4833334,1.75517,-7.0423708394866,-0.1286486244137302,-22.71607463681624,11.57418,234.714,353.9333,0.09303056,-0.8799441,0.06523623,17.819999601692,12
9.581491,0.6833333,1.750333,-5.566244262876215,0.1507815205324955,-22.884902837794737,16.89801,229.0561,349.9881,0.1392862,-0.8911297,0.09732873,17.8399996012449,12
9.333024,0.2833333,1.658294,-4.099022661027854,0.443489670991522,-22.816736554047555,5.437648,226.0219,357.7172,0.03685278,-0.9188421,0.03587366,17.8599996007979,12
9.234368,0.4833332,1.624752,-2.669783424839868,0.6973268792565426,-22.512193100889792,10.70016,221.1937,354.9434,0.07388259,-0.9296467,0.0717449,17.8799996003509,12
9.135803,0.6833332,1.591217,-1.4175064135998865,-0.002506889867951,-22.024924955248352,15.70845,216.0074,351.654,0.1106807,-0.9365436,0.1073375,17.8999995999038,12
9.037277,0.8833331,1.557696,-0.1459840339658242,0.2384410761980129,-21.43068881489668,20.39434,210.3834,347.8039,0.1470286,-0.939508,0.1424848,17.9199995994568,12
8.752601,0.2833333,1.367494,1.06078054472491,0.4964912022571484,-20.670142089707305,6.269164,212.4512,357.4545,0.03657075,-0.9581565,0.0462933,17.9399995990098,12
8.653869,0.4833333,1.302724,2.172262338022879,0.7195382450510461,-19.74881123882119,12.31146,207.5662,354.3739,0.07290631,-0.9631873,0.09239274,17.9599995985627,12
8.555274,0.6833332,1.238043,2.938349010427719,-0.022555647745558,-18.67503288209385,18.05173,202.2327,350.6839,0.1088456,-0.9634305,0.137965,17.9799995981157,12
8.456749,0.883333,1.173408,3.684655437788248,0.1835489547630809,-17.578580816274737,23.41245,196.3222,346.2963,0.1442347,-0.9589255,0.182821,17.9999995976686,12
8.31335,0.2833333,0.9943329,4.312596084584065,0.4127118644552621,-16.36477343968109,7.275007,206.3839,357.9523,0.03183854,-0.9712358,0.05769003,18.0199995972216,12
8.221353,0.4833333,0.8997053,4.594983836201473,-0.0458187002234463,-15.029421745157077,14.35456,201.5476,355.2818,0.06345516,-0.9728879,0.1149993,18.0399995967746,12
8.130045,0.6833331,0.8056298,4.718037620850311,-0.5065155610287306,-13.588884664954838,21.13773,196.2944,351.9166,0.09451649,-0.9688615,0.1712953,18.0599995963275,12
8.039494,0.8833328,0.7122273,4.862858488820205,-0.0643511651978243,-12.216803927347692,27.53685,190.4627,347.7356,0.1248969,-0.9593676,0.2261908,18.0799995958805,12
7.898345,0.2833333,0.4616949,4.891188388269155,0.3757487664148825,-10.793884443937436,7.563611,206.5965,359.6196,0.01839495,-0.971011,0.06342618,18.0999995954335,12
7.829566,0.4833332,0.3486357,4.606835517657984,-0.1015734862016993,-9.239476885877863,15.07931,202.4403,358.6859,0.03668011,-0.9720497,0.1264841,18.1199995949864,12
7.760812,0.683333,0.2356,4.411786263994281,0.1406819020203574,-7.815725936296229,22.50329,197.9681,357.1258,0.05475563,-0.9676785,0.188823,18.1399995945394,12
7.692082,0.8833327,0.1225878,4.1532740004532,0.4099302048828712,-6.411170752800416,29.77897,192.9792,354.8057,0.07252298,-0.9579285,0.2500973,18.1599995940924,12
7.567911,0.286721,-0.1824512,3.82301944376846,0.6539009031476644,-5.048528773889776,7.232294,204.4822,0.151877,0.01208015,-0.9753352,0.06191818,18.1799995936453,12
7.514437,0.4867209,-0.2969783,3.141670614541585,-0.0334281104026104,-3.605401056823197,14.45648,200.4589,359.7958,0.0240841,-0.9762422,0.1235082,18.1999995931983,12
7.461327,0.6867207,-0.4110612,2.370446298980857,-0.6200786243963139,-2.2428639366339884,21.60961,196.2892,358.9034,0.0358622,-0.9720653,0.1842326,18.2199995927513,12
7.320817,0.3108049,-0.6716009,1.7570561864772722,-0.2033422122988146,-0.9409017434838036,7.335785,197.0543,359.9341,0.01005287,-0.9869144,0.06318088,18.2399995923042,12
7.278785,0.5108049,-0.7914615,0.8859489264470071,-0.4281177722470354,0.4217293533962341,14.59102,193.258,359.3949,0.01986187,-0.9851818,0.1255315,18.2599995918572,12
7.23695,0.7108047,-0.9107429,-0.000218375887532,-0.6284792221100004,1.6958463374032493,21.7601,189.2932,358.3283,0.0295677,-0.9784697,0.1869526,18.2799995914102,12
7.195232,0.9108045,-1.029695,-0.9000450659248855,-0.8587875422740625,2.8547888085281987,28.81844,184.9752,356.6427,0.03914123,-0.9668988,0.2472731,18.2999995909631,12
6.946901,0.3413562,-1.259535,-1.601785677699341,-0.2130209595306536,3.966691639588113,6.371671,191.1393,358.5019,0.01838459,-0.9935853,0.05404072,18.3199995905161,12
6.898392,0.5413561,-1.358688,-2.6056299280264303,-0.4488621492431153,5.159462132255486,12.37978,185.3818,356.529,0.03513552,-0.992465,0.106242,18.3399995900691,12
6.849901,0.741356,-1.457819,-3.5560572745818644,-0.6602889123721735,6.234851547557243,18.15307,179.2528,353.8786,0.05169693,-0.9861038,0.1578691,18.359999589622,12
6.80143,0.9413558,-1.556928,-4.292472615464176,-0.1813747142981616,7.275056299908162,23.60555,172.6127,350.4734,0.06798364,-0.9745447,0.20865,18.379999589175,12
6.650795,0.3330168,-1.704906,-4.975861771416819,0.2963411558234774,8.199373914123717,7.272452,182.7981,358.5933,0.01379579,-0.9975952,0.06309871,18.399999588728,12
6.614472,0.5330167,-1.82938,-5.779708387857241,-0.1321182250841874,9.170721657255866,14.37117,177.0143,356.4461,0.02749754,-0.9914336,0.1257825,18.4199995882809,12
6.578166,0.7330165,-1.95383,-6.507325152414994,-0.5617758277479006,9.972420464354958,21.20818,170.7261,353.4612,0.0410205,-0.978959,0.1876523,18.4399995878339,12
6.54188,0.9330162,-2.078257,-6.938323280258256,-0.0876547162844409,10.774880867413172,27.66992,163.7119,349.4925,0.05428109,-0.96026,0.2483152,18.4599995873868,12
6.300475,0.310264,-2.204212,-7.525970489795146,-0.2550456749610919,11.65673475024357,6.796744,182.0408,357.4782,0.02301851,-0.9978183,0.05886307,18.4799995869398,12
6.246869,0.5102639,-2.319128,-7.999215430441886,-0.39802240925423,12.375307884664297,13.30804,176.1179,354.248,0.04588837,-0.9916407,0.1173494,18.4999995864928,12
6.193282,0.7102638,-2.43402,-8.359563565341675,-0.5709460201209292,12.916915008181382,19.43682,169.6278,350.2202,0.0684707,-0.9793424,0.1750976,18.5199995860457,12
5.95114,0.2931084,-2.532376,-8.555385339334237,0.1322055052207111,13.405715304468298,6.277636,189.1777,357.4794,0.0262711,-0.9949619,0.05280951,18.5399995855987,12
5.885704,0.4931084,-2.630384,-9.010009927921448,-0.0462507215080081,14.053763467594258,12.26074,183.3927,354.3299,0.0523142,-0.992473,0.1051578,18.5599995851517,12
5.820795,0.6931083,-2.727576,-9.327689160136766,-0.2002925007451037,14.530231067086934,17.84674,177.2839,350.5188,0.07795811,-0.9845445,0.1564742,18.5799995847046,12
5.756464,0.8931081,-2.823903,-9.514495478600251,-0.3842811458402986,14.825598992573548,22.95002,170.7513,345.9993,0.1031313,-0.9714943,0.2064442,18.5999995842576,12
5.52583,0.2833333,-2.824963,-9.846632754555568,-0.3325084102438824,15.407171651070946,6.803494,202.4827,357.9804,0.02882011,-0.9787307,0.05475993,18.6199995838106,12
5.445142,0.4833333,-2.91611,-10.029547771883191,-0.2317541893102238,15.81688546521782,13.28853,197.5348,355.3869,0.05713047,-0.9801723,0.1081667,18.6399995833635,12
5.365215,0.6833332,-3.006398,-10.074724867714206,-0.1353343993332741,16.05114042177231,19.4641,192.2774,352.1646,0.08498886,-0.9764325,0.1604775,18.6599995829165,12
5.285677,0.883333,-3.096246,-9.993966306060154,-0.0965648232299718,16.107151371057704,25.28671,186.4971,348.2134,0.1123635,-0.9677613,0.2116977,18.6799995824695,12
4.952579,0.2833334,-3.048836,-9.98484255201566,-0.0661966376974133,16.50167532839101,7.398201,230.3267,359.0475,0.03493944,-0.9029545,0.05486487,18.6999995820224,12
4.84207,0.4833333,-3.11244,-9.842506123583542,0.0126837798397042,16.72094088680598,14.54489,226.1228,357.5288,0.06925588,-0.9114025,0.1080654,18.7199995815754,12
4.732548,0.6833332,-3.175436,-9.584635498279672,0.086742912113806,16.765280585849624,21.49552,221.6761,355.4118,0.1030392,-0.9148033,0.1601582,18.7399995811284,12
4.403261,0.2833334,-3.110903,-9.123935972329864,0.7940221923309796,16.81220613438544,7.65595,253.6252,0.2759952,0.03807912,-0.7989078,0.05488871,18.7599995806813,12
4.274889,0.4833332,-3.148788,-8.961446743241948,0.615835195238965,17.1296071393738,15.31157,249.8604,0.0474929,0.07594287,-0.812574,0.1094568,18.7799995802343,12
4.146548,0.683333,-3.186656,-8.669748487466418,0.4580606448963311,17.273495509961514,22.9327,245.8878,359.2645,0.1133838,-0.8217432,0.1634028,18.7999995797873,12
4.018237,0.8833328,-3.224506,-8.273624770969569,0.2661935123539067,17.24951582447338,30.47813,241.525,357.8187,0.1501974,-0.8263709,0.216429,18.8199995793402,12
3.594543,0.2833333,-3.094982,-7.916373794947734,0.2691225510811524,17.595240462717655,7.081882,276.8394,2.090584,0.03410769,-0.6631343,0.05460255,18.8399995788932,12
3.466661,0.4833333,-3.111957,-7.419268857689728,0.3123684016710294,17.756066678399854,14.27565,273.4476,3.771028,0.06803651,-0.6828119,0.108903,18.8599995784461,12
3.33881,0.6833332,-3.128913,-6.808155118158997,0.3423117394415505,17.737824889231344,21.55167,270.145,5.061296,0.1016117,-0.6989263,0.1626191,18.8799995779991,12
3.210989,0.883333,-3.145853,-6.109097279450136,0.3053333725650472,17.54734647435304,28.88452,266.8284,5.951022,0.1346609,-0.7113989,0.2154722,18.8999995775521,12
2.921925,0.2833333,-2.993064,-5.7155029533742105,0.2644574525598887,17.798438371547324,6.802195,279.0131,2.09013,0.03328562,-0.6489328,0.0523631,18.919999577105,12
2.79923,0.4833332,-3.005948,-5.215443599864928,0.2638403505086197,17.886410462473663,13.67649,275.7114,3.759712,0.06638061,-0.6687645,0.1040004,18.939999576658,12
2.676572,0.683333,-3.018844,-4.640719372946203,0.2499064517531816,17.825046714797494,20.63147,272.5016,5.064736,0.09917144,-0.6853767,0.1551094,18.959999576211,12
2.317237,0.2833333,-2.820843,-4.023221738057627,0.1690802750125282,17.629203033348105,7.514774,281.907,1.389464,0.04326878,-0.6291673,0.05067525,18.9799995757639,12
2.185867,0.4833331,-2.8133,-3.5214722890326504,0.1017322044054734,17.69709946187595,14.99377,278.6787,2.325997,0.08584171,-0.6478835,0.1002604,18.9999995753169,12
2.05564,0.683333,-2.805822,-2.95641434891892,0.0767557943639526,17.602599676707868,22.44804,275.5397,2.851551,0.1276774,-0.6626374,0.1488543,19.0199995748699,12
1.926095,0.8833327,-2.798384,-2.3580337280057364,0.0406943475501038,17.365589400492844,29.88004,272.3335,2.945471,0.1687123,-0.6737093,0.1964019,19.0399995744228,12
1.45489,0.2833333,-2.500108,-1.9297516641641468,0.0406600190436639,17.41216342412258,8.002873,285.6863,0.6459456,0.05221754,-0.6028304,0.04662884,19.0599995739758,12
1.318091,0.4833332,-2.469123,-1.4480954731099946,0.0849512692157236,17.273991768871177,16.02698,282.5198,0.8516643,0.1041273,-0.620469,0.09297681,19.0799995735288,12
1.181328,0.683333,-2.438141,-0.942301346271933,0.1202009667435015,16.974316529254235,24.04756,279.2216,0.5839997,0.1554354,-0.6345608,0.1387796,19.0999995730817,12
