pX,pY,pZ,aX,aY,aZ,reX,reY,reZ,rtX,rtY,rtZ,t,ID
-42.00042,0.23,-39.99971,4.25611570609734,0.1127658945143998,5.157398521109272,0.01615698,0.01359728,0.02372887,0.0001410208,0.0001186295,0.0002070567,5.87999986857176,14
-42.00084,0.43,-39.99943,4.570849161162919,-0.0718417375950537,5.411703958814137,0.03234893,0.01360732,0.04743017,0.0002823467,0.0001186294,0.0004138727,5.89999986812472,14
-42.00143,0.2833333,-39.99894,4.935238466957813,-0.4663682509580256,5.676658892892249,0.02496939,5.163041,0.03643638,0.0002319994,0.04504072,0.0003078303,5.91999986767769,14
-42.00203,0.4833333,-39.99845,5.233739905269019,-0.6170005163460446,5.872050373141768,0.04995121,5.163064,0.07286751,0.0004641051,0.04504071,0.0006156099,5.93999986723065,14
-42.00262,0.6833333,-39.99796,5.467769284800212,-0.5490722043536163,6.000095716097512,0.07499063,5.163105,0.1094403,0.0006967688,0.04504069,0.0009246018,5.95999986678362,14
-42.00322,0.8833333,-39.99746,5.6389644769555005,-0.2868716947157983,6.063198939970498,0.09999351,5.16316,0.145968,0.0009290962,0.04504066,0.001233214,5.97999986633658,14
-41.98262,0.2833333,-39.96837,5.867555498269631,-0.7073943040788563,6.132572381654853,1.147328,12.33908,0.5637557,0.01048274,0.1074151,0.003814937,5.99999986588955,14
-41.98801,0.4833333,-39.94646,6.027702596295946,-0.8766349608059927,6.135263025401507,2.294538,12.35602,1.127953,0.02096412,0.1073951,0.007629312,6.01999986544251,14
-41.99339,0.6833333,-39.92458,6.121618357085083,-0.8199272426243835,6.07447611847612,3.443619,12.38436,1.693868,0.03146179,0.1073616,0.01144778,6.03999986499548,14
-41.92767,0.2833334,-39.87161,6.281617477197599,-1.2018737362290892,6.046295542907721,1.875409,20.31313,0.09513009,0.01625521,0.1763015,-0.002068785,6.05999986454844,14
-41.91774,0.4833333,-39.84012,6.367813610222704,-1.3285659798899845,5.949898055030154,3.751566,20.31777,0.1895307,0.03251109,0.1762304,-0.004146176,6.07999986410141,14
-41.90781,0.6833333,-39.80864,6.383391217172537,-1.225337523630849,5.789620315487255,5.630104,20.3254,0.2828875,0.04877653,0.1761112,-0.006238527,6.09999986365438,14
-41.83024,0.2833335,-39.7459,6.486418875260355,-1.5567908207697418,5.688085408345785,3.25926,25.51233,0.0594,0.02785108,0.2206986,-0.005773938,6.11999986320734,14
-41.80651,0.4833337,-39.69381,6.508792654960935,-1.629016756456064,5.516113946321198,6.521356,25.51735,0.1181692,0.05570178,0.2204302,-0.01155728,6.13999986276031,14
-41.78279,0.6833334,-39.64174,6.454993980193535,-1.4673495855819103,5.279436549673136,9.785613,25.52576,0.1774932,0.08352533,0.2199826,-0.01733722,6.15999986231327,14
-41.65554,0.2833333,-39.52711,6.329769931212532,-1.0960780993386452,4.983975906780295,4.614677,31.93201,0.1671662,0.03910765,0.2747872,-0.00967273,6.17999986186624,14
-41.6152,0.4833335,-39.45689,6.2602491649958765,-1.392197014655142,4.73004760977198,9.232813,31.95227,0.3350659,0.0781776,0.2741166,-0.01935023,6.1999998614192,14
-41.57487,0.683333,-39.38669,6.115025412214671,-1.4217011536982789,4.417065984611163,13.85269,31.98675,0.5072536,0.1171351,0.2729996,-0.02900207,6.21999986097217,14
-41.43285,0.2833335,-39.25966,5.900139048380424,-1.209924214243252,4.052146812297657,3.59841,37.58406,0.1995028,0.03028376,0.3219229,-0.008466616,6.23999986052513,14
-41.39726,0.4833335,-39.20781,5.760822337661111,-1.421469209861241,3.7523527408228494,7.195754,37.60297,0.4004659,0.0605288,0.3214455,-0.01692301,6.2599998600781,14
-41.3617,0.6833337,-39.15597,5.548087786656389,-1.3624267738447455,3.4007249402106297,10.79218,37.63453,0.6022425,0.09070052,0.3206493,-0.02537979,6.27999985963106,14
-41.32615,0.8833338,-39.10414,5.26936383263353,-1.0581309364096252,3.0056680350101743,14.38745,37.6796,0.8088952,0.1207742,0.3195367,-0.03380878,6.29999985918403,14
-41.19127,0.2833332,-39.00589,5.088699665660442,-1.173184150873932,2.700860024723255,3.635929,41.75183,0.2076853,0.03028706,0.3561116,-0.009612164,6.31999985873699,14
-41.15169,0.4833334,-38.95617,4.838308281240302,-1.0136776225441673,2.354386953637153,7.270722,41.77173,0.416922,0.06053426,0.3555723,-0.01921231,6.33999985828996,14
-41.11211,0.6833338,-38.90647,4.527187670441442,-0.6049451410174466,1.9758551896978744,10.90437,41.80532,0.6294657,0.09071148,0.3546743,-0.0287907,6.35999985784292,14
-40.96698,0.2833333,-38.79488,4.164599442116682,0.0287245948594953,1.5750681259608896,3.162747,46.64437,0.1788371,0.02595943,0.3957103,-0.009492954,6.37999985739589,14
-40.93187,0.4833338,-38.75665,3.886570895429472,0.0103366280617444,1.2653275359657528,6.125255,46.9572,0.403052,0.05040316,0.3976626,-0.01806424,6.39999985694885,14
-40.79668,0.2833335,-38.65039,3.56097618729936,0.0338000980070523,0.9403914715544984,3.039356,50.84854,0.2915115,0.02504356,0.4291044,-0.009088846,6.41999985650182,14
-40.75877,0.4833334,-38.61263,3.198746456510129,0.4622442110368838,0.610837269612432,6.081648,51.5324,0.6231489,0.05013311,0.4338216,-0.01816898,6.43999985605478,14
-40.72088,0.6833334,-38.57487,2.964474184466241,0.2341703118110092,0.4061573657206168,9.119018,52.23819,0.9932373,0.07517758,0.4382101,-0.02723743,6.45999985560775,14
-40.68299,0.8833334,-38.53712,2.703431360950788,0.015505255106176,0.2071579110763934,12.15009,52.97038,1.40496,0.1001538,0.4422673,-0.03628156,6.47999985516071,14
-40.53416,0.2833333,-38.43509,2.4271147268951125,-0.2481124457913123,0.0254259439790516,3.259221,54.64448,0.3914545,0.02683282,0.4587198,-0.01001916,6.49999985471368,14
-40.49184,0.4833333,-38.39634,2.291045515466024,-0.2909742914294217,-0.0352266276447892,6.512781,55.33612,0.8227311,0.0536359,0.4632255,-0.02002784,6.51999985426664,14
-40.44955,0.6833335,-38.3576,2.1473208906377224,-0.2998602438945903,-0.1008095052080761,9.76113,56.05738,1.296181,0.08039139,0.4673305,-0.03002898,6.53999985381961,14
-40.28559,0.2833337,-38.23203,2.0094629114518057,-0.328086259467728,-0.1615208724835213,3.356558,56.30818,0.3696672,0.02734344,0.4715563,-0.01097594,6.55999985337257,14
-40.24063,0.4833335,-38.19391,1.8059410179338613,0.2913193806112427,-0.2448491733249227,6.708767,56.99707,0.7794149,0.05466026,0.475958,-0.02195013,6.57999985292554,14
-40.19569,0.6833335,-38.15581,1.742260317787256,0.0141118627129311,-0.2163995873947399,10.05474,57.71556,1.233407,0.08191989,0.4799264,-0.03290136,6.5999998524785,14
-40.00586,0.2833336,-38.00708,1.6805602182989006,-0.2536870783729401,-0.1826943375155707,3.367083,56.34917,0.2541852,0.02694489,0.4718974,-0.01191709,6.61999985203147,14
-39.95961,0.4833339,-37.97058,1.5523890862756955,0.1538490802124152,-0.1723042947059738,6.730126,57.02598,0.5476058,0.05385481,0.476283,-0.02382759,6.63999985158443,14
-39.91338,0.6833338,-37.93409,1.5771636956841135,-0.0951332776944672,-0.0531338021258136,10.08852,57.72549,0.8838111,0.08070932,0.4802354,-0.035713,6.6599998511374,14
-39.86715,0.8833333,-37.89761,1.5956887689935542,-0.3347069126056184,0.0524001414951413,13.4416,58.45316,1.266135,0.1074841,0.4837512,-0.04756266,6.67999985069036,14
-39.70647,0.2833332,-37.77287,1.4956059027554005,0.1010550814808459,0.0756320641626118,3.332065,55.88523,0.1585236,0.0263321,0.468353,-0.01240194,6.69999985024333,14
-39.66009,0.4833333,-37.73771,1.551207414768122,-0.1197008197766129,0.193375300789576,6.660814,56.55077,0.3555027,0.05262902,0.4727489,-0.02479194,6.7199998497963,14
-39.61372,0.6833335,-37.70257,1.5807363003425152,-0.3310470956744905,0.2679835678990372,9.986077,57.23293,0.5932994,0.07887231,0.4767247,-0.03715641,6.73999984934926,14
-39.43716,0.2833333,-37.5646,1.4721843425492978,0.1329417244399168,0.2350837374297398,3.288711,54.62205,0.01473115,0.02555572,0.4586283,-0.0130519,6.75999984890223,14
-39.39071,0.4833335,-37.53092,1.3494049172813476,0.58072619346701,0.1807298797763223,6.576055,55.27295,0.06688779,0.05108194,0.4630668,-0.02608862,6.77999984845519,14
-39.34428,0.6833335,-37.49725,1.355599717407479,0.1073290686954712,0.2102225244394873,9.861365,55.93158,0.1567207,0.07655274,0.4671046,-0.03910246,6.79999984800816,14
-39.15134,0.2833336,-37.34637,1.3531766552943978,-0.3822721696808731,0.2171315928563046,3.24123,53.09926,359.9216,0.02499321,0.4468113,-0.01325289,6.81999984756112,14
-39.10548,0.4833336,-37.31325,1.2340057619733642,0.0169007978225335,0.1518360203457902,6.4822,53.74017,359.8794,0.04995839,0.4512989,-0.02649096,6.83999984711409,14
-39.05964,0.6833336,-37.28015,1.2601303191980475,-0.2404443588758528,0.1826294959362968,9.722488,54.38317,359.8735,0.07487467,0.4554065,-0.0397033,6.85999984666705,14
-39.0138,0.8833333,-37.24705,1.273263093352767,-0.4883809588859614,0.1907355075717092,12.96145,55.03252,359.9048,0.0997196,0.4591311,-0.05287788,6.87999984622002,14
-38.8494,0.2833332,-37.11713,1.1577615139110833,-0.0609816949423531,0.1084075342922901,3.196835,51.21115,359.8236,0.0244896,0.4320436,-0.01344254,6.89999984577298,14
-38.80418,0.4833333,-37.08434,1.1206747517751552,-0.2901018229354971,0.0837338854424132,6.394444,51.84122,359.6822,0.04895167,0.4365824,-0.02687036,6.91999984532595,14
-38.75897,0.6833333,-37.05155,0.9646205594159056,-0.0296207891286471,-0.0276612067019357,9.592483,52.46761,359.5753,0.0733672,0.4407623,-0.04027209,6.93999984487891,14
-38.56985,0.2833333,-36.9077,0.8043890705939205,0.2413147502249769,-0.144974509381548,3.53288,52.95021,359.8278,0.02692292,0.4456381,-0.01508677,6.95999984443188,14
-38.51897,0.4833334,-36.87265,0.7905807606226389,-0.1698794262264485,-0.1554589092373106,7.066494,53.57786,359.694,0.053812,0.4499937,-0.03015492,6.97999984398484,14
-38.46811,0.6833334,-36.8376,0.7769406049956871,-0.5983229396260081,-0.1690592869791132,10.60167,54.20244,359.5977,0.08064845,0.4539015,-0.04519891,6.99999984353781,14
-38.25871,0.2833333,-36.68415,0.6423163518111465,-0.1390383989882679,-0.2548342675084001,3.561975,55.3259,359.8866,0.02706718,0.4640722,-0.0153054,7.01999984309077,14
-38.20665,0.4833333,-36.65014,0.6692927098434183,-0.3373175587218281,-0.2223627418879488,7.124176,55.95701,359.8116,0.05409844,0.4683236,-0.03059729,7.03999984264374,14
-38.1546,0.6833333,-36.61614,0.6909169386351408,-0.5272334562855009,-0.1933254956397618,10.68597,56.58892,359.7757,0.08106814,0.4721031,-0.0458541,7.0599998421967,14
-38.10257,0.883333,-36.58215,0.5730474773526666,-0.0428596093301675,-0.2638081095851774,14.24697,57.22663,359.7798,0.10795,0.4754077,-0.06106067,7.07999984174967,14
-37.92476,0.2833337,-36.45164,0.4536443285750167,0.4242652271065895,-0.3327616271315747,3.595066,57.35865,0.01313554,0.02757449,0.4796676,-0.01495307,7.09999984130263,14
-37.87224,0.4833336,-36.41732,0.4654528807331175,-0.0308371880539635,-0.3012993847600285,7.189083,57.99921,0.06652439,0.05511575,0.483818,-0.02988822,7.1199998408556,14
-37.81974,0.6833335,-36.383,0.3086196307421858,0.2170989017085042,-0.3973699813586009,10.78125,58.64895,0.1613436,0.08259372,0.4874731,-0.04478806,7.13999984040856,14
-37.6256,0.2833333,-36.24123,0.1471877575574964,0.4754884340962081,-0.4933825315166444,3.555045,58.41833,0.1054102,0.02752311,0.4877393,-0.01433454,7.15999983996153,14
-37.57391,0.483333,-36.20689,0.1308926676782889,0.0517482245435868,-0.4796379654753977,7.107424,59.06554,0.2514216,0.05501014,0.491854,-0.02864793,7.17999983951449,14
-37.52224,0.683333,-36.17255,0.1142048866151697,-0.3892408449013219,-0.4629838902023238,10.65685,59.72762,0.4395631,0.0824344,0.4954758,-0.04292847,7.19999983906746,14
-37.30921,0.2833333,-36.02031,-0.0286140726087182,0.0574980949126345,-0.5410776269714361,3.62402,59.66864,0.1305275,0.02799594,0.4972133,-0.01474326,7.21999983862042,14
-37.25595,0.4833336,-35.98612,-0.0080343574133792,-0.1533263923568765,-0.4984337653628827,7.245267,60.31666,0.3022902,0.05595456,0.5012416,-0.02946702,7.23999983817339,14
-37.20272,0.6833338,-35.95194,0.0112685103228642,-0.3557881322342527,-0.4533018867769947,10.86395,60.98158,0.5169453,0.08385074,0.5047482,-0.04416207,7.25999983772635,14
-37.14949,0.8833334,-35.91776,-0.1150652423364704,0.1160404344028591,-0.5205570036278466,14.47891,61.66935,0.7779462,0.1116534,0.5077302,-0.05880707,7.27999983727932,14
-36.97182,0.2833333,-35.79029,-0.2369296717076636,0.5706199640376486,-0.5806785849164342,3.636458,60.54694,0.1413712,0.02802348,0.5038398,-0.01493041,7.29999983683228,14
-36.91796,0.4833332,-35.75665,-0.2226861310403691,0.102973027265838,-0.5345060084838131,7.270067,61.19355,0.3240944,0.05600996,0.5078126,-0.02984083,7.31999983638525,14
-36.86411,0.6833332,-35.72301,-0.3726927345527357,0.3383647552778021,-0.6164342514792054,10.90029,61.85788,0.5502706,0.08393003,0.5112539,-0.04471598,7.33999983593822,14
-36.66954,0.2833333,-35.58587,-0.5186731296134717,0.5842107420324474,-0.6927206992949202,3.58842,62.28974,0.210777,0.02774766,0.5169,-0.01462001,7.35999983549118,14
-36.616,0.4833336,-35.55322,-0.5103611981645457,0.1479250618097002,-0.6534041192521194,7.173167,62.9407,0.4626534,0.05545855,0.5208151,-0.02922118,7.37999983504415,14
-36.56248,0.6833335,-35.52057,-0.4913087586111224,-0.3056095113228958,-0.6035011943667499,10.75378,63.61353,0.7584107,0.08310595,0.5241985,-0.0437879,7.39999983459711,14
-36.43547,0.2833328,-35.4297,-0.5919163688540721,0.1285838758432964,-0.6508501716934525,3.531153,63.36699,0.2588354,0.0274041,0.5249166,-0.01426111,7.41999983415008,14
-36.38261,0.4833328,-35.39776,-0.5148959467521159,-0.0947854558080896,-0.5716754277757161,7.058062,64.02009,0.5583701,0.05477259,0.5288022,-0.02850357,7.43999983370304,14
-36.32975,0.683333,-35.36583,-0.4219079445846958,-0.3097914918364363,-0.4821622146529591,10.58021,64.69755,0.9015164,0.08207912,0.5321634,-0.04271343,7.45999983325601,14
-36.14615,0.2833338,-35.23545,-0.4740504271219095,0.1494928359730671,-0.507403765554951,3.477237,63.55974,0.2994526,0.02716687,0.5263455,-0.01375829,7.47999983280897,14
-36.09434,0.4833338,-35.20346,-0.5135632917743074,0.5915277337057485,-0.5239292814217151,6.949928,64.2142,0.6391796,0.05430049,0.5302317,-0.02749912,7.49999983236194,14
-36.04253,0.6833337,-35.17149,-0.414400387135057,0.1113356134033428,-0.4372772446999526,10.41709,64.89503,1.022407,0.08137275,0.5336067,-0.04120646,7.5199998319149,14
-35.84268,0.2833335,-35.03152,-0.4855554877820758,0.3341824455469419,-0.4800227899427085,3.424575,63.21832,0.2941224,0.02679219,0.523821,-0.0134761,7.53999983146787,14
-35.79183,0.4833337,-34.99974,-0.5493607921970067,0.5674833972193387,-0.5174107785198991,6.844265,63.8699,0.6277851,0.05354946,0.5277274,-0.02693298,7.55999983102083,14
-35.74099,0.6833337,-34.96796,-0.454925357645827,0.1186537422223575,-0.430200448814773,10.25892,64.54691,1.003789,0.08024964,0.5311397,-0.04036103,7.5799998305738,14
-35.69017,0.8833338,-34.9362,-0.3508410156362203,-0.3474243952735742,-0.3349100162411993,13.66786,65.2549,1.42587,0.1068677,0.5340552,-0.05374767,7.59999983012676,14
-35.52531,0.2833333,-34.81903,-0.3775870260868039,0.0742246165517701,-0.3397974254864593,3.37838,61.89655,0.1973574,0.02616626,0.5139962,-0.01368285,7.61999982967973,14
-35.47511,0.4833331,-34.78796,-0.2316609662581008,-0.1616901122425086,-0.2132730769953141,6.753057,62.53655,0.4326892,0.05229849,0.5179511,-0.02734841,7.63999982923269,14
-35.42492,0.6833328,-34.75689,-0.0831412158325903,-0.3892414616937579,-0.0845923245782245,10.12391,63.19559,0.7081988,0.07837617,0.5214353,-0.04098562,7.65999982878566,14
-35.24461,0.2833335,-34.63034,-0.0913933236423005,0.057497768744432,-0.075102206324896,3.327918,60.10155,0.09200843,0.02553622,0.5005357,-0.01384631,7.67999982833862,14
-35.19524,0.4833334,-34.59974,-0.0943455117744527,0.486988051911404,-0.0630664515295151,6.653285,60.73009,0.2207271,0.05104004,0.5045583,-0.02767449,7.69999982789159,14
-35.14589,0.6833332,-34.56914,0.1322664682859411,-0.0057486249364088,0.1187945541209565,9.97612,61.37095,0.3875021,0.07649255,0.5081365,-0.04147446,7.71999982744455,14
-34.94992,0.2833333,-34.43368,0.1662956648702511,0.2045534440188977,0.1571056666646733,3.278625,58.49942,359.9737,0.02484806,0.4884226,-0.01417798,7.73999982699752,14
-34.90107,0.483333,-34.40392,0.1881307356184152,0.4253092535415476,0.1850411979163126,6.556421,59.11569,359.9828,0.04966816,0.4925023,-0.02833983,7.75999982655048,14
-34.85223,0.683333,-34.37418,0.2077063684840254,0.6042480176393508,0.2098058323621963,9.832591,59.73692,0.02735156,0.07443523,0.4961605,-0.04247342,7.77999982610345,14
-34.8034,0.8833334,-34.34444,0.3667263480286777,-0.1646522129608812,0.34127881633081,13.10707,60.3674,0.1088291,0.0991317,0.4993948,-0.05656677,7.79999982565641,14
-34.64181,0.2833336,-34.22948,0.3781833720574603,-0.0170753887624058,0.3589500764168498,3.229304,56.2544,359.8744,0.02433293,0.4712704,-0.01425016,7.81999982520938,14
-34.59391,0.4833336,-34.19975,0.3840189864193561,0.1409559289606209,0.3703096245902912,6.458854,56.85969,359.7827,0.04863915,0.4754194,-0.02848435,7.83999982476234,14
-34.54602,0.6833338,-34.17002,0.5441262891371323,-0.3831432260860204,0.4980129265205057,9.688204,57.464,359.725,0.07289813,0.4791726,-0.04269039,7.85999982431531,14
-34.36797,0.2833329,-34.04482,0.5305857263227054,-0.2042036410793021,0.4954769948764088,3.284841,54.65024,359.8101,0.02470307,0.4588921,-0.01462855,7.87999982386827,14
-34.31945,0.4833329,-34.0141,0.50383458464675,-0.0148099754853397,0.4818027675657532,6.570495,55.24805,359.6542,0.0493775,0.4630567,-0.02924032,7.89999982342124,14
-34.27096,0.6833326,-33.98338,0.6425290755055642,-0.5075470888793255,0.592228641834172,9.856691,55.84115,359.5319,0.07400336,0.4668222,-0.04382285,7.91999982297421,14
-34.0738,0.2833333,-33.84752,0.6783018171129775,-0.2972446623934899,0.6213956409995163,3.535519,56.17797,359.8318,0.02652432,0.4706576,-0.01581861,7.93999982252717,14
-34.02103,0.4833333,-33.81532,0.7008934778701637,-0.0764880465976769,0.6402043604234109,7.071648,56.7752,359.7003,0.05301543,0.4746691,-0.03161743,7.95999982208014,14
-33.9683,0.6833336,-33.78314,0.7208976333785166,0.1024517622140935,0.6567051261868571,10.60991,57.36925,359.6045,0.07946,0.4782093,-0.04739255,7.9799998216331,14
-33.91558,0.8833336,-33.75097,0.7238907841946229,0.0538399066445794,0.6654769948762969,14.14801,57.96471,359.5452,0.1058197,0.4812757,-0.06311654,7.99999982118607,14
-33.75438,0.2833333,-33.63718,0.7116508780725717,0.0444305746098794,0.6617329254052358,3.564852,57.61265,359.8889,0.02678827,0.4816435,-0.01583656,8.01999982073903,14
-33.70098,0.4833333,-33.60522,0.6950073875848766,0.0209082863622132,0.6535390382713082,7.129887,58.2127,359.8148,0.05354297,0.4855781,-0.03165559,8.039999820292,14
-33.64759,0.6833333,-33.57327,0.6579359407186871,0.0099311502828188,0.6350386889297077,10.69448,58.81335,359.7779,0.08023681,0.4890249,-0.04743837,8.05999981984496,14
-33.46198,0.2833333,-33.43643,0.5998618489629486,0.038156795606258,0.5990853438760873,3.592754,58.53508,0.0261643,0.0274575,0.4886418,-0.01512637,8.07999981939793,14
-33.40893,0.4833337,-33.40302,0.5318088048134335,0.052269676985227,0.5538190690062912,7.184187,59.14636,0.09139363,0.0548836,0.4925216,-0.03022903,8.09999981895089,14
-33.35589,0.6833336,-33.36963,0.6335233919545331,-0.6413610373614779,0.635052192153907,10.77374,59.76727,0.1962112,0.08224697,0.4958995,-0.04529673,8.11999981850386,14
-33.15294,0.2833333,-33.22206,0.5891420138589716,-0.4185146432450483,0.6051880955718723,3.561666,59.19218,0.09447648,0.0274288,0.4936215,-0.01463153,8.13999981805682,14
-33.10059,0.4833333,-33.18854,0.5324711597408296,-0.1852136486236846,0.5645491839839423,7.12088,59.80791,0.2276453,0.05482176,0.4974774,-0.02924168,8.15999981760979,14
-33.04826,0.6833336,-33.15503,0.4749714602963131,0.0062713082618283,0.5215781871671368,10.67738,60.43745,0.4009233,0.08215216,0.5008348,-0.0438183,8.17999981716275,14
-32.99594,0.8833336,-33.12152,0.2718805635602912,0.7101271332042963,0.3701013438898997,14.23079,61.08615,0.6168035,0.1093938,0.5036908,-0.05834708,8.19999981671572,14
-32.74293,0.2833333,-32.9379,0.2420890097833599,0.4110348757788239,0.3514447578883022,3.634104,59.97021,0.1297255,0.02802972,0.4994922,-0.01486691,8.21999981626868,14
-32.68933,0.4833335,-32.90392,0.2073561122701903,0.1270664364727629,0.3261896602032479,7.265552,60.58722,0.2988729,0.05602234,0.5032734,-0.02971388,8.23999981582165,14
-32.63575,0.6833335,-32.86995,0.0034366664076763,0.5241483386676081,0.1772258366477466,10.8944,61.22078,0.5093306,0.0839523,0.5065298,-0.04452873,8.25999981537461,14
-32.58218,0.8833332,-32.83599,-0.0588309518151817,0.2704272217157455,0.137354997165275,14.51989,61.87659,0.7641598,0.1117897,0.5092588,-0.05929392,8.27999981492758,14
-32.40512,0.283333,-32.70582,-0.1295112965221569,0.0318297562273695,0.090102746482696,3.614172,60.90902,0.1534387,0.02786195,0.5065652,-0.01482962,8.29999981448054,14
-32.35149,0.483333,-32.67254,-0.196672457067752,-0.246005795845422,0.0443591805512397,7.225404,61.52575,0.3460664,0.05568685,0.5103039,-0.02963961,8.31999981403351,14
-32.29787,0.6833332,-32.63928,-0.2218548464240193,-0.2973710812338886,0.0302444345076793,10.83324,62.16043,0.5800858,0.08344653,0.5135165,-0.04441457,8.33999981358647,14
-32.10364,0.2833333,-32.498,-0.2530285466733666,-0.3090453966204226,0.0098717803661898,3.557321,62.4772,0.2419159,0.02763262,0.5182961,-0.01429246,8.35999981313944,14
-32.05072,0.4833333,-32.4653,-0.2780510404314782,-0.3343452857197474,-0.0078101690464826,7.110797,63.10007,0.522939,0.05522963,0.5219893,-0.02856639,8.3799998126924,14
-31.99782,0.6833336,-32.43261,-0.4410334757859466,0.2937025021036625,-0.1284711300926773,10.65987,63.7461,0.845832,0.0827633,0.5251592,-0.04280745,8.39999981224537,14
-31.78686,0.2833334,-32.28032,-0.4603741177031644,0.0308514355231791,-0.141852790449235,3.495512,62.8874,0.2901745,0.0273409,0.5213502,-0.01375087,8.41999981179833,14
-31.73506,0.4833333,-32.24774,-0.4678916849622183,-0.2168755768492611,-0.1511832396100487,6.986683,63.51238,0.61905,0.05464783,0.5250403,-0.02748375,8.4399998113513,14
-31.68327,0.6833333,-32.21518,-0.6306135864951301,0.2164470562097725,-0.2740420725482089,10.47257,64.16299,0.9897176,0.08189192,0.5282209,-0.04118298,8.45999981090426,14
-31.6315,0.8833331,-32.18262,-0.6416539010243234,-0.0010333076629195,-0.2820695999597511,13.95299,64.8448,1.405883,0.1090498,0.5308893,-0.05483863,8.47999981045723,14
-31.45612,0.2833334,-32.05193,-0.649826575028726,-0.203390506798019,-0.2905382646390144,3.436986,62.74976,0.3106502,0.02701455,0.5203299,-0.01329971,8.49999981001019,14
-31.40546,0.4833331,-32.01939,-0.6443723178541845,-0.4449852563088559,-0.2909284119897002,6.86906,63.37366,0.6595168,0.05399445,0.5240306,-0.02657909,8.51999980956316,14
-31.35482,0.6833331,-31.98685,-0.7447811954836361,0.1802055632410317,-0.3727063336082459,10.29605,64.02383,1.049336,0.0809161,0.5272384,-0.03982973,8.53999980911613,14
-31.16283,0.2833331,-31.84585,-0.6327456410587047,-0.0855034523826371,-0.2907762959908844,3.392611,60.97521,0.204434,0.0264137,0.5070832,-0.01348181,8.55999980866909,14
-31.11297,0.4833332,-31.81376,-0.5147951865663991,-0.3360883705879485,-0.203309021708204,6.781456,61.58735,0.4454409,0.05279255,0.5108505,-0.02694553,8.57999980822206,14
-31.06313,0.6833335,-31.78167,-0.5385808024092462,0.0943770775361547,-0.2275090035878584,10.16652,62.21877,0.725215,0.07911603,0.5141512,-0.04038088,8.59999980777502,14
-30.85522,0.2833333,-31.62997,-0.3830296704906395,-0.1259609765534098,-0.1172453073981962,3.340444,59.27351,0.121762,0.02585891,0.4942622,-0.01348987,8.61999980732799,14
-30.80637,0.483333,-31.59811,-0.2273961863277449,-0.3311756786025909,-0.0078816751529124,6.678097,59.87623,0.2790315,0.05168557,0.4980927,-0.02696111,8.63999980688095,14
-30.75754,0.6833332,-31.56626,-0.2403853471590551,0.1446603314472965,-0.0278211371495444,10.01287,60.49283,0.4731655,0.07745897,0.5014826,-0.04040464,8.65999980643392,14
-30.70872,0.8833332,-31.53442,-0.2507258026446202,0.6100078450245762,-0.047268489385118,13.34443,61.12787,0.7064145,0.1031576,0.5044292,-0.05380881,8.67999980598688,14
-30.65991,0.9766704,-31.50259,-0.113779979322615,0.1598888617563729,0.0462347783951706,16.67225,61.78643,0.9817576,0.1287588,0.5069304,-0.06716156,8.69999980553985,14
-30.45342,0.2833336,-31.3481,0.0324095937489374,-0.3007192678815549,0.1443976081132802,3.285214,57.03495,359.9735,0.02507659,0.4772364,-0.0138888,8.71999980509281,14
-30.40524,0.4833336,-31.31706,-0.0420295781462272,0.1331613129139044,0.0755512451849433,6.56959,57.6216,359.9806,0.05012479,0.4811356,-0.02776181,8.73999980464578,14
-30.35707,0.6833337,-31.28603,0.03561690570125,-0.0837622569204176,0.1221821733181052,9.852365,58.21294,0.02165951,0.07511963,0.484623,-0.04160662,8.75999980419874,14
-30.17513,0.2833335,-31.15038,0.1069515643832836,-0.2855619642053669,0.1624441097327391,3.231096,54.33671,359.8661,0.02454881,0.4564541,-0.01391255,8.77999980375171,14
-30.12814,0.4833335,-31.11917,0.1825811456787711,-0.526598843688657,0.2046980940550042,6.462448,54.91241,359.7645,0.04907064,0.4604393,-0.02780917,8.79999980330467,14
-30.08115,0.6833336,-31.08796,0.2935005235895325,-0.5411648217489679,0.2692954279087907,9.693683,55.48635,359.695,0.07354484,0.4640419,-0.04167871,8.81999980285764,14
-29.88244,0.2833333,-30.941,0.3917920869492413,-0.5160399522946523,0.3240021117433613,3.285202,52.87935,359.8095,0.02492673,0.4451144,-0.01425103,8.8399998024106,14
-29.83488,0.4833335,-30.90881,0.4883027579810104,-0.5045404301345555,0.3775180202837731,6.571174,53.44831,359.6514,0.04982497,0.44911,-0.02848562,8.85999980196357,14
-29.78734,0.6833334,-30.87662,0.4250542307035054,0.1603058908902342,0.3088461277241165,9.85764,54.01222,359.5252,0.07467427,0.4527197,-0.04269172,8.87999980151653,14
-29.73981,0.8833331,-30.84445,0.3630382428861409,0.6741761471204526,0.2420297872546726,13.14479,54.57479,359.4309,0.09945826,0.4559407,-0.05685791,8.8999998010695,14
-29.56861,0.2833333,-30.71756,0.476278729211181,0.1610177195404161,0.3160067916993867,3.535462,54.54276,359.8333,0.02675279,0.4580269,-0.01542688,8.91999980062246,14
-29.51679,0.4833333,-30.68386,0.4004852187736034,0.3581464898584126,0.2488312916009327,7.071454,55.1108,359.7015,0.05347214,0.4618664,-0.03083451,8.93999980017543,14
-29.465,0.6833333,-30.65018,0.315962152653082,0.5729779698814851,0.1764964011860996,10.60959,55.67539,359.6035,0.08014509,0.4652486,-0.04621966,8.95999979972839,14
-29.27955,0.2833334,-30.51361,0.3737635663970273,0.1129274062307647,0.2179591836864922,3.565099,56.0034,359.8891,0.02701081,0.4692969,-0.01545816,8.97999979928136,14
-29.22706,0.4833333,-30.48017,0.4256324736115111,-0.3571237695080411,0.257499089634436,7.130344,56.57484,359.8134,0.05398761,0.4730663,-0.03089984,8.99999979883432,14
-29.17458,0.6833335,-30.44674,0.3344833666537532,0.0678009009697335,0.1860998942522478,10.69511,57.14651,359.773,0.0809029,0.4763615,-0.04630604,9.01999979838729,14
-29.12212,0.8833337,-30.41332,0.4035797221771098,-0.1575894440507147,0.2388537243764794,14.25907,57.72295,359.7689,0.1077305,0.4791798,-0.06166132,9.03999979794025,14
-28.88866,0.2833331,-30.23969,0.4643706452225942,-0.3673681478108865,0.2869190346805297,3.587711,57.61732,0.05392993,0.02765592,0.4816371,-0.01467258,9.05999979749322,14
-28.83648,0.4833335,-30.20509,0.3588538811874606,0.1043914203124503,0.2090540512415799,7.173762,58.20208,0.1451154,0.05527904,0.4853289,-0.02932274,9.07999979704618,14
-28.7843,0.6833335,-30.17051,0.2497536315085184,0.5661498275940924,0.1299212195892529,10.75774,58.79785,0.2743579,0.08283931,0.4885289,-0.04393949,9.09999979659915,14
-28.57359,0.2833336,-30.01623,0.2726985278994576,0.1129291269771198,0.1568147723659905,3.567291,58.48895,0.09890126,0.02757973,0.4882767,-0.01445323,9.11999979615211,14
-28.5216,0.4833333,-29.98196,0.1086395980866044,0.3699957286250369,0.0433733319291071,7.132316,59.07606,0.2345068,0.05512351,0.4919347,-0.02888808,9.13999979570508,14
-28.46962,0.6833333,-29.94771,-0.0616317731615687,0.6447650530456654,-0.0740991519846971,10.69469,59.67692,0.4084964,0.08260434,0.4950997,-0.0432899,9.15999979525805,14
-28.41766,0.8833337,-29.91346,-0.2270367043647958,0.8849659961805436,-0.1871760140793661,14.25397,60.29667,0.6233198,0.109995,0.4977689,-0.05764412,9.17999979481101,14
-28.2401,0.2833339,-29.78142,-0.1999615375782362,0.1845759855173432,-0.1500577240927469,3.645443,59.31634,0.132201,0.02821073,0.4945418,-0.01473691,9.19999979436398,14
-28.18674,0.4833338,-29.7467,-0.1678155093556732,-0.424426435131619,-0.1087492965127943,7.2884,59.90473,0.3021824,0.0563851,0.4981233,-0.0294541,9.21999979391694,14
-28.13338,0.6833338,-29.71199,-0.3078793055562805,-0.0393322943983986,-0.2013313220661743,10.92836,60.50954,0.5118497,0.08449287,0.501184,-0.04413667,9.23999979346991,14
-27.9394,0.2833331,-29.56944,-0.2890607505581961,-0.3050411712437711,-0.1697884436666399,3.618061,59.99369,0.1487256,0.02798834,0.4996673,-0.01465916,9.25999979302287,14
-27.88621,0.4833333,-29.53536,-0.2703597607284003,-0.5556266654704929,-0.1369243226917476,7.233309,60.58176,0.3349083,0.05593956,0.5032244,-0.02929852,9.27999979257584,14
-27.83302,0.6833335,-29.50129,-0.4002173322039759,-0.1251612440914851,-0.2191599948996341,10.84537,61.18715,0.5606244,0.0838255,0.5062631,-0.0439035,9.2999997921288,14
-27.6218,0.2833333,-29.34776,-0.3514880814325849,-0.3454992964386978,-0.1660611443289781,3.558194,61.83463,0.2449591,0.0277325,0.5134948,-0.01411843,9.31999979168177,14
-27.56926,0.4833333,-29.31444,-0.3022433036956435,-0.5507138354037774,-0.1132430998398561,7.11266,62.42965,0.5273221,0.05542946,0.5170007,-0.02821854,9.33999979123473,14
-27.51673,0.6833333,-29.28112,-0.4224758814874256,-0.0748774341959737,-0.1906060246905028,10.66291,63.04768,0.849826,0.08306327,0.5199896,-0.04228644,9.3599997907877,14
-27.46422,0.8833332,-29.2478,-0.5395832992005687,0.390469579152187,-0.2673358922543478,14.20805,63.69416,1.215906,0.1106035,0.5224591,-0.05630787,9.37999979034066,14
-27.41172,0.9766707,-29.2145,-0.5036954839873964,-0.0596495983882109,-0.2308066129083421,17.74779,64.37534,1.630354,0.1380264,0.5244073,-0.07026888,9.39999978989363,14
-27.20573,0.2833331,-29.0587,-0.4546213608694494,-0.5202573383492225,-0.1900013938687195,3.4884,62.33873,0.3006614,0.02740069,0.5172597,-0.01350942,9.41999978944659,14
-27.15443,0.483333,-29.02554,-0.5293195333168477,-0.0863766109348853,-0.2496941563147743,6.972474,62.93541,0.6381399,0.05476672,0.520755,-0.02700175,9.43999978899956,14
-27.10315,0.6833332,-28.99239,-0.5900745290742933,0.3370150759575836,-0.3021920262901147,10.45126,63.55796,1.015733,0.08206982,0.5237483,-0.04046013,9.45999978855252,14
-26.92015,0.2833335,-28.85553,-0.429804952448297,-0.1550593192286538,-0.2229303477434889,3.42852,61.55486,0.2854095,0.02697566,0.5114098,-0.01316867,9.47999978810549,14
-26.8701,0.4833337,-28.8224,-0.417605146546439,0.0626650155851005,-0.2583225075101545,6.852496,62.14788,0.6070618,0.05391641,0.5149429,-0.02631693,9.49999978765845,14
-26.82006,0.6833336,-28.78929,-0.4012291592864443,0.2976039405890678,-0.2899056952120986,10.27195,62.76521,0.9674784,0.08079995,0.517996,-0.03943706,9.51999978721142,14
-26.6207,0.2833335,-28.64182,-0.2019032053925826,-0.1428278306680631,-0.1997982966648237,3.380215,59.85262,0.1870841,0.02637531,0.4986263,-0.01329963,9.53999978676438,14
-26.57151,0.4833336,-28.60914,0.0013420201286145,-0.5937488564078272,-0.1009351026208236,6.756995,60.43472,0.4088412,0.0527164,0.5022222,-0.02658142,9.55999978631735,14
-26.52233,0.6833336,-28.57646,0.0025186039697047,-0.1501807109493472,-0.1528642429272828,10.13039,61.03463,0.6672596,0.07900302,0.5053642,-0.03983567,9.57999978587031,14
-26.47316,0.8833336,-28.5438,0.0054692065618056,0.2828978956747279,-0.1993226259902556,13.4999,61.65701,0.9651014,0.1052117,0.50805,-0.05304993,9.59999978542328,14
-26.30728,0.2833333,-28.41853,0.142839092106783,-0.1994891084738159,-0.1328440142263467,3.328096,58.24717,0.09131208,0.02575533,0.4864694,-0.01343734,9.61999978497624,14
-26.2589,0.4833333,-28.38638,0.0982935670752951,0.0279231399959673,-0.2005383778934089,6.653748,58.81828,0.2159743,0.05147781,0.490119,-0.02685719,9.63999978452921,14
-26.21054,0.6833333,-28.35424,0.0513498084396601,0.272550141652946,-0.2665827869487778,9.977056,59.40102,0.3752387,0.07714846,0.4933396,-0.04025007,9.65999978408217,14
-26.16219,0.8833333,-28.32211,0.1530304023027113,-0.1581934684471214,-0.2112390122836522,13.2976,59.99966,0.5710545,0.102745,0.4961289,-0.05360388,9.67999978363514,14
-25.94842,0.2833333,-28.16127,0.256377729622578,-0.5994264732020033,-0.1514234053441931,3.274649,55.76721,359.9441,0.02502737,0.4674982,-0.01379399,9.6999997831881,14
-25.90079,0.4833333,-28.12971,0.2213874258087003,-0.1461710989187594,-0.1963342753526404,6.548716,56.32314,359.9199,0.05002634,0.4712242,-0.02757223,9.71999978274107,14
-25.85317,0.6833333,-28.09816,0.190549058531392,0.2965953701362127,-0.2345122025467496,9.821553,56.88171,359.9277,0.07497332,0.4745505,-0.04132183,9.73999978229403,14
-25.66418,0.2833334,-27.95639,0.3651159796394729,-0.1761047633279188,-0.1093018658721867,3.219362,52.83748,359.8308,0.02450017,0.4447892,-0.01382016,9.759999781847,14
-25.61779,0.4833333,-27.92458,0.3713923043928879,0.0609948558811611,-0.1098337448066111,6.439245,53.38213,359.692,0.04897318,0.4486039,-0.02762496,9.77999978139997,14
-25.57142,0.6833336,-27.89279,0.3698786190929048,0.3153085410940018,-0.1124489970033977,9.65931,53.92266,359.5832,0.07339893,0.4520492,-0.04140293,9.79999978095293,14
-25.36434,0.2833333,-27.73886,0.5381632653170421,-0.1057477956642196,0.0194353648690537,3.374385,52.62768,359.8148,0.02567597,0.4431376,-0.01449928,9.8199997805059,14
-25.31572,0.4833333,-27.70544,0.5083063123761349,0.1829950568614082,0.0057930922850779,6.749437,53.16882,359.6613,0.05132192,0.4468933,-0.02898149,9.83999978005886,14
-25.26712,0.6833335,-27.67203,0.4601144550816798,0.4889526115233357,-0.0170350317076639,10.12482,53.70496,359.5389,0.07691487,0.4502462,-0.04343357,9.85999977961183,14
-25.21853,0.8833333,-27.63863,0.4040752033867534,0.7598539761330441,-0.0409942031845673,13.50157,54.2398,359.4474,0.1024425,0.4531929,-0.05784794,9.87999977916479,14
-25.04013,0.2833333,-27.50752,0.480874512370157,0.0896770306668965,0.0475911206400105,3.538491,56.17312,359.8786,0.0267398,0.4706091,-0.01547007,9.89999977871776,14
-24.98778,0.4833333,-27.47466,0.5539008375590342,-0.4896004131117836,0.1385606869861497,7.077101,56.71745,359.7905,0.05344623,0.4741833,-0.0309223,9.91999977827072,14
-24.93545,0.6833335,-27.44181,0.450161707654523,-0.0752685557824884,0.0934374243283286,10.61658,57.26078,359.7347,0.08009788,0.4772893,-0.04635261,9.93999977782369,14
-24.88314,0.8833334,-27.40897,0.3453492369478077,0.3280866083731623,0.0510401490175951,14.15545,57.80744,359.7127,0.1066641,0.4799251,-0.06173293,9.95999977737665,14
-24.64651,0.2833336,-27.26716,0.4325851617966734,-0.1845128533273441,0.1633079153403827,3.574978,58.98976,359.974,0.02703822,0.4921123,-0.01555501,9.97999977692962,14
-24.59296,0.4833333,-27.23516,0.3587586094050152,0.012198537644141,0.1524001763377285,7.149411,59.54075,359.9817,0.05404212,0.4955679,-0.03109641,9.99999977648258,14
-24.53942,0.6833333,-27.20317,0.276876730383325,0.2256365743101894,0.1371447476059657,10.72254,60.09712,0.02445387,0.08098412,0.498526,-0.04660231,10.0199997760355,14
-24.32809,0.2833331,-27.06861,0.3564574944741459,-0.2367839235841848,0.2487317684809689,3.570855,59.35336,0.07595767,0.02739786,0.4948467,-0.01485013,10.0399997755885,14
-24.27533,0.483333,-27.03545,0.2509160761651401,0.010106881068594,0.2198981769892256,7.139739,59.91241,0.1875538,0.05476305,0.49828,-0.02967625,10.0599997751415,14
-24.22258,0.683333,-27.0023,0.1318745263085681,0.2737240465414612,0.1813817283197139,10.70633,60.48346,0.3355977,0.08206612,0.5012145,-0.04446847,10.0799997746944,14
-24.16985,0.8833328,-26.96915,0.0107166117638612,0.5017973578108208,0.1414303486386856,14.27026,61.07138,0.5222871,0.1092802,0.5036476,-0.05921196,10.0999997742474,14
-24.00258,0.2833334,-26.84271,0.0234622615476922,-0.2116958808199086,0.207618972128678,3.595459,59.78111,0.1007913,0.02763623,0.4980754,-0.01487145,10.1199997738004,14
-23.94941,0.4833336,-26.80936,-0.0988180322825087,-0.0024396459892543,0.164962321660063,7.188708,60.34034,0.2368715,0.05523637,0.5014682,-0.02972357,10.1399997733533,14
-23.89626,0.6833336,-26.77601,-0.2191952513849884,0.2235433014422618,0.1212515572381249,10.77971,60.91327,0.4098985,0.08277524,0.5043521,-0.04454271,10.1599997729063,14
-23.71113,0.2833333,-26.63774,-0.1842709129993913,-0.2263319920132974,0.1969369112055616,3.642026,59.69887,0.1145453,0.02805888,0.4974433,-0.01494973,10.1799997724593,14
-23.65742,0.4833333,-26.60369,-0.1422002589033475,-0.68718407020307,0.2747259978126024,7.281727,60.258,0.264885,0.05608077,0.5008072,-0.02987958,10.1999997720122,14
-23.60373,0.6833335,-26.56964,-0.2792432357457493,-0.2540357720449046,0.2091040828636963,10.9187,60.83199,0.4528144,0.08403651,0.50365,-0.04477409,10.2199997715652,14
-23.55006,0.8833335,-26.53561,-0.406512988349327,0.168135978338853,0.1464500284988794,14.55301,61.42608,0.6811783,0.111902,0.5059691,-0.0596185,10.2399997711182,14
-23.31715,0.2833333,-26.36194,-0.3197463048980431,-0.3256462223208064,0.2462716726862517,3.597486,61.06782,0.1997688,0.0279213,0.50775,-0.01444619,10.2599997706711,14
-23.26406,0.4833331,-26.32827,-0.3941264894827085,-0.1101173500752445,0.2158299081719867,7.191836,61.6326,0.4353783,0.05580648,0.5110703,-0.02887359,10.2799997702241,14
-23.21099,0.6833329,-26.29461,-0.4653873421548091,0.1221380012089572,0.1809535715705266,10.78258,62.21749,0.7092623,0.08362699,0.5138707,-0.04326735,10.2999997697771,14
-23.00114,0.2833333,-26.14039,-0.3476189721072273,-0.3214648028444531,0.2825365066312919,3.529389,62.02127,0.2676202,0.02759596,0.5148898,-0.01386471,10.31999976933,14
-22.94911,0.4833331,-26.10713,-0.4107116634654701,-0.0557558845311149,0.237118185456655,7.054987,62.59025,0.5707811,0.05515723,0.518194,-0.02771163,10.339999768883,14
-22.8971,0.6833333,-26.07388,-0.4744592611982874,0.2266795902683872,0.1812409898759313,10.57625,63.18306,0.912279,0.08265612,0.5209888,-0.04152721,10.359999768436,14
-22.8451,0.8833332,-26.04064,-0.5277219276582343,0.4735707298882438,0.1228728588789316,14.09231,63.80494,1.295832,0.1100638,0.5232726,-0.05529584,10.3799997679889,14
-22.67112,0.2833336,-25.90844,-0.4264767038793806,-0.2211047863269588,0.1740534414167172,3.46607,62.07315,0.3053195,0.02728599,0.5152784,-0.01331063,10.3999997675419,14
-22.62035,0.4833338,-25.87517,-0.4631481155499664,0.0069690660296609,0.1082809437383751,6.92764,62.64283,0.6458843,0.054537,0.5185897,-0.02660107,10.4199997670949,14
-22.56959,0.6833336,-25.8419,-0.4926951215803612,0.2517692865242477,0.0385271292952893,10.38454,63.23812,1.024428,0.08172851,0.5214081,-0.03986216,10.4399997666478,14
-22.51885,0.8833336,-25.80865,-0.5045714860593762,0.461025434934267,-0.0270554433564882,13.83627,63.86408,1.444716,0.1088353,0.5237316,-0.05308152,10.4599997662008,14
-22.29713,0.2833334,-25.6405,-0.305482117365667,-0.271285063866132,0.0647478556119018,3.4111,60.42656,0.2359635,0.0267557,0.5029433,-0.01319869,10.4799997657537,14
-22.24756,0.4833333,-25.60731,-0.3108887560734459,-0.0808467600975991,0.0298887682904265,6.818332,60.98729,0.5059131,0.05347689,0.5063137,-0.0263778,10.4999997653067,14
-22.19801,0.6833336,-25.57413,-0.3150990352504301,0.1263184893113104,-0.0061412315179261,10.22171,61.56879,0.8120013,0.08014148,0.509219,-0.03952897,10.5199997648597,14
-22.00007,0.2833332,-25.42567,-0.1496184947034322,-0.3423738310130517,0.0884315351794278,3.355788,58.59841,0.1435369,0.0261476,0.4891281,-0.01323715,10.5399997644126,14
-21.95156,0.4833331,-25.3928,-0.1713851258841856,-0.101754628818382,0.0606312104050488,6.708625,59.14892,0.3196943,0.05226173,0.4925648,-0.0264557,10.5599997639656,14
-21.90307,0.683333,-25.35994,-0.2007530268907764,0.1555913840715382,0.0269179195734921,10.05864,59.71411,0.5299916,0.0783225,0.4955642,-0.03964702,10.5799997635186,14
-21.85459,0.8833331,-25.32708,-0.2272955306847279,0.3773934376070317,-0.004437255297617,13.40542,60.29828,0.7767053,0.1043069,0.4981242,-0.05279941,10.5999997630715,14
-21.68933,0.2833333,-25.20117,-0.1166253525990939,-0.3423711192171567,0.0735852628532391,3.303864,56.90798,0.02558711,0.02545162,0.4762492,-0.01353879,10.6199997626245,14
-21.64143,0.4833331,-25.1691,-0.1331644413841211,-0.1393868724270022,0.0470965628739179,6.606401,57.44579,0.08227509,0.05087437,0.4797392,-0.02706197,10.6399997621775,14
-21.59355,0.6833332,-25.13704,-0.145000435578666,0.0803237783935617,0.0236678851619416,9.906891,57.99087,0.1706495,0.07624257,0.4828165,-0.04055776,10.6599997617304,14
-21.41278,0.2833331,-25.00002,-0.1419306561429358,0.2644902740193909,0.0115159852146859,3.253912,54.81619,359.9211,0.02488799,0.4601569,-0.01368074,10.6799997612834,14
-21.36573,0.4833331,-24.96822,-0.0994062065953578,0.2273784223701667,0.0296351516040616,6.507419,55.34332,359.872,0.04974777,0.4637113,-0.02734601,10.6999997608364,14
-21.31871,0.6833329,-24.93643,-0.0613351726666628,0.2357419203673331,0.0434605366200706,9.760307,55.8714,359.8529,0.07455941,0.4668781,-0.04098451,10.7199997603893,14
-21.27169,0.8833331,-24.90464,-0.0174615767842567,0.2362647855947017,0.0613073473327325,13.01192,56.40392,359.8644,0.09929995,0.4696554,-0.05458258,10.7399997599423,14
-21.04413,0.2833333,-24.73128,0.1908624814312425,-0.4646834653457404,0.2078474292580949,3.201828,51.43341,359.7866,0.02436267,0.4337986,-0.01379966,10.7599997594953,14
-20.99829,0.4833332,-24.69914,0.1918101725541099,-0.24288236679311,0.1927090604127066,6.404536,51.94711,359.6017,0.04869886,0.4374443,-0.02758401,10.7799997590482,14
-20.95246,0.683333,-24.66702,0.1874807252453756,-0.0043546529499493,0.1736472470080521,9.607817,52.45387,359.4446,0.07298888,0.4407341,-0.04134184,10.7999997586012,14
-20.74378,0.2833333,-24.51087,0.3548263921041723,-0.4416841439916552,0.2885727179221149,3.533649,52.87012,359.8098,0.02686943,0.4450168,-0.01521177,10.8199997581542,14
-20.69271,0.4833334,-24.47603,0.3279555508794445,-0.1697030117419432,0.2557336693853251,7.067928,53.38307,359.6509,0.05370547,0.4484986,-0.03040476,10.8399997577071,14
-20.64167,0.6833334,-24.44121,0.2857211244528344,0.119005031388229,0.2126611893047467,10.60378,53.89042,359.5223,0.08049053,0.451539,-0.04557133,10.8599997572601,14
-20.59066,0.8833333,-24.4064,0.2385827190180691,0.3721690814494757,0.1678065014209195,14.14105,54.39597,359.4242,0.1072006,0.4541351,-0.06069504,10.879999756813,14
-20.41517,0.2833332,-24.27409,0.196974624401335,0.4236887554729316,0.1296509285967033,3.562084,54.83678,359.8715,0.0270725,0.4602929,-0.015307,10.899999756366,14
-20.36321,0.4833332,-24.23989,0.1886422116103716,0.3558060191273048,0.1199992420874771,7.124346,55.35326,359.7744,0.05410994,0.4636909,-0.03059896,10.919999755919,14
-20.31127,0.683333,-24.20571,0.1703662771436391,0.3338864475541159,0.1043072410490282,10.68635,55.86814,359.7091,0.08108667,0.4666271,-0.04585617,10.9399997554719,14
-20.25935,0.8833331,-24.17154,0.1530641516489694,0.3046145103031621,0.0911972655639417,14.24774,56.38543,359.6758,0.1079754,0.469099,-0.06106347,10.9599997550249,14
-20.03621,0.2833331,-24.00146,0.2879327957683912,-0.4256409158150434,0.2004890606563343,3.589836,56.42612,0.01869922,0.02767801,0.4725152,-0.01466385,10.9799997545779,14
-19.98437,0.4833328,-23.96631,0.2225698813718999,-0.232658805409196,0.1538602233449104,7.178567,56.95446,0.07099131,0.055324,0.47584,-0.02930661,10.9999997541308,14
-19.93254,0.6833328,-23.93116,0.151637287724796,-0.0224620516714139,0.1038734042340721,10.76558,57.49085,0.1573969,0.08290625,0.4786846,-0.04391561,11.0199997536838,14
-19.7325,0.2833333,-23.78034,0.2442699111660005,-0.487636073384604,0.1825739410525102,3.560813,57.24642,0.09344143,0.02766242,0.4787938,-0.01416807,11.0399997532368,14
-19.6813,0.4833333,-23.74512,0.1552477536817633,-0.2430106055196615,0.1213183764173848,7.119365,57.78009,0.220404,0.0552886,0.4820928,-0.02831588,11.0599997527897,14
-19.63011,0.6833334,-23.70991,0.0552346860454306,0.0188294394678584,0.0521106846322751,10.67555,58.32648,0.3822827,0.08285262,0.4849127,-0.04243127,11.0799997523427,14
-19.57893,0.8833334,-23.67471,-0.0445544545746301,0.2456135305789069,-0.016387094740601,14.22903,58.89021,0.5812315,0.1103272,0.4872512,-0.05650098,11.0999997518957,14
-19.41161,0.2833333,-23.54699,-0.0081090084716777,-0.4686811304204783,0.0241759113034731,3.634751,58.12035,0.1239773,0.02824664,0.4854533,-0.01445907,11.1199997514486,14
-19.35904,0.4833334,-23.51142,-0.1046861327902668,-0.2597386898738676,-0.0417948049946446,7.267157,58.65516,0.2821428,0.05645618,0.4886801,-0.02889903,11.1399997510016,14
-19.3065,0.6833335,-23.47585,-0.1977299599002755,-0.0335814924811186,-0.1052816075531382,10.89754,59.20506,0.4761416,0.08460394,0.491401,-0.04330939,11.1599997505546,14
-19.25396,0.8833334,-23.4403,-0.2758962307627435,0.1575194659864476,-0.1573977718708654,14.52486,59.77502,0.7088144,0.1126572,0.4936138,-0.05767095,11.1799997501075,14
-19.03949,0.2833334,-23.27666,-0.3123447346926582,0.1278295302443732,-0.1751239944354488,3.621917,58.7908,0.1519724,0.02818388,0.4905517,-0.01435639,11.1999997496605,14
-18.98697,0.4833334,-23.2414,-0.3509314611104255,0.1441029590353379,-0.1945085610341941,7.241232,59.32613,0.3380994,0.05633093,0.4937468,-0.02869382,11.2199997492135,14
-18.93447,0.6833336,-23.20616,-0.3798776956274672,0.1530239187399753,-0.2065031701986051,10.85753,59.8783,0.560402,0.08441203,0.4964345,-0.04299765,11.2399997487664,14
-18.74294,0.2833333,-23.06194,-0.2340426475299573,-0.5390384977796169,-0.0815382698698989,3.559572,60.53634,0.2429869,0.02789239,0.5037467,-0.01382424,11.2599997483194,14
-18.69112,0.4833331,-23.02748,-0.2880613377345895,-0.3078638760876871,-0.1135602426648603,7.115703,61.07827,0.5200811,0.05574917,0.5068997,-0.02763071,11.2799997478724,14
-18.6393,0.6833329,-22.99302,-0.3365639695566429,-0.0594745624522143,-0.1432431521131825,10.66794,61.64244,0.8339286,0.08354247,0.5095478,-0.0414058,11.2999997474253,14
-18.43124,0.2833335,-22.83717,-0.1973353347065174,-0.4864554821350417,-0.0310542620433551,3.496201,61.059,0.2907412,0.02756451,0.5076772,-0.01331169,11.3199997469783,14
-18.38047,0.4833333,-22.80298,-0.2424670390573862,-0.2036375151804764,-0.0630854780131038,6.98856,61.60324,0.615181,0.05509491,0.5108268,-0.02660685,11.3399997465312,14
-18.32972,0.6833334,-22.7688,-0.2933852583045002,0.0963948117996661,-0.1016923198789783,10.47614,62.17219,0.9763715,0.08256176,0.5134845,-0.03986955,11.3599997460842,14
-18.27898,0.8833336,-22.73464,-0.3396672021415359,0.3613708456674994,-0.1386758128407414,13.95888,62.77075,1.377856,0.1099418,0.5156479,-0.05309005,11.3799997456372,14
-18.22826,0.9766704,-22.70048,-0.3708958387341337,0.425190893425353,-0.1658216319812666,17.43625,63.40463,1.824218,0.1372096,0.5173157,-0.06625579,11.3999997451901,14
-18.02411,0.2833334,-22.54251,-0.3609078958065872,0.3700971459408732,-0.1600995056851992,3.433151,60.60154,0.2924473,0.02715012,0.5042452,-0.01291118,11.4199997447431,14
-17.97459,0.4833336,-22.50844,-0.3524765348733325,0.3614545529385043,-0.1567066942790873,6.861963,61.14279,0.6180057,0.05426462,0.5074147,-0.02580289,11.4399997442961,14
-17.92508,0.6833338,-22.47437,-0.3352471351308601,0.3459472920370463,-0.1472058082933891,10.28651,61.70819,0.9792941,0.08132149,0.5101123,-0.03866686,11.459999743849,14
-17.74414,0.2833333,-22.33613,-0.1599463791245536,-0.3700550929808285,-0.0106281699812562,3.381903,58.74353,0.1853202,0.02650807,0.4902185,-0.01306436,11.479999743402,14
-17.69553,0.4833334,-22.30253,-0.1781392295594344,-0.1623322954438162,-0.0266750967344968,6.76055,59.27319,0.4022233,0.05298154,0.4934538,-0.02611115,11.499999742955,14
-17.64694,0.6833335,-22.26894,-0.1968027588318133,0.0630931516000256,-0.0433242759998115,10.13606,59.81996,0.6526481,0.07940029,0.4962451,-0.03913076,11.5199997425079,14
-17.45016,0.2833334,-22.11964,-0.0466065787633489,-0.3863633569540541,0.0712808374533295,3.328926,57.01215,0.08768828,0.02588993,0.4770309,-0.01319022,11.5399997420609,14
-17.40243,0.4833333,-22.08652,-0.0727384451528454,-0.1255335399183818,0.0475340150669367,6.655568,57.53137,0.2057419,0.05174718,0.4803253,-0.02636317,11.5599997416139,14
-17.35471,0.6833333,-22.05341,-0.1061593258418884,0.1529986491546368,0.0168132303813663,9.980046,58.06147,0.3553319,0.07755248,0.4832013,-0.03950945,11.5799997411668,14
-17.307,0.8833333,-22.02031,-0.1366318254368597,0.3969624370790993,-0.0128195864608997,13.30203,58.60632,0.5382191,0.1032835,0.4856569,-0.0526177,11.5999997407198,14
-17.14235,0.2833335,-21.8938,0.0563435708174111,-0.299664311065741,0.1298647412614997,3.278656,55.42041,359.9706,0.02520745,0.4648159,-0.01352975,11.6199997402728,14
-17.0951,0.4833336,-21.86155,0.1089953949723039,-0.07256594382334,0.1592639610364443,6.556484,55.92729,359.9702,0.05038648,0.4681571,-0.02704409,11.6399997398257,14
-17.04787,0.6833337,-21.82931,0.1541492358990517,0.1722343254570885,0.1820195596474043,9.832894,56.43779,-0.001041969,0.07551264,0.4711024,-0.04053187,11.6599997393787,14
-17.00065,0.8833337,-21.79708,0.2021959640242183,0.3824662961263457,0.2064347567857467,13.108,56.95543,0.05798454,0.1005686,0.47365,-0.05398178,11.6799997389317,14
-16.78941,0.2833335,-21.63354,0.3933302174352722,-0.3478924874161068,0.34457094594935,3.223726,51.81701,359.8162,0.02460097,0.4368024,-0.01373241,11.6999997384846,14
-16.74337,0.4833336,-21.60109,0.3979132204477658,-0.1545262419048375,0.3337252956427399,6.447969,52.30871,359.6599,0.04917476,0.4402411,-0.02744942,11.7199997380376,14
-16.69734,0.6833336,-21.56864,0.3989651129028271,0.0565423641442591,0.3192353603362221,9.672498,52.79493,359.5305,0.07370164,0.4433183,-0.04114006,11.7399997375906,14
-16.50758,0.2833333,-21.42325,0.5543113181483097,-0.4072712107777321,0.4269313443902476,3.375041,51.47402,359.8074,0.02579745,0.4340967,-0.01430136,11.7599997371435,14
-16.45954,0.4833333,-21.38897,0.540982555583712,-0.1607975286488535,0.4022727668807988,6.750658,51.96291,359.6433,0.0515646,0.437483,-0.02858603,11.7799997366965,14
-16.41151,0.6833334,-21.35469,0.5184519816705109,0.1033787243196824,0.3708683618676289,10.1266,52.44579,359.507,0.07727891,0.4404767,-0.04284114,11.7999997362494,14
-16.20349,0.2833332,-21.19777,0.4971054837099089,0.3329869237387837,0.3412160655354661,3.538799,53.29233,359.8456,0.02699345,0.4483024,-0.01505164,11.8199997358024,14
-16.1525,0.4833332,-21.16279,0.4984319010692442,0.3422915862714311,0.3334127177812576,7.077909,53.78269,359.7211,0.0539534,0.4515702,-0.0300857,11.8399997353554,14
-16.10153,0.6833332,-21.12782,0.4760346693173201,0.3980477140345835,0.3090839325661036,10.61816,54.26942,359.6258,0.08086106,0.454394,-0.04509395,11.8599997349083,14
-16.05057,0.883333,-21.09287,0.440793022586007,0.4469388972132255,0.2769015850261809,14.15808,54.75623,359.5602,0.1076825,0.4567717,-0.06005389,11.8799997344613,14
-15.99963,0.9766702,-21.05792,0.4035623422150944,0.4356490456267277,0.2455421501055781,17.6974,55.24694,359.525,0.1343917,0.4587015,-0.07495078,11.8999997340143,14
-15.7939,0.2833333,-20.8994,0.4971886374356913,-0.4148428741310253,0.3230088232770249,3.575209,55.35242,359.9496,0.02742144,0.4642605,-0.01487802,11.9199997335672,14
-15.74223,0.4833333,-20.86443,0.4108426273334569,-0.2424892151928478,0.2575214875590248,7.149992,55.84998,359.9301,0.05480935,0.4674374,-0.02973965,11.9399997331202,14
-15.69057,0.6833332,-20.82947,0.3204533511584717,-0.0529213463326741,0.1898973580812999,10.72379,56.35071,359.942,0.08213535,0.4701472,-0.04456715,11.9599997326732,14
-15.50875,0.2833331,-20.68907,0.3768915403673372,-0.5387240224974873,0.2409968777150055,3.571096,56.29762,0.07843322,0.02779611,0.4715152,-0.01409629,11.9799997322261,14
-15.45783,0.4833331,-20.65313,0.2754827794754604,-0.3147268740299691,0.1683396348468306,7.140292,56.80586,0.1892661,0.05555868,0.4746549,-0.02817009,11.9999997317791,14
-15.40693,0.683333,-20.61719,0.1685982346560077,-0.0735155075385218,0.0922891449846723,10.70734,57.3256,0.3333053,0.08325836,0.4773214,-0.042212,12.0199997313321,14
-15.20696,0.2833333,-20.46522,0.067398529810351,0.1326395305579947,0.021529575554549,3.595485,57.14655,0.1079899,0.02800103,0.4780206,-0.01417716,12.039999730885,14
-15.15542,0.4833331,-20.42937,-0.0034875604748769,0.1180043406329689,-0.0233650818730488,7.188859,57.65612,0.2481851,0.05596606,0.4811142,-0.02833596,12.059999730438,14
-15.10391,0.6833331,-20.39355,-0.0895263068878424,0.1493325796208722,-0.0799189022401627,10.78004,58.17918,0.421999,0.08386791,0.4837213,-0.04246475,12.079999729991,14
-15.05241,0.883333,-20.35773,-0.179199764079188,0.1733080660418563,-0.1391479465429341,14.36845,58.72032,0.6319919,0.1116779,0.4858401,-0.05654673,12.0999997295439,14
-14.8039,0.2833334,-20.16902,-0.0951167549684477,-0.5036995490796731,-0.0614836035923751,3.636041,57.84747,0.133159,0.02832957,0.483369,-0.01432711,12.1199997290969,14
-14.75157,0.4833333,-20.13306,-0.1530011917620921,-0.257470185316747,-0.0964848929325761,7.269748,58.35765,0.2989521,0.05662208,0.4864102,-0.02863554,12.1399997286499,14
-14.69925,0.683333,-20.09711,-0.215670282620513,0.0059735704439062,-0.1342850434717739,10.90081,58.88322,0.499298,0.08484879,0.4889489,-0.04291035,12.1599997282028,14
-14.64695,0.883333,-20.06117,-0.2712097843429131,0.2343611456481567,-0.1655945338862992,14.5292,59.42892,0.7366583,0.1129828,0.4909828,-0.05713965,12.1799997277558,14
-14.47301,0.2833331,-19.92804,-0.3077298292259094,0.2615922619553467,-0.1811184067155302,3.588362,59.70188,0.2072996,0.02805519,0.4974513,-0.01401576,12.1999997273088,14
-14.42093,0.483333,-19.89312,-0.3420465312333114,0.1699090435010537,-0.1937128465233755,7.17367,60.21683,0.4472169,0.05607379,0.5004401,-0.0280133,12.2199997268617,14
-14.36886,0.683333,-19.8582,-0.3748588782331143,0.1246768113919532,-0.2057880394452631,10.75559,60.75163,0.7221363,0.08402787,0.5029243,-0.04197885,12.2399997264147,14
-14.17848,0.2833334,-19.7132,-0.3941821314821965,0.0725797139753379,-0.2081938174314572,3.526835,60.63115,0.2680734,0.02774489,0.5044597,-0.01351427,12.2599997259676,14
-14.1273,0.4833333,-19.67872,-0.4139193587389336,0.0402764076019898,-0.2123133810769069,7.050111,61.14981,0.5685739,0.05545487,0.5074331,-0.02701107,12.2799997255206,14
-14.07614,0.6833333,-19.64426,-0.4315831528487113,0.0544240844376009,-0.2179790638958252,10.56943,61.69172,0.9042283,0.0831029,0.5099109,-0.04047769,12.2999997250736,14
-14.02499,0.8833332,-19.6098,-0.4360328921058762,0.0617070021620199,-0.2165680379470309,14.08397,62.26165,1.278591,0.1106597,0.5118912,-0.05389905,12.3199997246265,14
-13.78769,0.2833332,-19.42792,-0.4494434754974641,0.0887830332420883,-0.2223595533921205,3.459867,60.48745,0.3031743,0.0274114,0.503379,-0.0129207,12.3399997241795,14
-13.73792,0.4833333,-19.39337,-0.4711909320998906,0.1623102902406782,-0.236828876680196,6.915377,61.00677,0.6385185,0.05478665,0.5063679,-0.02582078,12.3599997237325,14
-13.68816,0.6833333,-19.35882,-0.4906529723586903,0.2289724849589165,-0.2514030285470561,10.36668,61.55091,1.008644,0.08210313,0.5088795,-0.03869291,12.3799997232854,14
-13.63842,0.8833333,-19.32428,-0.4972124640799791,0.2354541418306617,-0.2575049526259256,13.81326,62.12453,1.417137,0.1093351,0.510912,-0.05152506,12.3999997228384,14
-13.4744,0.2833332,-19.19666,-0.2718659016524078,-0.5972663563250682,-0.0816738945132939,3.405668,59.4136,0.2379313,0.02683867,0.4952883,-0.01292327,12.4199997223914,14
-13.42551,0.4833332,-19.16265,-0.2233728266285108,-0.4071414133435178,-0.0472405594957336,6.807691,59.92456,0.5065957,0.0536419,0.4983164,-0.02582926,12.4399997219443,14
-13.37663,0.6833332,-19.12864,-0.1765645358231129,-0.1998020490927374,-0.0137782282642575,10.20617,60.45577,0.8083532,0.08038905,0.5008904,-0.03870805,12.4599997214973,14
-13.19662,0.2833332,-18.98943,-0.1206724431370371,-0.0275186878527381,0.0273312140613093,3.354404,57.47224,0.141147,0.02625582,0.4805385,-0.01299202,12.4799997210503,14
-13.14875,0.4833333,-18.95568,-0.0708260052876372,-0.0760259859534016,0.0629428055773573,6.706034,57.9728,0.3119841,0.05247822,0.4836314,-0.02596574,12.4999997206032,14
-13.10089,0.6833332,-18.92193,-0.0232210765236793,-0.078570138186138,0.0946392025686684,10.0551,58.48733,0.513921,0.07864743,0.4862975,-0.03891316,12.5199997201562,14
-13.05305,0.8833331,-18.8882,0.0329992054932475,-0.0884668591677104,0.1309165814446444,13.40123,59.01976,0.7491397,0.1047404,0.4885348,-0.05182249,12.5399997197092,14
-12.82589,0.2833335,-18.71318,-0.0702946142117344,0.561255438575778,0.0409802121219229,3.300258,55.15272,359.9922,0.02549321,0.4627402,-0.01339113,12.5599997192621,14
-12.7787,0.4833336,-18.68019,0.0179249464717248,0.3263511831435572,0.1022309068845785,6.599488,55.63809,0.01233144,0.05095731,0.4659014,-0.02676692,12.5799997188151,14
-12.73152,0.6833336,-18.64722,0.1043688680170813,0.1128430681413868,0.1602369511019308,9.897092,56.1282,0.0608789,0.07636765,0.4686649,-0.04011524,12.5999997183681,14
-12.52892,0.2833334,-18.49191,0.199765836673837,-0.1336301530483986,0.2235403885872315,3.244164,53.16502,359.9041,0.0249401,0.4473278,-0.01341533,12.619999717921,14
-12.48276,0.4833334,-18.45912,0.2353897640387181,-0.1473603539241038,0.241004474366635,6.48807,53.64133,359.835,0.0498526,0.4505487,-0.02681556,12.639999717474,14
-12.43661,0.6833335,-18.42634,0.2541009727601917,-0.1151271902667682,0.2438756083063626,9.731468,54.11706,359.7928,0.07471699,0.4533969,-0.04018961,12.6599997170269,14
-12.39047,0.8833336,-18.39357,0.2662879201080397,-0.0902465783703404,0.2406028274959712,12.97379,54.59533,359.7779,0.09951099,0.4558709,-0.05352368,12.6799997165799,14
-12.34435,0.9766706,-18.36081,0.282340500791939,-0.1260346607731135,0.2396363712472116,16.21521,55.07933,359.7909,0.1242169,0.4579687,-0.06680996,12.6999997161329,14
-12.14063,0.2833332,-18.2011,0.2862532690922688,-0.1691748408799895,0.2314134216899894,3.269767,50.80171,359.7997,0.02502267,0.4288184,-0.0138163,12.7199997156858,14
-12.09434,0.4833332,-18.16755,0.2831852947326503,-0.1663517600366214,0.2175391201551022,6.540105,51.26659,359.6257,0.05001716,0.432071,-0.02761695,12.7399997152388,14
-12.04807,0.6833332,-18.134,0.2835800140136442,-0.1708815720194708,0.2066599731406704,9.810801,51.72475,359.4772,0.07496292,0.4349598,-0.04139044,12.7599997147918,14
-11.86439,0.2833335,-17.99265,0.1318300597503281,0.4842075368897035,0.0752856324028723,3.531174,52.24134,359.8242,0.02698848,0.4400961,-0.01494168,12.7799997143447,14
-11.8139,0.4833334,-17.95712,0.1508386486720585,0.2546704072918524,0.084012400323413,7.062738,52.70608,359.6768,0.05394374,0.443212,-0.02986495,12.7999997138977,14
-11.76343,0.6833336,-17.9216,0.1646154891614735,0.0465292531233607,0.0906788027334144,10.59635,53.1655,359.5566,0.08085291,0.4458942,-0.04476593,12.8199997134507,14
-11.56423,0.2833334,-17.7696,0.1840006873626638,-0.1945770521854122,0.1040330297652509,3.56393,53.92812,359.8881,0.0272732,0.453239,-0.01496977,12.8399997130036,14
-11.51295,0.4833335,-17.73436,0.1279813429049419,-0.2029401153787586,0.0686463584058287,7.127882,54.39728,359.8049,0.05451232,0.4562863,-0.029924,12.8599997125566,14
-11.46169,0.6833333,-17.69912,0.0578400861119199,-0.1653399113493969,0.0235709668558552,10.69141,54.86531,359.7506,0.08169043,0.4588808,-0.04484439,12.8799997121096,14
-11.41045,0.8833333,-17.66389,-0.0155674699439174,-0.135092302465495,-0.0226660765827446,14.25422,55.33586,359.7256,0.1087803,0.4610204,-0.05971628,12.8999997116625,14
-11.16398,0.2833335,-17.47415,-0.0813808231516901,-0.1655135774486377,-0.0615203933457202,3.587437,55.69392,0.05383047,0.02789577,0.4668695,-0.01420598,12.9199997112155,14
-11.11295,0.4833335,-17.43787,-0.1102322319300626,-0.2032874198738523,-0.0500419558168889,7.173498,56.17687,0.1384935,0.05575942,0.4698445,-0.02839104,12.9399997107685,14
-11.06194,0.6833335,-17.40161,-0.1456403446672212,-0.1950979796565454,-0.0426866973129591,10.75769,56.66953,0.2546889,0.08355961,0.4723479,-0.04254364,12.9599997103214,14
-11.01095,0.8833335,-17.36535,-0.1762092355037392,-0.1942612125549305,-0.0307364658416098,14.3397,57.1761,0.4042301,0.1112686,0.4743775,-0.0566496,12.9799997098744,14
-10.83782,0.2833335,-17.23087,-0.3479880866668754,0.4661948274808306,-0.1317724244921692,3.566896,56.65916,0.09838932,0.02780184,0.4742892,-0.01401331,12.9999997094274,14
-10.78692,0.4833334,-17.19502,-0.4395557125561966,0.2420243279312256,-0.1276583405421725,7.131718,57.14428,0.2270613,0.05556706,0.4772298,-0.02800921,13.0199997089803,14
-10.73603,0.6833334,-17.15918,-0.5189790882925651,0.039250061940357,-0.1196836934990717,10.6943,57.64181,0.3876208,0.08326971,0.4796967,-0.04197342,13.0399997085333,14
-10.68516,0.8833333,-17.12335,-0.5749863521560812,-0.1964893238284671,-0.0990518732818994,14.25433,58.15604,0.5822243,0.1108826,0.4816878,-0.05589205,13.0599997080863,14
-10.46315,0.2833332,-16.95112,-0.736863002380761,-0.1994858095925832,-0.1484283815049902,3.637947,57.2334,0.1268852,0.02839432,0.4786753,-0.0142311,13.0799997076392,14
-10.41111,0.4833332,-16.91468,-0.8878341255180571,-0.1565189582656965,-0.1946566609154576,7.273647,57.71967,0.2848963,0.05675129,0.481557,-0.02844347,13.0999997071922,14
-10.35908,0.6833332,-16.87825,-1.0169252156551218,-0.1209046465903721,-0.2292426781961349,10.90683,58.22062,0.4758387,0.08504215,0.4839417,-0.04262259,13.1199997067451,14
-10.15989,0.2833333,-16.72577,-1.2997669552537383,0.574329178202253,-0.3905819715332281,3.602811,58.4627,0.1743091,0.02817458,0.4880536,-0.01402423,13.1399997062981,14
-10.10805,0.4833333,-16.69009,-1.4597942857796111,0.384935958127574,-0.3964324394417442,7.202972,58.95187,0.3796869,0.05631246,0.4909023,-0.02803033,13.1599997058511,14
-10.05622,0.6833331,-16.65442,-1.6012656066737645,0.2169388259510433,-0.3973994096841462,10.80019,59.45857,0.6182939,0.08438563,0.4932536,-0.04200405,13.179999705404,14
-10.00441,0.883333,-16.61876,-1.713073840852828,0.0159761738655349,-0.3850993575878707,14.3939,59.98733,0.8927235,0.1123634,0.4951054,-0.05593234,13.199999704957,14
-9.840501,0.2833336,-16.49065,-1.6696613609116877,-0.784580502215648,-0.1924775977083861,3.541919,60.0867,0.2584176,0.02788051,0.5003543,-0.01352108,13.21999970451,14
-9.789331,0.4833335,-16.45572,-1.7726356856198358,-0.5627790207812728,-0.1370305538690939,7.080524,60.58145,0.5478814,0.05572598,0.5031646,-0.02702501,13.2399997040629,14
-9.738176,0.6833333,-16.4208,-1.8438411236731929,-0.3242510425362686,-0.0761720101613185,10.61541,61.09865,0.8710607,0.08350885,0.5054804,-0.04049864,13.2599997036159,14
-9.687035,0.8833332,-16.38588,-1.8731144141214688,-0.1212669928060705,-0.0018790999638849,14.1458,61.64292,1.231256,0.1111991,0.5073001,-0.05392805,13.2799997031689,14
-9.48174,0.2833335,-16.22492,-2.015271484496824,0.6003609391795043,-0.0355020760048461,3.476429,59.74809,0.2952224,0.02758491,0.4977964,-0.01287568,13.2999997027218,14
-9.432098,0.4833334,-16.1897,-1.9880290484803516,0.3253129364370387,0.0870097153589686,6.949233,60.24377,0.6210296,0.05513599,0.5006272,-0.02573529,13.3199997022748,14
-9.382466,0.6833334,-16.1545,-1.927707933096656,0.0716606716414214,0.2107015665552101,10.41755,60.76371,0.9807329,0.08262567,0.5029833,-0.0385612,13.3399997018278,14
-9.209498,0.2833333,-16.01363,-2.0036380674145717,0.5053314648643759,0.2039662802780419,3.418436,58.2874,0.2536785,0.02712855,0.4867261,-0.01259315,13.3599997013807,14
-9.16124,0.4833334,-15.97831,-1.9141423021999515,0.2944714859816751,0.3156215142148841,6.833138,58.77742,0.5373842,0.05422243,0.4896109,-0.02516609,13.3799997009337,14
-9.112994,0.6833335,-15.943,-1.8017075454235456,0.1050079355397259,0.4226323446718076,10.24427,59.28852,0.8531734,0.08125929,0.4920469,-0.03771246,13.3999997004867,14
-9.064762,0.8833333,-15.9077,-1.6574979126589966,-0.1174208866132319,0.5333653519531207,13.65148,59.82494,1.204145,0.108215,0.4940321,-0.05022082,13.4199997000396,14
-8.870623,0.2833333,-15.73546,-1.5471558437560011,-0.1071066144021692,0.5912196634889977,3.363103,53.50714,0.0940268,0.0265723,0.4499387,-0.01247711,13.4399996995926,14
-8.824588,0.4833333,-15.69905,-1.4328491515581154,-0.0508291170461878,0.6309797155504366,6.723864,53.98077,0.2170295,0.05311384,0.4529601,-0.02492985,13.4599996991456,14
-8.778565,0.6833333,-15.66264,-1.3060795496680324,-0.0019043513489059,0.6609311475020299,10.08253,54.46535,0.3692386,0.07960133,0.4555809,-0.03735705,13.4799996986985,14
-8.732556,0.8833331,-15.62625,-1.1583615841073869,-0.0136482741139489,0.6893809250908038,13.43884,54.96459,0.552443,0.1060117,0.4577989,-0.04974773,13.4999996982515,14
-8.621346,0.2833333,-15.49863,-0.915155555396976,-0.0327450363021327,0.7677505109512417,3.305612,51.89917,0.01146487,0.02597871,0.4373954,-0.01253115,13.5199996978045,14
-8.576235,0.4833333,-15.4627,-0.6739320526431998,-0.0058785493009461,0.8280114977842477,6.610044,52.36342,0.04976946,0.05192775,0.4404631,-0.02504786,13.5399996973574,14
-8.531134,0.6833333,-15.42679,-0.4261528016104421,0.013635242892273,0.8789720039025042,9.912695,52.83337,0.1155974,0.07782246,0.4431542,-0.03753747,13.5599996969104,14
-8.416002,0.2833333,-15.31766,-0.1632674126217992,-0.0275197104388421,0.9294368632859592,3.252527,47.80204,359.8819,0.02552891,0.4050212,-0.01243984,13.5799996964633,14
-8.372743,0.4833335,-15.28089,0.0509464366334091,-0.0760267742803439,0.9242030135777116,6.5049,48.25373,359.7894,0.05102923,0.4081945,-0.02486534,13.5999996960163,14
-8.329495,0.6833337,-15.24412,0.2571247227518825,-0.078570578217014,0.9029041515074354,9.756933,48.70333,359.7222,0.07648022,0.4110288,-0.03726644,13.6199996955693,14
-8.286255,0.8833336,-15.20737,0.4632922855679977,-0.0884671842033836,0.8743111526242249,13.00819,49.15389,359.6813,0.1018622,0.4135229,-0.04962543,13.6399996951222,14
-8.149917,0.2833333,-15.03607,0.5007926906646549,0.5612554605294076,0.7078525343438535,3.194331,41.2456,359.7221,0.02523221,0.3521395,-0.01208581,13.6599996946752,14
-8.109713,0.4833334,-14.99718,0.7169749937745644,0.3263515434618529,0.6767892207745536,6.389769,41.68211,359.4683,0.05043704,0.3554616,-0.02415773,13.6799996942282,14
-8.06952,0.6833333,-14.95829,0.9140946262428988,0.1128439711150596,0.6307915415867402,9.586108,42.10726,359.2373,0.07559475,0.3584965,-0.03620626,13.6999996937811,14
-7.922078,0.2833333,-14.77075,1.1003529847386426,-0.1336287160439888,0.5790172005005019,3.530427,42.61899,359.7632,0.02794706,0.3632917,-0.01311893,13.7199996933341,14
-7.877455,0.4833333,-14.72798,1.3072423096993644,-0.1473587378059581,0.5418350968897929,7.06165,43.05596,359.5529,0.05585984,0.3664797,-0.02622138,13.7399996928871,14
-7.832849,0.6833332,-14.68524,1.4849693572672908,-0.115125417511223,0.4899536360325367,10.59468,43.48357,359.3686,0.08372305,0.3693092,-0.03929485,13.75999969244,14
-7.788262,0.8833332,-14.64251,1.6421092541548985,-0.0902444723900666,0.4328307375262437,14.12938,43.90485,359.2089,0.1115087,0.371777,-0.05233123,13.779999691993,14
-7.743688,0.9766705,-14.5998,1.7872301367604484,-0.126032178357797,0.3798953892214403,17.66413,44.3228,359.0737,0.1391785,0.3738814,-0.06531297,13.799999691546,14
-7.576103,0.2833334,-14.42233,1.952918658322876,-0.1691728187068235,0.3506862338611149,3.564394,46.93722,359.9147,0.02823127,0.3980751,-0.0130679,13.8199996910989,14
-7.529798,0.4833333,-14.38078,2.078064713551923,-0.1663501175218527,0.3069135636900064,7.128584,47.38588,359.8563,0.05642553,0.4011287,-0.02612747,13.8399996906519,14
-7.483505,0.6833333,-14.33924,2.171754273555848,-0.170880137802823,0.2582003948229889,10.69209,47.83479,359.8257,0.08455628,0.4037847,-0.03915738,13.8599996902049,14
-7.310249,0.2833333,-14.18852,2.094996715670552,0.4842092927444403,0.0872834300690001,3.592117,50.1706,0.07155406,0.02865035,0.423741,-0.01272272,13.8799996897578,14
-7.263072,0.4833334,-14.14723,2.1219370192229725,0.2546719219180224,0.0194962513367862,7.182749,50.63278,0.1718896,0.05726442,0.4266913,-0.02543268,13.8999996893108,14
-7.215908,0.6833334,-14.10595,2.1121280593545304,0.0465304156202902,-0.0530306984852604,10.77145,51.10548,0.3026339,0.08581346,0.4292124,-0.03811355,13.9199996888638,14
-7.018894,0.2833334,-13.95177,2.0749381944390173,-0.1945761280421712,-0.1206429973961462,3.559931,52.50962,0.1348168,0.02837702,0.4421175,-0.01268576,13.9399996884167,14
-6.971192,0.4833334,-13.91192,1.844563404174536,0.4373747567239356,-0.338095017391387,7.117477,52.97622,0.2982188,0.05671421,0.4450059,-0.0253599,13.9599996879697,14
-6.923504,0.6833334,-13.87209,1.7716408159809935,0.1846991966014806,-0.4087196068498819,10.67254,53.45722,0.4925883,0.08498771,0.4474546,-0.0380055,13.9799996875226,14
-6.87583,0.8833334,-13.83226,1.658620850375005,-0.046580368751514,-0.4846910984944514,14.22482,53.95682,0.7203338,0.11317,0.4494614,-0.05060989,13.9999996870756,14
-6.628845,0.2833333,-13.64156,1.515416692078844,-0.3108249469020833,-0.5564442438745445,3.631626,54.83701,0.1656684,0.02879252,0.4602141,-0.01330856,14.0199996866286,14
-6.578834,0.4833332,-13.60252,1.4321520410805206,-0.3423261717751958,-0.6008569930090868,7.260771,55.30517,0.3613026,0.05754738,0.4629987,-0.02659994,14.0399996861815,14
-6.528841,0.6833332,-13.56348,1.3107331440586956,-0.3278642583596126,-0.6493626390991345,10.88761,55.79017,0.588538,0.08623708,0.4653071,-0.03986576,14.0599996857345,14
-6.478865,0.883333,-13.52446,1.1617479671141395,-0.3207549361691968,-0.692161561280555,14.51161,56.29641,0.8501764,0.114831,0.467137,-0.05309133,14.0799996852875,14
-6.304143,0.2833334,-13.39201,0.9117133404913228,0.3459738342359247,-0.8074119284811765,3.612555,56.55679,0.1745772,0.02847987,0.473478,-0.01359191,14.0999996848404,14
-6.253362,0.4833334,-13.35455,0.856546749907289,0.1280756677995375,-0.7462352313872618,7.22255,57.02389,0.3789315,0.05692274,0.4762084,-0.02716616,14.1199996843934,14
-6.202595,0.6833333,-13.31709,0.7718356953838388,-0.0684267829049868,-0.6811339572056418,10.82969,57.50831,0.6151587,0.08529982,0.4784547,-0.04070915,14.1399996839464,14
-6.151845,0.8833332,-13.27965,0.669256986396594,-0.2978943269037191,-0.6021186820100191,14.43363,58.01431,0.8852876,0.1135793,0.4802141,-0.05421294,14.1599996834993,14
-5.929783,0.2833333,-13.1107,0.4487330456155751,0.3456958478889916,-0.660752356089171,3.547729,59.12381,0.2774727,0.02811921,0.4930605,-0.01316675,14.1799996830523,14
-5.879282,0.4833333,-13.0746,0.3655316663700794,0.1046593222772924,-0.5976321181536637,7.092046,59.5983,0.5847944,0.05620256,0.4957293,-0.02631678,14.1999996826053,14
-5.828796,0.6833333,-13.0385,0.278948854144998,-0.1149811172657283,-0.5232008391109044,10.6326,60.09627,0.9247978,0.08422267,0.4979099,-0.03943717,14.2199996821582,14
-5.630376,0.2833333,-12.88789,0.0719066474219274,0.3527012906466463,-0.6068139882893728,3.482141,59.64745,0.3068767,0.02768998,0.4970313,-0.01278804,14.2399996817112,14
-5.580801,0.4833333,-12.85238,-0.1352906886968865,0.8161670172856367,-0.686211064972003,6.96065,60.12272,0.6431355,0.0553456,0.4997006,-0.0255602,14.2599996812642,14
-5.531238,0.6833334,-12.81687,-0.1482230593229596,0.3704392596223357,-0.6106773130096972,10.43472,60.62269,1.01169,0.08293746,0.501895,-0.03830259,14.2799996808171,14
-5.481688,0.8833333,-12.78138,-0.1610455023786006,-0.0795049530700029,-0.5330552133715951,13.90442,61.15176,1.416176,0.1104435,0.5036126,-0.05100494,14.2999996803701,14
-5.236217,0.2833334,-12.59466,-0.1622751904802966,-0.4610260465001232,-0.444891669289289,3.423477,59.15116,0.2816201,0.02719137,0.4932856,-0.01260701,14.3199996799231,14
-5.187597,0.4833334,-12.55962,-0.1301988946499501,-0.5106831266326121,-0.3749327190909461,6.843159,59.62181,0.5918435,0.05434697,0.4959788,-0.02519668,14.339999679476,14
-5.138991,0.6833334,-12.52459,-0.1016990897933611,-0.5148647240030558,-0.3087187705216934,10.25915,60.11504,0.9332796,0.08144535,0.4982164,-0.03775956,14.359999679029,14
-5.090399,0.8833333,-12.48958,-0.0652687463933494,-0.5268869016114004,-0.2379869393277331,13.67104,60.63498,1.309164,0.1084618,0.4999966,-0.05028422,14.379999678582,14
-4.917711,0.2833333,-12.35745,-0.1618040577603041,0.1202224995075454,-0.285602487724157,3.368749,57.67136,0.176781,0.02649272,0.4820506,-0.01282568,14.3999996781349,14
-4.86983,0.4833332,-12.32323,-0.0366986716291264,-0.1177826794580936,-0.1645450110324926,6.734592,58.13042,0.3806985,0.0529506,0.4847928,-0.02563552,14.4199996776879,14
-4.821963,0.6833332,-12.28902,0.0861429381642633,-0.3348797720832442,-0.0494119476475454,10.0977,58.60519,0.613687,0.07935436,0.4871051,-0.03841896,14.4399996772408,14
-4.774109,0.8833331,-12.25482,0.0387034491610647,0.1348580892151266,-0.0673329738228964,13.4578,59.09941,0.8780901,0.105681,0.4889858,-0.05116474,14.4599996767938,14
-4.554136,0.2833333,-12.08669,-0.0086321756549359,0.5998915886236048,-0.0882945427755981,3.311751,55.34381,0.02445909,0.02569041,0.4642084,-0.01323079,14.4799996763468,14
-4.506981,0.4833332,-12.0533,0.0875955087424347,0.1552433500538597,0.0004218842886256,6.622229,55.78748,0.07461822,0.05135132,0.4670189,-0.02644641,14.4999996758997,14
-4.459837,0.6833332,-12.01993,0.1917328121398163,-0.2941093581702184,0.0899830295014378,9.930831,56.23739,0.1510427,0.07695747,0.46943,-0.03963486,14.5199996754527,14
-4.264192,0.2833334,-11.87122,0.0760754211717607,0.1568111852866466,0.0076726626841097,3.256321,53.54541,359.9238,0.02506752,0.4502872,-0.01339241,14.5399996750057,14
-4.217835,0.4833333,-11.83836,0.1094296238107133,-0.0372866826849263,0.0394174709121806,6.512167,53.97902,359.8721,0.05010707,0.453151,-0.0267698,14.5599996745586,14
-4.171491,0.6833334,-11.8055,0.1358004066666276,-0.2104763202235442,0.0618463089204919,9.767344,54.41276,359.845,0.0750981,0.4556392,-0.04012107,14.5799996741116,14
-4.125158,0.8833334,-11.77266,0.1662137081264942,-0.4171188538988439,0.0833119488774709,13.02133,54.84948,359.8429,0.1000177,0.4577503,-0.05343376,14.5999996736646,14
-3.883238,0.2833334,-11.58764,0.0619326537598583,0.2488078107002399,-4.345859758103643e-05,3.202787,50.37179,359.7891,0.02450608,0.4254361,-0.0135577,14.6199996732175,14
-3.837985,0.4833333,-11.55465,0.1644804682412017,0.0296200008883593,0.0769877373350365,6.40612,50.79233,359.6014,0.04898559,0.4283777,-0.02710037,14.6399996727705,14
-3.792745,0.6833334,-11.52168,0.2605055293541474,-0.1686594968613973,0.1471345766222818,9.609765,51.20513,359.4362,0.07341874,0.430974,-0.04061719,14.6599996723235,14
-3.747514,0.8833333,-11.48872,0.3613898947112914,-0.4003920358857168,0.2192675572455531,12.81331,51.6127,359.2932,0.09778573,0.4332236,-0.05409367,14.6799996718764,14
-3.570113,0.2833334,-11.3535,0.2728462226705808,0.2404448378478187,0.1443529342119323,3.532822,51.91194,359.8101,0.0269906,0.4375176,-0.01498052,14.6999996714294,14
-3.519626,0.4833333,-11.31787,0.3084752194071132,-0.0038328546515353,0.1713580009701356,7.066019,52.3313,359.6458,0.053948,0.4402986,-0.02994257,14.7199996709824,14
-3.469161,0.6833333,-11.28224,0.3431880859760587,-0.2272023269106885,0.1976380160240278,10.6006,52.74391,359.5059,0.08085411,0.4426501,-0.04487965,14.7399996705353,14
-3.418719,0.8833331,-11.24663,0.2106545221876583,0.2362631691280807,0.0945488041418407,14.13652,53.15279,359.3902,0.1076855,0.44457,-0.05977477,14.7599996700883,14
-3.196082,0.2833333,-11.07709,0.0803248483732383,0.6950242114550318,-0.0067818079288226,3.564481,54.0121,359.8877,0.02726499,0.4538918,-0.01499491,14.7799996696413,14
-3.14473,0.4833333,-11.04194,0.1347710258282159,0.2441036374198961,0.0406368059607764,7.128899,54.43685,359.8013,0.05449544,0.4565943,-0.02997489,14.7999996691942,14
-3.093394,0.6833332,-11.0068,0.1907052292337812,-0.2115212974597207,0.089838345502569,10.69286,54.85987,359.741,0.08166487,0.4588453,-0.04492107,14.8199996687472,14
-2.894135,0.2833333,-10.85488,0.024550956465123,0.2331266756627708,-0.0317621637868228,3.59284,55.37445,0.02938584,0.02787793,0.4644091,-0.01433886,14.8399996683002,14
-2.842978,0.4833333,-10.81864,0.0053625911044331,0.0327562133123705,-0.0363168631702439,7.184564,55.81136,0.0867208,0.05572386,0.4670558,-0.02865666,14.8599996678531,14
-2.791835,0.6833333,-10.7824,-0.0231959616636002,-0.1467061632202481,-0.0478912145363707,10.77471,56.25583,0.1724432,0.0835063,0.469234,-0.04294167,14.8799996674061,14
-2.740707,0.8833333,-10.74618,-0.0495313423761591,-0.359621581550136,-0.057600205244416,14.36306,56.71165,0.2880644,0.1111979,0.4709419,-0.05717956,14.899999666959,14
-2.493481,0.2833334,-10.55762,-0.2110430231007379,0.3000326380767636,-0.1731691927814012,3.569783,56.50343,0.1030606,0.02786233,0.4730916,-0.01395155,14.919999666512,14
-2.442668,0.4833333,-10.52155,-0.164139496755553,0.0745725166697093,-0.1248826953087203,7.137522,56.94544,0.2338835,0.05568834,0.4757032,-0.02788462,14.939999666065,14
-2.39187,0.6833333,-10.4855,-0.1218671195608831,-0.1299793850198519,-0.080619513112822,10.70311,57.39963,0.3939161,0.08345158,0.4778434,-0.04178612,14.9599996656179,14
-2.341087,0.8833333,-10.44945,-0.0721156791240725,-0.3679843130868733,-0.0310392943780186,14.26628,57.86995,0.5852457,0.1111249,0.4795108,-0.05564228,14.9799996651709,14
-2.16627,0.2833333,-10.31528,-0.2094198433224489,0.2665800669757538,-0.1275966586880894,3.64629,57.25824,0.1288152,0.02846318,0.4788638,-0.01425734,14.9999996647239,14
-2.114092,0.4833332,-10.27878,-0.2140656542277004,0.0160298962253024,-0.1173886349851578,7.290464,57.70132,0.2860987,0.05688917,0.4814115,-0.02849591,15.0199996642768,14
-2.061929,0.6833333,-10.24228,-0.2144403592746303,-0.2136119188171174,-0.1046091417655006,10.93224,58.15868,0.4735772,0.08524852,0.483462,-0.04270115,15.0399996638298,14
-1.870761,0.2833333,-10.09673,-0.3768295885062811,0.2435810102848627,-0.2184276714996809,3.618505,57.94528,0.1446527,0.02823208,0.4841152,-0.01418948,15.0599996633828,14
-1.818724,0.4833333,-10.0609,-0.5306001209419368,0.6960695944848772,-0.3264479446307105,7.234737,58.38844,0.3175541,0.05642723,0.4866453,-0.02836054,15.0799996629357,14
-1.766701,0.6833333,-10.02507,-0.4900364950413966,0.2388764576945961,-0.2791824346531841,10.84845,58.84673,0.5205809,0.08455716,0.4886801,-0.04249865,15.0999996624887,14
-1.714694,0.8833333,-9.989251,-0.4403739806165061,-0.2230210383720513,-0.2251233323475379,14.45923,59.32428,0.7560157,0.1125916,0.490218,-0.05659058,15.1199996620417,14
-1.476248,0.2833334,-9.807426,-0.6040900328583412,0.2153544813278514,-0.3375409173786883,3.550708,59.96386,0.258477,0.02796165,0.4994252,-0.01352905,15.1399996615946,14
-1.425011,0.4833334,-9.772326,-0.6039108459310621,0.0087115799292641,-0.3232377612831918,7.098268,60.41558,0.5453889,0.05588766,0.5019122,-0.02704089,15.1599996611476,14
-1.373788,0.6833334,-9.737236,-0.5975926947394365,-0.1770232212771418,-0.3074812714594035,10.64236,60.88931,0.8634008,0.08375087,0.5039054,-0.04052224,15.1799996607006,14
-1.322578,0.8833333,-9.702153,-0.5735872677962621,-0.3962110632354096,-0.2814230629800924,14.18226,61.38931,1.215746,0.111521,0.5054035,-0.05395892,15.1999996602535,14
-1.158935,0.2833333,-9.574432,-0.6789961022040887,0.2571705070414772,-0.3589670643252534,3.483156,60.21849,0.2960824,0.02758635,0.501349,-0.01301176,15.2199996598065,14
-1.108896,0.4833333,-9.539576,-0.5678237502046916,0.0254377362844049,-0.26870826675691,6.96289,60.6714,0.6201965,0.05513855,0.5038423,-0.02600724,15.2399996593595,14
-1.058867,0.6833333,-9.504728,-0.4531773282585933,-0.1853868158005834,-0.1791473933509557,10.43843,61.1481,0.975332,0.08262817,0.5058577,-0.038971,15.2599996589124,14
-1.008852,0.8833332,-9.469891,-0.3239617370778902,-0.4296642763058325,-0.081428861526037,13.90984,61.65281,1.364789,0.1100322,0.5073935,-0.05189403,15.2799996584654,14
-0.7977279,0.2833334,-9.305099,-0.3758176750319195,0.1986275820340249,-0.1274975955508992,3.424595,59.09142,0.2669317,0.02714325,0.4928357,-0.0127091,15.2999996580184,14
-0.7489917,0.4833333,-9.270226,-0.295168900303203,-0.0581950068563952,-0.0652365790979079,6.8456,59.53948,0.5613883,0.05425186,0.49537,-0.02539852,15.3199996575713,14
-0.7002693,0.6833333,-9.235363,-0.2072532970148946,-0.2941092565040087,0.0021364008632618,10.26317,60.00899,0.8855583,0.08130339,0.4974502,-0.03806102,15.3399996571243,14
-0.5126382,0.2833334,-9.090178,-0.278986058820678,0.1568112481855375,-0.0570039342257988,3.369586,57.21288,0.1652237,0.02650197,0.4785458,-0.01281159,15.3599996566772,14
-0.4649065,0.4833333,-9.055742,-0.3424023838346066,0.6030273114468394,-0.1113840935464427,6.736405,57.65016,0.3565197,0.05296989,0.4811419,-0.02560555,15.3799996562302,14
-0.4171882,0.6833333,-9.021317,-0.2162536071335403,0.1395618901549498,-0.0149458503246329,10.10068,58.10223,0.5754875,0.07938375,0.483312,-0.03837323,15.3999996557832,14
-0.3694836,0.8833333,-8.9869,-0.0828843458096038,-0.328607880220549,0.085323621760236,13.46216,58.57264,0.8243465,0.1057205,0.4850545,-0.05110334,15.4199996553361,14
-0.1349656,0.2833334,-8.805595,-0.1669036597421842,0.1034951491189127,0.0150574496890643,3.311872,54.93038,0.02155301,0.02572721,0.4610122,-0.01316099,15.4399996548891,14
-0.08801642,0.4833334,-8.771921,-0.0996077887624771,-0.1094201257283282,0.0637818776314587,6.622517,55.3531,0.06758748,0.05142498,0.4636739,-0.02630697,15.4599996544421,14
-0.04107844,0.6833334,-8.738254,-0.0369752383510575,-0.3014271834716012,0.1066306911771679,9.931344,55.78165,0.1386842,0.07706819,0.4659397,-0.03942554,15.479999653995,14
0.005846221,0.8833333,-8.704596,0.0313966132083995,-0.5268873912992929,0.1518579042684757,13.23861,56.21911,0.2359985,0.102639,0.4678079,-0.05250679,15.499999653548,14
0.1689534,0.2833332,-8.576889,-0.0330076617355792,0.1202219305426587,0.0899336085704947,3.256016,53.17181,359.9232,0.02510653,0.4473754,-0.01331369,15.519999653101,14
0.215103,0.4833333,-8.543745,0.1084928382051404,-0.1177829706921478,0.1900459902429947,6.511525,53.58432,359.8698,0.05018492,0.4500852,-0.02661247,15.5399996526539,14
0.2612393,0.6833333,-8.510611,0.2433160839925312,-0.3348798810673322,0.2829511348842963,9.766376,53.9967,359.8397,0.07521489,0.4524227,-0.03988535,15.5599996522069,14
0.3073646,0.8833332,-8.477484,0.2151380766510975,0.1348581742418806,0.2463165478128628,13.02007,54.41166,359.8333,0.1001735,0.4543867,-0.0531199,15.5799996517599,14
0.5168847,0.2833333,-8.312501,0.1822759441931376,0.5998917732257459,0.20533385459039,3.202307,49.71158,359.7838,0.02456067,0.4202188,-0.01345623,15.5999996513128,14
0.561813,0.4833333,-8.279082,0.2737472721724812,0.1552437665629891,0.2665366486252587,6.405116,50.11071,359.5897,0.0490946,0.4230108,-0.0268976,15.6199996508658,14
0.6067282,0.6833333,-8.245673,0.365223968829921,-0.2941086969478198,0.3269863155747492,9.608234,50.50158,359.4167,0.07358231,0.4254627,-0.04031332,15.6399996504188,14
0.7977672,0.2833333,-8.097632,0.2433943379339784,0.1568117577362366,0.2201019746104577,3.53274,51.04895,359.8048,0.02708211,0.4307387,-0.01481819,15.6599996499717,14
0.8477743,0.4833333,-8.061316,0.1176790528338322,0.6030277540041235,0.1104992142029228,7.065834,51.44733,359.6339,0.05413092,0.4333815,-0.02961819,15.6799996495247,14
0.8977596,0.6833333,-8.025015,0.1673230524339226,0.139562248208187,0.1460732049022288,10.60031,51.83837,359.4861,0.08112872,0.4356024,-0.04439283,15.6999996490777,14
0.9477226,0.8833332,-7.988729,0.210561862584655,-0.3286075046566801,0.1783559894238511,14.13612,52.22491,359.361,0.1080515,0.437399,-0.05912604,15.7199996486306,14
1.185401,0.2833333,-7.805214,0.1230607157069969,0.1034956575370839,0.1048533968047547,3.564524,53.29845,359.8884,0.02736087,0.448337,-0.01481963,15.7399996481836,14
1.236311,0.4833333,-7.769425,0.1828964085573896,-0.1094195953565275,0.1520858047170881,7.128958,53.70285,359.8014,0.05468713,0.4509002,-0.02962478,15.7599996477365,14
1.287206,0.6833333,-7.733646,0.2349010228800057,-0.3014266353278166,0.1945868004709563,10.69291,54.10531,359.7391,0.08195212,0.4530182,-0.04439651,15.7799996472895,14
1.338087,0.8833332,-7.697878,0.2901363163241912,-0.5268868162361771,0.2412714923447865,14.25618,54.50894,359.7018,0.1091291,0.4546894,-0.05912035,15.7999996468425,14
1.502077,0.2833333,-7.56795,0.1662316090069748,0.120222314905402,0.1450406229287661,3.592586,54.76191,0.03091806,0.02795836,0.4596712,-0.01417675,15.8199996463954,14
1.552832,0.4833333,-7.53115,0.2441414092628884,-0.1177827822568313,0.2117684981136509,7.184074,55.17819,0.08844952,0.05588453,0.4621745,-0.028333,15.8399996459484,14
1.603573,0.6833332,-7.494361,0.312218118139433,-0.3348796680648591,0.2711981515424959,10.77402,55.60186,0.1730625,0.08374724,0.4642151,-0.04245687,15.8599996455014,14
1.654299,0.8833331,-7.457582,0.2151543769892288,0.134858285491023,0.1999586444188397,14.36222,56.03654,0.2861972,0.1115188,0.4657913,-0.05653431,15.8799996450543,14
1.865544,0.2833333,-7.291283,0.1130984147119766,0.599891882645422,0.1247912175061154,3.569765,55.66071,0.09882538,0.02794679,0.4666049,-0.01377886,15.8999996446073,14
1.915868,0.4833333,-7.254542,0.1393331030339939,0.1552439740770548,0.1546263048066034,7.137556,56.08165,0.2241587,0.0558574,0.4690806,-0.02753895,15.9199996441603,14
1.966178,0.6833332,-7.217812,0.1669837805377678,-0.2941084109408181,0.1847268681088101,10.70331,56.51423,0.3773328,0.08370531,0.4710923,-0.04126784,15.9399996437132,14
2.156352,0.2833333,-7.06954,-0.01669068760512,0.1568121031574235,0.0479278727486729,3.646729,56.22517,0.1236891,0.02857286,0.4709364,-0.01404141,15.9599996432662,14
2.207924,0.4833333,-7.032179,-0.2008781115898434,0.6030281402834542,-0.0897227587666735,7.291421,56.64755,0.2745137,0.05710828,0.473358,-0.02806434,15.9799996428192,14
2.259483,0.6833333,-6.994829,-0.202325409126896,0.139562550593292,-0.0780713301255762,10.93386,57.08362,0.4541658,0.08557714,0.4752912,-0.04205437,15.9999996423721,14
2.311022,0.8833332,-6.957491,-0.2046602673300164,-0.328607290870149,-0.067500312749118,14.57446,57.53736,0.6648961,0.1139553,0.476734,-0.05600053,16.0199996419251,14
2.548304,0.2833334,-6.772807,-0.3357519604078671,0.1034960047877402,-0.1616788053363427,3.609831,57.6049,0.1784354,0.02834976,0.4815086,-0.0138109,16.0399996414781,14
2.599688,0.4833333,-6.736258,-0.3124198073144493,-0.1094193450677333,-0.1297709295590756,7.217209,58.03068,0.3840227,0.05666269,0.483895,-0.02760388,16.059999641031,14
2.651057,0.6833333,-6.699718,-0.2897771945364304,-0.3014264856598212,-0.0982611148930336,10.82187,58.47349,0.6188446,0.08491027,0.4857915,-0.04136501,16.079999640584,14
2.702412,0.8833332,-6.663188,-0.255842263176401,-0.526886664128889,-0.0577579481691614,14.42338,58.93733,0.8853884,0.1130621,0.4871967,-0.05508151,16.099999640137,14
2.865415,0.2833333,-6.534436,-0.3948031932088396,0.1202225730347786,-0.1571635850248096,3.544252,59.1348,0.2565092,0.02800135,0.4931496,-0.01331354,16.1199996396899,14
2.916068,0.4833332,-6.498695,-0.3157590713801674,-0.1177826469632357,-0.0841548488743537,7.085481,59.56583,0.5401289,0.05596726,0.4955077,-0.02661014,16.1399996392429,14
2.966705,0.6833332,-6.462964,-0.2303603855488409,-0.3348796576978688,-0.0101720946696408,10.62338,60.01842,0.8534571,0.08387046,0.4973807,-0.03987683,16.1599996387959,14
3.017331,0.8833331,-6.427241,-0.3024498085168909,0.13485828888861,-0.0636809440730346,14.15724,60.49667,1.199587,0.1116806,0.4987676,-0.05310016,16.1799996383488,14
3.226865,0.2833333,-6.260484,-0.3713538630560284,0.5998917707864553,-0.1172683909531198,3.476907,59.09286,0.2986021,0.02767625,0.4928312,-0.01269415,16.1999996379018,14
3.276098,0.4833333,-6.224674,-0.3052046879723908,0.1552436386743887,-0.0624467798704015,6.950491,59.52556,0.6239719,0.05531843,0.4952034,-0.02537241,16.2199996374547,14
3.325321,0.6833332,-6.188875,-0.2289721912001336,-0.2941087318819674,-0.0035382881718559,10.41998,59.98196,0.9792629,0.08289878,0.4971083,-0.03801832,16.2399996370077,14
3.511943,0.2833333,-6.04144,-0.3573668486277217,0.1568118084386662,-0.1085739314567657,3.418046,58.21756,0.2637688,0.02717605,0.4861916,-0.01249806,16.2599996365607,14
3.560081,0.4833333,-6.005947,-0.48153765744477,0.6030278840706638,-0.2118854151213844,6.832619,58.64539,0.5536232,0.0543167,0.4886008,-0.02497803,16.2799996361136,14
3.608206,0.6833332,-5.970464,-0.4223489259289712,0.1395623456927543,-0.1630478580376166,10.24392,59.09417,0.871875,0.08140054,0.4905643,-0.03743161,16.2999996356666,14
3.656317,0.8833331,-5.93499,-0.3605013834287014,-0.3286074311294465,-0.1121654902864732,13.6516,59.56768,1.221509,0.108403,0.492081,-0.04984759,16.3199996352196,14
3.88929,0.2833333,-5.750539,-0.4213770875565368,0.1034955962063113,-0.1637080698727828,3.362713,55.90706,0.1387042,0.02648485,0.4685217,-0.012685,16.3399996347725,14
3.936392,0.4833333,-5.715483,-0.328454889649846,-0.1094197957269518,-0.0903722115817351,6.722912,56.32173,0.3020751,0.05293577,0.4709988,-0.02535248,16.3599996343255,14
3.983481,0.6833333,-5.680437,-0.235472140672206,-0.3014268588715153,-0.0187425754021828,10.08087,56.74932,0.4914878,0.07933304,0.4730615,-0.03799405,16.3799996338785,14
4.030557,0.8833332,-5.645401,-0.1318446528120684,-0.5268869465640682,0.0597655099799716,13.43636,57.19315,0.7088831,0.1056536,0.4747083,-0.05059877,16.3999996334314,14
4.192332,0.2833334,-5.516332,-0.199707377292321,0.1202222751797871,-0.0017555506939541,3.30591,54.24795,0.02223458,0.02576156,0.4557227,-0.01297854,16.4199996329844,14
4.238793,0.4833333,-5.482162,-0.0599039929487723,-0.1177829597153337,0.1045627586326611,6.61061,54.6506,0.06776354,0.05149384,0.4582479,-0.02594224,16.4399996325374,14
4.285243,0.6833333,-5.447998,0.0772711830722441,-0.334879864776345,0.2062338915270007,9.913549,55.05886,0.1370325,0.07717152,0.4603837,-0.03887986,16.4599996320903,14
4.331679,0.8833332,-5.413844,0.054503187630206,0.1348579750911025,0.1779850218775265,13.21497,55.47567,0.2312529,0.102777,0.4621286,-0.05178078,16.4799996316433,14
4.539834,0.2833333,-5.246974,0.0293993269276766,0.5998913641216115,0.1461492672563378,3.25001,51.51345,359.8862,0.02510903,0.4344014,-0.01321707,16.4999996311963,14
4.585331,0.4833333,-5.213082,0.266610697687855,0.1552432591902288,0.3143318717930303,6.499757,51.90276,359.7944,0.05019019,0.4369953,-0.02641925,16.5199996307492,14
4.630816,0.6833333,-5.179201,0.5406065561182638,-0.2941091909044735,0.4991247915734145,9.749094,52.28954,359.7242,0.07522306,0.4392294,-0.03959583,16.5399996303022,14
4.814286,0.2833333,-5.031851,0.6333158308295701,0.156811055917047,0.5292689955539531,3.198328,48.91385,359.7969,0.02466961,0.4138921,-0.01316624,16.5599996298552,14
4.858546,0.4833333,-4.997691,0.7473310049688564,0.6030269693361185,0.567953713563043,6.397002,49.29453,359.6149,0.04931242,0.4165491,-0.02631792,16.5799996294081,14
4.902794,0.6833333,-4.96354,1.0259660058487097,0.1486471370548723,0.695590912419338,9.595861,49.66752,359.453,0.07390901,0.4188728,-0.03944466,16.5999996289611,14
4.947032,0.8833332,-4.9294,1.3178620702250736,-0.3115272125688735,0.8255416631114523,12.79448,50.0351,359.3112,0.09843944,0.4208619,-0.05253155,16.6199996285141,14
5.182406,0.2833333,-4.742297,1.4946790414257043,0.1275253573996124,0.8539451133158997,3.518332,50.80047,359.8275,0.02708536,0.428778,-0.01452717,16.639999628067,14
5.231818,0.4833333,-4.705632,1.6817591425517442,0.5608722248258338,0.886640271495247,7.036819,51.18107,359.678,0.05413767,0.4312765,-0.02903669,16.65999962762,14
5.281205,0.6833333,-4.668982,2.1192288822618206,0.1064413573264344,1.051229398002126,10.55693,51.55551,359.5504,0.08114203,0.433359,-0.04352493,16.6799996271729,14
5.330572,0.8833332,-4.632346,2.5704280495919907,-0.3563493522810718,1.2033295527229169,14.07768,51.92653,359.4448,0.1080682,0.4350239,-0.05797086,16.6999996267259,14
5.493935,0.2833333,-4.501753,2.8495014147870856,0.0776335016732863,1.1950340925939802,3.559913,52.51927,359.8875,0.02742131,0.4422532,-0.01462278,16.7199996262789,14
5.544306,0.4833333,-4.465343,3.3442930582949764,-0.1183077223635022,1.316530151394825,7.119809,52.90376,359.7983,0.05480913,0.4446836,-0.02923112,16.7399996258318,14
5.594663,0.6833333,-4.428945,3.8260542629219234,-0.2987392270408467,1.4204617937179314,10.6792,53.28598,359.7326,0.0821357,0.4466768,-0.04380655,16.7599996253848,14
5.645005,0.8833332,-4.392556,4.13574337688386,0.2025121874001176,1.381990025910618,14.23794,53.66888,359.6905,0.1093744,0.4482311,-0.05833485,16.7799996249378,14
5.85424,0.2833333,-4.222749,4.426850556765952,0.6941540026167762,1.3292581563848405,3.586336,53.99288,0.04624739,0.02806499,0.4537016,-0.01384491,16.7999996244907,14
5.904256,0.4833333,-4.185127,4.88255645567118,0.2929186762656214,1.4093101612215784,7.171465,54.39083,0.1180606,0.05609807,0.4560745,-0.02766876,16.8199996240437,14
5.954257,0.6833332,-4.147516,5.315545018875814,-0.1200078346580564,1.488903990335189,10.75499,54.79691,0.2158815,0.08406773,0.4579929,-0.04146108,16.8399996235967,14
6.140912,0.2833333,-3.9975,5.511052552803704,0.3607032973128791,1.3971505356877028,3.567075,54.69663,0.08964084,0.02800409,0.4591544,-0.01360363,16.8599996231496,14
6.190673,0.4833333,-3.960086,5.674159126347449,0.8298719944869648,1.3008066338308395,7.132308,55.09737,0.2043957,0.05597176,0.4615075,-0.02718963,16.8799996227026,14
6.24042,0.6833333,-3.922682,5.800126722965137,0.4737023111419232,1.2730327605659837,10.69562,55.50891,0.3455893,0.08387668,0.4634055,-0.04074492,16.8999996222556,14
6.290153,0.8833332,-3.885288,5.904358039294242,0.096487972285911,1.262433874277036,14.25681,55.9348,0.5150653,0.1116916,0.4648469,-0.05425623,16.9199996218085,14
6.525075,0.2833333,-3.69639,5.857696300288,0.6039967058228728,1.1623708220604572,3.637956,55.40971,0.124972,0.02860951,0.4646519,-0.01379223,16.9399996213615,14
6.575978,0.4833333,-3.658377,5.791600409101294,1.0197662089216486,1.0801703923965402,7.273925,55.81254,0.2757701,0.05718175,0.4669477,-0.02756646,16.9599996209145,14
6.626866,0.6833332,-3.620375,5.697237320469538,0.514485935389878,1.106861842851873,10.90769,56.22882,0.4540575,0.08568764,0.4687647,-0.04130851,16.9799996204674,14
6.677737,0.8833331,-3.582386,5.576608921359503,0.0003732784257791,1.1608538515566336,14.53969,56.66237,0.6620317,0.114103,0.470101,-0.05500754,16.9999996200204,14
6.967484,0.2833333,-3.361109,5.248265432439924,0.3828125251549528,1.0890271946238668,6.666909,55.90049,359.8663,0.05081838,0.4679712,-0.02828269,17.0199996195734,14
7.065446,0.4833332,-3.297202,4.898011807041955,0.7476380224656363,1.0390403380524669,13.3335,56.27186,359.7751,0.101456,0.4685764,-0.05646525,17.0399996191263,14
7.163394,0.6833331,-3.233305,4.511247217025927,0.1894697395356219,1.1205586597497612,19.99948,56.64473,359.7264,0.1517411,0.4675882,-0.08445189,17.0599996186793,14
7.261328,0.883333,-3.169419,3.9319368876691545,0.3468774054466881,1.0894931124858276,26.66456,57.03006,359.7235,0.2015032,0.4650108,-0.1121476,17.0799996182323,14
7.489353,0.2918469,-3.03512,3.324953500119588,0.5275797185925586,1.0726844631915289,6.379904,53.64819,359.2879,0.04685775,0.4508536,-0.03064725,17.0999996177852,14
7.586731,0.4918469,-2.978628,2.683011324410364,0.0212730133269899,1.1814514792577215,12.7625,53.91958,358.6017,0.09355991,0.4517315,-0.06119382,17.1199996173382,14
7.684095,0.6918467,-2.922146,2.0210025455721894,-0.486672061655114,1.2975691837269956,19.14677,54.1186,357.9251,0.1399596,0.451185,-0.09154359,17.1399996168911,14
7.781445,0.8918465,-2.865674,1.1293373793604964,-0.0910631017866918,1.245596007141378,25.53181,54.24318,357.2413,0.1859113,0.4492168,-0.1216009,17.1599996164441,14
8.09844,0.3132679,-2.695922,0.224592094599231,0.3033381055757918,1.1932919791731156,6.749363,54.11781,358.0381,0.04463979,0.4549484,-0.04199357,17.1799996159971,14
8.214444,0.5132678,-2.654258,-0.6751667386874409,0.4965163020503198,1.1480689432823712,13.50924,54.15308,356.0577,0.08911686,0.4553557,-0.08391897,17.19999961555,14
8.330406,0.7132676,-2.612603,-1.605476375459464,-0.3380591761816232,1.2127331027632666,20.26712,53.94041,354.0082,0.1332604,0.4540375,-0.1255395,17.219999615103,14
8.645128,0.3305438,-2.43817,-2.644242745287574,-0.2362479845351529,1.1670226794937737,7.010648,54.11873,358.0163,0.04658045,0.4549369,-0.04319629,17.239999614656,14
8.764652,0.5305437,-2.394115,-3.6517214973109455,-0.1039761880662021,1.1202358906998395,14.03963,54.13577,356.0163,0.09306307,0.4551444,-0.08629693,17.2599996142089,14
8.884142,0.7305435,-2.350073,-4.608964329712469,0.0065825087942543,1.0815384546571676,21.06279,53.89108,353.9399,0.1391546,0.4534998,-0.1290344,17.2799996137619,14
9.003598,0.9305432,-2.306044,-5.56124158488166,-0.8300947617075692,1.1777022585241177,28.07026,53.34471,351.7105,0.184668,0.4500113,-0.1712353,17.2999996133149,14
9.288957,0.3506545,-2.13243,-6.620084807221453,-0.7276468337119877,1.120076436160294,7.699811,57.81351,358.9171,0.0542172,0.4828287,-0.04070834,17.3199996128678,14
9.412605,0.5506544,-2.076362,-7.596733804411103,-0.5920956510037814,1.0594185864659544,15.40197,57.98045,357.8474,0.1081706,0.4824062,-0.08121666,17.3399996124208,14
9.53622,0.7506542,-2.020306,-8.548352406278598,-1.1161752374392324,1.095945524614177,23.10378,57.99933,356.751,0.1616119,0.4797586,-0.1213384,17.3599996119738,14
9.659796,0.9501341,-1.964278,-9.549001656980405,-0.9145475654996262,1.000409864306489,30.80401,57.84901,355.5818,0.2143129,0.4749008,-0.1608857,17.3799996115267,14
9.772202,0.4346625,-1.846704,-10.433799143464189,-0.6797971346160965,0.903382906748385,7.865207,62.10682,0.3190127,0.06018658,0.5144567,-0.03299818,17.3999996110797,14
9.890594,0.6346624,-1.777016,-11.184547597562862,-0.464194596881115,0.8156987303317736,15.72556,62.56595,0.7046285,0.1200727,0.5136547,-0.06582908,17.4199996106327,14
10.00895,0.834662,-1.707343,-11.93603794493549,-1.1737623924754137,0.8589922457698327,23.5801,63.10535,1.17823,0.1793759,0.5104252,-0.09833762,17.4399996101856,14
10.12727,0.9669358,-1.637686,-12.761099685161383,-0.9441848560907552,0.7389341604747177,31.42732,63.76018,1.773353,0.2378166,0.5047854,-0.1303705,17.4599996097386,14
10.22904,0.3612442,-1.4886,-13.443185169282518,-0.6814844412368568,0.6271987535920438,6.504817,55.29696,0.4820924,0.05220495,0.4630827,-0.02260664,17.4799996092916,14
10.32207,0.5612442,-1.412485,-13.962596936601988,-0.4379318000061944,0.5345290263571317,13.37124,54.93076,0.9925587,0.1072634,0.4571643,-0.04605994,17.4999996088445,14
10.41507,0.7612441,-1.336383,-14.404329031762316,-1.1195495854948545,0.4749933276480044,20.23855,54.61669,1.475771,0.1619198,0.4495944,-0.06933492,17.5199996083975,14
10.50804,0.9522525,-1.260313,-14.953962714553288,-0.8620220256755695,0.2358815653291026,27.1076,54.3523,1.946027,0.2159965,0.4404035,-0.09233637,17.5399996079504,14
10.5756,0.341423,-1.087121,-15.3925234154665,-0.5713716807770817,-0.0083026919151979,5.607444,33.92795,359.5982,0.04576426,0.2915834,-0.01762127,17.5599996075034,14
10.63717,0.541423,-1.009189,-15.706599932575566,-0.2998690700375724,-0.2510308212569565,11.26491,32.38848,359.0498,0.0919476,0.27832,-0.03529634,17.5799996070564,14
10.69872,0.7414228,-0.9312949,-15.991029143447154,-0.9535366336377668,-0.5315269851042503,16.90626,30.75642,358.3332,0.1379069,0.2643423,-0.05285065,17.5999996066093,14
10.73804,0.3245347,-0.7550225,-16.289028230454974,-0.6782793673350158,-0.9014835016034932,4.391064,16.60412,359.285,0.03700737,0.1445195,-0.01170139,17.6199996061623,14
10.77316,0.5245347,-0.6838757,-16.449333417261222,-0.3710786076697526,-1.2681232201266477,8.818577,14.0573,358.3757,0.07456592,0.1230727,-0.02343283,17.6399996057153,14
10.80827,0.7245346,-0.6127012,-16.46107547083157,-0.0842492682126293,-1.6218278315213157,13.1964,11.40333,357.2544,0.1119402,0.1014016,-0.03509387,17.6599996052682,14
10.84336,0.9245346,-0.5415245,-16.262649062532407,-0.7238583830632218,-1.9886522337989536,17.51689,8.607056,355.8997,0.1490894,0.07954948,-0.04667581,17.6799996048212,14
10.87842,0.9849105,-0.4703459,-16.16677849311454,-0.4513507399769565,-2.4738249442010125,21.76613,5.629012,354.2849,0.1859391,0.05756065,-0.0581563,17.6999996043742,14
10.86329,0.3018373,-0.3099467,-15.95442966475884,-0.1500447525602138,-2.928056258456796,3.042856,349.2147,358.4178,0.02772792,-0.0935737,-0.01124614,17.7199996039271,14
10.88057,0.5018373,-0.2468112,-15.60813458533373,-0.5126811509802527,-3.3487795342344966,6.241249,345.998,356.6449,0.05757214,-0.1200721,-0.02238119,17.7399996034801,14
10.89787,0.7018372,-0.1838494,-15.385101369144497,-0.1749872477295419,-3.879115541758005,9.362155,342.6608,354.678,0.08756472,-0.1463261,-0.03345475,17.7599996030331,14
10.91514,0.9018372,-0.1208717,-15.0765208089088,0.1886425845517055,-4.367974473260981,12.36314,339.1849,352.5095,0.1174132,-0.1722968,-0.04446139,17.779999602586,14
10.87236,0.2834741,0.05219726,-14.682986331257064,0.525691281011426,-4.803584278849439,1.941634,325.6551,357.9599,0.02144066,-0.2948716,-0.01200474,17.799999602139,14
10.87915,0.4834741,0.1092611,-14.263694587563933,-0.0701102498186192,-5.151694020702674,4.176807,322.3601,355.7365,0.04646122,-0.3208748,-0.02343819,17.819999601692,14
10.88608,0.6834741,0.1660139,-13.981052967490648,0.2411634440711336,-5.589783716662374,6.334439,318.9702,353.3699,0.07189414,-0.3463382,-0.03474626,17.8399996012449,14
10.82214,0.2833334,0.307137,-13.665238266573969,0.5746001755416674,-5.98245857339755,1.776112,314.368,358.1309,0.02060809,-0.3874414,-0.009022797,17.8599996007979,14
10.81694,0.4833333,0.3603951,-13.32023832581392,0.8775775604288634,-6.3200538899044485,3.888689,311.3396,356.1221,0.0448293,-0.4104755,-0.01684144,17.8799996003509,14
10.81201,0.6833333,0.4133817,-12.936278409481597,0.2443461831174084,-6.539034072555181,5.952304,308.2307,353.9923,0.0694933,-0.4329255,-0.02444653,17.8999995999038,14
10.80708,0.8833332,0.4663788,-12.532461827696476,0.4368422222297204,-6.767038748172924,7.901613,305.0361,351.7443,0.09410526,-0.4547781,-0.03199539,17.9199995994568,14
10.65906,0.2833333,0.6231349,-12.121121122183498,0.6384600274069475,-6.945819777153492,3.584173,301.8423,358.7736,0.03252807,-0.4854548,0.00584955,17.9399995990098,14
10.61744,0.4833332,0.6766861,-11.70944367936309,0.796138113939096,-7.068593380092512,7.120868,298.7914,357.3492,0.06518978,-0.5067508,0.01173742,17.9599995985627,14
10.57583,0.6833333,0.730235,-11.345113400952703,0.0843672378673224,-7.01548784720304,10.57891,295.6259,355.7212,0.097766,-0.5271346,0.01761337,17.9799995981157,14
10.53423,0.8833332,0.7837788,-10.96906082288228,0.3015818317164755,-6.991755306331845,13.94381,292.3219,353.8766,0.1301997,-0.5465705,0.02346148,17.9999995976686,14
10.39499,0.2833332,0.8403531,-10.58039442047222,0.5352777374517774,-6.915954671610636,5.074849,295.3256,359.1801,0.0412287,-0.5340952,0.01764075,18.0199995972216,14
10.32132,0.4833332,0.8939382,-10.280098365330268,0.0924633306440587,-6.664408118644044,10.10072,292.2739,358.0863,0.08235761,-0.5537482,0.03523197,18.0399995967746,14
10.24766,0.6833331,0.9475036,-9.964845314037133,-0.3515932846290507,-6.358885674455939,15.06227,289.0659,356.6928,0.1233007,-0.5719098,0.05271693,18.0599995963275,14
10.174,0.883333,1.001057,-9.61776849463008,0.1111297679882289,-6.114148451328672,19.93958,285.6449,354.9666,0.1639443,-0.5885303,0.07006028,18.0799995958805,14
9.999746,0.2833332,1.011773,-9.24286813884185,0.5637942436188348,-5.827757558756854,5.434013,290.6135,0.3534324,0.03722148,-0.5686607,0.02951389,18.0999995954335,14
9.90839,0.4833332,1.042097,-8.911939528210365,0.1011199274482397,-5.36022706257,10.87908,287.7291,0.4335589,0.07433745,-0.5873262,0.05894193,18.1199995949864,14
9.817031,0.6833332,1.072423,-8.549037070275032,0.3683418225342895,-4.967475475862768,16.32133,284.7884,0.2304304,0.1112414,-0.604271,0.08819791,18.1399995945394,14
9.725669,0.8833331,1.102752,-8.158718452552163,0.6546369302725994,-4.538525118506482,21.74604,281.732,359.7207,0.1478274,-0.6194472,0.1171963,18.1599995940924,14
9.682768,0.2833332,1.099784,-7.750814683497323,0.9075194884627864,-4.074816956844154,5.133494,287.314,0.9617373,0.03110222,-0.5923055,0.03329176,18.1799995936453,14
9.591398,0.4833331,1.112901,-7.4831022681973245,0.2207520135482851,-3.375071521961932,10.30898,284.5259,1.674971,0.06213195,-0.6105371,0.06649288,18.1999995931983,14
9.500045,0.683333,1.126007,-7.204481265369438,-0.3343336318274333,-2.64348388779652,15.51548,281.7488,2.140394,0.09302021,-0.6270936,0.09952018,18.2199995927513,14
9.421795,0.2833332,1.129833,-6.867138812277864,0.0974311301586443,-1.991272416467792,5.436742,279.3929,0.6679317,0.03240231,-0.6463093,0.03511703,18.2399995923042,14
9.32548,0.4833331,1.136261,-6.690048032279322,-0.1179962262411027,-1.133270926670136,10.91588,276.5747,1.070974,0.0648089,-0.6630133,0.0702313,18.2599995918572,14
9.229196,0.683333,1.142686,-6.48970989760594,-0.3147862474455223,-0.2667987859473788,16.40996,273.7331,1.202795,0.09703965,-0.6777571,0.1051501,18.2799995914102,14
9.132945,0.883333,1.149109,-6.279378708816856,-0.5473971021212123,0.6039924078770256,21.90539,270.8117,1.045905,0.1290006,-0.6904975,0.1397696,18.2999995909631,14
8.98287,0.2833333,1.176776,-6.000963069121185,0.1121417314964221,1.342836906837704,6.788388,271.7023,0.4244179,0.03990617,-0.6954555,0.0438905,18.3199995905161,14
8.863514,0.4833333,1.175803,-6.004175541918681,-0.1134506132208577,2.328709819631266,13.5942,268.8529,0.51385,0.07966606,-0.7094946,0.08763821,18.3399995900691,14
8.744198,0.6833331,1.174832,-5.982439201518908,-0.3181528060573559,3.2671816862298613,20.39725,265.9123,0.2467392,0.1191049,-0.72057,0.1310305,18.359999589622,14
8.624923,0.8833328,1.173861,-5.866713428481039,0.1641299659193654,4.054655426988853,27.17861,262.781,359.5743,0.1580608,-0.7286359,0.1738839,18.379999589175,14
8.519769,0.2833335,1.223629,-5.734380141029591,0.6417080459177,4.782672466054112,7.282515,263.8146,359.5663,0.04522992,-0.7425582,0.04474231,18.399999588728,14
8.392034,0.4833333,1.220626,-5.7782856776999285,0.2096049628266921,5.628457672270113,14.53179,260.8046,358.7453,0.09024044,-0.7544544,0.08926606,18.4199995882809,14
8.264322,0.6833332,1.217623,-5.81636616388563,-0.2272023879801089,6.379781190269469,21.72501,257.5594,357.4826,0.1348225,-0.7628142,0.1333627,18.4399995878339,14
8.136636,0.8833328,1.214621,-5.694133144407821,0.2362630360995428,6.91216038424022,28.83237,253.9405,355.6823,0.1787695,-0.7676017,0.176826,18.4599995873868,14
7.972233,0.2833333,1.317941,-5.789735588578489,0.0547102384057192,7.580541639848404,6.825548,258.0964,358.312,0.04891726,-0.7746027,0.03696275,18.4799995869398,14
7.849363,0.4833333,1.325409,-5.838589796444451,-0.1059347122596022,8.11065286904253,13.54954,254.8849,356.2304,0.09761168,-0.7856354,0.0737545,18.4999995864928,14
7.726517,0.6833332,1.332876,-5.8536182865051405,-0.3000328234634471,8.502798264704401,20.13928,251.3041,353.6781,0.1458712,-0.7932179,0.1102135,18.5199995860457,14
7.518,0.2833333,1.453212,-5.731289867183797,0.3784383839164657,8.753841654048514,6.212612,260.8037,358.1789,0.04720161,-0.7597442,0.03097551,18.5399995855987,14
7.406033,0.4833333,1.47028,-5.935670568375708,0.1717955957707279,9.230012616366656,12.31906,257.6189,356.001,0.09423691,-0.7719179,0.06181769,18.5599995851517,14
7.294108,0.6833332,1.487323,-6.052981391688988,-0.0139389878159755,9.532983837075529,18.28954,254.1015,353.4032,0.1409357,-0.7811436,0.09240597,18.5799995847046,14
7.182228,0.883333,1.504348,-6.094623810630392,-0.2331268135703726,9.664569510241725,24.08481,250.1514,350.303,0.1871148,-0.787386,0.1226329,18.5999995842576,14
7.013689,0.2833333,1.651583,-6.313110889351494,-0.2200590624060472,10.018170765257487,6.740513,268.5607,358.0861,0.05297488,-0.7139087,0.03044212,18.6199995838106,14
6.895994,0.4833332,1.685145,-6.392619094084694,-0.16151606935977,10.204007118376358,13.37208,265.3333,355.7727,0.105789,-0.7269016,0.06072678,18.6399995833635,14
6.778333,0.683333,1.718698,-6.345185322607978,-0.110813884102501,10.228351474986894,19.85433,261.7156,352.9877,0.1581295,-0.7367198,0.09073703,18.6599995829165,14
6.660706,0.8833328,1.752241,-6.182990717625154,-0.1212683172545714,10.097695260977307,26.14007,257.5805,349.6202,0.2097701,-0.7433246,0.1203419,18.6799995824695,14
6.405222,0.2833333,1.975889,-6.278680395237762,-0.1395628671790422,10.1742655395967,7.505667,284.265,358.7288,0.05846172,-0.6119103,0.03143644,18.6999995820224,14
6.285502,0.4833332,2.032693,-6.243660971503051,-0.1123820572643651,10.104066693730305,14.91215,281.1535,357.0322,0.1165136,-0.6268675,0.0625447,18.7199995815754,14
6.166048,0.683333,2.08937,-6.09364970371572,-0.093041923329803,9.897499806598056,22.19548,277.694,354.8369,0.1738701,-0.6385829,0.09325951,18.7399995811284,14
5.884063,0.2833334,2.319208,-5.860166973903851,0.5854293734327397,9.576437236141665,7.852478,298.1894,359.9329,0.05905059,-0.5123807,0.03466707,18.7599995806813,14
5.765458,0.4833332,2.387978,-5.992396264749303,0.3787867926268314,9.600495060432449,15.69021,295.352,359.4737,0.1177754,-0.5291665,0.06913963,18.7799995802343,14
5.646885,0.683333,2.456732,-5.976764726270268,0.1930524281408331,9.48717698980792,23.49248,292.3078,358.5708,0.1758661,-0.5431495,0.1032354,18.7999995797873,14
5.528347,0.8833327,2.525469,-5.833543191938026,-0.0261351795582734,9.250299004941946,31.23262,288.9018,357.1209,0.2330187,-0.5542595,0.1367747,18.8199995793402,14
5.143902,0.2833333,2.836914,-5.956328266170824,-0.0130674509573981,9.297967214170434,7.568934,309.6816,1.438355,0.05441243,-0.4249241,0.03939426,18.8399995788932,14
5.027812,0.4833333,2.904783,-5.898582576554551,0.0454753984319952,9.222849646388562,15.19249,307.1698,2.553643,0.1085345,-0.4434957,0.07857487,18.8599995784461,14
4.911754,0.6833332,2.972636,-5.679771744235528,0.0961777847566269,9.041053230579804,22.85412,304.7032,3.358682,0.1620922,-0.4597942,0.1173421,18.8799995779991,14
4.79573,0.8833328,3.040473,-5.319177930731598,0.0857236978098021,8.769231376438967,30.53936,302.1917,3.837275,0.2148149,-0.4737396,0.1554987,18.8999995775521,14
4.513656,0.2833333,3.276069,-5.43918732491025,0.0674289333147442,8.908947006377385,7.381187,304.5754,1.188952,0.05216708,-0.4646337,0.03909799,18.919999577105,14
4.397186,0.4833333,3.334831,-5.375121589427771,0.0946097133480943,8.932594061716166,14.80654,302.021,2.053988,0.1040758,-0.4825521,0.07798519,18.939999576658,14
4.280749,0.6833332,3.393575,-5.147647053515496,0.1139498815198615,8.86005734165797,22.26012,299.4765,2.600135,0.1554702,-0.4981284,0.1164843,18.959999576211,14
3.927871,0.2833334,3.682169,-4.777093576548169,0.0721337616321391,8.711660894835356,7.769416,301.0581,0.8512101,0.05533491,-0.4912763,0.0397825,18.9799995757639,14
3.806423,0.4833332,3.741769,-4.662629840454318,0.0224769508671927,8.722161255502055,15.50225,298.5273,1.354903,0.1099292,-0.507754,0.07899563,18.9999995753169,14
3.685668,0.6833331,3.80103,-4.405101259451863,0.0182952459936613,8.623896404133287,23.20585,296.0002,1.51501,0.1636887,-0.5212989,0.1175546,19.0199995748699,14
3.565357,0.8833328,3.860072,-4.025574590867871,0.006272836913919,8.439714899891467,30.88054,293.3528,1.295101,0.2164608,-0.5320202,0.1553533,19.0399995744228,14
3.084991,0.2833333,4.258573,-3.887993325886857,0.0130681409281223,8.434066651041784,8.138985,298.0175,0.283061,0.05956673,-0.5137575,0.03865316,19.0599995739758,14
2.958609,0.4833332,4.323788,-3.62492915704656,0.0653387632263899,8.304153789525557,16.2803,295.4771,0.2053051,0.1187888,-0.5286196,0.07708076,19.0799995735288,14
2.83226,0.683333,4.388988,-3.2591551456759733,0.1097687613794967,8.075658053930825,24.40751,292.7895,359.7287,0.1773395,-0.5405425,0.1150697,19.0999995730817,14
2.367117,0.2833333,4.772871,-2.813496625391844,0.0930422196162024,7.774828125733067,7.874588,293.2885,359.0968,0.06167532,-0.5480688,0.03118534,19.1199995726347,14
2.24869,0.4833332,4.844434,-2.826566950970105,0.0684751881301674,7.775769180238976,15.69695,290.5347,357.8054,0.1230107,-0.5621585,0.06219606,19.1399995721877,14
2.130296,0.683333,4.915979,-2.731766198551453,0.0893833708226939,7.645411388355814,23.44292,287.4562,356.0436,0.183685,-0.5732818,0.09286857,19.1599995717406,14
2.011936,0.8833328,4.987508,-2.5521536089585206,0.1024510786895851,7.412469115074881,31.07789,283.8842,353.6749,0.2433811,-0.5813834,0.1230415,19.1799995712936,14
1.610494,0.2833333,5.354697,-2.310740108477634,0.0543622897632745,7.1058713796090665,7.445942,291.9008,358.3239,0.06196647,-0.5578818,0.0242591,19.1999995708466,14
1.502697,0.4833332,5.432922,-2.2538862802389894,-0.0015670786168802,6.880615511804683,14.80164,289.0225,356.2596,0.1236131,-0.5719773,0.04838871,19.2199995703995,14
1.394934,0.683333,5.51113,-2.124782615533444,-0.012021335878567,6.538000176846239,22.03604,285.739,353.7119,0.1846387,-0.5832566,0.07226989,19.2399995699525,14
1.287204,0.8833328,5.589321,-1.945126654334924,-0.0303161582196956,6.105447187580777,29.10462,281.8926,350.5395,0.2447457,-0.5916679,0.09578511,19.2599995695055,14
0.7548642,0.2833333,6.089519,-1.5416326597071084,0.6105198396337362,5.402682603662946,6.958169,302.6891,358.6853,0.05873958,-0.4780149,0.01904958,19.2799995690584,14
0.6672584,0.4833332,6.176611,-1.6180117541251269,0.3662422826893301,5.119280526431387,13.84376,299.9181,357.0146,0.1172372,-0.4940835,0.03792625,19.2999995686114,14
0.5796637,0.6833331,6.263671,-1.6298122094376557,0.1428730380684003,4.736805883744054,20.63315,296.8317,354.9261,0.1752176,-0.5080251,0.05660784,19.3199995681643,14
0.0816384,0.2833333,6.743665,-1.6010101345207204,-0.1139493132523907,4.28243359375395,7.303218,305.953,358.2015,0.06384525,-0.4524872,0.01498159,19.3399995677173,14
-0.0007563159,0.4833331,6.845895,-1.6517847964367318,-0.1385165242006319,3.898954381749761,14.51222,303.076,356.0121,0.1274205,-0.4686093,0.02981402,19.3599995672703,14
-0.08312752,0.683333,6.948095,-1.6150807631435304,-0.117608716897739,3.422963979492996,21.59356,299.7892,353.3477,0.1903709,-0.4824801,0.04449803,19.3799995668232,14
-0.1654752,0.8833327,7.050266,-1.5171978689434642,-0.1045413690006712,2.881867435795602,28.50224,295.9425,350.0717,0.2523975,-0.4940362,0.05896303,19.3999995663762,14
-0.7972662,0.2833333,7.663355,-1.8392179067859475,-0.7929439250303465,2.735773310482111,7.788352,315.7349,359.0654,0.06597316,-0.3753553,0.0180483,19.4199995659292,14
-0.8780368,0.4833333,7.773942,-1.884505831361114,-0.5585977964482863,2.330136704896365,15.52394,313.0165,357.7516,0.1315894,-0.3924583,0.03599698,19.4399995654821,14
-0.9587842,0.6833332,7.884501,-1.8589509737279533,-0.3075253300451784,1.8832969576766416,23.18326,309.9777,355.9784,0.1965125,-0.4075273,0.05375294,19.4599995650351,14
-1.039414,0.883333,7.994885,-1.7916596704704526,-0.0919969260565845,1.4250504593675046,30.72473,306.467,353.6152,0.2603528,-0.4204176,0.07117876,19.4799995645881,14
-1.516458,0.2833334,8.425049,-1.42775181976557,0.6421750507457576,0.7093949292308448,7.846583,319.2694,0.1963517,0.06354906,-0.3472983,0.02541335,19.499999564141,14
-1.606398,0.4833332,8.5284,-1.5278580761973632,0.3796720202737683,0.4812146542179984,15.69229,316.8606,0.06258341,0.1267547,-0.3642605,0.05068998,19.519999563694,14
-1.696317,0.683333,8.631721,-1.5588702946209896,0.1385650688139349,0.2535889426851003,23.52285,314.3139,359.5643,0.1892942,-0.3793406,0.07569993,19.539999563247,14
-2.204058,0.2833334,9.087896,-1.5523484014743465,-0.1355070102644337,0.0567507810052543,7.573737,317.2247,0.6686817,0.05937257,-0.3642326,0.02950631,19.5599995627999,14
-2.300736,0.4833334,9.178782,-1.5314736248364866,-0.176835863692599,-0.0981823388320197,15.16602,314.9234,1.036956,0.1184405,-0.3810365,0.05886411,19.5799995623529,14
-2.397222,0.6833333,9.269432,-1.4242731662992147,-0.1722015063502409,-0.2506603067972328,22.75043,312.5876,1.097945,0.1768058,-0.3958617,0.08789386,19.5999995619059,14
-2.493608,0.8833331,9.359992,-1.26088050044251,-0.1749197472895785,-0.3722237388464897,30.32363,310.1117,0.811114,0.2342616,-0.4087231,0.1164949,19.6199995614588,14
-3.137052,0.2833335,9.922537,-0.6644283038493093,0.4819810132468639,-0.8167897391218819,7.548263,307.1123,0.322369,0.05768608,-0.4445186,0.03182577,19.6399995610118,14
-3.244072,0.4833333,9.999547,-0.5983905248798278,0.2542557225790713,-0.7258711086799341,15.10191,304.775,0.3499465,0.1150371,-0.4598236,0.06358842,19.6599995605648,14
-3.351062,0.6833332,10.07654,-0.4631879170314086,0.0479265956888342,-0.6294678205142397,22.64799,302.3361,0.04621761,0.1718253,-0.4729234,0.09503796,19.6799995601177,14
-3.458021,0.883333,10.1535,-0.289615929978817,-0.1913674785736735,-0.4985692088200242,30.17183,299.6887,359.3523,0.2277817,-0.4837582,0.1260241,19.6999995596707,14
-3.929394,0.2833335,10.5622,-0.2504165641506883,-0.1979191442617193,-0.2450268661936423,7.985051,304.0275,0.5423453,0.05926803,-0.4684063,0.03684168,19.7199995592237,14
-4.04757,0.4833332,10.63395,-0.1605232146757238,-0.1585072562844665,-0.0097155898689607,15.89995,301.8294,0.7773015,0.1175988,-0.4822481,0.07310256,19.7399995587766,14
-4.16488,0.683333,10.70518,-0.0511861903857617,-0.1264480895118075,0.238088174307169,23.76063,299.6131,0.6982598,0.1749361,-0.4932238,0.1086874,19.7599995583296,14
-4.281616,0.8833327,10.77605,0.04641843712945,-0.1550576520596143,0.5292237623594094,31.57426,297.2584,0.2628075,0.2311432,-0.5014698,0.1435137,19.7799995578825,14
-4.87398,0.2833334,11.30803,0.6109663085761561,0.5489018684104099,0.3880147716512976,8.122412,300.1781,359.7385,0.06252379,-0.4972599,0.03334214,19.7999995574355,14
-4.992822,0.4833333,11.38554,0.6201428896064893,0.2566740460187503,0.7110829742588116,16.22666,297.9287,359.1534,0.1246955,-0.5095033,0.06649479,19.8199995569885,14
-5.111631,0.683333,11.46303,0.6122893197531898,-0.0136698061810602,1.0297342661252529,24.29845,295.4707,358.1901,0.1861821,-0.5189984,0.09927922,19.8399995565414,14
-5.619701,0.2833333,11.92183,1.0471050466037113,0.4037968336243606,0.9042079783967124,7.717655,296.3852,358.6364,0.06344532,-0.5251533,0.02537857,19.8599995560944,14
-5.728115,0.483333,12.00522,1.0164649933727752,0.1772213492070772,1.1375904167130404,15.37135,293.9235,356.9281,0.1265557,-0.5371022,0.05061991,19.8799995556474,14
-5.836495,0.683333,12.08859,0.9586395888424164,-0.027470189062803,1.331427020730505,22.93784,291.1019,354.7855,0.1890152,-0.5463458,0.07559676,19.8999995552003,14
-6.371017,0.2833333,12.57732,0.8415359753796956,-0.2646386655680685,1.5163126222859429,7.186569,297.8696,358.2977,0.06132927,-0.5141443,0.01963739,19.9199995547533,14
-6.466111,0.4833332,12.66423,1.2924386295038506,0.3717368033422912,1.1093482159137285,14.29515,295.3785,356.2695,0.1223663,-0.5266531,0.03917637,19.9399995543063,14
-6.561173,0.683333,12.75111,1.136463111807755,0.1239737039080283,1.183271296321449,21.30113,292.5215,353.8312,0.182838,-0.5367853,0.05852873,19.9599995538592,14
-6.656218,0.8833328,12.83796,0.9595360509980432,-0.1019054052102212,1.1957491780401046,28.16803,289.1674,350.8593,0.2424756,-0.5445026,0.07758562,19.9799995534122,14
-6.751247,0.9766697,12.92478,0.7295121720706454,-0.3602617455402619,1.1753771833785276,34.84414,285.1346,347.1793,0.3010141,-0.5497745,0.09626168,19.9999995529652,14
-7.302319,0.2833333,13.45361,0.4282409384684467,-0.3853870721004946,1.1984545124233357,7.08316,306.5584,358.3716,0.06154756,-0.447955,0.01510498,20.0199995525181,14
-7.382654,0.4833332,13.55172,0.1385740377459825,-0.3640614685934887,1.1619166458978365,14.08935,304.0965,356.4149,0.1228347,-0.4615725,0.0300346,20.0399995520711,14
-7.462966,0.683333,13.64981,-0.1720065329437474,-0.3496004937826662,1.094532505303892,20.99796,301.2865,354.0626,0.1835703,-0.473166,0.04482754,20.0599995516241,14
-7.941066,0.2833334,14.11185,-0.0345360658017792,0.3249667953100504,0.6013402472684923,7.491614,309.8981,358.2105,0.06577513,-0.4215441,0.01354285,20.079999551177,14
-8.019234,0.4833333,14.22123,-0.2950076602449822,0.1153967803955172,0.4774758980453946,14.90382,307.3863,356.073,0.1312501,-0.4351938,0.02698862,20.09999955073,14
-8.09738,0.6833332,14.33059,-0.5492478669226308,-0.0722888729950146,0.3351902342878183,22.2067,304.4703,353.4944,0.1960706,-0.4467182,0.04029808,20.119999550283,14
-8.175503,0.8833331,14.43991,-0.8304424536106367,-0.2924520774059539,0.2039874942656929,29.36064,301.0007,350.3331,0.2599232,-0.4560637,0.0534058,20.1399995498359,14
