pX,pY,pZ,aX,aY,aZ,reX,reY,reZ,rtX,rtY,rtZ,t,ID
-42.00042,0.23,-35.99971,5.2195857646577934,0.2342294804131989,4.220480592833077,0.01615796,0.01360155,0.02372982,0.0001410293,0.0001186667,0.000207065,7.61999982967973,17
-42.00084,0.43,-35.99943,5.782598168458186,-0.194760710670499,4.445430596056461,0.03235087,0.01361159,0.04743205,0.0002823637,0.0001186667,0.0004138892,7.63999982923269,17
-42.00126,0.63,-35.99914,6.265484486991383,-0.3793687748831284,4.620690310972925,0.04866616,0.0136285,0.07134622,0.0004247663,0.0001186666,0.0006225626,7.65999982878566,17
-42.00164,0.2833333,-35.99876,6.669119511393035,-0.34492838438731,4.747271085517873,0.0251332,7.326308,0.03797517,0.0002400535,0.06389047,0.0003167058,7.67999982833862,17
-42.00224,0.4833333,-35.99824,6.994642016476384,-0.1157279204862195,4.826366352071453,0.05028035,7.326334,0.07594538,0.0004802257,0.06389046,0.0006333604,7.69999982789159,17
-42.00285,0.6833333,-35.99772,7.498653205857778,-0.5687624879561789,4.9350900708768535,0.07549027,7.326375,0.1140642,0.0007210276,0.06389043,0.0009512741,7.71999982744455,17
-41.97289,0.2833333,-35.9657,7.898838139047264,-0.7700272557791348,4.984793932102022,1.086082,15.25441,0.5244915,0.01000123,0.1326767,0.003278403,7.73999982699752,17
-41.97677,0.4833334,-35.94477,8.198207068041206,-0.7448558022049641,4.978233708593201,2.172054,15.26933,1.049278,0.02000109,0.1326546,0.006555754,7.75999982655048,17
-41.98065,0.6833334,-35.92387,8.400032024438822,-0.5175367470647672,4.918342048010118,3.259963,15.29427,1.575673,0.03001805,0.1326178,0.009837279,7.77999982610345,17
-41.98452,0.8833334,-35.90298,8.672495448124693,-0.9650657271618944,4.848373558437309,4.34987,15.32935,2.104265,0.04005254,0.132566,0.01312416,7.79999982565641,17
-41.90235,0.2833333,-35.86579,8.835637012442803,-1.153437632440704,4.723226469122622,1.955941,23.58668,0.1494751,0.01697423,0.2043305,-0.002211693,7.81999982520938,17
-41.89093,0.4833333,-35.8333,8.894333019147325,-1.1079853634634484,4.546880528714489,3.912477,23.5943,0.2982863,0.03394689,0.2042405,-0.004432456,7.83999982476234,17
-41.87953,0.6833333,-35.80082,9.037111111516268,-1.4933126156705794,4.37600187827028,5.871335,23.60682,0.4452083,0.05092502,0.2040896,-0.006678073,7.85999982431531,17
-41.75303,0.2833333,-35.73082,9.064180563389847,-1.615509451908709,4.153494660579071,3.504159,32.20164,0.1179534,0.02966081,0.2771684,-0.007490752,7.87999982386827,17
-41.72197,0.483333,-35.6777,8.982170891596638,-1.4999102512995846,3.8842988254960815,7.011614,32.21234,0.2347143,0.05931657,0.276778,-0.01499981,7.89999982342124,17
-41.69092,0.683333,-35.62461,9.000229912011783,-1.8111172430077391,3.636210760081213,10.521,32.23037,0.3530172,0.08893254,0.2761275,-0.02250144,7.91999982297421,17
-41.51356,0.2833333,-35.52831,8.89870592070261,-1.855221967916574,3.342523892010348,4.436805,40.88641,0.2264122,0.03696036,0.3489446,-0.01167013,7.93999982252717,17
-41.46564,0.4833336,-35.46697,8.686118276065521,-1.6575579786633976,3.0090741231332814,8.8761,40.91269,0.4530132,0.07387833,0.3481563,-0.02335113,7.95999982208014,17
-41.41774,0.6833331,-35.40566,8.371248847887884,-1.2424136570740918,2.641804187582899,13.31703,40.95737,0.6850423,0.1106992,0.3468435,-0.03500348,7.9799998216331,17
-41.36986,0.8833335,-35.34438,8.127193019460613,-1.4867836815715592,2.293443836185276,17.75923,41.02191,0.9257848,0.1473654,0.3450077,-0.04660743,7.99999982118607,17
-41.19459,0.2833335,-35.29444,7.779328027309887,-1.4566639131997698,1.9161867243420545,3.768071,49.85838,0.3102246,0.03095392,0.4211877,-0.01140375,8.01999982073903,17
-41.14779,0.4833333,-35.24803,7.338151121133684,-1.1773879030279213,1.5167878878843553,7.53491,49.88918,0.6229085,0.0618644,0.4205001,-0.02279287,8.039999820292,17
-41.10101,0.6833335,-35.20162,6.99730463449837,-1.3135578919814146,1.1579560823028745,11.29886,49.94097,0.9392911,0.09268014,0.4193553,-0.03416131,8.05999981984496,17
-40.88436,0.2833328,-35.12447,6.56248825221261,-1.1712656456198802,0.7831109425052674,3.66137,56.4657,0.2889643,0.0293377,0.4727421,-0.01289167,8.07999981939793,17
-40.83385,0.483333,-35.08505,6.046007392814921,-0.7758447016835222,0.3997031817231189,7.321476,56.49358,0.5801126,0.05863549,0.4720138,-0.02576672,8.09999981895089,17
-40.78336,0.6833332,-35.04565,5.662273655488335,-0.7918973950104896,0.0795338251561794,10.98031,56.54062,0.8758652,0.08786395,0.4708014,-0.03861254,8.11999981850386,17
-40.54967,0.2833332,-34.95673,5.197304042098736,-0.5255147190373403,-0.2417004653670353,3.572437,62.74521,0.3957242,0.02841001,0.5202535,-0.0132802,8.13999981805682,17
-40.49737,0.4833331,-34.92214,4.665819384374878,-0.2421266356762708,-0.5562422791897674,7.143645,62.78244,0.7941977,0.05678266,0.519486,-0.02654511,8.15999981760979,17
-40.44508,0.6833331,-34.88756,4.082392187661583,0.0062752874442132,-0.8559555665368244,10.71347,62.84524,1.198721,0.08509076,0.518208,-0.03978091,8.17999981716275,17
-40.39281,0.8833331,-34.85299,3.4617908063253253,0.7101315364750381,-1.1326872461461974,14.28164,62.93464,1.611647,0.1133014,0.5164208,-0.05298158,8.19999981671572,17
-40.10144,0.2833332,-34.74746,3.031420617611097,0.4110389169018058,-1.315065991548618,3.497521,68.19748,0.4267447,0.02735683,0.5602617,-0.01402594,8.21999981626868,17
-40.04752,0.4833332,-34.71795,2.5742983899102825,0.1270698083585297,-1.4648955547237072,6.99381,68.23678,0.8564216,0.05467902,0.5594674,-0.02803547,8.23999981582165,17
-39.99361,0.6833334,-34.68845,2.069844721650398,0.5241510784282464,-1.6112214842246535,10.48857,68.30303,1.292249,0.08193976,0.5581449,-0.04201535,8.25999981537461,17
-39.93973,0.8833334,-34.65894,1.7448353216639418,0.2704295373009055,-1.6837773396583169,13.98186,68.39692,1.735114,0.109103,0.5562943,-0.05597176,8.27999981492758,17
-39.73162,0.283333,-34.59178,1.4232450948618691,0.0318317740446574,-1.736117004116192,3.443067,70.32274,0.3765338,0.02645154,0.5755375,-0.01461538,8.29999981448054,17
-39.67726,0.4833327,-34.56539,1.1230400288006308,-0.2460040299721639,-1.7618693950582165,6.884749,70.35674,0.7542709,0.05286249,0.5747488,-0.02922205,8.31999981403351,17
-39.62292,0.6833332,-34.539,0.9520782159187108,-0.29736922806882,-1.712917454339891,10.32504,70.41409,1.137422,0.07921688,0.573436,-0.04379734,8.33999981358647,17
-39.39678,0.2833327,-34.46337,0.7867652286046365,-0.3090436489547356,-1.6475597844215135,3.399455,70.77361,0.275068,0.02557124,0.578779,-0.01522062,8.35999981313944,17
-39.34236,0.4833331,-34.43932,0.6443783115736181,-0.3343430354727681,-1.5609158234989096,6.797437,70.79814,0.550917,0.05110408,0.5780101,-0.03042896,8.3799998126924,17
-39.28795,0.683333,-34.41528,0.4042617046987828,0.293704532291644,-1.4932219912490758,10.19433,70.83948,0.8306364,0.07658483,0.5767301,-0.04560612,8.39999981224537,17
-39.04405,0.2833332,-34.33247,0.3319141561000904,0.0308530566070261,-1.378097848703785,3.351823,70.24347,0.1659228,0.02475387,0.5750343,-0.01564185,8.41999981179833,17
-38.98999,0.483333,-34.30999,0.2742774904033211,-0.2168746478274341,-1.2656621371187595,6.702297,70.25805,0.3322783,0.04947357,0.5742947,-0.03126868,8.4399998113513,17
-38.93594,0.683333,-34.28751,0.0713809616901883,0.2164479023827851,-1.206162392373333,10.05173,70.28262,0.5008998,0.07414366,0.5730634,-0.04686405,8.45999981090426,17
-38.88192,0.883333,-34.26504,0.0470388474860143,-0.0010337077068266,-1.109343542917685,13.4001,70.31761,0.6730053,0.09874319,0.5713419,-0.06241481,8.47999981045723,17
-38.67423,0.2833335,-34.19885,0.0220845145190935,-0.2033910924894797,-1.0347026502762304,3.30245,69.38169,0.03487213,0.02386609,0.5689046,-0.01615007,8.49999981001019,17
-38.62052,0.4833333,-34.17801,0.0101087750214574,-0.4449867401825221,-0.98218760071504,6.603989,69.38472,0.06999126,0.04770592,0.5681959,-0.03228211,8.51999980956316,17
-38.56682,0.6833333,-34.15716,-0.1281823701738389,0.180202786194074,-0.938390093323168,9.904191,69.38972,0.1049324,0.07149343,0.5670159,-0.04838534,8.53999980911613,17
-38.34178,0.2833336,-34.08397,-0.0100527409638644,-0.0855063882449361,-0.8253831605064867,3.253467,68.16709,359.9276,0.02315773,0.5601901,-0.01643164,8.55999980866909,17
-38.28862,0.4833333,-34.06404,0.1177631255859523,-0.3360921711793035,-0.7233691328344705,6.506063,68.1609,359.8548,0.04629076,0.5595126,-0.03284547,8.57999980822206,17
-38.23547,0.6833332,-34.04412,0.065771704924785,0.0943735578118634,-0.6674794533051625,9.757658,68.15045,359.7811,0.06937945,0.5583845,-0.04922784,8.59999980777502,17
-37.99321,0.2833333,-33.96401,0.2261360306259661,-0.1259639342822217,-0.5518575557799252,3.206385,65.92889,359.8165,0.02260227,0.5439424,-0.01656589,8.61999980732799,17
-37.94083,0.4833335,-33.94412,0.3854060463245545,-0.3311781496926255,-0.4457822983910056,6.411767,65.91341,359.6319,0.04518003,0.5433016,-0.03311365,8.63999980688095,17
-37.88847,0.6833336,-33.92423,0.3379393295944268,0.1446579946925666,-0.4061021592817582,9.616155,65.88734,359.445,0.06771563,0.5422349,-0.04963091,8.65999980643392,17
-37.83611,0.8833339,-33.90435,0.2904499884296285,0.6100055186368382,-0.3719604590601584,12.81921,65.8503,359.2548,0.09019008,0.5407434,-0.06610205,8.67999980598688,17
-37.78378,0.9766707,-33.88447,0.4154155072930479,0.159886276019611,-0.2901031384832286,16.02127,65.80169,359.0597,0.1125879,0.5388286,-0.08251682,8.69999980553985,17
-37.53278,0.2833333,-33.80538,0.5466607136484924,-0.3007218763560039,-0.2144395029274548,3.463888,67.2543,359.8136,0.02426549,0.5535733,-0.01809111,8.71999980509281,17
-37.47573,0.4833332,-33.785,0.4113242568596007,0.1331583180730076,-0.227243112034376,6.926825,67.23728,359.6259,0.0485024,0.5528126,-0.03616079,8.73999980464578,17
-37.4187,0.6833332,-33.76463,0.4559351897666062,-0.0837645898419753,-0.1866134349095318,10.38941,67.20852,359.4349,0.07269052,0.5515455,-0.05419951,8.75999980419874,17
-37.19868,0.2833336,-33.69513,0.4900392813308514,-0.2855639848975324,-0.1536853086518377,3.541179,69.31393,359.8619,0.02473068,0.5684205,-0.01856099,8.77999980375171,17
-37.14001,0.4833338,-33.67557,0.5274992812959169,-0.5266011408920095,-0.1252259568414047,7.081919,69.30099,359.7222,0.04943189,0.567605,-0.03710624,8.79999980330467,17
-37.08136,0.6833336,-33.65601,0.5986488848237883,-0.541166971984969,-0.0794023298580306,10.62165,69.27914,359.5803,0.07407886,0.5662471,-0.05561134,8.81999980285764,17
-36.84203,0.2833333,-33.57898,0.6537844310596483,-0.5160416249521058,-0.0410487649196902,3.589716,70.95709,359.9845,0.02542744,0.5801168,-0.01828858,8.8399998024106,17
-36.78273,0.4833333,-33.5588,0.7070224955161706,-0.5045418660935561,-0.0064833248104037,7.178796,70.95564,359.9691,0.05082633,0.579263,-0.03655472,8.85999980196357,17
-36.72345,0.6833335,-33.53862,0.5662294032429713,0.1603053721921877,-0.031185591784002,10.76682,70.9532,359.9535,0.07616796,0.5778415,-0.05477957,8.87999980151653,17
-36.66418,0.8833335,-33.51844,0.4278873813833215,0.674176216640278,-0.0564505598902016,14.35384,70.94971,359.9374,0.1014279,0.5758541,-0.07294575,8.8999998010695,17
-36.46521,0.2833333,-33.45462,0.5074236283929352,0.1610190513067941,-0.0154242364436285,3.553797,72.00406,0.08294248,0.02551041,0.587513,-0.01764151,8.91999980062246,17
-36.40669,0.4833334,-33.43408,0.3631109337940366,0.3581484030474911,-0.0459537370682561,7.106306,72.01184,0.1667372,0.05098832,0.5866653,-0.03525801,8.93999980017543,17
-36.34818,0.6833336,-33.41355,0.2109678937042822,0.5729804665840849,-0.0798739757007851,10.65776,72.02499,0.2518566,0.07640999,0.585254,-0.05283518,8.95999979972839,17
-36.12769,0.283333,-33.34354,0.236662386305305,0.1129300776041037,-0.0601994556750682,3.624436,73.01233,0.1053114,0.02596551,0.5945882,-0.01807502,8.97999979928136,17
-36.06773,0.483333,-33.32331,0.2599622345463999,-0.3571218387212118,-0.0435353183220534,7.247785,73.02239,0.2114076,0.05189717,0.5936955,-0.0361268,8.99999979883432,17
-36.00779,0.6833329,-33.30308,0.1108101499099092,0.0678020921283452,-0.0782720577203228,10.87072,73.03932,0.3188986,0.07777253,0.5922087,-0.05414269,9.01999979838729,17
-35.94787,0.883333,-33.28286,0.1589889395679655,-0.1575883826101731,-0.0509614643973961,14.49256,73.06348,0.4289388,0.1035622,0.5901302,-0.07209961,9.03999979794025,17
-35.67015,0.2833332,-33.19468,0.2023303864514929,-0.3673673285572048,-0.0256738544332932,3.629441,73.85621,0.1299959,0.02599595,0.600482,-0.01811985,9.05999979749322,17
-35.60995,0.4833332,-33.1749,0.0498688445052515,0.1043916422009157,-0.0609353291247387,7.2578,73.86864,0.260966,0.05195799,0.5995775,-0.03621646,9.07999979704618,17
-35.54976,0.6833335,-33.15512,-0.1010759804495862,0.5661498931065072,-0.09575331437388,10.88502,73.88963,0.3939981,0.07785986,0.5980717,-0.05427143,9.09999979659915,17
-35.30054,0.2833336,-33.07613,-0.0826114015845789,0.1129299552039089,-0.0776486617726526,3.574842,75.67082,0.2108744,0.02576235,0.6130505,-0.01767991,9.11999979615211,17
-35.24102,0.4833335,-33.05713,-0.2812392562098509,0.3699969735351926,-0.1283715285681594,7.148616,75.69068,0.4233515,0.05149227,0.6121526,-0.03533746,9.13999979570508,17
-35.18152,0.6833335,-33.03814,-0.480415184926855,0.6447661957669045,-0.179660859975673,10.72123,75.72419,0.6390783,0.07716414,0.6106579,-0.05295557,9.15999979525805,17
-35.12204,0.8833337,-33.01916,-0.6662287933891697,0.8849673700247109,-0.2275497833244202,14.29233,75.77197,0.8596351,0.1027497,0.6085683,-0.07051693,9.17999979481101,17
-34.91332,0.2833333,-32.95292,-0.6024804900039733,0.1845768838737828,-0.2004783364583424,3.512189,76.48682,0.2661406,0.025505,0.6186553,-0.017146,9.19999979436398,17
-34.85483,0.4833333,-32.93409,-0.5180091891469303,-0.4244256805191796,-0.1693921806607612,7.023268,76.51144,0.5342176,0.0509784,0.6177788,-0.03427072,9.21999979391694,17
-34.79635,0.6833333,-32.91526,-0.6370654880089681,-0.0393311650932677,-0.2011690481566539,10.53279,76.55299,0.8063436,0.07639395,0.6163198,-0.05135578,9.23999979346991,17
-34.56885,0.2833333,-32.84242,-0.5573492386646528,-0.3050401867280491,-0.1728109879514789,3.452918,76.37476,0.2910513,0.02524974,0.6178925,-0.01663059,9.25999979302287,17
-34.51151,0.4833334,-32.82328,-0.4698887421293598,-0.55562550489015,-0.1443198033789521,6.904299,76.40123,0.5843726,0.05046725,0.6170453,-0.0332372,9.27999979257584,17
-34.45417,0.6833334,-32.80416,-0.5569211864568402,-0.1251608527593354,-0.1705062489297795,10.35452,76.44589,0.8819556,0.07563169,0.615635,-0.04980853,9.2999997921288,17
-34.20789,0.2833334,-32.72524,-0.4311498648659437,-0.3454992226501119,-0.1289539269849235,3.404563,75.24122,0.2228642,0.0247159,0.6101138,-0.01659364,9.31999979168177,17
-34.15144,0.4833334,-32.70635,-0.3070025542725574,-0.550713989166299,-0.0874038178265692,6.807711,75.2612,0.4472789,0.04940032,0.6093029,-0.03316556,9.33999979123473,17
-34.09501,0.6833335,-32.68746,-0.3880452296882595,-0.0748781267807007,-0.1106661096809524,10.20977,75.29488,0.6748042,0.07403371,0.6079528,-0.04970353,9.3599997907877,17
-34.0386,0.8833334,-32.66858,-0.4698285351730646,0.3904687408197556,-0.1342817155749891,13.61071,75.34286,0.9072186,0.09859479,0.6060651,-0.06619264,9.37999979034066,17
-33.9822,0.976671,-32.6497,-0.380298438664326,-0.059650457193272,-0.1046345417562726,17.01041,75.40602,1.146357,0.1230614,0.603642,-0.08261825,9.39999978989363,17
-33.73636,0.2833336,-32.57159,-0.2865165427419285,-0.5202583996155307,-0.0736783392462001,3.350488,73.08555,0.1057607,0.02403654,0.5951464,-0.01666561,9.41999978944659,17
-33.68097,0.4833333,-32.55281,-0.3430321010698414,-0.0863776041623644,-0.0897775539684424,6.699636,73.09488,0.2122899,0.04804343,0.5943828,-0.03330978,9.43999978899956,17
-33.6256,0.6833334,-32.53405,-0.3874074593408849,0.3370141016346181,-0.1029959559881845,10.04775,73.1106,0.3202392,0.07200192,0.5931114,-0.04992062,9.45999978855252,17
-33.40887,0.2833333,-32.46544,-0.1833936912792957,-0.1550611102788907,-0.0401973822772134,3.293682,71.35898,359.9785,0.02323474,0.583014,-0.01691458,9.47999978810549,17
-33.35431,0.4833328,-32.44743,-0.161863985057252,0.0626635432109551,-0.034739666534854,6.586473,71.35711,359.9568,0.04644403,0.5822916,-0.0338106,9.49999978765845,17
-33.29975,0.6833328,-32.42943,-0.1390924439298864,0.2976029105979698,-0.0296230770834355,9.877816,71.35393,359.9346,0.06960364,0.5810891,-0.0506729,9.51999978721142,17
-33.06547,0.2833333,-32.35429,0.0888996092047875,-0.1428277450314856,0.0386066850681778,3.241761,69.32742,359.8897,0.02271798,0.5685533,-0.01687935,9.53999978676438,17
-33.01188,0.4833333,-32.33612,0.3199715996844823,-0.5937472162452302,0.1064080988121887,6.482541,69.31801,359.7787,0.04541086,0.5678701,-0.0337403,9.55999978631735,17
-32.9583,0.6833333,-32.31796,0.3060470051732871,-0.1501784967690451,0.0964208354018012,9.722327,69.30215,359.6662,0.06806049,0.5667327,-0.05056936,9.57999978587031,17
-32.90474,0.8833333,-32.2998,0.2914770088146454,0.2829008275296206,0.0855870592207708,12.96083,69.27964,359.5519,0.0906482,0.5651426,-0.06734977,9.59999978542328,17
-32.70691,0.2833334,-32.23636,0.4366603564643512,-0.1994868179785175,0.1240166865142597,3.195174,66.7957,359.7912,0.02227302,0.550277,-0.01686703,9.61999978497624,17
-32.65425,0.4833334,-32.21774,0.3601850377445998,0.02792461568058,0.0922758595593258,6.389388,66.77814,359.5811,0.04452246,0.5496327,-0.03371575,9.63999978452921,17
-32.60159,0.6833335,-32.19912,0.2766489527735665,0.2725501995861344,0.0584027776705653,9.582548,66.74859,359.3685,0.06673037,0.5485599,-0.05053322,9.65999978408217,17
-32.54895,0.8833338,-32.18052,0.3679222806824604,-0.1581939962925119,0.0804581426322705,12.7744,66.70665,359.1523,0.08887972,0.5470601,-0.06730259,9.67999978363514,17
-32.28802,0.2833336,-32.09861,0.4549959054877917,-0.599427143745984,0.1020839395402291,3.518018,68.74854,359.8179,0.02443851,0.5643699,-0.01864143,9.6999997831881,17
-32.2296,0.4833336,-32.07931,0.3718461434059108,-0.1461715224844109,0.0708023964439767,7.035097,68.73165,359.6345,0.04884753,0.56357,-0.03726069,9.71999978274107,17
-32.1712,0.6833335,-32.06002,0.2912463998799843,0.2965949711377162,0.0412721605470274,10.55283,68.70308,359.4477,0.07321288,0.5622373,-0.05585238,9.73999978229403,17
-31.94162,0.283333,-31.98778,0.4571449218431098,-0.1761043730411801,0.0911692659785075,3.559945,70.40881,359.8753,0.02475307,0.5762442,-0.01879567,9.759999781847,17
-31.88237,0.483333,-31.96901,0.4186134018330136,0.0609956695593162,0.0776081085692332,7.119128,70.39707,359.7492,0.0494753,0.5754091,-0.03757175,9.77999978139997,17
-31.82313,0.683333,-31.95024,0.3702513429310663,0.3153098007270268,0.0619183290289662,10.67725,70.37727,359.6213,0.07414256,0.5740187,-0.05630625,9.79999978095293,17
-31.57393,0.2833333,-31.87046,0.5265208289547019,-0.1057463589211618,0.1116560964145776,3.591738,71.79299,0.01697552,0.02547358,0.5860311,-0.01825465,9.8199997805059,17
-31.51449,0.4833331,-31.85059,0.4470466532176687,0.182996749730138,0.0876435131518889,7.182739,71.79464,0.03456048,0.05091936,0.5851677,-0.03648426,9.83999978005886,17
-31.45507,0.683333,-31.83072,0.3476564239764386,0.4889540675193775,0.0580489147900458,10.77268,71.79742,0.05239571,0.07630754,0.5837302,-0.05467286,9.85999977961183,17
-31.39566,0.8833329,-31.81086,0.241640119050885,0.7598550618793898,0.0269883192890745,14.3616,71.80138,0.07063609,0.1016136,0.5817204,-0.07280281,9.87999977916479,17
-31.18661,0.2833333,-31.74432,0.3040222097681315,0.0896779318982174,0.0488321802005309,3.561395,72.65599,0.08219093,0.02545914,0.5921026,-0.0178309,9.89999977871776,17
-31.12772,0.4833335,-31.72442,0.3659725719158082,-0.4895997640858434,0.0711354643590347,7.121534,72.6637,0.1651097,0.05088538,0.5912446,-0.0356375,9.91999977827072,17
-31.06886,0.6833336,-31.70453,0.2142510850626777,-0.0752680532011945,0.0271891862832163,10.68064,72.67673,0.2492673,0.07625508,0.5898162,-0.05340488,9.93999977782369,17
-31.01001,0.8833336,-31.68465,0.0654111078526611,0.3280872580960425,-0.0156039861382097,14.23874,72.69531,0.3354079,0.1015442,0.5878191,-0.07111571,9.95999977737665,17
-30.74157,0.2833333,-31.59977,0.1560620590894395,-0.1845128402597056,0.0163078526176221,3.634414,73.56799,0.1148578,0.02599712,0.5984731,-0.01818614,9.97999977692962,17
-30.68129,0.4833333,-31.57991,0.0549452814638868,0.0121984507879186,-0.0111718707667307,7.267774,73.57899,0.2305883,0.05196051,0.5975693,-0.03634894,9.99999977648258,17
-30.62104,0.6833335,-31.56005,-0.051107882907921,0.2256369001299219,-0.0397082780727586,10.9005,73.59753,0.3479783,0.07786624,0.5960646,-0.05447359,10.0199997760355,17
-30.38134,0.2833336,-31.48436,0.0433147366479609,-0.2367830680024739,-0.0038570173942886,3.615137,74.40462,0.1337703,0.02582946,0.6043007,-0.01814239,10.0399997755885,17
-30.32121,0.4833338,-31.46515,-0.0795235191188332,0.0101077613045788,-0.0357811571518134,7.22921,74.41736,0.2685741,0.05162574,0.6033975,-0.03626147,10.0599997751415,17
-30.2611,0.6833338,-31.44596,-0.2127623763453812,0.2737253021670795,-0.0704294112284884,10.84222,74.43888,0.4055165,0.07736331,0.6018939,-0.0543393,10.0799997746944,17
-30.20101,0.8833334,-31.42677,-0.3423491341255094,0.50179878296724,-0.1035234267737266,14.45409,74.46954,0.5455151,0.103015,0.5997917,-0.07235941,10.0999997742474,17
-30.0021,0.2833331,-31.36432,-0.2961251496115551,-0.2116944627200119,-0.0822587670637773,3.55806,76.22878,0.2277365,0.02565157,0.6168863,-0.01759907,10.1199997738004,17
-29.94276,0.4833331,-31.34568,-0.4075203201617299,-0.0024382231850085,-0.1100165349024315,7.114975,76.25013,0.4571891,0.05127059,0.6159908,-0.0351756,10.1399997733533,17
-29.88343,0.6833327,-31.32705,-0.5077521661656945,0.2235446889638884,-0.1348937601031146,10.67078,76.28616,0.6901293,0.07683267,0.6144999,-0.05271343,10.1599997729063,17
-29.6651,0.2833331,-31.2578,-0.4069664963100265,-0.2263312251172801,-0.0995931173495847,3.496839,76.66351,0.2736735,0.02541425,0.6198662,-0.0170507,10.1799997724593,17
-29.60685,0.4833333,-31.23907,-0.2850910552773165,-0.6871846037111025,-0.0597764127287163,6.992505,76.68871,0.549338,0.0507969,0.6189953,-0.03407993,10.1999997720122,17
-29.5486,0.6833332,-31.22036,-0.3778038094647193,-0.2540369426437671,-0.0870875897394576,10.48663,76.73125,0.829216,0.07612284,0.6175457,-0.05106944,10.2199997715652,17
-29.49038,0.883333,-31.20164,-0.4564651259507073,0.1681338191297418,-0.1107381297813709,13.97952,76.79193,1.115438,0.1013707,0.615519,-0.06800627,10.2399997711182,17
-29.21528,0.2833334,-31.11393,-0.27524527080989,-0.3256490306429738,-0.0539640326243464,3.434602,76.10419,0.274756,0.02507553,0.6160426,-0.01658438,10.2599997706711,17
-29.15826,0.4833336,-31.09487,-0.2875755527049897,-0.1101202023046722,-0.0580488015101856,6.867631,76.12907,0.5517125,0.0501193,0.6152076,-0.03314427,10.2799997702241,17
-29.10127,0.6833334,-31.07583,-0.2990792891778326,0.1221352849700686,-0.0618039523368132,10.29959,76.17101,0.8326202,0.07511114,0.6138173,-0.04966988,10.2999997697771,17
-28.85554,0.2833334,-30.9973,-0.0952170185801613,-0.3214670810561731,0.0036867112725964,3.38248,74.45511,0.1731647,0.02441353,0.6046823,-0.01665236,10.31999976933,17
-28.79949,0.4833335,-30.97857,-0.1179940742501308,-0.0557584466590147,-0.0021543914965178,6.763497,74.47052,0.3474075,0.0487951,0.6038904,-0.03328356,10.339999768883,17
-28.74347,0.6833333,-30.95985,-0.1522709548137157,0.2266770222164932,-0.0115317273365853,10.14354,74.4965,0.5240769,0.07312763,0.6025717,-0.04988115,10.359999768436,17
-28.68746,0.8833332,-30.94113,-0.1854058197902262,0.4735685811332418,-0.020617541633257,13.52251,74.53349,0.7044539,0.09738923,0.600728,-0.06643048,10.3799997679889,17
-28.47991,0.2833338,-30.87533,-0.0436414101077211,-0.2211066353975013,0.0235541967282308,3.32886,72.7545,0.0740016,0.02376839,0.5928338,-0.01670726,10.3999997675419,17
-28.42483,0.4833341,-30.85688,-0.0737607176275894,0.0069673580895916,0.0134861404781254,6.656382,72.76099,0.1485169,0.04750744,0.5920833,-0.03339344,10.4199997670949,17
-28.36976,0.6833343,-30.83843,-0.1028986543697989,0.2517677212827669,0.002826669142415,9.982936,72.77191,0.2240281,0.07119959,0.5908338,-0.05004667,10.4399997666478,17
-28.31471,0.8833345,-30.81999,-0.1183971934080467,0.4610238939114721,-0.0045265246750219,13.30853,72.78746,0.3010575,0.09482494,0.5890868,-0.06665315,10.4599997662008,17
-28.05046,0.2833336,-30.73649,0.1150145225119665,-0.2712866863438606,0.0644359398462732,3.274499,70.58032,359.9329,0.02298299,0.5774952,-0.01698396,10.4799997657537,17
-27.99619,0.4833336,-30.7186,0.1099650571524613,-0.0808475436330743,0.0580688385790679,6.548062,70.57453,359.8654,0.04594062,0.5767877,-0.03394933,10.4999997653067,17
-27.94194,0.6833336,-30.70072,0.1009276018219509,0.1263184278063022,0.0496596142216994,9.820291,70.56477,359.7969,0.06885089,0.5756099,-0.05088094,10.5199997648597,17
-27.70813,0.2833333,-30.6256,0.291424572743729,-0.3423739784159874,0.1024095589020248,3.218721,67.72635,359.8177,0.02243481,0.5570281,-0.01696969,10.5399997644126,17
-27.65496,0.4833333,-30.60725,0.2637634967023139,-0.101755217558958,0.0859182192601686,6.436456,67.7109,359.6343,0.04484522,0.556367,-0.03392094,10.5599997639656,17
-27.60181,0.6833334,-30.58891,0.2219994267781828,0.1555896357960295,0.0645433558169656,9.65318,67.68491,359.4487,0.06721389,0.5552662,-0.05083992,10.5799997635186,17
-27.54867,0.8833333,-30.57057,0.1785996285424147,0.3773904861506891,0.0423898441945986,12.86857,67.64804,359.2599,0.08952263,0.5537273,-0.06770968,10.5999997630715,17
-27.3474,0.2833333,-30.50675,0.2942770460987205,-0.3423745495588134,0.0701542068336706,3.373234,67.43949,359.7979,0.02350257,0.5549329,-0.01780509,10.6199997626245,17
-27.29167,0.4833335,-30.48741,0.2478144465451102,-0.1393901128523446,0.0474973124358939,6.745466,67.42154,359.5945,0.04697808,0.5542092,-0.03558955,10.6399997621775,17
-27.23594,0.6833336,-30.46808,0.2008146277495939,0.0803211442194284,0.0253594558418335,10.11667,67.39129,359.3883,0.07040623,0.5530043,-0.05333812,10.6599997617304,17
-27.01531,0.2833331,-30.39889,0.165955261651824,0.2644888117508828,0.007928291794176,3.537645,69.19906,359.8306,0.02456888,0.5676034,-0.01874337,10.6799997612834,17
-26.95653,0.4833328,-30.37973,0.1752300862405427,0.2273773284347688,0.0055369666138354,7.074385,69.18326,359.6599,0.04910775,0.5667902,-0.03746494,10.6999997608364,17
-26.89776,0.683333,-30.36059,0.174688955419505,0.2357409119813952,0.0015161158933274,10.61119,69.15652,359.4861,0.07359844,0.5654357,-0.05615454,10.7199997603893,17
-26.83902,0.8833329,-30.34144,0.1775027050121984,0.2362640591212393,7.314392953361448e-05,14.14692,69.11837,359.3082,0.0980121,0.5635419,-0.0747855,10.7399997599423,17
-26.56172,0.2833333,-30.25408,0.3776684636233085,-0.4646829137172527,0.0619766193979884,3.575141,71.18502,359.933,0.02502602,0.5817482,-0.01863065,10.7599997594953,17
-26.50229,0.4833331,-30.23507,0.324473156472834,-0.2428810845095139,0.0449738560284842,7.149578,71.1787,359.8653,0.05002194,0.5808986,-0.03724068,10.7799997590482,17
-26.44287,0.6833331,-30.21606,0.2638320408101613,-0.0043530396195665,0.0264050845431711,10.72296,71.16801,359.7966,0.07496195,0.5794842,-0.05580898,10.7999997586012,17
-26.19425,0.2833333,-30.13634,0.4104503891655007,-0.4416829332315897,0.0739014822313812,3.571321,72.29764,0.06562299,0.02549945,0.5895836,-0.01791896,10.8199997581542,17
-26.13524,0.4833333,-30.1163,0.324293023461589,-0.1697014201909565,0.0488874475898875,7.141604,72.30386,0.1322395,0.05096931,0.5887247,-0.03581185,10.8399997577071,17
-26.07624,0.6833333,-30.09625,0.221228932803438,0.119006213051025,0.0193122067533337,10.71085,72.31435,0.1998871,0.0763824,0.5872946,-0.05366483,10.8599997572601,17
-26.01726,0.8833332,-30.07622,0.1147383075258083,0.3721701259892072,-0.0106694549969432,14.27907,72.32933,0.2690913,0.101714,0.5852952,-0.07146094,10.879999756813,17
-25.80732,0.283333,-30.01018,0.0182918944176435,0.4236902798562685,-0.0369245143501579,3.595818,73.16431,0.09348392,0.0256796,0.5956606,-0.01804351,10.899999756366,17
-25.74773,0.4833332,-29.99045,-0.0332193254549615,0.3558076932657543,-0.0494390760529377,7.190513,73.17316,0.1876616,0.05132586,0.5947805,-0.03606378,10.919999755919,17
-25.68816,0.6833332,-29.97073,-0.0928690692423082,0.33388793979107,-0.0643158656657689,10.78446,73.18806,0.2830696,0.07691514,0.5933149,-0.05404668,10.9399997554719,17
-25.62861,0.8833331,-29.95101,-0.1467690617501027,0.304615459187796,-0.077241813984191,14.37736,73.20935,0.3807956,0.1024216,0.5912662,-0.071971,10.9599997550249,17
-25.36047,0.2833331,-29.86653,-0.0088899913993074,-0.4256405962677753,-0.0297971467123296,3.636557,73.83005,0.1170573,0.02598193,0.6003013,-0.01824143,10.9799997545779,17
-25.30008,0.4833331,-29.8469,-0.110319120380371,-0.2326584989295647,-0.0562217020206752,7.272021,73.84127,0.235033,0.05193,0.5993938,-0.03645904,10.9999997541308,17
-25.23972,0.6833333,-29.82727,-0.2130962283208575,-0.022461997310047,-0.082183410361484,10.90638,73.86022,0.354923,0.07781823,0.597883,-0.05463444,11.0199997536838,17
-25.00027,0.2833333,-29.75207,-0.1113614734610344,-0.4876359258945479,-0.0425590090770846,3.589529,75.53071,0.1890061,0.02576841,0.6120871,-0.01787766,11.0399997532368,17
-24.94045,0.4833333,-29.73324,-0.222775957977678,-0.2430103541854554,-0.0693947593423622,7.17796,75.54858,0.3794248,0.05150375,0.6111839,-0.03573264,11.0599997527897,17
-24.88066,0.6833331,-29.71441,-0.3404318243881938,0.0188296709392562,-0.0979310098367491,10.76529,75.57877,0.5728357,0.07718121,0.6096804,-0.05354728,11.0799997523427,17
-24.82088,0.8833331,-29.69558,-0.4501755854630858,0.2456133768163849,-0.1239782763485983,14.35115,75.62176,0.7705166,0.1027716,0.6075783,-0.07130481,11.0999997518957,17
-24.6222,0.2833335,-29.63307,-0.3758540048714351,-0.468681571061177,-0.0951825548670441,3.527459,76.62409,0.2551252,0.02552938,0.6195949,-0.01733451,11.1199997514486,17
-24.56336,0.4833333,-29.6145,-0.4562751486556351,-0.2597393883825892,-0.1148023302082528,7.053852,76.64779,0.5121089,0.05102716,0.6187099,-0.03464771,11.1399997510016,17
-24.50454,0.6833335,-29.59593,-0.523097953249156,-0.0335827692763067,-0.1314519102143769,10.57902,76.6878,0.7730075,0.07646883,0.6172365,-0.05192233,11.1599997505546,17
-24.44573,0.8833334,-29.57737,-0.5632706638429141,0.1575175931328089,-0.1411892768591336,14.10261,76.74485,1.039867,0.1018279,0.6151767,-0.06914097,11.1799997501075,17
-24.18996,0.2833333,-29.49611,-0.5490882710018923,0.1278276262897584,-0.1352556290895386,3.460839,76.54304,0.29009,0.02527433,0.6190444,-0.01671704,11.1999997496605,17
-24.13242,0.4833332,-29.47713,-0.5332285424951984,0.1441012938699957,-0.1299047979006395,6.920108,76.5695,0.5825167,0.05051644,0.618192,-0.03340931,11.2199997492135,17
-24.07489,0.6833332,-29.45815,-0.5029250858441046,0.153021974711275,-0.1210018085482929,10.3782,76.61414,0.8792171,0.07570517,0.6167727,-0.05006591,11.2399997487664,17
-23.84796,0.2833335,-29.38614,-0.2639155342730959,-0.5390400142352557,-0.0464763815414102,3.406901,75.38039,0.2221648,0.02470814,0.6110747,-0.01664095,11.2599997483194,17
-23.79142,0.4833334,-29.36738,-0.2688226146669699,-0.3078651789310291,-0.0478769098224631,6.812347,75.40032,0.4458745,0.04938449,0.6102614,-0.03325989,11.2799997478724,17
-23.73491,0.6833333,-29.34863,-0.2727228859511967,-0.0594754264843301,-0.0483338502183343,10.21674,75.43391,0.6727177,0.07401012,0.6089073,-0.04984473,11.2999997474253,17
-23.48963,0.2833333,-29.27036,-0.0613823206975929,-0.486455935582023,0.0195601259497841,3.354815,73.66244,0.1303139,0.02411093,0.5991759,-0.0166376,11.3199997469783,17
-23.4341,0.4833334,-29.25171,-0.0761004343581284,-0.2036374928783775,0.015796838341501,6.708206,73.67395,0.2615769,0.04819162,0.5984048,-0.03325322,11.3399997465312,17
-23.37859,0.6833331,-29.23307,-0.1019843641275137,0.0963953888664861,0.0078570209051171,10.06066,73.69335,0.3946252,0.07222452,0.5971208,-0.04983586,11.3599997460842,17
-23.3231,0.8833331,-29.21443,-0.1264996245133112,0.3613722709981529,-0.0004926498776036,13.41206,73.72097,0.5303696,0.09618811,0.5953257,-0.06637126,11.3799997456372,17
-23.26762,0.9766704,-29.1958,-0.1370735725250469,0.4251929962693935,-0.0054510512352194,16.76242,73.75731,0.6699445,0.1200626,0.5930213,-0.0828449,11.3999997451901,17
-23.0216,0.2833333,-29.11871,-0.0998151452063993,0.3700995708585883,0.0033709971776936,3.299917,71.46854,359.9812,0.0232765,0.5837885,-0.01694938,11.4199997447431,17
-22.96691,0.4833333,-29.10073,-0.0679132639894177,0.3614569716708736,0.0096983379833837,6.598858,71.4669,359.9622,0.0465268,0.5830625,-0.03387974,11.4399997442961,17
-22.91224,0.6833336,-29.08276,-0.0288679767890833,0.3459496821077344,0.0174486398457673,9.896396,71.4641,359.9428,0.06972755,0.5818538,-0.05077639,11.459999743849,17
-22.6963,0.2833333,-29.01411,0.1997478556106777,-0.3700523282174487,0.0826384690430259,3.24362,69.43782,359.8905,0.0227189,0.5693446,-0.01690488,11.479999743402,17
-22.64265,0.4833333,-28.99603,0.1896160554304202,-0.1623292051220585,0.0723392114589955,6.486262,69.42847,359.7803,0.04541286,0.5686599,-0.03379112,11.499999742955,17
-22.58901,0.6833333,-28.97794,0.1745875244243464,0.0630963726852663,0.0596771248536569,9.727923,69.41273,359.6687,0.06806379,0.5675197,-0.05064526,11.5199997425079,17
-22.3555,0.2833332,-28.90287,0.3578368531834037,-0.3863606795696024,0.10798807187399,3.196063,66.90872,359.7914,0.02226416,0.5510997,-0.01689127,11.5399997420609,17
-22.30279,0.4833332,-28.88434,0.32183620328626,-0.1255308022485694,0.0873118739636709,6.391123,66.89119,359.5817,0.04450433,0.5504541,-0.03376416,11.5599997416139,17
-22.25009,0.6833332,-28.86582,0.2705988723596739,0.1530013984982066,0.0618605787867316,9.585162,66.86166,359.3693,0.06670323,0.5493791,-0.05060583,11.5799997411668,17
-22.1974,0.8833331,-28.84731,0.216485764126471,0.3969654039552538,0.0357216732970329,12.7779,66.81977,359.1534,0.08884374,0.5478764,-0.0673992,11.5999997407198,17
-21.99291,0.2833332,-28.78367,0.4237577992103993,-0.2996613322544775,0.0924959882480394,3.530983,68.28833,359.7982,0.02451015,0.5610547,-0.01874909,11.6199997402728,17
-21.9343,0.4833331,-28.76414,0.4545752582694149,-0.0725630908969736,0.0949618599377721,7.060984,68.26954,359.5948,0.04899022,0.5602532,-0.03747567,11.6399997398257,17
-21.87572,0.6833333,-28.74462,0.471276333474524,0.1722378623435425,0.0942416676517901,10.59114,68.23779,359.388,0.0734235,0.5589181,-0.05617058,11.6599997393787,17
-21.81716,0.8833333,-28.7251,0.4869862894452197,0.3824702910770117,0.0945781331523818,14.12165,68.19244,359.1762,0.0977902,0.5570505,-0.07481475,11.6799997389317,17
-21.55941,0.2833332,-28.64497,0.6747171292412233,-0.3478887897106093,0.1504486381032741,3.563712,70.5588,359.8778,0.02476821,0.5773116,-0.01882875,11.6999997384846,17
-21.50006,0.4833332,-28.62629,0.6308987136311117,-0.1545227553723455,0.1347079906105754,7.126596,70.54728,359.7543,0.04950444,0.5764731,-0.03763834,11.7199997380376,17
-21.44073,0.6833331,-28.60762,0.5802313668664638,0.0565457404730224,0.1179032280669005,10.68844,70.52784,359.6288,0.07418571,0.5750772,-0.05640636,11.7399997375906,17
-21.21138,0.2833331,-28.53464,0.7169921698814896,-0.4072681350917239,0.1605075557195796,3.592819,71.93751,0.01747171,0.02546072,0.5870514,-0.01828879,11.7599997371435,17
-21.15188,0.4833331,-28.51491,0.6472313860322814,-0.160795396533309,0.1395401411775267,7.184816,71.9392,0.03551152,0.0508928,0.5861861,-0.03655239,11.7799997366965,17
-21.09239,0.6833333,-28.49518,0.566205280379485,0.1033796813933669,0.1159702545872356,10.77576,71.94206,0.0538446,0.0762675,0.5847453,-0.05477466,11.7999997362494,17
-20.84381,0.2833333,-28.41597,0.487355728947886,0.3329866846010387,0.0939621944691566,3.561978,72.79013,0.08219963,0.02544239,0.5930449,-0.01786364,11.8199997358024,17
-20.78487,0.4833333,-28.39621,0.4398370727190404,0.3422910470136375,0.0819864723950409,7.122704,72.79786,0.1650875,0.05085171,0.5921853,-0.03570325,11.8399997353554,17
-20.72594,0.6833333,-28.37645,0.3662469400040145,0.3980461043631388,0.0624356419031748,10.6824,72.81087,0.2492509,0.07620468,0.590754,-0.05350327,11.8599997349083,17
-20.66704,0.8833334,-28.3567,0.2804772736469161,0.4469368314812722,0.0395622777534896,14.24102,72.82948,0.3354121,0.1014768,0.5887532,-0.07124627,11.8799997344613,17
-20.60815,0.9766705,-28.33696,0.1964335110038817,0.4356469380783384,0.0176079953147905,17.79864,72.85402,0.4242944,0.126644,0.586185,-0.08891577,11.8999997340143,17
-20.35946,0.2833332,-28.25928,0.2807148868342679,-0.4148452212527468,0.0472061654972471,3.634262,73.70419,0.1148444,0.02597435,0.5994241,-0.01821632,11.9199997335672,17
-20.29914,0.4833331,-28.23957,0.1465932323669641,-0.2424917056229825,0.0098222975813406,7.267462,73.71519,0.2305628,0.05191497,0.598519,-0.03640922,11.9399997331202,17
-20.23884,0.6833332,-28.21985,0.0121051875118709,-0.052923642664851,-0.0271230901527594,10.90003,73.73373,0.3479604,0.07779806,0.597012,-0.05456377,11.9599997326732,17
-20.01934,0.2833333,-28.15129,0.0636240127486971,-0.5387264516839638,-0.0048432319105415,3.615197,74.52845,0.133544,0.02580906,0.6051607,-0.01817218,11.9799997322261,17
-19.95917,0.4833333,-28.13223,-0.0728921118434726,-0.314729761977602,-0.0402668062750564,7.229309,74.54117,0.2680933,0.05158469,0.6042562,-0.03632108,11.9999997317791,17
-19.89902,0.6833334,-28.11316,-0.2101552347994655,-0.0735185137047041,-0.0751791311469638,10.84231,74.56264,0.4047703,0.07730132,0.6027504,-0.05442849,12.0199997313321,17
-19.65992,0.2833334,-28.0384,-0.3340488851478813,0.1326365209942279,-0.1053434348945856,3.558397,76.34355,0.2275309,0.02563514,0.6176736,-0.01762798,12.039999730885,17
-19.60053,0.4833333,-28.01988,-0.4084900781708906,0.1180012306226374,-0.1211709821689979,7.115722,76.36488,0.4567486,0.05123807,0.6167768,-0.03523395,12.059999730438,17
-19.54116,0.6833333,-28.00138,-0.4902970883479902,0.1493291664413767,-0.1400171534386878,10.67186,76.40088,0.6894655,0.07678366,0.6152837,-0.05280065,12.079999729991,17
-19.4818,0.8833331,-27.98287,-0.565421091505188,0.1733043737376496,-0.1577458937010618,14.22649,76.45221,0.927462,0.1022447,0.6131964,-0.0703107,12.0999997295439,17
-19.18639,0.2833333,-27.88984,-0.4147191067925853,-0.5037033764161213,-0.1072713381314187,3.489914,76.80096,0.2825695,0.02539464,0.6208056,-0.01698284,12.1199997290969,17
-19.12824,0.4833336,-27.87113,-0.4333107030828529,-0.2574738830222435,-0.1093747919948171,6.978663,76.82693,0.5671484,0.05075766,0.6199365,-0.03394466,12.1399997286499,17
-19.07011,0.6833338,-27.85243,-0.4523029966621177,0.0059702819296627,-0.1128519680612178,10.46579,76.87078,0.8561743,0.07606434,0.6184899,-0.05086582,12.1599997282028,17
-19.012,0.8833338,-27.83373,-0.4584571564393744,0.2343581082938813,-0.1135854457773746,13.95165,76.9333,1.151711,0.101293,0.6164673,-0.06773467,12.1799997277558,17
-18.80408,0.2833333,-27.76797,-0.4385386462195999,0.2615894393458959,-0.1074482826392824,3.42938,76.28172,0.2729806,0.02500442,0.6172625,-0.01660725,12.1999997273088,17
-18.74708,0.4833332,-27.74915,-0.4165418068453572,0.1699067204237825,-0.1002316194864292,6.857247,76.30638,0.5480239,0.04997699,0.6164284,-0.03319116,12.2199997268617,17
-18.69011,0.6833332,-27.73034,-0.3939715334530529,0.1246751413480303,-0.0924250745171413,10.28395,76.34796,0.8269508,0.07489716,0.6150398,-0.04974052,12.2399997264147,17
-18.46346,0.2833332,-27.6587,-0.35784133972105,0.0725789731274747,-0.0798424478526484,3.381001,74.60471,0.1721743,0.02437627,0.6057215,-0.01668327,12.2599997259676,17
-18.40739,0.4833331,-27.64014,-0.3295730019069136,0.0402761821417022,-0.0698560207709384,6.760593,74.62003,0.345501,0.04872144,0.6049288,-0.03334507,12.2799997255206,17
-18.35133,0.683333,-27.62159,-0.3066824843066005,0.054424615767695,-0.0612420091284953,10.13916,74.64587,0.5212209,0.07301722,0.6036091,-0.04997308,12.2999997250736,17
-18.29529,0.883333,-27.60304,-0.2761726722541056,0.0617079607167039,-0.0500827442614664,13.51666,74.68265,0.7006213,0.09724229,0.601764,-0.06655285,12.3199997246265,17
-18.01217,0.2833332,-27.51349,-0.2585330445598792,0.0887840905009849,-0.0443780240570603,3.325357,72.38559,0.04677506,0.02365716,0.590246,-0.01680428,12.3399997241795,17
-17.95712,0.4833329,-27.49515,-0.2545022972827251,0.1623113439277544,-0.0438496733843223,6.649345,72.38968,0.09392409,0.04728508,0.5895005,-0.03358696,12.3599997237325,17
-17.90209,0.683333,-27.47682,-0.2512378274890814,0.2289738719578362,-0.0445695607587701,9.97233,72.39658,0.1416663,0.07086594,0.5882595,-0.05033661,12.3799997232854,17
-17.84707,0.8833331,-27.4585,-0.2358628560201197,0.2354553725406541,-0.0426086399608998,13.29434,72.4064,0.1903836,0.09438042,0.5865243,-0.06703904,12.3999997228384,17
-17.64897,0.2833333,-27.39673,0.0579139522358058,-0.5972656396958912,0.0445842923644121,3.268475,70.73676,359.9322,0.02291338,0.5786095,-0.01698992,12.4199997223914,17
-17.59476,0.4833333,-27.37904,0.1315886674048094,-0.4071406113391172,0.0629791510335877,6.535977,70.73093,359.864,0.04580123,0.5779033,-0.03396114,12.4399997219443,17
-17.54055,0.6833334,-27.36135,0.1990912939996825,-0.1998010963749292,0.0785012292407465,9.8022,70.72108,359.7947,0.0686423,0.5767275,-0.05089904,12.4599997214973,17
-17.3247,0.2833332,-27.29265,0.2733293027009598,-0.0275177463730962,0.0951861354239014,3.217021,67.87605,359.8175,0.0223993,0.5581121,-0.01699221,12.4799997210503,17
-17.27151,0.4833332,-27.27445,0.334906357325373,-0.0760251391705667,0.1070798014533238,6.433049,67.86059,359.6339,0.04477421,0.5574504,-0.03396593,12.4999997206032,17
-17.21834,0.6833333,-27.25626,0.3873966306480199,-0.0785692715404958,0.1156708227675942,9.648045,67.83458,359.448,0.06710722,0.5563486,-0.05090744,12.5199997201562,17
-17.16518,0.8833332,-27.23808,0.4437745344945707,-0.0884662198118229,0.1251656889287531,12.86175,67.79768,359.2591,0.08938085,0.5548084,-0.06779978,12.5399997197092,17
-16.8891,0.2833335,-27.15081,0.302177773874412,0.561256174457939,0.0729136908871659,3.400559,67.91343,359.8004,0.02363869,0.5583625,-0.01801706,12.5599997192621,17
-16.83277,0.4833335,-27.13171,0.3867979325328861,0.3263521115555627,0.0920192547382043,6.800175,67.89556,359.5995,0.04725025,0.5576226,-0.03601342,12.5799997188151,17
-16.77646,0.6833335,-27.11263,0.4618927338786882,0.1128440444680564,0.109153826999659,10.19877,67.86543,359.3958,0.0708135,0.5563906,-0.05397314,12.5999997183681,17
-16.52801,0.2833333,-27.03459,0.540830892596416,-0.1336290343716098,0.1286285341539148,3.534171,69.70545,359.8425,0.02452009,0.5712315,-0.01874953,12.619999717921,17
-16.4692,0.4833334,-27.01578,0.5442580021920058,-0.1473587588884118,0.1254007321477139,7.068141,69.69074,359.6833,0.04901329,0.5704147,-0.0374836,12.639999717474,17
-16.4104,0.6833335,-26.99697,0.5228191944482568,-0.1151257042151628,0.1156873925302051,10.60125,69.66591,359.5217,0.07345421,0.5690547,-0.0561777,12.6599997170269,17
-16.35162,0.8833335,-26.97818,0.4898983163727006,-0.0902457348108554,0.1036796547472711,14.13328,69.63048,359.3564,0.09781831,0.5671534,-0.07481311,12.6799997165799,17
-16.29286,0.9766704,-26.95939,0.4588797899489929,-0.1260344766065584,0.0935482030373719,17.6642,69.58375,359.1859,0.1220824,0.5647128,-0.09337204,12.6999997161329,17
-16.04492,0.2833333,-26.88171,0.4138612164818536,-0.1691752694984617,0.078849804084168,3.582007,71.63168,359.9685,0.0251831,0.584903,-0.01851183,12.7199997156858,17
-15.98542,0.4833333,-26.86254,0.3591226650380452,-0.1663526908008009,0.0618125682899304,7.163375,71.62872,359.9369,0.05033745,0.5840458,-0.03700183,12.7399997152388,17
-15.92594,0.6833334,-26.84337,0.308267318545246,-0.170882909709845,0.0466350226708058,10.74371,71.6237,359.9047,0.07543531,0.5826185,-0.05545045,12.7599997147918,17
-15.70745,0.2833336,-26.77393,0.0711789098871076,0.4842063527876159,-0.0259168427778782,3.552077,72.55833,0.07598403,0.02537678,0.5914191,-0.01780474,12.7799997143447,17
-15.64872,0.4833337,-26.75408,0.0548470825262139,0.2546692846947739,-0.0294389540897768,7.102938,72.56548,0.1529459,0.05072267,0.5905667,-0.03558341,12.7999997138977,17
-15.59001,0.6833337,-26.73424,0.0333537304683542,0.0465285540048162,-0.0336965468221421,10.65279,72.57752,0.2310436,0.07601254,0.5891474,-0.05332322,12.8199997134507,17
-15.34998,0.2833334,-26.65867,0.0207190510522572,-0.1945774306241608,-0.0344085849029056,3.623683,73.48099,0.1017194,0.02586737,0.5978699,-0.01820223,12.8399997130036,17
-15.28985,0.4833334,-26.63899,-0.0597101511075806,-0.2029404077453435,-0.0567894559741546,7.246334,73.4907,0.2042317,0.05170159,0.5969726,-0.03638112,12.8599997125566,17
-15.22974,0.6833335,-26.61931,-0.1562142883213244,-0.1653397648176346,-0.0840830962169398,10.86856,73.50706,0.3081055,0.07747972,0.5954784,-0.05452356,12.8799997121096,17
-15.16965,0.8833334,-26.59964,-0.2548395207074296,-0.1350921091515943,-0.1119885544815524,14.48973,73.53043,0.4145306,0.1031733,0.5933894,-0.07260627,12.8999997116625,17
-14.87211,0.2833332,-26.50631,-0.3416538748962328,-0.1655130624966484,-0.1361947826912484,3.629472,74.24785,0.1274491,0.02592068,0.6032097,-0.01822646,12.9199997112155,17
-14.81176,0.4833333,-26.48698,-0.3319396466795918,-0.2032869209514973,-0.128464117130445,7.257839,74.26003,0.2558566,0.0518074,0.6023012,-0.0364294,12.9399997107685,17
-14.75142,0.6833332,-26.46765,-0.3315843028004241,-0.1950975147971624,-0.1224532657651984,10.88514,74.28061,0.3863402,0.07763489,0.6007887,-0.05459045,12.9599997103214,17
-14.69111,0.8833332,-26.44833,-0.325989429147091,-0.1942609203625813,-0.1136846291379427,14.51147,74.30997,0.5198055,0.1033771,0.5986739,-0.0726936,12.9799997098744,17
-14.482,0.2833333,-26.38345,-0.4945933874212898,0.4661952608907694,-0.15892578801067,3.574736,76.02489,0.20931,0.02569847,0.6154872,-0.01776962,12.9999997094274,17
-14.42236,0.4833333,-26.36485,-0.4921491644491187,0.2420250035280251,-0.1520264506269875,7.148365,76.04462,0.4201894,0.05136421,0.6145859,-0.03551669,13.0199997089803,17
-14.36274,0.6833333,-26.34625,-0.4787618850091188,0.0392507349236281,-0.1415458752328362,10.72085,76.07789,0.6343094,0.07697222,0.6130854,-0.0532241,13.0399997085333,17
-14.30313,0.8833332,-26.32766,-0.4400650419758776,-0.1964887915400798,-0.1232278455537141,14.29185,76.12531,0.8532559,0.1024945,0.6109878,-0.07087442,13.0599997080863,17
-14.03712,0.2833333,-26.24433,-0.4533189792547496,-0.1994853165071057,-0.123214473005806,3.507088,76.88222,0.2780277,0.02547529,0.6213588,-0.01712501,13.0799997076392,17
-13.97864,0.4833332,-26.22571,-0.4650418599890873,-0.1565186030002225,-0.1240191606283112,7.013068,76.9079,0.5580704,0.05091914,0.6204805,-0.03422889,13.0999997071922,17
-13.92017,0.6833332,-26.2071,-0.4619533589863938,-0.1209047150647855,-0.1215665656572007,10.51741,76.95124,0.8424159,0.07630527,0.6190186,-0.0512922,13.1199997067451,17
-13.68305,0.2833334,-26.13219,-0.661438920990614,0.5743288648403333,-0.1825941958674022,3.442044,76.60992,0.2921491,0.02514706,0.6195053,-0.01661606,13.1399997062981,17
-13.62581,0.4833333,-26.11332,-0.6159931664914708,0.3849358706615288,-0.1682777552127383,6.882515,76.63642,0.5865824,0.05026201,0.6186612,-0.0332079,13.1599997058511,17
-13.56859,0.6833332,-26.09445,-0.5740310086240044,0.2169389421658912,-0.1554362673839406,10.32183,76.68111,0.8852469,0.07532434,0.6172561,-0.04976485,13.179999705404,17
-13.51139,0.8833332,-26.07559,-0.5225085070254636,0.0159768055550759,-0.1399029248743026,13.75987,76.74482,1.190456,0.1003111,0.6152915,-0.06627166,13.199999704957,17
-13.31311,0.2833333,-26.01375,-0.2465256900961332,-0.7845793746528661,-0.0535527157050843,3.394104,75.08557,0.1911949,0.02449776,0.6090465,-0.01672351,13.21999970451,17
-13.25675,0.4833333,-25.99528,-0.1866298130225789,-0.5627777616709513,-0.0334577314123585,6.786796,75.10265,0.383624,0.04896387,0.6082428,-0.03342579,13.2399997040629,17
-13.20041,0.6833332,-25.97682,-0.1287400969039502,-0.324249802243346,-0.0132077475290515,10.17844,75.13144,0.5787132,0.07337987,0.6069047,-0.05009406,13.2599997036159,17
-13.14408,0.8833332,-25.95837,-0.0598527277328315,-0.1212660284145088,0.0111817150774342,13.569,75.17244,0.7779243,0.09772433,0.6050339,-0.06671365,13.2799997031689,17
-12.88898,0.2833334,-25.87826,-0.1578625528530199,0.6003618230744262,-0.0166601212216903,3.336288,72.86894,0.07659155,0.02381724,0.5936356,-0.01675129,13.2999997027218,17
-12.83375,0.4833335,-25.85984,-0.038208261528414,0.3253131482198657,0.0205833218739819,6.67115,72.87567,0.1538195,0.04760492,0.5928807,-0.03348023,13.3199997022748,17
-12.77853,0.6833335,-25.84142,0.0862937221387003,0.0716602173232661,0.0582295617921957,10.00506,72.88702,0.2320957,0.07134566,0.591624,-0.05017605,13.3399997018278,17
-12.55282,0.2833334,-25.77077,0.0111139463095835,0.50533060126785,0.033348738635631,3.280817,71.18752,359.9555,0.02305241,0.5818048,-0.01697704,13.3599997013807,17
-12.49839,0.4833334,-25.75305,0.111202646811563,0.2944706817993347,0.0613558456874478,6.560678,71.18367,359.9108,0.04607933,0.5810896,-0.03393508,13.3799997009337,17
-12.44397,0.6833332,-25.73534,0.207760620944601,0.1050068329796883,0.0873792942541058,9.839208,71.17719,359.8653,0.06905812,0.5798987,-0.05086001,13.3999997004867,17
-12.38957,0.8833333,-25.71763,0.3135894035461071,-0.1174223129021793,0.1154065428894277,13.11675,71.16795,359.8189,0.09197359,0.5782336,-0.06773818,13.4199997000396,17
-12.1079,0.2833333,-25.62861,0.3474268682851775,-0.1071077905765582,0.1195432425620168,3.223905,67.86515,359.8065,0.02239706,0.5580346,-0.01710337,13.4399996995926,17
-12.05453,0.4833333,-25.61054,0.3594622789661166,-0.0508302413856182,0.1160669376713272,6.446818,67.84873,359.6118,0.04476985,0.5573699,-0.03418791,13.4599996991456,17
-12.00118,0.6833333,-25.59247,0.3622189116626604,-0.0019052747952072,0.1090019636410311,9.668711,67.8211,359.4147,0.0671006,0.5562631,-0.05124021,13.4799996986985,17
-11.94784,0.8833332,-25.57441,0.3682484401648853,-0.0136490600015973,0.1023701730438304,12.88925,67.78185,359.2142,0.08937104,0.5547159,-0.06824315,13.4999996982515,17
-11.74668,0.2833334,-25.51127,0.4636765002132623,-0.0327455340048417,0.123924873298403,3.374162,67.58677,359.7948,0.02347136,0.5560015,-0.01786225,13.5199996978045,17
-11.69086,0.4833334,-25.49212,0.5362255961941411,-0.0058786471339827,0.1389191061149794,6.747363,67.56854,359.5883,0.04691591,0.555276,-0.03570411,13.5399996973574,17
-11.63505,0.6833333,-25.47297,0.5991197918984952,0.0136356315237785,0.151620151700051,10.11956,67.53782,359.3789,0.07031336,0.5540679,-0.05350994,13.5599996969104,17
-11.41435,0.2833333,-25.40458,0.6655757835839324,-0.0275187599860907,0.1663183589945696,3.538023,69.36031,359.8299,0.02454161,0.5687606,-0.01878498,13.5799996964633,17
-11.3555,0.4833333,-25.3856,0.6602488339361283,-0.0760260777753267,0.1595072630031779,7.075138,69.34444,359.6584,0.04905314,0.5679456,-0.03754819,13.5999996960163,17
-11.29667,0.6833332,-25.36662,0.6372867396643844,-0.0785700187479427,0.1485531687385091,10.61239,69.3176,359.4839,0.0735173,0.566588,-0.05627932,13.6199996955693,17
-11.23786,0.8833332,-25.34765,0.6099053354335551,-0.0884666453811785,0.137600581607753,14.14853,69.27928,359.3053,0.09790415,0.5646899,-0.07495163,13.6399996951222,17
-10.96058,0.2833334,-25.26137,0.3768388603674708,0.5612558549977889,0.0632087232679303,3.575204,71.36069,359.9329,0.02499728,0.5829934,-0.01867012,13.6599996946752,17
-10.90109,0.4833335,-25.24254,0.3641255930575768,0.3263520028328279,0.0574182445220117,7.149675,71.35434,359.8651,0.04996436,0.582142,-0.03731937,13.6799996942282,17
-10.84161,0.6833336,-25.22372,0.3349537649648866,0.1128444650717119,0.0472581834003698,10.72312,71.34364,359.7962,0.07487572,0.5807245,-0.05592703,13.6999996937811,17
-10.593,0.2833335,-25.14496,0.3029940455182958,-0.1336283506728769,0.0369107149498901,3.571453,72.48256,0.06574512,0.02547206,0.5908853,-0.01795991,13.7199996933341,17
-10.53392,0.4833335,-25.1251,0.3037378344706871,-0.147358277389571,0.038199436534299,7.141876,72.48879,0.1324612,0.0509145,0.5900244,-0.0358939,13.7399996928871,17
-10.47486,0.6833333,-25.10525,0.2863799563411477,-0.1151249308724447,0.0348833408652176,10.71131,72.49931,0.2002159,0.07630054,0.5885911,-0.05378807,13.75999969244,17
-10.41582,0.8833332,-25.0854,0.265039635016647,-0.0902443613151576,0.0312690243113884,14.2797,72.51433,0.2695858,0.1016054,0.5865871,-0.07162483,13.779999691993,17
-10.35679,0.9766706,-25.06556,0.253824937236188,-0.1260323926670328,0.0316653308745991,17.84703,72.53413,0.3411542,0.1268043,0.584015,-0.08938705,13.799999691546,17
-10.10867,0.2833332,-24.98879,0.2807453422631702,-0.1691728829124767,0.0441372398123292,3.607962,73.60818,0.1080484,0.02577042,0.5987598,-0.01810458,13.8199996910989,17
-10.0488,0.4833329,-24.96922,0.2886012254001215,-0.1663503692916445,0.0507070375427041,7.214895,73.61846,0.2169455,0.05150814,0.597869,-0.03618601,13.8399996906519,17
-9.988946,0.683333,-24.94965,0.2919481328132747,-0.1708805823638108,0.0558190184743878,10.82109,73.63577,0.3272977,0.07718829,0.5963855,-0.05422986,13.8599996902049,17
-9.768921,0.2833333,-24.88129,0.1006569945872639,0.4842087558388223,0.0012140182740267,3.633038,74.02122,0.1120791,0.02590081,0.6016354,-0.01830094,13.8799996897578,17
-9.708511,0.4833334,-24.86196,0.0738824705540324,0.2546713925916342,-0.0019904187983996,7.265001,74.03197,0.225032,0.05176801,0.6007277,-0.03657815,13.8999996893108,17
-9.648118,0.6833333,-24.84264,0.0422013600837143,0.0465303539410465,-0.0055957796655299,10.89591,74.05008,0.3398131,0.07757597,0.5992165,-0.05481329,13.9199996888638,17
-9.40876,0.2833334,-24.76846,0.0203198408576925,-0.1945760602646957,-0.0051435349069421,3.58862,75.72521,0.1874033,0.02572319,0.6134279,-0.01792755,13.9399996884167,17
-9.348889,0.4833333,-24.74986,-0.2499078365703697,0.4373749364474931,-0.0817559766906264,7.176166,75.74294,0.3762359,0.05141369,0.6125233,-0.03583226,13.9599996879697,17
-9.289036,0.6833333,-24.73126,-0.2842901084922493,0.1846993645641654,-0.0859744623432412,10.76257,75.77283,0.5679906,0.07704593,0.6110172,-0.05369664,13.9799996875226,17
-9.229198,0.8833332,-24.71267,-0.3213202912475577,-0.04658021620864,-0.0908871356855058,14.34758,75.81548,0.764079,0.1025924,0.6089118,-0.07150346,13.9999996870756,17
-8.933018,0.2833333,-24.62059,-0.3464803271052021,-0.3108248267669447,-0.0921833145343988,3.520092,76.94776,0.2681635,0.02550076,0.6218064,-0.01727753,14.0199996866286,17
-8.874254,0.4833334,-24.60216,-0.3263809372767499,-0.3423263278027746,-0.0804369817487256,7.039039,76.97263,0.538292,0.05096964,0.6209214,-0.03453335,14.0399996861815,17
-8.815507,0.6833335,-24.58374,-0.3086716460130949,-0.3278646952542539,-0.0710813207615927,10.55668,77.0146,0.8125252,0.07638223,0.6194482,-0.0517504,14.0599996857345,17
-8.756773,0.8833334,-24.56532,-0.2794078740312242,-0.3207556463516739,-0.0599061482252594,14.07277,77.07444,1.092997,0.101713,0.6173886,-0.06891212,14.0799996852875,17
-8.548846,0.2833333,-24.50011,-0.422571310959011,0.3459727639093909,-0.1018144935662164,3.455029,76.82401,0.2914072,0.0252007,0.6209675,-0.01673847,14.0999996848404,17
-8.491318,0.4833333,-24.48141,-0.2984913727428386,0.128074722486724,-0.0620071715083234,6.908495,76.85054,0.5851289,0.05036926,0.6201152,-0.03345239,14.1199996843934,17
-8.433805,0.6833333,-24.46272,-0.1782860583965142,-0.0684272109136354,-0.0240878789727894,10.36078,76.89529,0.8830938,0.07548451,0.6186962,-0.05013087,14.1399996839464,17
-8.376309,0.8833332,-24.44403,-0.0480712569462529,-0.2978943901510795,0.0163110062707012,13.81181,76.95908,1.187596,0.1005236,0.6167122,-0.06675898,14.1599996834993,17
-8.11114,0.2833334,-24.36123,-0.1562487084784223,0.3456956244324109,-0.0172470845999015,3.402726,75.17631,0.1984862,0.02458289,0.6096708,-0.01673838,14.1799996830523,17
-8.054638,0.4833335,-24.34269,-0.098018972462154,0.1046591591060743,0.0014751880537353,6.803983,75.19409,0.3983616,0.0491341,0.608862,-0.03345449,14.1999996826053,17
-7.998152,0.6833335,-24.32415,-0.039965345496185,-0.1149814803717823,0.021394673990251,10.20421,75.22408,0.6010295,0.07363499,0.6075156,-0.0501364,14.2199996821582,17
-7.762513,0.2833332,-24.25009,-0.1956671890783772,0.3527006925844888,-0.0253107396700897,3.343864,73.49749,0.108352,0.02394371,0.59803,-0.01669923,14.2399996817112,17
-7.707117,0.4833332,-24.2317,-0.3503276326462679,0.8161662677260161,-0.0720944546074342,6.686255,73.50703,0.2174984,0.04785707,0.5972657,-0.03337624,14.2599996812642,17
-7.651737,0.683333,-24.21332,-0.2685194385413947,0.3704384409784769,-0.0479361497760564,10.0277,73.52312,0.3281448,0.07172323,0.5959933,-0.05002005,14.2799996808171,17
-7.596372,0.883333,-24.19495,-0.1863533462699784,-0.0795057455785899,-0.0248070432713802,13.36812,73.54601,0.441022,0.09552114,0.5942141,-0.06661673,14.2999996803701,17
-7.304387,0.2833334,-24.1037,-0.0902976310956926,-0.4610268377019459,0.0013595656072808,3.286287,71.26571,359.9579,0.02309154,0.5823581,-0.01700391,14.3199996799231,17
-7.249857,0.4833333,-24.08598,-0.0016571905944395,-0.5106837012601411,0.0248219316857962,6.571618,71.26206,359.9155,0.04615735,0.5816398,-0.03398897,14.339999679476,17
-7.19534,0.6833333,-24.06827,0.0783202729598615,-0.5148648257563841,0.044589022847326,9.855578,71.25591,359.8724,0.06917477,0.5804439,-0.05094024,14.359999679029,17
-7.140838,0.8833333,-24.05057,0.1629572522798623,-0.526886605585879,0.0647832079233659,13.13859,71.24714,359.8285,0.09212891,0.5787717,-0.0678447,14.379999678582,17
-6.933976,0.2833333,-23.98568,0.0732813584099139,0.1202227596406265,0.0309536499753377,3.230826,68.83154,359.8545,0.02253879,0.5649986,-0.01697993,14.3999996781349,17
-6.880501,0.4833333,-23.96768,0.2450048942683471,-0.1177824492063408,0.0765636995103165,6.460676,68.81919,359.7082,0.04505303,0.5643238,-0.03394126,14.4199996776879,17
-6.827042,0.6833333,-23.9497,0.4066124391730548,-0.3348793394573642,0.1181757841119228,9.689533,68.79836,359.56,0.06752477,0.5632002,-0.05087064,14.4399996772408,17
-6.773594,0.8833332,-23.93172,0.3569861003936614,0.1348586101782298,0.0942952275351842,12.91707,68.7688,359.4092,0.08993523,0.5616293,-0.06775129,14.4599996767938,17
-6.507525,0.2833333,-23.84845,0.300532907795831,0.5998922039350405,0.0684274232291812,3.339635,67.61417,359.7902,0.02319437,0.5562055,-0.01773383,14.4799996763468,17
-6.452228,0.4833332,-23.82964,0.4087121818275903,0.1552441857727637,0.0936491984413869,6.678298,67.59573,359.579,0.04636253,0.5554943,-0.03544763,14.4999996758997,17
-6.396947,0.6833333,-23.81083,0.5157119135054118,-0.2941080687429814,0.1191806766350325,10.01591,67.56465,359.3651,0.06948458,0.5543101,-0.05312604,14.5199996754527,17
-6.157718,0.2833333,-23.73651,0.3515860965603017,0.1568125897090839,0.0612403887636929,3.528023,69.40065,359.8284,0.02445587,0.5690517,-0.01875467,14.5399996750057,17
-6.099002,0.4833332,-23.71766,0.3626926300299571,-0.0372854085903829,0.0586383958619975,7.055163,69.3847,359.6555,0.04888213,0.5682408,-0.03748772,14.5599996745586,17
-6.040314,0.6833332,-23.69881,0.3585957021440911,-0.210475436154385,0.0529449573836124,10.58263,69.3577,359.4795,0.07326296,0.56689,-0.05618966,14.5799996741116,17
-5.981642,0.8833331,-23.67996,0.3530243084196662,-0.4171185149243575,0.0484589772150165,14.10898,69.31919,359.2995,0.09756736,0.5650015,-0.0748328,14.5999996736646,17
-5.684762,0.2833333,-23.58793,0.1805827921904708,0.2488080471373387,-0.0066889397166995,3.572381,71.41576,359.9325,0.02496648,0.5833841,-0.01867031,14.6199996732175,17
-5.625298,0.4833332,-23.56918,0.2570161211097992,0.0296203767135803,0.0156580774646322,7.144092,71.40939,359.8643,0.04990318,0.5825334,-0.03732023,14.6399996727705,17
-5.56585,0.6833332,-23.55044,0.323215164733007,-0.1686590993438985,0.0359545734215238,10.71477,71.39864,359.7951,0.07478435,0.5811172,-0.0559284,14.6599996723235,17
-5.506419,0.8833331,-23.5317,0.3936002758165786,-0.4003916276527576,0.0586165990444698,14.28441,71.3833,359.7243,0.09958573,0.5791371,-0.07447709,14.6799996718764,17
-5.297326,0.2833334,-23.4659,0.2332610896340865,0.2404451257714049,0.0110853369024894,3.57041,72.55091,0.0658062,0.02545432,0.5913662,-0.01796929,14.6999996714294,17
-5.238241,0.4833333,-23.44611,0.2293323552955866,-0.0038327251948182,0.0116922327812858,7.139811,72.55716,0.1326488,0.05087953,0.5905052,-0.03591231,14.7199996709824,17
-5.179173,0.6833332,-23.42633,0.225043704276342,-0.2272023012110043,0.0132429953214234,10.70819,72.56769,0.2005218,0.07624818,0.5890715,-0.05381542,14.7399996705353,17
-5.120122,0.8833331,-23.40656,0.0196473898724747,0.2362633858766096,-0.0465721760301995,14.27554,72.58272,0.2699945,0.1015357,0.5870671,-0.07166126,14.7599996700883,17
-4.852251,0.2833333,-23.32372,-0.180975880625918,0.6950245954693043,-0.1042842855474361,3.607895,73.68573,0.1082497,0.02575875,0.5993012,-0.01812026,14.7799996696413,17
-4.792354,0.4833333,-23.30422,-0.1499538825669368,0.2441043131909315,-0.0916307190410421,7.214743,73.69601,0.217322,0.05148452,0.5984095,-0.03621742,14.7999996691942,17
-4.732477,0.6833333,-23.28473,-0.1135149938039505,-0.2115204034591599,-0.0771159029549224,10.82091,73.71335,0.3278669,0.07715323,0.5969248,-0.05427719,14.8199996687472,17
-4.492553,0.2833333,-23.21039,-0.3410286207351589,0.2331274625087142,-0.1437608134590959,3.633059,74.11518,0.1124343,0.0258878,0.6022895,-0.01831981,14.8399996683002,17
-4.432112,0.4833333,-23.19116,-0.3835488137180685,0.0327569011056306,-0.1527784321176213,7.265055,74.12595,0.2257539,0.05174215,0.6013808,-0.03661586,14.8599996678531,17
-4.371689,0.6833333,-23.17193,-0.432389477414649,-0.1467053396106876,-0.1625692541068204,10.89598,74.14412,0.3408991,0.07753712,0.5998679,-0.05486977,14.8799996674061,17
-4.311285,0.8833332,-23.1527,-0.4729510913200645,-0.3596207463539375,-0.1687104769240264,14.5261,74.17005,0.4586555,0.1032477,0.5977526,-0.07306616,14.899999666959,17
-4.013858,0.2833333,-23.06109,-0.6735541148226845,0.3000333611526433,-0.2234504135372184,3.580021,76.28645,0.2152147,0.0257259,0.6172807,-0.01781619,14.919999666512,17
-3.95407,0.4833333,-23.04264,-0.6105026292067222,0.0745728971992794,-0.19719096345829,7.158944,76.30675,0.4320477,0.05141905,0.616374,-0.03560979,14.939999666065,17
-3.894299,0.6833333,-23.0242,-0.5434696578179143,-0.1299792450219078,-0.1693750359261656,10.73669,76.341,0.6522414,0.07705417,0.6148644,-0.05336327,14.9599996656179,17
-3.834544,0.8833332,-23.00575,-0.4575524404230273,-0.3679844321765985,-0.1356203032638525,14.31299,76.38984,0.8773671,0.1026033,0.612754,-0.07105994,14.9799996651709,17
-3.626213,0.2833333,-22.94148,-0.5931029198310963,0.2665797897676284,-0.1699187976978926,3.513845,77.06001,0.266532,0.02543233,0.6225742,-0.01727968,14.9999996647239,17
-3.567512,0.4833333,-22.92322,-0.5545891787759298,0.0160295618680466,-0.1541194590946126,7.026577,77.08468,0.534987,0.05083305,0.6216912,-0.03453803,15.0199996642768,17
-3.508826,0.6833333,-22.90496,-0.5005998937150765,-0.2136126623656254,-0.1350766547449282,10.53776,77.1263,0.8074765,0.07617597,0.6202216,-0.0517566,15.0399996638298,17
-3.281199,0.2833333,-22.8341,-0.6380873350196676,0.2435801980877045,-0.1752741415771126,3.45359,76.9157,0.2905836,0.025173,0.6215945,-0.01675644,15.0599996633828,17
-3.223662,0.4833332,-22.81551,-0.7619228384808837,0.6960688279373275,-0.2116439783362764,6.90565,76.94215,0.5834751,0.05031414,0.620742,-0.0334885,15.0799996629357,17
-3.16614,0.6833332,-22.79693,-0.6469564101098745,0.2388758521403284,-0.1762952553928123,10.35654,76.98676,0.8805902,0.07540212,0.6193228,-0.05018518,15.0999996624887,17
-3.108636,0.8833331,-22.77836,-0.5179248073381756,-0.2230214594112945,-0.1371898396416426,13.80615,77.05033,1.184242,0.100414,0.6173385,-0.06683118,15.1199996620417,17
-2.82424,0.2833334,-22.68999,-0.64735781993369,0.2153539364074153,-0.1779919050251059,3.402306,75.29714,0.1987913,0.02456396,0.6105057,-0.01675995,15.1399996615946,17
-2.767708,0.4833334,-22.67157,-0.5888048563680501,0.0087111496555571,-0.1603323970999888,6.803167,75.31495,0.3989968,0.04909654,0.609696,-0.03349756,15.1599996611476,17
-2.711191,0.6833334,-22.65315,-0.5332034424062765,-0.1770235240978362,-0.1423593617320868,10.20298,75.34498,0.6020023,0.07357876,0.608348,-0.05020083,15.1799996607006,17
-2.654691,0.8833333,-22.63474,-0.467509160551349,-0.3962113181414346,-0.1201127388449343,13.6017,75.38775,0.8093148,0.09798899,0.6064633,-0.0668552,15.1999996602535,17
-2.456709,0.2833334,-22.57355,-0.558361937389264,0.2571701009864557,-0.1461105138620304,3.343464,73.63212,0.108738,0.02392329,0.5989705,-0.01672256,15.2199996598065,17
-2.401279,0.4833335,-22.55529,-0.3894306858059554,0.025437299651114,-0.0940946131621665,6.685473,73.64169,0.218264,0.04781636,0.5982053,-0.03342303,15.2399996593595,17
-2.345864,0.6833335,-22.53703,-0.2206928247341389,-0.1853872691604465,-0.0431677082927564,10.02652,73.65784,0.329263,0.07166199,0.5969311,-0.05009041,15.2599996589124,17
-2.290464,0.8833334,-22.51878,-0.0387506548618822,-0.4296648392596066,0.0106756490791575,13.36659,73.6808,0.4425392,0.09543997,0.5951495,-0.06671054,15.2799996584654,17
-2.035186,0.2833334,-22.44039,-0.0808987324732219,0.1986269228153325,-0.0042971266785158,3.286206,71.39165,359.9579,0.0230722,0.5832507,-0.01702895,15.2999996580184,17
-1.980619,0.4833333,-22.4228,0.0368039102557997,-0.058195642814697,0.0274210584184508,6.571446,71.38801,359.9155,0.04611863,0.5825313,-0.03403898,15.3199996575713,17
-1.926064,0.6833333,-22.40521,0.1594514909832654,-0.2941099897726429,0.0597419229035907,9.855334,71.38184,359.8723,0.06911682,0.5813335,-0.05101526,15.3399996571243,17
-1.701002,0.2833333,-22.33501,0.0837566787825758,0.1568107367182506,0.0307658419051115,3.231102,68.967,359.8547,0.0225216,0.5659728,-0.01700662,15.3599996566772,17
-1.647481,0.4833334,-22.31714,0.0131035050892441,0.6030271018419529,0.0029979858512767,6.46122,68.95464,359.7085,0.04501844,0.5652966,-0.03399476,15.3799996562302,17
-1.593976,0.6833334,-22.29927,0.1692187484521459,0.1395616238365223,0.0428911361447212,9.690355,68.93384,359.5605,0.06747311,0.5641709,-0.05095065,15.3999996557832,17
-1.540483,0.8833333,-22.28141,0.328315050154212,-0.3286081883554141,0.0830103739704775,12.91817,68.90431,359.41,0.08986665,0.5625972,-0.06785764,15.4199996553361,17
-1.256414,0.2833333,-22.19287,0.2188089768220753,0.1034949341127374,0.0405615686137998,3.33957,67.74674,359.7902,0.02317342,0.557166,-0.01776025,15.4399996548891,17
-1.201075,0.4833334,-22.17418,0.2861292976412064,-0.109420245514994,0.0523124750721564,6.678143,67.72829,359.5791,0.04632052,0.5564535,-0.03550026,15.4599996544421,17
-1.145751,0.6833334,-22.1555,0.3393743256668842,-0.3014273254732494,0.0604606254789175,10.01571,67.69722,359.3651,0.06942186,0.5552674,-0.05320504,15.479999653995,17
-1.090449,0.8833333,-22.13683,0.3913880481311513,-0.5268874328543762,0.0690891944681375,13.35315,67.65298,359.1467,0.09246447,0.5536084,-0.07086422,15.499999653548,17
-0.8880088,0.2833333,-22.07561,0.2766315469994489,0.1202218858513436,0.0272961492383245,3.527849,69.53174,359.8284,0.02443316,0.5699914,-0.01878176,15.519999653101,17
-0.829253,0.4833332,-22.05689,0.408797965421636,-0.1177831354314828,0.0623899574438198,7.05479,69.51578,359.6555,0.04883643,0.5691792,-0.03754191,15.5399996526539,17
-0.7705244,0.6833333,-22.03818,0.5279558527332726,-0.3348799498030977,0.0954684312135185,10.58206,69.48878,359.4795,0.07319444,0.5678263,-0.05627085,15.5599996522069,17
-0.7118127,0.8833333,-22.01947,0.4448224270262211,0.134858298035955,0.0675719983298144,14.10823,69.45027,359.2994,0.09747607,0.5659348,-0.07494106,15.5799996517599,17
-0.4538777,0.2833334,-21.94077,0.3537107026208821,0.5998921871213483,0.0383627122931748,3.572287,71.57657,359.933,0.02494207,0.5845224,-0.01870141,15.5999996513128,17
-0.3943646,0.4833333,-21.92218,0.417889634994941,0.1552442495428285,0.0563513504189536,7.143899,71.57024,359.8653,0.04985422,0.5836701,-0.03738254,15.6199996508658,17
-0.3348683,0.6833332,-21.9036,0.4807144138295176,-0.2941078985152376,0.0749979527463757,10.7145,71.55958,359.7966,0.07471111,0.5822512,-0.05602192,15.6399996504188,17
-0.1057916,0.2833334,-21.83223,0.2834616226171851,0.1568125459760604,0.0146640397907482,3.570724,72.72021,0.0661023,0.02543148,0.5925559,-0.01800642,15.6599996499717,17
-0.04664517,0.4833333,-21.81261,0.0819019705124626,0.6030286466108041,-0.0462035292978733,7.140441,72.72648,0.1332371,0.05083387,0.591693,-0.03598658,15.6799996495247,17
0.01248464,0.6833332,-21.793,0.1008253020453255,0.139563133496989,-0.0397556439027404,10.70913,72.73705,0.2013918,0.07617961,0.5902562,-0.05392681,15.6999996490777,17
0.07159729,0.8833331,-21.77339,0.1140568663284558,-0.3286066183224673,-0.0339449887264144,14.27678,72.75216,0.271173,0.1014443,0.5882474,-0.07180946,15.7199996486306,17
0.3592867,0.2833333,-21.68485,-0.0344632665607318,0.1034965399510079,-0.0760046660080782,3.607921,73.86202,0.108438,0.02573201,0.6005311,-0.01815869,15.7399996481836,17
0.4192427,0.4833332,-21.66554,0.0027051023891231,-0.1094189619246349,-0.0619784749801048,7.214787,73.87233,0.2177193,0.05143113,0.5996376,-0.03629407,15.7599996477365,17
0.4791788,0.6833332,-21.64623,0.0339722063569354,-0.3014262702180563,-0.0494384052512018,10.82098,73.88969,0.3284707,0.07707327,0.5981497,-0.05439204,15.7799996472895,17
0.5390977,0.8833331,-21.62693,0.0735386788617105,-0.5268866331150317,-0.0341006678340569,14.42608,73.91448,0.4418736,0.1026315,0.5960696,-0.07243098,15.7999996468425,17
0.7393688,0.2833333,-21.5662,-0.1043652736453175,0.1202225218967626,-0.0839046097301725,3.632751,74.3002,0.1126294,0.02585708,0.6035767,-0.01835861,15.8199996463954,17
0.7998648,0.4833333,-21.54716,-0.0292509694795746,-0.1177826651708102,-0.0558211789703797,7.264429,74.31099,0.2261831,0.05168087,0.6026662,-0.03669309,15.8399996459484,17
0.8603441,0.6833334,-21.52812,0.0388610385804963,-0.3348796346117096,-0.0284385655476171,10.89504,74.3292,0.3414966,0.07744503,0.6011503,-0.05498586,15.8599996455014,17
0.9208038,0.8833334,-21.50908,-0.0901514545154853,0.1348583616317868,-0.0605500603632904,14.52485,74.35516,0.4594564,0.1031251,0.5990309,-0.07322078,15.8799996450543,17
1.177892,0.2833333,-21.43123,-0.2194105989338175,0.5998918882209461,-0.0922909221651906,3.579969,76.46023,0.2149806,0.02569724,0.6184723,-0.01785651,15.8999996446073,17
1.237736,0.4833332,-21.41297,-0.1774189541888824,0.155243782505505,-0.0730154703298566,7.158839,76.48051,0.4316083,0.0513619,0.6175638,-0.03569016,15.9199996441603,17
1.297562,0.6833332,-21.39471,-0.1242493740956436,-0.2941085799489158,-0.0497369049123967,10.73654,76.51474,0.6515771,0.07696859,0.6160514,-0.05348377,15.9399996437132,17
1.526058,0.2833334,-21.32503,-0.3224347882265124,0.1568120702269809,-0.103182858039684,3.51422,77.21963,0.2662275,0.02540913,0.6236627,-0.01731921,15.9599996432662,17
1.584817,0.4833333,-21.30693,-0.5150548891261431,0.6030281312232264,-0.155151514878387,7.027343,77.24428,0.5343882,0.05078685,0.6227781,-0.03461704,15.9799996428192,17
1.643561,0.6833333,-21.28884,-0.4718735437346222,0.1395623469995177,-0.1392855400413779,10.53893,77.28586,0.8066041,0.07610697,0.6213055,-0.05187485,15.9999996423721,17
1.70229,0.8833332,-21.27075,-0.4201875668591475,-0.3286076678278992,-0.1226023762098833,14.04919,77.34517,1.085016,0.1013475,0.6192469,-0.06907842,16.0199996419251,17
1.987604,0.2833334,-21.18302,-0.5231176525828882,0.1034952483458312,-0.1521670671080386,3.449314,77.01992,0.2930182,0.02514179,0.6223063,-0.01673949,16.0399996414781,17
2.045093,0.4833334,-21.16451,-0.4326734688659117,-0.1094201150999835,-0.1242945828457813,6.897062,77.04656,0.5883886,0.05025174,0.621455,-0.03345422,16.059999641031,17
2.102565,0.6833335,-21.14601,-0.339945963669388,-0.3014273569226957,-0.096064803270746,10.34364,77.0915,0.8880277,0.0753088,0.6200375,-0.05013356,16.079999640584,17
2.160021,0.8833334,-21.12751,-0.231792288736468,-0.5268877381143611,-0.06345206877209,13.78897,77.15553,1.194233,0.1002902,0.6180556,-0.06676262,16.099999640137,17
2.358443,0.2833333,-21.0672,-0.3342429537746589,0.1202213005083511,-0.0944264701436345,3.396228,75.50238,0.1916685,0.02445395,0.6119247,-0.01682058,16.1199996396899,17
2.41497,0.4833333,-21.04913,-0.1808014954090717,-0.1177837814083078,-0.047403469361253,6.791001,75.51951,0.3845726,0.04887596,0.6111163,-0.03361959,16.1399996392429,17
2.471481,0.6833332,-21.03106,-0.0317968559277774,-0.3348806504026431,-0.0003588808437662,10.18474,75.54838,0.580127,0.07324787,0.6097703,-0.05038454,16.1599996387959,17
2.527976,0.8833332,-21.013,-0.0775637822629455,0.1348572153387252,-0.0126686117027503,13.57737,75.58952,0.7798552,0.09754839,0.6078884,-0.06710017,16.1799996383488,17
2.78327,0.2833333,-20.93493,-0.1243483061567305,0.5998908334884583,-0.0255302149797351,3.336995,73.29583,0.07700148,0.02376175,0.5966271,-0.01684071,16.1999996379018,17
2.838643,0.4833333,-20.91691,-0.00822839296944,0.1552429485289554,0.0080772889797096,6.672545,73.3026,0.1546383,0.04749387,0.5958682,-0.03365889,16.2199996374547,17
2.894001,0.6833333,-20.89889,0.1149641131331113,-0.2941092763668165,0.0428896464335579,10.00713,73.31402,0.2333179,0.07117894,0.5946046,-0.05044373,16.2399996370077,17
3.120002,0.2833333,-20.83006,-0.0161906627395564,0.1568113086451339,-3.2878164081040495e-05,3.281059,71.62344,359.9559,0.0229913,0.5848927,-0.01706317,16.2599996365607,17
3.174566,0.4833333,-20.81275,-0.1469658533093021,0.6030275547662277,-0.0433110428407239,6.561143,71.61964,359.9116,0.04595708,0.5841735,-0.03410711,16.2799996361136,17
3.229117,0.6833333,-20.79544,-0.0544806310636998,0.139562206478867,-0.021530638371253,9.839884,71.6132,359.8665,0.06887468,0.5829762,-0.05111781,16.2999996356666,17
3.283653,0.8833332,-20.77814,0.0367631784484512,-0.3286074668476518,-0.0009077651290922,13.11769,71.60403,359.8204,0.0917294,0.581302,-0.06808188,16.3199996352196,17
3.56592,0.2833333,-20.6914,-0.0290154351450713,0.1034957908269759,-0.0273473395074326,3.224024,68.31671,359.8069,0.02233269,0.5612983,-0.01718863,16.3399996347725,17
3.619427,0.4833333,-20.67375,0.0895647970929136,-0.1094195902165902,0.0002425353393924,6.447057,68.30034,359.6128,0.04464118,0.5606297,-0.03435833,16.3599996343255,17
3.67292,0.6833333,-20.65609,0.2017694050028096,-0.3014268624433354,0.0254520966675428,9.669065,68.27276,359.4161,0.06690762,0.5595164,-0.05149575,16.3799996338785,17
3.726399,0.8833333,-20.63845,0.3205048228273526,-0.5268872873680244,0.052285686416944,12.88971,68.23363,359.2161,0.08911397,0.55796,-0.06858344,16.3999996334314,17
3.927603,0.2833334,-20.57714,0.2226069098159628,0.1202219337660085,0.0141306711452244,3.373692,68.04858,359.7952,0.02339754,0.5593446,-0.01795179,16.4199996329844,17
3.983567,0.4833334,-20.55844,0.3727081700587602,-0.1177829523103402,0.0507584978926871,6.746418,68.0304,359.589,0.04676824,0.5586149,-0.0358832,16.4399996325374,17
4.039516,0.6833334,-20.53975,0.5103461852067097,-0.3348796249416594,0.0848938385311619,10.11812,67.99973,359.38,0.07009194,0.5573999,-0.0537783,16.4599996320903,17
4.09544,0.8833333,-20.52106,0.4463079005168939,0.1348583181601148,0.058947253801481,13.49002,67.95606,359.1666,0.09335741,0.5557004,-0.0716277,16.4799996316433,17
4.355042,0.2833332,-20.44363,0.3742602977311797,0.5998919079966365,0.0318435647205888,3.533428,70.34031,359.8479,0.02443793,0.5757657,-0.0188425,16.4999996311963,17
4.414024,0.4833332,-20.42539,0.5868326593317876,0.1552441019656549,0.0920275396167973,7.066368,70.32609,359.6942,0.04884638,0.5749429,-0.03766883,16.5199996307492,17
4.472984,0.6833331,-20.40716,0.8091306023115461,-0.294108070136863,0.1577831451971896,10.59898,70.30209,359.538,0.07320629,0.5735728,-0.05645807,16.5399996303022,17
4.702785,0.2833332,-20.33783,0.779901046628571,0.1568123280950037,0.1487115223535724,3.577144,71.8628,359.9386,0.02495817,0.5865437,-0.01874907,16.5599996298552,17
4.76244,0.4833332,-20.31942,0.7521262612426689,0.6030281601462611,0.1415214561963971,7.153584,71.857,359.8767,0.04988701,0.5856863,-0.03747641,16.5799996294081,17
4.822077,0.6833332,-20.30102,0.953895550380631,0.1395627020036383,0.1964547154217584,10.729,71.84722,359.8138,0.07476017,0.5842587,-0.05616193,16.5999996289611,17
4.881697,0.8833331,-20.28261,1.1806006687123922,-0.3286072576783542,0.2563191778975664,14.30339,71.83327,359.7495,0.09955353,0.5822628,-0.07478754,16.6199996285141,17
5.168767,0.2833334,-20.19514,1.2708302609846625,0.1034956961301716,0.2736612380888346,3.563144,73.22865,0.07396271,0.02533916,0.5961211,-0.01802461,16.639999628067,17
5.227919,0.4833333,-20.17596,1.3834787703157714,0.5308942134761545,0.2962095230050821,7.125189,73.23563,0.1488684,0.05064806,0.5952565,-0.03602356,16.65999962762,17
5.287053,0.6833333,-20.15678,1.8812578627945251,0.0486114774789938,0.4112848971315088,10.6862,73.24741,0.224928,0.07590078,0.5938171,-0.05398253,16.6799996271729,17
5.346171,0.8833333,-20.13761,2.433457101561112,-0.4383759227931685,0.5240251369139202,14.24618,73.26421,0.3027358,0.1010728,0.5918046,-0.07188454,16.6999996267259,17
5.547229,0.2833334,-20.07775,2.804430389570018,-0.0250906928811683,0.5659826252793145,3.626374,74.16269,0.1013409,0.02577536,0.6026238,-0.01837258,16.7199996262789,17
5.607635,0.4833333,-20.05878,3.468434784651677,-0.2568232851343272,0.6755885140789211,7.251711,74.17238,0.2034744,0.05151763,0.6017181,-0.03672154,16.7399996258318,17
5.668018,0.6833333,-20.03982,4.100074875811451,-0.4676476717830395,0.7576156616578302,10.87656,74.1887,0.3069705,0.07720353,0.6002099,-0.05503329,16.7599996253848,17
5.728385,0.8833332,-20.02086,4.504378071981031,0.0083627885113884,0.7571530586195117,14.50035,74.21199,0.4129996,0.102805,0.5981013,-0.07328472,16.7799996249378,17
5.986602,0.2833333,-19.94388,4.873778921725813,0.4796685798264697,0.7350527758358538,3.630306,74.93659,0.1274363,0.02581636,0.6079888,-0.01838644,16.7999996244907,17
6.047194,0.4833332,-19.92527,5.43095012605654,0.0412931115259368,0.9577207951480986,7.259537,74.94878,0.2558754,0.05159934,0.6070726,-0.03674899,16.8199996240437,17
6.107768,0.6833333,-19.90667,5.955680075510887,-0.4017867076876767,1.1423155590333316,10.88766,74.96936,0.3863479,0.07732283,0.6055473,-0.05506939,16.8399996235967,17
6.337282,0.2833332,-19.83846,6.185349628963561,0.0554063910322237,1.2121187342947124,3.575404,76.71756,0.2092843,0.02559502,0.620236,-0.01792842,16.8599996231496,17
6.397151,0.4833332,-19.82058,6.374210349739499,0.5078949248782771,1.2470499811039772,7.149699,76.73728,0.4201398,0.05115742,0.6193275,-0.03583406,16.8799996227026,17
6.457004,0.6833332,-19.8027,6.424548385098724,0.0507019702508491,1.278628055004095,10.72286,76.77054,0.6342518,0.07666241,0.6178148,-0.05369959,16.8999996222556,17
6.516841,0.8833331,-19.78483,6.461240753773279,-0.411195337903189,1.3193518365340786,14.29451,76.81799,0.8531559,0.1020817,0.6157004,-0.07150764,16.9199996218085,17
6.803611,0.2833334,-19.69913,6.318759879565754,0.0271801486920366,1.3188785441692126,3.507281,77.61103,0.278603,0.02537031,0.6263255,-0.01728384,16.9399996213615,17
6.862327,0.4833334,-19.68125,6.163200281561036,0.4608509595127399,1.3245492798074563,7.013435,77.63677,0.5592144,0.05070912,0.6254402,-0.0345463,16.9599996209145,17
6.921029,0.6833333,-19.66337,5.847422566411057,-0.0151593904037187,1.3479761541856128,10.51797,77.68022,0.8441364,0.07599062,0.6239665,-0.051768,16.9799996204674,17
6.979714,0.8833332,-19.6455,5.522312421046596,-0.4958740062065051,1.420045275012452,14.02125,77.74217,1.135526,0.1011935,0.621906,-0.06893612,16.9999996200204,17
7.300832,0.2833335,-19.54841,4.959489094618721,-0.0763157124390658,1.4678004728826224,4.987045,73.46825,0.09091894,0.035341,0.5975084,-0.02538605,17.0199996195734,17
7.384081,0.4833334,-19.52203,4.387893509214706,0.3385379280301892,1.5520356154156616,9.973074,73.48028,0.1832199,0.07060799,0.5958105,-0.05071887,17.0399996191263,17
7.467314,0.6833332,-19.49566,3.619293468617817,-0.1562896621060182,1.6491082993512798,14.95807,73.50082,0.2783852,0.1057342,0.592985,-0.0759505,17.0599996186793,17
7.550513,0.883333,-19.46929,2.6290828470687,0.0644664210529381,1.7479660921055815,19.94437,73.53086,0.3784245,0.1406713,0.5890363,-0.1010432,17.0799996182323,17
7.838028,0.2833335,-19.38918,1.6197566265949297,0.3082208104719894,1.8978686423854365,6.516523,68.69501,359.3138,0.04355222,0.5635697,-0.03700331,17.0999996177852,17
7.948795,0.4833333,-19.35895,0.418828766916917,-0.1176094234212822,2.0645527122398306,13.0309,68.57527,358.6096,0.08695389,0.5608056,-0.07387931,17.1199996173382,17
8.059543,0.6833331,-19.32873,-0.8015599717426749,-0.5481436899000138,2.2847221733478627,19.54209,68.36674,357.8672,0.1300635,0.5562101,-0.1105075,17.1399996168911,17
8.170255,0.883333,-19.29851,-2.2870658826702464,-0.0784058518620329,2.4707741006500257,26.0504,68.05379,357.0608,0.1727452,0.5497957,-0.1467855,17.1599996164441,17
8.613523,0.2833333,-19.18901,-3.768646604073524,0.3866275400433538,2.6909231762453487,9.381826,68.95697,358.0848,0.05797604,0.5652484,-0.06001998,17.1799996159971,17
8.779222,0.483333,-19.1615,-5.22091280402238,0.6819018697171719,2.9410217323586565,18.7594,68.46228,356.057,0.1155715,0.5593187,-0.1196878,17.19999961555,17
8.944873,0.6833327,-19.134,-6.84377604249635,-0.0696790961379747,3.002153720712702,28.11332,67.5567,353.788,0.1723621,0.5494797,-0.1785275,17.219999615103,17
9.352427,0.2833333,-19.03997,-8.585341111484857,0.1082493930516085,3.0257902609601395,7.141155,70.9978,358.1329,0.04125268,0.5803092,-0.04939806,17.239999614656,17
9.48097,0.4833333,-19.03037,-10.267063451219082,0.3096647893407486,3.0562126592373,14.27862,70.63789,356.2002,0.08233351,0.5766919,-0.09865343,17.2599996142089,17
9.609478,0.6833332,-19.02077,-11.861205560893191,0.4822963456788159,3.094396893743916,21.39748,70.00584,354.141,0.1230609,0.5706819,-0.1474855,17.2799996137619,17
9.737948,0.8833329,-19.01117,-13.513725680697354,-0.2798779400006315,2.916440419426955,28.4866,69.04667,351.8711,0.1632663,0.5623063,-0.1956919,17.2999996133149,17
10.06577,0.2833333,-18.7574,-15.249799945817122,-0.1125426563370932,2.6648864161129358,7.749062,77.64982,359.0436,0.04742054,0.6259272,-0.04884935,17.3199996128678,17
10.2015,0.4833332,-18.7448,-16.833951729897997,0.078279636440688,2.407597079478432,15.49379,77.44949,358.0514,0.0946082,0.6215686,-0.09745874,17.3399996124208,17
10.3372,0.6833332,-18.7322,-18.39418013040196,-0.3999959079134881,1.9693714815469436,23.23162,77.09407,356.9819,0.1413447,0.6143298,-0.1456025,17.3599996119738,17
10.47285,0.883333,-18.71962,-19.931770211717566,-0.1621997302842351,1.478585750708902,30.96084,76.54594,355.7813,0.1874286,0.6042458,-0.1930612,17.3799996115267,17
10.50698,0.2833332,-18.68329,-21.245902271508125,0.0990833369339486,0.996311746767642,7.806427,69.8144,359.8613,0.05513275,0.5709887,-0.03994403,17.3999996110797,17
10.63558,0.4833332,-18.63819,-22.31749621561705,0.3315827488903141,0.5299038483397531,15.6106,69.78523,359.7179,0.1099969,0.5670128,-0.07968764,17.4199996106327,17
10.76415,0.6833331,-18.5931,-23.34642151490953,-0.3707239468794381,-0.1772869496050013,23.41249,69.7336,359.5637,0.1643385,0.56041,-0.1190468,17.4399996101856,17
10.89268,0.8833328,-18.54801,-24.35543316340058,-0.1435213369239871,-0.9389035991676078,31.21203,69.65405,359.3907,0.217906,0.5512132,-0.1578398,17.4599996097386,17
10.87252,0.2833333,-18.49393,-25.08485694336252,0.1071681129633739,-1.672537316805684,7.054501,45.46423,359.5966,0.05538601,0.3858884,-0.02701483,17.4799996092916,17
10.96472,0.4833333,-18.41184,-25.519151974873,0.3290737645418581,-2.368325687306287,14.1075,45.38813,359.183,0.1105602,0.3836885,-0.05390442,17.4999996088445,17
11.05689,0.6833331,-18.32978,-25.726464586710197,-0.3838269152365929,-3.265858081976837,21.16007,45.25599,358.7476,0.1653315,0.3800351,-0.08055504,17.5199996083975,17
11.14902,0.8833328,-18.24777,-25.9261382451431,-0.1672183811117628,-4.211654920305737,28.21174,45.0575,358.2732,0.219491,0.3749439,-0.1068666,17.5399996079504,17
11.05063,0.2833331,-18.18607,-25.854833726528703,0.0728769256902052,-5.118788847897157,6.322186,6.028885,358.6782,0.05445789,0.05313934,-0.01440049,17.5599996075034,17
11.08422,0.4833331,-18.07814,-25.504000214313947,0.284188511021001,-5.976193353966679,12.65338,5.808554,357.3437,0.1088589,0.05289631,-0.02858966,17.5799996070564,17
11.1178,0.6833324,-17.97026,-24.92902706482192,-0.4393053870897764,-7.061097515921775,18.97883,5.426811,355.9453,0.1629256,0.05248891,-0.04265288,17.5999996066093,17
10.97025,0.2833333,-17.89023,-24.284913264875225,-0.2332901827206528,-8.133212713234407,6.619287,336.3893,358.7449,0.05874456,-0.2036155,0.001107531,17.6199996061623,17
10.94289,0.4833335,-17.77531,-23.38399134226001,-0.003787782979911,-9.128320164052202,13.23807,336.1676,357.4618,0.1172983,-0.2025559,0.002267992,17.6399996057153,17
10.91554,0.683333,-17.66042,-22.228229444177096,0.1969309604536034,-10.035975359657323,19.8517,335.7824,356.1114,0.1754518,-0.2007915,0.003461183,17.6599996052682,17
10.8882,0.8833328,-17.54557,-20.837935245510657,-0.5371561647883742,-11.120961952262457,26.45579,335.206,354.6479,0.2330032,-0.1983259,0.004681181,17.6799996048212,17
10.86088,0.9766699,-17.43075,-19.57241181436749,-0.3417340910241801,-12.175583504802216,33.04472,334.3922,353.0107,0.2897532,-0.1951653,0.005922125,17.6999996043742,17
10.62289,0.2833332,-17.51769,-18.15263588948372,-0.1228248033323211,-13.10324856211688,5.944965,295.9103,357.8124,0.05406211,-0.5289335,0.01134989,17.7199996039271,17
10.54501,0.4833331,-17.43822,-16.582267530238667,-0.5730131987485493,-13.882808905847996,11.881,295.5637,355.5786,0.1079499,-0.5265091,0.02267753,17.7399996034801,17
10.46712,0.683333,-17.35878,-15.186563500005343,-0.3071303019323449,-14.606544768843415,17.79859,294.9657,353.247,0.1614988,-0.5224764,0.03394832,17.7599996030331,17
10.38921,0.8833328,-17.27937,-13.68492287220121,-0.017760664062679,-15.174265598829995,23.68659,294.0826,350.7573,0.2145458,-0.5168477,0.04512767,17.779999602586,17
10.1492,0.2833332,-17.411,-12.09546077618712,0.242825090471357,-15.576432561406063,4.440841,262.2488,357.0262,0.04500507,-0.7518032,0.01212192,17.799999602139,17
10.06407,0.4833332,-17.37065,-10.4652179629515,-0.4313949977961775,-15.80668074195548,8.870505,261.8998,354.0179,0.08990708,-0.7493508,0.02423215,17.819999601692,17
9.97893,0.6833332,-17.33032,-9.052412710807054,-0.1761061685344254,-16.152650848430596,13.2764,261.3076,350.9378,0.1346083,-0.7452689,0.03630418,17.8399996012449,17
9.751506,0.2833333,-17.45952,-7.671723335492283,0.1026692709301894,-16.35005585978199,3.578347,248.1623,357.2146,0.0376113,-0.8271712,0.0122386,17.8599996007979,17
9.674232,0.4833333,-17.43842,-6.34398737056923,0.3526608259266454,-16.392586303018767,7.158518,247.9,354.4134,0.07517008,-0.8252242,0.02456207,17.8799996003509,17
9.596971,0.6833333,-17.41731,-5.07862739203496,-0.3321530536455104,-16.14123974407589,10.72575,247.4578,351.5705,0.1126126,-0.82198,0.03689026,17.8999995999038,17
9.519726,0.8833333,-17.39621,-3.817163710481015,-0.087457103131775,-15.747368874973493,14.27074,246.8281,348.6625,0.1498802,-0.8174414,0.0492022,17.9199995994568,17
9.238004,0.2833335,-17.62253,-2.680192185731724,0.1807256380924399,-15.222153041179858,4.517379,235.4465,357.6829,0.03621465,-0.8839658,0.02548133,17.9399995990098,17
9.149195,0.4833335,-17.63455,-1.6887312736455105,0.4201244378736033,-14.568056607250654,9.05317,235.1705,355.3493,0.07236527,-0.8813479,0.05116265,17.9599995985627,17
9.06041,0.6833335,-17.64655,-0.873414250174255,-0.2752822246172357,-13.618239284095008,13.57701,234.7008,352.9578,0.1083729,-0.8769859,0.07677397,17.9799995981157,17
8.97165,0.8833333,-17.65854,-0.0788029226242983,-0.0411797490842053,-12.537756809537656,18.0801,234.0229,350.4744,0.1441692,-0.8708863,0.1022601,17.9999995976686,17
8.805217,0.2833333,-17.90413,0.5569589101204544,0.2164092914376687,-11.369877164210685,6.181247,231.932,358.7386,0.03348668,-0.8974323,0.04365745,18.0199995972216,17
8.706062,0.4833332,-17.95376,0.7120365658562271,-0.1950988037016988,-9.62991724700714,12.35934,231.7237,357.448,0.0668662,-0.893352,0.08718432,18.0399995967746,17
8.606928,0.683333,-18.00336,0.7149104535826316,-0.6108230292700145,-7.861377947397571,18.53345,231.3634,356.0972,0.1000328,-0.8865618,0.1304748,18.0599995963275,17
8.507815,0.8833327,-18.05294,0.7700118375324951,-0.1257867935856046,-6.056348458098189,24.69955,230.8285,354.6472,0.1328883,-0.8770797,0.1733952,18.0799995958805,17
8.349682,0.2833333,-18.37226,0.7199288458452937,0.3550327555983706,-4.284488375893986,6.556747,231.0565,0.234089,0.02280478,-0.9009445,0.05248297,18.0999995954335,17
8.26287,0.4833333,-18.44793,0.3623340558248236,-0.0733404634134767,-2.220450389146269,13.11244,231.0977,0.4746612,0.04552964,-0.8965139,0.1047874,18.1199995949864,17
8.176073,0.6833334,-18.52359,0.102556585475324,0.2143570840525368,-0.2056082636167318,19.66696,231.1695,0.7286693,0.06810037,-0.8891473,0.1567419,18.1399995945394,17
8.089291,0.8833332,-18.59924,-0.1982827322546096,0.5255410592100949,1.6973011497857795,26.22018,231.2773,1.004688,0.09044286,-0.87887,0.2081769,18.1599995940924,17
7.986287,0.2833336,-18.93225,-0.5512515720401234,0.8079417554537623,3.4623181725601526,6.189669,222.1116,0.6811361,0.01385757,-0.9319686,0.05251554,18.1799995936453,17
7.922557,0.4833335,-19.02107,-1.204852706833634,0.1555368665025294,5.409211995401371,12.37818,222.2245,1.379741,0.02766339,-0.9278396,0.1048777,18.1999995931983,17
7.858834,0.6833335,-19.10985,-1.897876144074961,-0.3996957543251992,7.1752839074753325,18.56595,222.4212,2.115938,0.04136398,-0.9209686,0.15695,18.2199995927513,17
7.808872,0.2833333,-19.18673,-2.391939754715112,0.0449526412304158,8.970655821117514,6.433289,219.4663,0.6585038,0.01354466,-0.9398859,0.05475273,18.2399995923042,17
7.746261,0.4833336,-19.28115,-3.067002841778645,-0.15541772276424,10.82772457605055,12.87982,219.5811,1.342104,0.02702271,-0.9353799,0.1094696,18.2599995918572,17
7.683675,0.6833335,-19.37553,-3.696578479000109,-0.3348795108176345,12.4790257467366,19.32541,219.7812,2.062378,0.04041388,-0.9278807,0.1638451,18.2799995914102,17
7.621116,0.8833332,-19.46987,-4.289953605538335,-0.547794408184421,13.896226624184871,25.76883,220.0807,2.842191,0.05367744,-0.9174112,0.2177037,18.2999995909631,17
7.532411,0.2833334,-19.56663,-4.661958119099888,0.1118597067271521,15.304353343668032,7.629053,230.729,1.14215,0.01951084,-0.9018384,0.0643709,18.3199995905161,17
7.441765,0.4833331,-19.66642,-5.179334325896053,-0.1135999588807477,16.774664614765772,15.25955,230.9633,2.320142,0.03899502,-0.8957043,0.1284643,18.3399995900691,17
7.351164,0.6833327,-19.76617,-5.626780380079641,-0.31815156297667,17.977224076867017,22.88418,231.3778,3.585888,0.05831654,-0.8855093,0.1919757,18.359999589622,17
7.260601,0.8833324,-19.86589,-5.843071750909521,0.1641314311498696,19.09525704041529,30.49762,232.0158,5.003114,0.07737368,-0.8712991,0.2546167,18.379999589175,17
7.181859,0.283333,-19.84071,-5.998388313528713,0.6417094152317504,19.951809101007424,7.997591,238.31,0.445778,0.03058406,-0.8713045,0.06279045,18.399999588728,17
7.066942,0.4833333,-19.92043,-6.221917585905221,0.2096062649730941,20.7133257657284,15.9925,238.4065,0.9088813,0.06101409,-0.8649186,0.1252552,18.4199995882809,17
6.95205,0.6833332,-20.00012,-6.391801493895092,-0.2272014577386382,21.152538187997763,23.98419,238.5782,1.41011,0.09114227,-0.8543145,0.1870898,18.4399995878339,17
6.837183,0.8833328,-20.07978,-6.27322336511087,0.2362634081787079,21.552671460464943,31.9719,238.845,1.977372,0.1208216,-0.8395475,0.2479935,18.4599995873868,17
6.714512,0.2833333,-20.00014,-6.25332132969576,0.054709970170703,21.946258422100133,7.44281,248.3235,359.6865,0.03870483,-0.825608,0.05217306,18.4799995869398,17
6.591428,0.4833333,-20.04236,-6.146760653175473,-0.1059353726108239,22.037423933297354,14.88338,248.2604,359.3612,0.07724347,-0.8203748,0.1041065,18.4999995864928,17
6.468369,0.683333,-20.08455,-5.962571811891443,-0.3000336298237254,21.819237642815963,22.32145,248.1486,359.0114,0.1154535,-0.811681,0.1555814,18.5199995860457,17
6.061873,0.2833334,-19.65943,-5.616554905854658,0.3784374498418204,21.56577993752773,6.550227,261.367,359.8936,0.03794474,-0.7570484,0.04271923,18.5399995855987,17
5.948338,0.4833334,-19.67379,-5.465605053344644,0.1717947779980453,21.45702759188699,13.09991,261.3477,359.7807,0.07578714,-0.7533376,0.08527433,18.5599995851517,17
5.834847,0.6833333,-19.68815,-5.210454488909822,-0.0139394452703656,21.06582306072763,19.64951,261.3127,359.6566,0.1134118,-0.7471684,0.127525,18.5799995847046,17
5.721402,0.8833331,-19.70251,-4.85920268252683,-0.2331269724728301,20.395179923937317,26.19899,261.2583,359.5171,0.1506944,-0.7385625,0.1693342,18.5999995842576,17
5.43465,0.2833333,-19.39242,-4.611670658105968,-0.2200591040482458,20.147386847345267,6.634628,278.2734,359.9686,0.0439414,-0.6531479,0.03765194,18.6199995838106,17
5.32017,0.4833334,-19.37437,-4.2502661380976114,-0.1615162022140719,19.655903356997,13.28054,278.2631,359.9087,0.08796301,-0.6498654,0.07506425,18.6399995833635,17
5.205703,0.6833332,-19.35634,-3.7868684559477614,-0.1108141981613624,18.932591956965272,19.92161,278.2441,359.8424,0.1316734,-0.6444042,0.1121788,18.6599995829165,17
5.091263,0.883333,-19.33832,-3.233385348916772,-0.1212689979913071,17.990264698049984,26.56019,278.2143,359.767,0.1749425,-0.6367858,0.1488833,18.6799995824695,17
4.754795,0.2833335,-18.99589,-2.7984312995175555,-0.1395635696080542,17.481860578782538,7.216954,300.3439,359.8342,0.0553183,-0.4963332,0.03005288,18.6999995820224,17
4.647716,0.4833335,-18.92914,-2.2847278494872514,-0.112382731380166,16.797631813255947,14.43991,300.3092,359.6499,0.1105179,-0.4933801,0.05991652,18.7199995815754,17
4.540674,0.6833335,-18.86244,-1.7098624095521462,-0.093042973706413,15.957658967804214,21.66292,300.247,359.4496,0.1652945,-0.4884693,0.0895173,18.7399995811284,17
4.244399,0.2833332,-18.57413,-1.1080223284978823,0.58542836661492,14.96880046939754,7.621753,317.8254,0.838601,0.05938367,-0.3594383,0.03072512,18.7599995806813,17
4.144469,0.4833334,-18.48498,-0.8166098871497189,0.3787854483155223,14.358821151109913,15.23986,317.9979,1.706808,0.1184885,-0.3570248,0.06129903,18.7799995802343,17
4.044573,0.6833332,-18.39584,-0.4626843613515125,0.1930506700210389,13.607784356130605,22.85246,318.303,2.639632,0.1770509,-0.3530163,0.09158529,18.7999995797873,17
3.944711,0.883333,-18.30672,-0.0682798742735946,-0.0261369630292828,12.74291301136623,30.45704,318.7719,3.682643,0.2348093,-0.3474325,0.1214488,18.8199995793402,17
3.663361,0.2833337,-17.95829,0.0573778711758778,-0.0130691914794413,12.262905318884297,7.101229,332.1326,2.356428,0.05515338,-0.2415217,0.03482849,18.8399995788932,17
3.569324,0.4833336,-17.86761,0.2665692352106793,0.045473916387798,11.691288129192651,14.18857,332.5823,4.78564,0.110061,-0.2399784,0.0694937,18.8599995784461,17
3.475321,0.6833334,-17.77695,0.5383330503158736,0.0961767115552135,11.059877477849312,21.24824,333.3706,7.370659,0.1644892,-0.2374152,0.1038481,18.8799995779991,17
3.381351,0.8833328,-17.68629,0.8519111924291276,0.0857229857978563,10.40167957459506,28.26297,334.564,10.21466,0.218207,-0.2338441,0.1377462,18.8999995775521,17
3.175776,0.2833333,-17.42448,0.7199325183760978,0.0674290966601993,10.239131646860766,6.94821,328.8573,2.190781,0.05324035,-0.2690116,0.03464519,18.919999577105,17
3.08053,0.4833331,-17.34027,0.6724268467606329,0.0946098826175431,10.008256350443151,13.8914,329.2639,4.434275,0.1063399,-0.2673878,0.06905398,18.939999576658,17
2.985296,0.6833329,-17.25611,0.6901526584787168,0.1139501872154353,9.744409107627192,20.81118,329.9747,6.813127,0.1590035,-0.2646879,0.1031512,18.959999576211,17
2.72785,0.2833331,-16.91995,0.7541928231658365,0.0721342142079434,9.484029928379233,7.65498,324.3616,1.246753,0.06022461,-0.3060049,0.03076076,18.9799995757639,17
2.632302,0.483333,-16.82403,0.5091216226682971,0.0224773473392796,9.494769295243431,15.30857,324.6188,2.535848,0.1202016,-0.3039032,0.06135848,18.9999995753169,17
2.536782,0.683333,-16.72814,0.3159585460589089,0.0182957291477346,9.464295332073208,22.95202,325.0744,3.92291,0.1796111,-0.3004107,0.09166646,19.0199995748699,17
2.441288,0.8833327,-16.63228,0.1574970114306024,0.0062736690610016,9.428761928581084,30.5798,325.7756,5.47647,0.2381819,-0.2955445,0.1215463,19.0399995744228,17
2.085506,0.2833333,-16.17227,-0.0047176670096535,0.0130692247578807,9.323658215107251,8.171268,318.8033,0.4380321,0.06535058,-0.3511733,0.02863477,19.0599995739758,17
1.98578,0.4833333,-16.06996,-0.1052142014724308,0.0653397613324539,9.12420513924691,16.3398,318.9004,0.8943498,0.1303503,-0.348487,0.05711557,19.0799995735288,17
1.886081,0.6833328,-15.96769,-0.1605352177163066,0.1097698016504676,8.86647433429783,24.50504,319.074,1.390577,0.1946688,-0.3440269,0.08529752,19.0999995730817,17
1.540352,0.2833333,-15.51441,-0.1869997394320459,0.0930432021282202,8.587234374162792,7.95414,313.6054,359.2334,0.06637724,-0.3925145,0.02118509,19.1199995726347,17
1.449165,0.483333,-15.40889,-0.4623051602360126,0.0684762514872968,8.54551256497457,15.90455,313.4403,358.4364,0.1324135,-0.3896515,0.04226028,19.1399995721877,17
1.358005,0.6833328,-15.3034,-0.6747850228341032,0.0893843057685153,8.38741943715732,23.84951,313.1462,357.5735,0.1977883,-0.3848974,0.06312315,19.1599995717406,17
1.266872,0.8833323,-15.19794,-0.8394190619358941,0.1024517805958923,8.150153623139305,31.78678,312.6895,356.5973,0.2621851,-0.3782769,0.08367257,19.1799995712936,17
0.9732055,0.2833334,-14.78309,-0.97105496465685,0.0543626647173189,7.871341673395593,7.539628,311.6387,358.4265,0.06558585,-0.4078665,0.01443002,19.1999995708466,17
0.8933825,0.4833334,-14.67501,-1.1278606814863452,-0.0015667941779958,7.624340451135923,15.07117,311.3186,356.7971,0.1308572,-0.4051034,0.02878803,19.2199995703995,17
0.8135864,0.683333,-14.56695,-1.234641280750647,-0.0120211610335925,7.257688044164321,22.58797,310.7527,355.0478,0.19552,-0.4005145,0.04300939,19.2399995699525,17
0.7338172,0.8833328,-14.45892,-1.3056240948922082,-0.0303162608441991,6.804045410913544,30.08138,309.8849,353.0958,0.2592831,-0.3941219,0.05703019,19.2599995695055,17
0.3421099,0.2833334,-13.89535,-1.1277745573993507,0.6105202227768324,6.030163818508689,7.065385,319.0728,358.6567,0.06181597,-0.3482471,0.01057967,19.2799995690584,17
0.2794129,0.4833333,-13.78672,-1.3221586180191829,0.3662425819382018,5.754940486505253,14.12072,318.816,357.2625,0.1233664,-0.3461958,0.02102715,19.2999995686114,17
0.2167176,0.6833333,-13.67813,-1.458484949480583,0.1428731223982131,5.364852577901926,21.16444,318.3647,355.7764,0.184414,-0.3427874,0.03136447,19.3199995681643,17
-0.1445237,0.2833335,-13.13155,-1.552663427780406,-0.113949470238261,4.891177631871203,7.354733,323.2901,358.2408,0.06569207,-0.313283,0.005654494,19.3399995677173,17
-0.1964437,0.4833332,-13.01019,-1.7257300228944334,-0.1385169776476134,4.536030438015336,14.70197,322.94,356.4145,0.1311151,-0.3112397,0.01122334,19.3599995672703,17
-0.2483491,0.683333,-12.88888,-1.8182503613635688,-0.1176092038849867,4.0686870640909225,22.03183,322.3232,354.4611,0.195949,-0.3078425,0.01674175,19.3799995668232,17
-0.3002396,0.8833326,-12.7676,-1.8491351354763403,-0.1045419606161269,3.5209663203506123,29.33393,321.382,352.2942,0.2599122,-0.3031074,0.02218573,19.3999995663762,17
-0.7762784,0.2833335,-12.04835,-2.19321636512343,-0.7929444394596296,3.4409257218179423,7.814926,332.3819,359.1742,0.06788992,-0.237649,0.009283282,19.4199995659292,17
-0.8266636,0.4833332,-11.92076,-2.321391416217817,-0.5585981580733435,3.077515299593784,15.62601,332.2073,358.3169,0.1354421,-0.2359726,0.0185198,19.4399995654821,17
-0.8770341,0.6833332,-11.79321,-2.372966138530481,-0.30752534215452,2.6547962598732795,23.4313,331.8972,357.3914,0.2023393,-0.2331886,0.0276663,19.4599995650351,17
-0.927397,0.883333,-11.6657,-2.369417356172762,-0.0919965899569777,2.207495263422369,31.22958,331.4168,356.3474,0.2682827,-0.2293128,0.03666856,19.4799995645881,17
-1.302193,0.2833332,-11.14343,-2.1373446305947974,0.6421757491673595,1.4678867488988896,7.896655,337.2361,0.3975157,0.06681922,-0.1971134,0.0169814,19.499999564141,17
-1.362031,0.4833331,-11.01911,-2.256242511721052,0.3796728704541874,1.278061137377004,15.79064,337.3211,0.8106757,0.133301,-0.1957057,0.03387854,19.519999563694,17
-1.421855,0.6833329,-10.89482,-2.297104506678619,0.1385659679544328,1.0560931931599598,23.68149,337.4724,1.257601,0.1991296,-0.1933677,0.05061115,19.539999563247,17
-1.820746,0.2833335,-10.34006,-2.2838755806814426,-0.1355060577208611,0.8362154173760983,7.614664,334.9612,0.8525218,0.06321181,-0.2167685,0.02164018,19.5599995627999,17
-1.890719,0.4833332,-10.22615,-2.270731280871469,-0.1768349728282705,0.6768974957225904,15.22535,335.1365,1.736198,0.1261219,-0.2153146,0.04318059,19.5799995623529,17
-1.960668,0.6833332,-10.11228,-2.1634553866530366,-0.1722008055764637,0.485613355651362,22.83028,335.4475,2.687906,0.1884492,-0.2128981,0.06453508,19.5999995619059,17
-2.030586,0.8833329,-9.99843,-1.985697954565476,-0.1749188986772751,0.2950873345025826,30.42608,335.9272,3.755917,0.2499077,-0.2095273,0.08561854,19.6199995614588,17
-2.540603,0.2833333,-9.311992,-1.4654710190306597,0.481981574980992,-0.2832591425498467,7.556736,323.6041,0.4416235,0.06139978,-0.3118615,0.02423279,19.6399995610118,17
-2.62524,0.4833331,-9.210587,-1.3596162595360717,0.2542561485840146,-0.2533955599616586,15.11046,323.6968,0.9124781,0.1224756,-0.309813,0.0484604,19.6599995605648,17
-2.709852,0.6833329,-9.10921,-1.178339645552234,0.0479269432008429,-0.2480250872443523,22.66099,323.8608,1.418166,0.1830003,-0.3064149,0.07247005,19.6799995601177,17
-2.794441,0.8833326,-9.007863,-0.9458586512966988,-0.1913671128540922,-0.2335745090451033,30.2076,324.1128,1.982929,0.2427107,-0.3016831,0.09615727,19.6999995596707,17
-3.169529,0.2833333,-8.508539,-0.8373701250298051,-0.1979187041437276,-0.0509853895076881,7.976273,321.6083,0.7378404,0.06356965,-0.328418,0.02893351,19.7199995592237,17
-3.266176,0.4833331,-8.407486,-0.6755279882621066,-0.1585072062789784,0.0936482767308306,15.95226,321.7687,1.509578,0.1268257,-0.3260069,0.05776317,19.7399995587766,17
-3.362796,0.683333,-8.306461,-0.4850143177720571,-0.1264481897841374,0.2357499159350302,23.92299,322.0544,2.345449,0.1894442,-0.3220044,0.08630256,19.7599995583296,17
-3.459388,0.8833327,-8.205465,-0.2904461710938646,-0.1550577710622234,0.4108164615662637,31.88635,322.4984,3.291707,0.2511204,-0.3164313,0.1144126,19.7799995578825,17
-3.928411,0.2833333,-7.563326,0.2581354788085619,0.5489015143645831,0.1075036946596508,8.203631,316.0689,359.8402,0.06685675,-0.3729977,0.02546572,19.7999995574355,17
-4.025716,0.4833331,-7.458251,0.3542981612110587,0.2566737854500815,0.3583979356650983,16.40487,316.0334,359.6737,0.1333522,-0.370129,0.05079348,19.8199995569885,17
-4.122993,0.6833329,-7.353205,0.4419460485227997,-0.0136701254669731,0.6059715047152847,24.60364,315.9697,359.4925,0.1991462,-0.3653661,0.07585371,19.8399995565414,17
-4.522948,0.2833333,-6.796471,0.8537982870089786,0.4037961956623528,0.3620078405847611,7.81734,312.9312,358.7523,0.06683018,-0.3976668,0.01725759,19.8599995560944,17
-4.607796,0.4833332,-6.687494,0.8803901973580937,0.1772203839443401,0.5616220204511236,15.62857,312.6674,357.4567,0.1333228,-0.3948206,0.03442591,19.8799995556474,17
-4.692617,0.6833331,-6.578547,0.8761881621173604,-0.0274712522456969,0.7320645182338711,23.42927,312.1987,356.058,0.1991613,-0.3900941,0.05142331,19.8999995552003,17
-5.110962,0.2833334,-5.985967,0.8154215475761148,-0.2646400252120708,0.9095258355908972,7.293421,314.8216,358.422,0.06399778,-0.3824983,0.01174126,19.9199995547533,17
-5.181453,0.4833334,-5.876597,1.1812962173570245,0.371735266762492,0.4122024852927589,14.57889,314.5117,356.7915,0.1277057,-0.3800662,0.02342557,19.9399995543063,17
-5.251917,0.6833332,-5.767256,1.0527745366674104,0.1239726286157923,0.5142087382437475,21.84996,313.9659,355.0491,0.1908544,-0.3760262,0.03500341,19.9599995538592,17
-5.322377,0.8833329,-5.657941,0.8938548464401688,-0.1019061797725869,0.5670387444115736,29.09609,313.1333,353.1172,0.2531653,-0.3704025,0.04640333,19.9799995534122,17
-5.39283,0.9766698,-5.548664,0.6786088926160154,-0.3602622721660065,0.6049818208292703,36.30716,311.927,350.8891,0.3143899,-0.3632214,0.05757898,19.9999995529652,17
-5.825353,0.2833333,-4.920622,0.4076508928704712,-0.3853871624414201,0.7066341585422102,7.134862,322.0853,358.4588,0.06320346,-0.3234139,0.00751764,20.0199995525181,17
-5.880378,0.4833332,-4.805782,0.1373350777201061,-0.3640608388205345,0.7525784795215691,14.25952,321.7875,356.8575,0.1261412,-0.3214523,0.014902,20.0399995520711,17
-5.935387,0.683333,-4.690974,-0.1590026048129242,-0.3495992298808765,0.7771405155114683,21.37076,321.2646,355.1518,0.1885501,-0.318189,0.02222367,20.0599995516241,17
-6.311727,0.2833334,-4.143922,-0.1011197605285456,0.3249686910756115,0.2977534264231813,7.531474,325.5596,358.3416,0.06700153,-0.2944665,0.00564844,20.079999551177,17
-6.362057,0.4833333,-4.019081,-0.3591333317044167,0.1153986696272623,0.2606864012095138,15.05693,325.2218,356.6203,0.1337137,-0.2924674,0.01124011,20.09999955073,17
-6.412372,0.6833332,-3.894275,-0.6133967534736424,-0.0722874271046117,0.206857535410547,22.56633,324.6247,354.7727,0.1998017,-0.2891451,0.01677929,20.119999550283,17
-6.462673,0.8833329,-3.769506,-0.891008708270002,-0.2924508185569842,0.1712415039470594,30.05005,323.7094,352.7121,0.2649672,-0.284516,0.02224104,20.1399995498359,17
-6.946096,0.2833333,-3.08794,-0.6907623110172576,0.3609305096201569,-0.4986074694595404,7.908218,334.8806,359.7761,0.067731,-0.2168071,0.01309283,20.1599995493889,17
-7.00118,0.4833332,-2.961318,-0.8979178263437806,0.1301737907642526,-0.5607173443239613,15.81408,334.8327,359.5436,0.1351202,-0.2152569,0.02612018,20.1799995489419,17
-7.056249,0.683333,-2.834731,-1.060788326067538,-0.0786989735809667,-0.6356637665794742,23.71743,334.7475,359.2921,0.2018471,-0.2126825,0.03901999,20.1999995484948,17
-7.480808,0.2833333,-2.24264,-1.206332967726759,-0.3200488684300561,-0.6868743458766171,7.724219,336.5553,0.7673916,0.06459174,-0.2031454,0.02022643,20.2199995480478,17
-7.546932,0.4833332,-2.12441,-1.3673638935948418,-0.3281683254436303,-0.6523152091596032,15.44478,336.7155,1.563603,0.1288682,-0.201747,0.04035673,20.2399995476007,17
-7.613042,0.683333,-2.006216,-1.456927892779376,-0.2898365468686283,-0.6229467614903759,23.16006,336.9998,2.421804,0.1925352,-0.1994244,0.06029863,20.2599995471537,17
-7.679139,0.8833328,-1.888057,-1.5014201785179535,-0.2583698892041118,-0.5631925179933588,30.86789,337.4386,3.385581,0.2553017,-0.1961888,0.07996101,20.2799995467067,17
-7.745221,0.9766695,-1.769933,-1.5269887757680998,-0.2870838968390971,-0.4373595750920795,38.5651,338.0855,4.518911,0.3168812,-0.1920555,0.09925412,20.2999995462596,17
-8.214425,0.2833333,-1.170243,-1.5831867870480067,-0.3226623348906601,-0.2165309819713288,7.43272,326.8934,0.4767976,0.06094741,-0.2845639,0.02244673,20.3199995458126,17
-8.292502,0.4833332,-1.066351,-1.5630462341649611,-0.3117896605378997,-0.0087999344000007,14.86309,326.9911,0.981123,0.121596,-0.2827546,0.04488332,20.3399995453656,17
-8.370546,0.683333,-0.9624768,-1.4923199027034126,-0.307781883464807,0.2208775515434551,22.28952,327.1646,1.52441,0.1817021,-0.2797498,0.06714539,20.3599995449185,17
-8.780007,0.2833333,-0.4390547,-1.0331263239656057,0.3563327145659959,-0.0346264772089162,7.755261,322.4904,0.746907,0.06194286,-0.321193,0.02790021,20.3799995444715,17
-8.872886,0.4833333,-0.339715,-0.8997481744473852,0.1363092922217287,0.1447834767580467,15.50946,322.6484,1.528705,0.123584,-0.3189611,0.0557254,20.3999995440245,17
-8.965737,0.6833331,-0.2404037,-0.7328509156889496,-0.061830283898999,0.3288449848154497,23.2585,322.9289,2.371655,0.1846367,-0.3152564,0.08328537,20.4199995435774,17
-9.058563,0.8833328,-0.1411206,-0.1574989650392027,0.4278404007754592,-0.0280191592457672,31.00027,323.3618,3.318998,0.2448195,-0.310097,0.1104529,20.4399995431304,17
-9.566105,0.2833333,0.5304134,0.0625184419236433,0.2734685016820027,0.0712040338049435,8.185298,318.3069,0.3476792,0.06562012,-0.3551595,0.02822608,20.4599995426834,17
-9.665724,0.4833332,0.6330501,0.3024216124807495,0.140980445675855,0.1454730489580695,16.36802,318.3842,0.7099857,0.1308869,-0.3524362,0.05630054,20.4799995422363,17
-9.765317,0.6833331,0.7356588,0.5362339864870354,-0.0239848425874925,0.2310029324643414,24.54781,318.5223,1.104163,0.1954675,-0.3479147,0.08408012,20.4999995417893,17
-10.20473,0.2833333,1.32398,0.7379879019865605,-0.1477421927844661,0.3640627652507611,7.965475,314.1752,359.2448,0.06653421,-0.3879527,0.02098427,20.5199995413423,17
-10.29513,0.4833333,1.430395,0.8410116502377658,-0.1792434140857595,0.5600322013560151,15.92723,314.0123,358.4595,0.1327257,-0.3851157,0.04185915,20.5399995408952,17
-10.38551,0.6833332,1.536782,0.9333103197781992,-0.1647814248778859,0.7120423475043562,23.88364,313.722,357.609,0.1982525,-0.3804049,0.06252314,20.5599995404482,17
-10.47586,0.8833329,1.643141,0.9881146092734738,-0.1576720347357603,0.8574756115210223,31.83247,313.2712,356.6465,0.2627966,-0.3738449,0.08287584,20.5799995400012,17
-10.84285,0.2833334,2.16416,1.364293372796359,0.509056342246389,0.5147071399813665,7.552689,312.7994,358.4603,0.06571533,-0.3986379,0.01408017,20.5999995395541,17
-10.92102,0.4833334,2.27357,1.3748040011406673,0.2911583193797651,0.5876932617158692,15.09751,312.4855,356.8657,0.131115,-0.3959332,0.02808968,20.6199995391071,17
-10.99916,0.6833332,2.382952,1.3315207348589126,0.0946565630894379,0.6397068559778525,22.62808,311.9306,355.1531,0.1959039,-0.3914411,0.04196543,20.63999953866,17
-11.07728,0.883333,2.492307,1.20801222782773,-0.1348100526715284,0.7062258602412781,30.13609,311.0793,353.2414,0.2597901,-0.3851836,0.05564494,20.659999538213,17
-11.53806,0.2833335,3.148913,1.172916960402958,-0.1315337327966977,0.6174457950946541,7.075455,319.5706,358.6652,0.06191829,-0.3441823,0.01041032,20.679999537766,17
-11.60003,0.4833333,3.258121,1.1064793435566287,-0.0822939175382279,0.4828946749367677,14.14077,319.3151,357.2796,0.1235685,-0.3421504,0.02068908,20.6999995373189,17
-11.662,0.6833332,3.367292,0.983131355014372,-0.0404068801978914,0.3362787506278835,21.19456,318.8658,355.8023,0.1847139,-0.3387742,0.03085876,20.7199995368719,17
-12.05637,0.2833332,3.947955,0.876427671509111,0.0207849202958922,0.1507448614552924,7.355222,323.0268,358.2238,0.06572984,-0.3154493,0.005666075,20.7399995364249,17
-12.10862,0.4833331,4.069247,0.7787540557638941,0.1279395965060021,-0.0902380552238337,14.70278,322.6733,356.3802,0.1311891,-0.3133893,0.01124931,20.7599995359778,17
-12.16086,0.6833327,4.190504,0.6641698836335816,0.2277414850408067,-0.3526021592109636,22.0327,322.0506,354.4083,0.1960583,-0.3099645,0.01678196,20.7799995355308,17
-12.21307,0.8833324,4.311727,0.5066036246191725,0.2668745884998966,-0.6023384268676306,29.33434,321.1006,352.221,0.2600553,-0.305191,0.02223987,20.7999995350838,17
-12.70637,0.2833333,5.035223,-0.1701834068841829,-0.5336809932102995,-0.1605058028166546,7.813214,331.3606,359.1396,0.06786434,-0.2462546,0.009592643,20.8199995346367,17
-12.75849,0.4833331,5.162147,-0.3867923761612495,-0.311880182929727,-0.2911211582477566,15.62244,331.1788,358.2465,0.1353908,-0.2445166,0.01913722,20.8399995341897,17
-12.8106,0.6833328,5.289038,-0.5876565607320039,-0.0733528703501192,-0.4290105437553126,23.4256,330.8559,357.2824,0.2022625,-0.2416303,0.02858882,20.8599995337427,17
-12.86269,0.8833327,5.41588,-0.7998330862042557,0.1296306627728567,-0.5380438541187686,31.22128,330.3558,356.1955,0.2681795,-0.2376111,0.03789657,20.8799995332956,17
-13.24524,0.2833333,5.926769,-0.9627585248846772,0.1113359293787737,-0.6481019368875351,7.897052,336.2201,0.3874264,0.06668755,-0.20577,0.01748789,20.8999995328486,17
-13.30712,0.4833331,6.050087,-1.0773002028039826,0.1385162246899303,-0.7600336098761478,15.79146,336.303,0.7901351,0.1330383,-0.2043004,0.03488923,20.9199995324016,17
-13.36898,0.683333,6.17337,-1.169649296868208,0.1578559766139241,-0.8372814015328309,23.68277,336.4504,1.225756,0.1987372,-0.2018599,0.05212101,20.9399995319545,17
-13.77477,0.2833332,6.717186,-1.6103483012885145,-0.5242738207331794,-0.3574730977469684,7.615344,334.1493,0.8508832,0.06306589,-0.2236618,0.02207487,20.9599995315075,17
-13.84633,0.4833329,6.830112,-1.5326211639894272,-0.283655059004973,-0.5026639945702289,15.22671,334.3244,1.732865,0.1258306,-0.2221615,0.04404785,20.9799995310605,17
-13.91787,0.6833327,6.943003,-1.3971552931707445,-0.0263097386997818,-0.631538802171205,22.83233,334.6348,2.682757,0.1880138,-0.2196679,0.06583083,20.9999995306134,17
-13.98937,0.8833324,7.055871,-1.605676197904124,-0.4448223469651513,-0.1931950536413893,30.42886,335.1137,3.748756,0.2493299,-0.2161898,0.08733673,21.0199995301664,17
-14.50626,0.2833333,7.732717,-1.3545390173424252,-0.1540240049868468,-0.3102175264913036,7.557627,322.9573,0.4461244,0.06125694,-0.317208,0.02461854,21.0399995297194,17
-14.5921,0.4833332,7.833125,-1.041946947132509,0.1535007862358872,-0.4348687861244418,15.11221,323.051,0.9215536,0.12219,-0.3151239,0.04922907,21.0599995292723,17
-14.67793,0.6833331,7.933505,-0.6934781430650823,0.4254813991777286,-0.5335153509914274,22.66357,323.2166,1.432166,0.1825729,-0.3116667,0.07361812,21.0799995288253,17
-14.76372,0.8833331,8.033856,-0.3345277181925858,0.4958176461874187,-0.5724399394045321,30.21095,323.4711,2.002433,0.2421431,-0.3068526,0.09767944,21.0999995283782,17
-15.14289,0.2833333,8.527519,-0.0950253424962568,0.4467527949929505,-0.4939236492891865,7.976067,321.1574,0.7468019,0.06342766,-0.3321266,0.02925638,21.1199995279312,17
-15.24044,0.4833334,8.627709,0.1689407286928244,0.4436510073402967,-0.4168757293956417,15.95181,321.3197,1.52769,0.1265426,-0.3296882,0.05840595,21.1399995274842,17
-15.33797,0.6833335,8.727871,0.4316455464690847,0.4331963658901028,-0.3066165249882964,23.92222,321.6088,2.373471,0.1890213,-0.32564,0.08726197,21.1599995270371,17
-15.73969,0.2833336,9.262141,0.3122944852899465,-0.2782404543532426,0.301599779240135,8.248187,317.2963,0.1511745,0.06650151,-0.3632393,0.02741,21.1799995265901,17
-15.83927,0.4833338,9.366153,0.6317025736342146,-0.0664407725066258,0.2910367514164367,16.49399,317.3302,0.3087693,0.13264,-0.3604154,0.05467016,21.1999995261431,17
-15.93882,0.6833336,9.470136,0.9381875188460462,0.1625734104089231,0.2815617620010791,24.73735,317.3908,0.4804342,0.1980736,-0.3557269,0.08163969,21.219999525696,17
-16.36089,0.2833335,10.04113,0.8255397717937072,-0.2837823927541482,0.7888431038555694,7.907626,313.1687,358.9755,0.06681585,-0.3958714,0.01921556,21.239999525249,17
-16.44914,0.4833331,10.14869,1.0777794514101906,-0.0203393960489303,0.7345137253696628,15.81036,312.9493,357.9107,0.1332898,-0.3929965,0.03833109,21.259999524802,17
-16.53736,0.6833328,10.25622,1.303839707152683,0.2603182601920887,0.6440646551754554,23.70516,312.5591,356.7591,0.1991004,-0.3882228,0.05725407,21.2799995243549,17
-16.62556,0.8833324,10.36371,1.4775751955425491,0.5059201773014607,0.5526855761127045,31.58803,311.9541,355.4583,0.2639306,-0.3815749,0.07589346,21.2999995239079,17
-17.13545,0.2833332,11.07553,1.2602097355705697,-0.1895556292766221,0.9167893061387103,7.349224,314.5941,358.4179,0.06443618,-0.3843075,0.01202336,21.3199995234609,17
-17.20702,0.4833328,11.18537,1.4930420499187598,0.0382042977711235,0.5766506445781729,14.69042,314.2808,356.7823,0.1285767,-0.3818275,0.02398759,21.3399995230138,17
-17.27856,0.6833326,11.29518,1.6807013226263834,0.2831778922597207,0.2019098219790276,22.01704,313.7286,355.0327,0.1921461,-0.3777081,0.03584126,21.3599995225668,17
-17.35009,0.8833325,11.40497,1.798397088886567,0.4930951919807715,-0.1745797474337145,29.31967,312.8858,353.0909,0.2548656,-0.3719707,0.04752593,21.3799995221198,17
-17.71238,0.2833331,11.92482,1.4173115342003229,-0.2380644738013705,0.0520664193057562,7.120839,320.4921,358.5786,0.06262626,-0.3365783,0.009335996,21.3999995216727,17
-17.772,0.4833328,12.03657,1.3603327891465078,-0.0459876113582778,-0.1830925702699026,14.23074,320.2174,357.0988,0.1249873,-0.3345594,0.01850903,21.4199995212257,17
-17.83159,0.6833326,12.14829,1.2608938001983354,0.1633038732471786,-0.433259160853968,21.32889,319.7352,355.5228,0.1868296,-0.3312005,0.02760497,21.4399995207787,17
-18.21398,0.2833333,12.71514,0.7663049690201333,-0.3027752654039312,-0.1870316271700822,7.449419,324.4413,358.2938,0.06638996,-0.3037522,0.005686296,21.4599995203316,17
-18.26519,0.4833331,12.83831,0.6453204794332983,-0.0590554420609494,-0.4475674089720165,14.892,324.0974,356.5224,0.1324994,-0.301728,0.01130036,21.4799995198846,17
-18.31639,0.683333,12.96144,0.5162092703633547,0.2018791890919493,-0.7211257420295709,22.31787,323.4905,354.6242,0.1980011,-0.2983635,0.01686241,21.4999995194376,17
-18.72046,0.2833331,13.56857,-0.0084657985029927,-0.2125557513283451,-0.4624971085733627,7.839357,331.1545,359.1082,0.06813538,-0.2479693,0.009506499,21.5199995189905,17
-18.77279,0.483333,13.69596,-0.5343627262145496,-0.6374795766785193,-0.2105582032580812,15.67455,330.9654,358.1823,0.1359288,-0.2462061,0.01896525,21.5399995185435,17
-18.8251,0.6833329,13.8233,-0.5555237682800396,-0.1679163755780445,-0.606006231526095,23.50333,330.6293,357.1822,0.2030597,-0.2432779,0.02833148,21.5599995180964,17
-18.8774,0.8833326,13.95062,-0.5564894143351928,0.291157713302796,-0.9986339023332568,31.32272,330.1093,356.0554,0.2692111,-0.2391995,0.0375611,21.5799995176494,17
-18.92969,0.9766691,14.07789,-0.8797229399660367,-0.1652330362045591,-0.9314018367930856,39.12922,329.3391,354.7232,0.3340793,-0.2339911,0.04660944,21.5999995172024,17
-19.39133,0.2833333,14.69397,-1.1807002597762877,-0.6321126870198976,-0.8385006411916223,7.867638,337.5758,0.681204,0.06614044,-0.1943801,0.01915666,21.6199995167553,17
-19.45485,0.4833332,14.81626,-1.1346525228295017,-0.2045046479842492,-1.1552252303016743,15.73184,337.7209,1.388922,0.1319475,-0.1929953,0.03821857,21.6399995163083,17
-19.51834,0.6833329,14.93852,-1.4220453812790057,-0.4276994755524347,-0.9601874282433692,23.59131,337.9789,2.153912,0.1971095,-0.1906953,0.05709537,21.6599995158613,17
-19.91459,0.2833333,15.46367,-1.6616645555088354,-0.6357712342994779,-0.7292630367161799,7.541921,332.5778,0.8184133,0.06220319,-0.2369635,0.02251179,21.6799995154142,17
-19.98812,0.4833332,15.57371,-1.5147039483341196,-0.1627928303979982,-0.9477209057855128,15.07924,332.7454,1.670863,0.1240989,-0.235403,0.04495848,21.6999995149672,17
-20.06162,0.6833331,15.68372,-1.7160760327266615,-0.3406178949085653,-0.6268066965605357,22.61027,333.0426,2.589052,0.1854223,-0.2328099,0.06722402,21.7199995145202,17
-20.49123,0.2833333,16.24341,-1.8571392678899343,-0.5033193355719134,-0.2848729651580868,7.574802,323.6999,0.6124454,0.06110575,-0.3111576,0.02564369,21.7399995140731,17
-20.57825,0.483333,16.34348,-1.576186759165104,0.015029406798771,-0.4472114099700732,15.14661,323.8271,1.257094,0.121899,-0.309099,0.05125033,21.7599995136261,17
-20.66525,0.6833331,16.44352,-1.2545253573038444,0.5228896278683373,-0.5867275066846283,22.71426,324.0523,1.949651,0.1821392,-0.3056833,0.07662444,21.7799995131791,17
-20.75222,0.883333,16.54353,-1.2747853335729644,0.1152839915354264,-0.2756469786824915,30.27645,324.3983,2.723547,0.2415627,-0.3009264,0.1016552,21.799999512732,17
-21.13191,0.2833337,17.03831,-1.270938735427059,-0.3028099783602295,0.0712036599763159,7.983739,321.229,0.7685755,0.06344591,-0.3315504,0.02941769,21.819999512285,17
-21.22971,0.4833333,17.13848,-0.7619092426429646,0.1735833771822827,-0.2362990014657278,15.96696,321.396,1.571725,0.1265786,-0.3291106,0.05872361,21.839999511838,17
-21.32749,0.6833324,17.23864,-0.6168831857759791,-0.0008260319514745,-0.0903754157761618,23.9447,321.6937,2.441744,0.1890738,-0.32506,0.08773372,21.8599995113909,17
-21.42524,0.8833318,17.33876,-0.4491933696462382,-0.160111630632166,0.0445488180682325,31.91461,322.1563,3.426883,0.2506258,-0.3194199,0.1163062,21.8799995109439,17
