pX,pY,pZ,aX,aY,aZ,reX,reY,reZ,rtX,rtY,rtZ,t,ID
-43.98316,0.23,-40.06178,4.523867454112292,0.249213904400508,4.35666216851309,357.1859,1.85093,359.0887,-0.02467933,0.01595109,-0.007551957,3.07999993115664,9
-43.96859,0.4299999,-40.12214,4.811606787871888,0.5148990719363182,4.884015527853968,354.3487,3.717373,358.167,-0.04978302,0.03160282,-0.01436878,3.0999999307096,9
-43.95566,0.6299999,-40.18452,5.145067577122262,0.0901952292671669,5.458038495531604,351.2814,5.592042,357.1982,-0.07708631,0.04676868,-0.02064127,3.11999993026257,9
-43.98167,0.2833333,-40.51539,5.423765526548792,-0.0908930321622301,5.9650138255764205,359.8322,14.75023,359.89,-0.001575712,0.1283633,-0.0007643094,3.13999992981553,9
-43.98056,0.4833333,-40.51859,5.727839440584639,-0.4805754106288638,6.4927728479082205,359.6674,16.25605,359.7757,-0.003149587,0.141379,-0.001527282,3.1599999293685,9
-43.97945,0.6833333,-40.5218,5.967887773415605,-0.6250396973014478,6.940827677967981,359.5086,17.7607,359.6588,-0.004696275,0.1543569,-0.002279613,3.17999992892146,9
-43.95631,0.2833333,-40.50208,6.1450867255653705,-0.5496189907604886,7.30937753622765,0.8543332,22.75546,0.5103148,0.008187318,0.1972363,0.002894925,3.19999992847443,9
-43.95903,0.4833333,-40.48468,6.260876681605865,-0.2786015912026967,7.598839175745596,1.694987,24.26815,1.043085,0.0163731,0.2100368,0.005789226,3.21999992802739,9
-43.96174,0.6833333,-40.46731,6.395377968332348,-0.6889831743729831,7.904249203326977,2.523067,25.78798,1.599673,0.02457313,0.2227724,0.008691665,3.23999992758036,9
-43.89825,0.2833333,-40.42773,6.462770722240919,-0.8467586675891435,8.118802455687437,1.485393,31.39698,0.0963464,0.0127061,0.2705418,-0.002697879,3.25999992713332,9
-43.88634,0.4833332,-40.4044,6.535015437253186,-1.2041381949588792,8.32643771879124,2.968093,32.89862,0.2312066,0.02540968,0.2830213,-0.005399184,3.27999992668629,9
-43.87445,0.6833332,-40.38108,6.536548541060718,-1.307308641628117,8.436372441591786,4.449291,34.4047,0.4040981,0.03812308,0.2953917,-0.008114009,3.29999992623925,9
-43.80393,0.2833336,-40.32246,6.470866976707853,-1.1816035853240296,8.451187917854853,2.850777,36.79863,0.06360225,0.02377866,0.3155269,-0.007325038,3.31999992579222,9
-43.77534,0.4833333,-40.28131,6.460068030133535,-1.4916260396178007,8.503611729179163,5.70099,38.30103,0.2012034,0.04755316,0.327562,-0.01465733,3.33999992534518,9
-43.74676,0.683333,-40.2402,6.375390129945892,-1.543466851239984,8.449936970451276,8.548806,39.81822,0.4151499,0.07130848,0.3393257,-0.0219837,3.35999992489815,9
-43.63376,0.2833334,-40.12973,6.221680890081423,-1.3624598113558166,8.294111270069443,4.244657,42.56435,0.1801487,0.03507781,0.3626577,-0.01197771,3.37999992445111,9
-43.58644,0.4833333,-40.07213,6.064609434503602,-1.6132074810477917,8.117128848653856,8.487271,44.08485,0.4728062,0.07013257,0.373978,-0.02395666,3.39999992400408,9
-43.46523,0.2833335,-39.94558,5.841292145323799,-1.6018009471425023,7.836195122478358,3.861211,45.91649,0.2194538,0.03176703,0.3897787,-0.01137833,3.41999992355704,9
-43.42001,0.4833333,-39.89524,5.557673307367672,-1.3535741075242171,7.456299689704345,7.7158,47.43387,0.5408761,0.06349328,0.4010117,-0.02275025,3.43999992311001,9
-43.37482,0.6833329,-39.84494,5.334750007423523,-1.5331290835930225,7.10795868712048,11.56216,48.98922,0.9700234,0.09515077,0.4117083,-0.03409706,3.45999992266297,9
-43.32966,0.8833327,-39.79466,5.050028635565631,-1.4465573212741625,6.655252762951022,15.39693,50.59815,1.514357,0.1266973,0.4218541,-0.045402,3.47999992221594,9
-43.19868,0.2833335,-39.66142,4.710779519373482,-1.1191928241255191,6.104469149070077,3.715899,50.3413,0.2532633,0.0302825,0.4250262,-0.01179018,3.4999999217689,9
-43.15215,0.4833333,-39.61608,4.38214534001218,-1.2156379131335475,5.539091973526304,7.422833,51.85443,0.6051099,0.06051913,0.4359986,-0.02356283,3.51999992132187,9
-43.02288,0.2833333,-39.48529,4.006956669478775,-1.0419836751248452,4.878787576005287,3.662803,52.04728,0.2566768,0.02970054,0.4384524,-0.01200972,3.53999992087483,9
-42.97577,0.4833335,-39.44189,3.593533602138578,-0.6235636878265836,4.130828871478414,7.316545,53.55712,0.6103117,0.05935653,0.4493158,-0.02400168,3.5599999204278,9
-42.92868,0.6833329,-39.3985,3.256657002441905,-0.6249807513718856,3.4302042384612648,10.95863,55.10393,1.065221,0.08893386,0.4596325,-0.03596178,3.57999991998076,9
-42.8816,0.883333,-39.35512,2.884953357268458,-0.3523258448229063,2.6422051897851446,14.58553,56.70108,1.626312,0.1183875,0.4693904,-0.04788442,3.59999991953373,9
-42.74949,0.2833333,-39.22113,2.571006225440229,-0.497905663775162,1.9583763287777172,3.588748,55.90587,0.3019006,0.02889371,0.4684418,-0.01235155,3.61999991908669,9
-42.70108,0.4833333,-39.18108,2.213811690151502,-0.6356100971885867,1.2754452143870836,7.167363,57.41317,0.6986849,0.05774553,0.4790419,-0.02468543,3.63999991863966,9
-42.57781,0.2833335,-39.05804,1.8687515006186075,-0.1632586596614655,0.9337872798053296,3.538828,57.30095,0.367339,0.02863273,0.4791472,-0.01199266,3.65999991819263,9
-42.5298,0.4833331,-39.01871,1.5174847762219985,0.2845259406518138,0.5957782387432786,7.065879,58.81072,0.8285449,0.05722527,0.4896512,-0.023968,3.67999991774559,9
-42.48181,0.6833333,-38.97939,1.273716278982576,-0.1972343505474008,0.3969445688456545,10.57831,60.36226,1.38816,0.08574416,0.4995927,-0.03591283,3.69999991729856,9
-42.43383,0.8833336,-38.94007,1.0110368995385883,0.016726317696677,0.1857568949371355,14.07279,61.96801,2.050915,0.1141474,0.5089602,-0.04782519,3.71999991685152,9
-42.31237,0.2833335,-38.81228,0.8591137093625747,-0.1930529013639537,0.0791539054104149,3.474411,58.81968,0.3724458,0.02800371,0.4907393,-0.01205631,3.73999991640449,9
-42.26434,0.4833335,-38.77473,0.7292540122181066,-0.4007416182440314,-0.0294080621922248,6.936991,60.32307,0.8365885,0.05596875,0.501124,-0.02409605,3.75999991595745,9
-42.1513,0.2833333,-38.66014,0.554617519014144,0.0595871669710765,-0.1556346602335452,3.42714,58.53666,0.3462093,0.02756186,0.4886006,-0.01198514,3.77999991551042,9
-42.10392,0.4833333,-38.62317,0.4008676823596104,0.4963941635578148,-0.2720145764961827,6.842827,60.03404,0.7824252,0.05508345,0.4990011,-0.0239528,3.79999991506338,9
-42.05655,0.6833335,-38.58621,0.366392391517472,0.0047024468711341,-0.2501712470019086,10.24482,61.56975,1.312873,0.08253863,0.5088598,-0.03589082,3.81999991461635,9
-41.89829,0.2833333,-38.42749,0.2938756605870622,0.2097766663412171,-0.2535492919790769,3.387582,57.65031,0.2481955,0.0269393,0.4818705,-0.01235426,3.83999991416931,9
-41.85113,0.4833333,-38.39161,0.3165409618308459,-0.0078428140198689,-0.1556236398603658,6.766381,59.13399,0.584134,0.05383899,0.4923129,-0.02469332,3.85999991372228,9
-41.80398,0.6833333,-38.35573,0.353499303948567,-0.2223256175331495,-0.058924646765341,10.13431,60.64932,1.011564,0.08067533,0.5022334,-0.03700273,3.87999991327524,9
-41.70008,0.2833333,-38.24783,0.3133232828869481,0.232253872637379,-0.0380712604179365,3.339319,57.33771,0.1951444,0.02638155,0.4794987,-0.01248477,3.89999991282821,9
-41.65331,0.4833333,-38.21292,0.4131971801962351,0.0240433737498677,0.1226654929189337,6.671244,58.81182,0.4762351,0.05272501,0.4899469,-0.02495372,3.91999991238117,9
-41.60654,0.6833332,-38.17803,0.4156057807917435,0.2991608857764519,0.1746594922602042,9.993843,60.31362,0.8465006,0.07900812,0.499889,-0.03739324,3.93999991193414,9
-41.45219,0.2833335,-38.02571,0.4092030223007512,0.5784598772162837,0.2064737157725389,3.299547,55.48146,0.05619549,0.02570913,0.4652658,-0.01296706,3.9599999114871,9
-41.40574,0.4833335,-37.9917,0.4815761224842347,0.1693567828871097,0.3201541197193265,6.595684,56.93877,0.1964072,0.05138547,0.4758124,-0.02591797,3.97999991104007,9
-41.3593,0.6833333,-37.95769,0.552239313740337,-0.2632680552919969,0.4166010729562899,9.885932,58.41497,0.4224927,0.07700093,0.4858782,-0.0388393,3.99999991059303,9
-41.25887,0.2833333,-37.85151,0.5260404887820584,0.18556180974546,0.403746221291442,3.258911,54.51093,359.9827,0.02520913,0.4577773,-0.01315682,4.019999910146,9
-41.21281,0.4833333,-37.81817,0.6328942375385225,-0.0294445103733012,0.5279700908102072,6.516262,55.95734,0.04764851,0.05038654,0.4683636,-0.02629686,4.03999990969896,9
-41.16677,0.6833335,-37.78484,0.6323530980057654,0.2378322894322557,0.5311680289113596,9.76983,57.41784,0.1962874,0.07550639,0.4784866,-0.0394079,4.05999990925193,9
-41.02122,0.2833335,-37.63201,0.6195822189720204,0.5082450640921957,0.5148202851694776,3.215546,51.10508,359.8516,0.0247547,0.4312012,-0.01326982,4.07999990880489,9
-40.97636,0.4833336,-37.59822,0.6725805794191402,0.0892098076964537,0.5739719777767647,6.432847,52.5359,359.7835,0.04947887,0.4419667,-0.02652282,4.09999990835786,9
-40.83748,0.2833329,-37.46069,0.7196841900941067,-0.3543926607800568,0.618355350864654,3.320429,50.50067,359.8249,0.02555247,0.4264345,-0.01373999,4.11999990791082,9
-40.79126,0.4833328,-37.4256,0.6667449650572053,0.0824151025284657,0.5478810479359382,6.643175,51.92633,359.7324,0.05107187,0.4371783,-0.02746166,4.13999990746379,9
-40.74506,0.6833333,-37.39051,0.7364310455852419,-0.1456589240633057,0.610803964562713,9.966155,53.35725,359.723,0.07653277,0.447475,-0.04115106,4.15999990701675,9
-40.69887,0.8833336,-37.35544,0.7041360898670419,0.107504323906422,0.5597877380429708,13.28805,54.80346,359.7993,0.101918,0.457315,-0.054793,4.17999990656972,9
-40.5563,0.2833333,-37.2049,0.6579439206916504,0.3627588725764,0.4931086251786993,3.546475,52.36749,359.8608,0.02723294,0.4410733,-0.01474324,4.19999990612268,9
-40.50622,0.4833333,-37.1684,0.6699668779151082,-0.0724806707010007,0.5020991502710217,7.094347,53.79077,359.8097,0.05442822,0.4515873,-0.02946594,4.21999990567565,9
-40.37148,0.2833333,-37.03424,0.6750464075498428,-0.5333327958471472,0.5032188289117485,3.565353,53.19998,359.8869,0.02737409,0.4475694,-0.01481126,4.23999990522861,9
-40.32092,0.483333,-36.99792,0.5933885949328044,-0.1148200477580662,0.398801628069144,7.131589,54.62285,359.8621,0.05471051,0.4580046,-0.02960363,4.25999990478158,9
-40.27038,0.6833329,-36.96162,0.6361457268130479,-0.3622344097002333,0.4274587629114563,10.69629,56.05668,359.9271,0.08197783,0.4679149,-0.04435783,4.27999990433455,9
-40.21986,0.8833327,-36.92532,0.5931939394217665,-0.1294567782703011,0.3567670406491814,14.25722,57.51311,0.08487616,0.1091458,0.4772896,-0.05905734,4.29999990388751,9
-40.08733,0.283333,-36.77833,0.6539129643321573,-0.322509475169092,0.3856841778959321,3.595916,54.75481,0.02255276,0.02795148,0.4596178,-0.01425317,4.31999990344048,9
-40.03677,0.483333,-36.74116,0.7015260124540106,-0.515562711674145,0.4036778949762905,7.189347,56.18491,0.1353249,0.05586621,0.4699036,-0.02848432,4.33999990299344,9
-39.91187,0.2833334,-36.61066,0.6117516382630157,-0.0426891426238774,0.2744572139608507,3.562307,55.00727,0.1103671,0.0280137,0.461555,-0.01349994,4.35999990254641,9
-39.86253,0.4833335,-36.57282,0.5113450953846979,0.4045719402127446,0.138717820961169,7.119478,56.44258,0.3107429,0.05598817,0.4718157,-0.02697574,4.37999990209937,9
-39.81319,0.6833333,-36.53498,0.5226569466854016,-0.0787562015519481,0.1274462615391129,10.6695,57.9031,0.6035075,0.08389262,0.4815379,-0.04041708,4.39999990165234,9
-39.63266,0.2833337,-36.35355,0.4577950019075274,0.132591202605652,0.0255671615681905,3.592165,56.07392,0.1417242,0.02824525,0.4697755,-0.01364111,4.4199999012053,9
-39.58248,0.4833337,-36.31589,0.4880991206521727,-0.0808463739053609,0.0198056842631615,7.178703,57.50811,0.3736904,0.05645074,0.4799257,-0.0272627,4.43999990075827,9
-39.53232,0.6833334,-36.27824,0.507627980091435,-0.2932383532515283,0.0093806811704837,10.75761,58.96983,0.6988468,0.0845862,0.4895203,-0.0408521,4.45999990031123,9
-39.40725,0.2833339,-36.15174,0.3976648134024358,0.1613411081702007,-0.1378563587834591,3.6477,57.13455,0.1663441,0.02864586,0.477907,-0.013945,4.4799998998642,9
-39.3558,0.4833337,-36.11413,0.2822986408085626,0.5913531614094993,-0.2859401815723643,7.289212,58.56734,0.4242528,0.05725099,0.487936,-0.02787015,4.49999989941716,9
-39.30437,0.6833337,-36.07652,0.2714268552291585,0.0918213364008229,-0.3091560136236744,10.92202,60.03001,0.7772419,0.08578129,0.497386,-0.04175824,4.51999989897013,9
-39.12879,0.2833333,-35.90314,0.1939934871069155,0.2880101117367962,-0.4119892775533422,3.617464,57.94409,0.1797567,0.02837259,0.4840976,-0.01391692,4.53999989852309,9
-39.07741,0.4833335,-35.86636,0.1181933818688065,0.4873351213632902,-0.507716491515886,7.228285,59.37362,0.4501518,0.05670423,0.4940548,-0.0278134,4.55999989807606,9
-39.02604,0.6833335,-35.82959,0.1695526164188336,-0.0027886010139112,-0.458251297600853,10.83015,60.83342,0.8146585,0.08496285,0.5034345,-0.0416737,4.57999989762902,9
-38.90865,0.2833333,-35.71145,0.1043748878529058,0.2028086093942033,-0.5365689788098003,3.561472,59.82568,0.2522722,0.02803233,0.4983806,-0.01358906,4.59999989718199,9
-38.85757,0.4833333,-35.67579,0.151011295681485,-0.015334215253802,-0.4959139504705057,7.114542,61.25724,0.5940153,0.05602515,0.5082061,-0.02715838,4.61999989673495,9
-38.80651,0.6833336,-35.64014,0.0851796974399832,0.2488067637212457,-0.5691543061193265,10.65679,62.72281,1.029036,0.0839468,0.5174527,-0.04069286,4.63999989628792,9
-38.63739,0.2833332,-35.47389,0.0156907726972335,0.5160841359763926,-0.637643957422565,3.506243,60.39508,0.3039378,0.02777476,0.5026755,-0.01309633,4.65999989584088,9
-38.58726,0.4833332,-35.43844,-0.0483679828804923,0.7342268657533558,-0.6919135113980417,7.002848,61.82654,0.6959545,0.05551094,0.5124533,-0.02617439,4.67999989539385,9
-38.53714,0.6833332,-35.403,0.008249468163676,-0.0027877917787506,-0.6053858437272943,10.48708,63.29434,1.180252,0.08317657,0.5216622,-0.03921706,4.69999989494681,9
-38.42677,0.2833332,-35.29036,-0.0412037383728574,0.1693567357565023,-0.6358909949895093,3.454233,60.65653,0.337286,0.02750012,0.5046453,-0.01267947,4.71999989449978,9
-38.37755,0.4833335,-35.25509,-0.0894585555392737,0.3446371431879808,-0.6527719854118423,6.897653,62.08615,0.7613673,0.05496026,0.5143946,-0.02533899,4.73999989405274,9
-38.32817,0.6833335,-35.22055,-0.1069640570142738,0.3106615681684237,-0.6355376199676783,10.31631,63.42341,1.234844,0.08211961,0.5226622,-0.03812561,4.75999989360571,9
-38.16171,0.2833332,-35.06125,-0.1344544435897958,0.3075259311559978,-0.6134061403801496,3.426612,59.99352,0.2764326,0.02709903,0.4996636,-0.01285941,4.77999989315867,9
-38.11232,0.4833329,-35.02668,-0.1630771321427815,0.281913972700628,-0.5774811346739774,6.873026,61.32647,0.6084135,0.05426348,0.5087931,-0.02601091,4.79999989271164,9
-37.95883,0.2833332,-34.89216,-0.1237467875231459,-0.4598045073764624,-0.4467685041936633,3.405558,58.8232,0.1752607,0.02663564,0.4908231,-0.01326056,4.8199998922646,9
-37.90999,0.4833329,-34.85808,-0.1754246720296421,-0.2934094260347814,-0.4238412752469429,6.816995,60.17268,0.41936,0.05327516,0.500226,-0.02664362,4.83999989181757,9
-37.86116,0.6833327,-34.82413,-0.2217548877154698,-0.1249237005108973,-0.3831653909600234,10.22059,61.51788,0.7335988,0.07980252,0.5088938,-0.04007418,4.85999989137053,9
-37.81244,0.8833327,-34.79011,-0.2300879800234838,-0.166740325419207,-0.3084686472408542,13.61836,62.91464,1.138613,0.1062814,0.5171519,-0.05345462,4.8799998909235,9
-37.65689,0.2833333,-34.64226,-0.2386762658456689,-0.1787625163565407,-0.2269647975151372,3.34005,58.14352,0.1143196,0.02595612,0.4856726,-0.01328929,4.89999989047647,9
-37.60856,0.4833333,-34.61017,-0.2382656632884376,-0.2143058160566809,-0.1303087620966962,6.679358,59.29585,0.2228894,0.05158911,0.4937294,-0.02712951,4.91999989002943,9
-37.46497,0.2833336,-34.48555,-0.247321369750999,-0.246714057379337,-0.0449767831512879,3.28884,56.64448,359.9861,0.02520372,0.4742377,-0.0137216,4.9399998895824,9
-37.41739,0.4833337,-34.45372,-0.2633972282511152,-0.2493281171106302,0.0380538195107007,6.588475,57.81125,0.02159367,0.05039557,0.4825602,-0.0276114,4.95999988913536,9
-37.36877,0.6833334,-34.42353,-0.2774973472537354,-0.2754639136353382,0.1269445688437436,9.86641,58.66838,0.02703632,0.07508304,0.4880703,-0.04192394,4.97999988868833,9
-37.3199,0.8833332,-34.39387,-0.2961055481539461,-0.2984637109998574,0.2094163906638506,13.14614,59.42486,0.03963351,0.09959047,0.4923547,-0.05643842,4.99999988824129,9
-37.17617,0.2833336,-34.25608,-0.3162685102909108,-0.2916694408099237,0.2915758437048481,3.236709,54.00095,359.8584,0.0246029,0.4538475,-0.01392206,5.01999988779426,9
-37.12873,0.4833333,-34.22539,-0.3291876373031712,-0.3083969162993946,0.3816310326890537,6.4643,54.57866,359.7034,0.0489215,0.4578829,-0.02814689,5.03999988734722,9
-37.08031,0.6833333,-34.19604,-0.3486718489850489,-0.3219874693566116,0.4659633287423723,9.68716,54.87088,359.4838,0.07287047,0.4594364,-0.04288698,5.05999988690019,9
-36.92273,0.2833333,-34.04722,-0.3767443552007989,-0.3057841361510502,0.5398673199469286,3.184718,49.44122,359.7168,0.02420841,0.4180934,-0.01386521,5.07999988645315,9
-36.87692,0.4833333,-34.01532,-0.404600078041561,-0.3131028617254597,0.6117837759341818,6.363614,49.59568,359.4029,0.04820371,0.4190282,-0.0280024,5.09999988600612,9
-36.7268,0.2833333,-33.88075,-0.3605012309555917,-0.3172846444821043,0.749601576494296,3.471473,48.8941,359.7239,0.02657723,0.4137275,-0.01472788,5.11999988555908,9
-36.67754,0.4833334,-33.84487,-0.3259999616525988,-0.2916724138714275,0.8736341967991734,6.939201,48.9403,359.4214,0.05299466,0.4137328,-0.02965495,5.13999988511205,9
-36.62743,0.6833334,-33.8091,-0.2918227871542811,-0.289582247790481,0.99293168938107,10.43116,48.91407,359.0852,0.07945269,0.4129441,-0.04487057,5.15999988466501,9
-36.57719,0.8833336,-33.77332,-0.3904878409842993,0.3559583830627385,0.9598303820947648,13.94031,48.86463,358.7325,0.1059375,0.411758,-0.06018595,5.17999988421798,9
-36.42734,0.2833337,-33.62782,-0.3748770161029497,0.1007041304182829,1.0482578662959732,3.565142,48.56959,359.7635,0.0275057,0.4111311,-0.01467362,5.19999988377094,9
-36.37798,0.4833336,-33.58973,-0.3627617055374301,-0.1493230590641918,1.1259519511868206,7.129795,48.57351,359.5277,0.05498383,0.4107379,-0.0293235,5.21999988332391,9
-36.32864,0.6833333,-33.55164,-0.3174870935155951,-0.1550723439160125,1.21927176677627,10.69347,48.56256,359.2901,0.08240161,0.4099457,-0.04393987,5.23999988287687,9
-36.16442,0.2833337,-33.39289,-0.2771698200170043,-0.1299823830840751,1.2962942448530974,3.585221,48.40133,359.8853,0.02812233,0.4097614,-0.01373644,5.25999988242984,9
-36.11633,0.4833337,-33.35283,-0.2323483587764911,-0.1273689194112328,1.3673755394899558,7.169691,48.41656,359.7723,0.05621473,0.4093651,-0.02744794,5.2799998819828,9
-36.06824,0.6833336,-33.31277,-0.3139878418556918,0.519740685737075,1.292370425688226,10.75316,48.42474,359.6593,0.08424412,0.4085679,-0.04112864,5.29999988153577,9
-35.9637,0.2833333,-33.20515,-0.2816114573395616,0.267100327910342,1.3312167711929632,3.588183,48.30276,0.03083739,0.0286773,0.4089406,-0.01256407,5.31999988108873,9
-35.91734,0.4833335,-33.16308,-0.3716402496984123,0.500924406162836,1.2407425031113135,7.175344,48.3317,0.0647764,0.05732285,0.4085446,-0.02510249,5.3399998806417,9
-35.87098,0.6833333,-33.12101,-0.4634028647589296,0.7420666968672194,1.1374012304628351,10.76151,48.36304,0.1008425,0.08590434,0.4077484,-0.03761323,5.35999988019466,9
-35.7187,0.2833332,-32.96654,-0.4261554926606976,0.2979420772661078,1.1639149506097262,3.568167,47.93253,0.05763099,0.02865313,0.4059875,-0.01218688,5.37999987974763,9
-35.67318,0.4833335,-32.92406,-0.3879198674962119,-0.1665676454909253,1.1797166762347118,7.135082,47.96381,0.1176743,0.05727,0.4056019,-0.02435483,5.39999987930059,9
-35.62766,0.6833339,-32.8816,-0.360136635190333,-0.1733626122729942,1.175233631928375,10.70094,47.99916,0.1802689,0.08582317,0.4048233,-0.03649567,5.41999987885356,9
-35.46052,0.2833333,-32.71029,-0.3398591570002232,-0.1493176230145902,1.1521400084122106,3.647134,47.27505,0.0809845,0.02943524,0.4007254,-0.01211185,5.43999987840652,9
-35.41473,0.4833333,-32.66604,-0.4319279990508988,0.3324426173950772,1.0099685418574325,7.293185,47.30859,0.1642668,0.05883235,0.4003209,-0.02420782,5.45999987795949,9
-35.36896,0.683333,-32.6218,-0.524802121123642,0.7938171735745945,0.8579385978043561,10.93819,47.34783,0.2505696,0.08816196,0.3995112,-0.03627585,5.47999987751245,9
-35.25341,0.2833333,-32.4968,-0.4957500561756767,0.3298288156189257,0.835489374283231,3.623981,47.09632,0.09220648,0.02930807,0.3992966,-0.0118955,5.49999987706542,9
-35.2082,0.483333,-32.45256,-0.4661235640694556,-0.1545445884306536,0.8114113134507193,7.246897,47.1308,0.1867183,0.05857849,0.3989014,-0.02377607,5.51999987661839,9
-35.16301,0.683333,-32.40834,-0.540355178340679,0.2456729774345932,0.66717805265721,10.86865,47.17167,0.2843815,0.08778146,0.3981075,-0.03562919,5.53999987617135,9
-34.99932,0.2833332,-32.2319,-0.4759795761405279,-0.0148084589425727,0.6711625492135767,3.574312,48.09082,0.1853765,0.0291392,0.4072158,-0.01123072,5.55999987572432,9
-34.95509,0.4833331,-32.18782,-0.4110894488270169,-0.2700625096484909,0.6763525090870957,7.147432,48.13387,0.3737355,0.05824122,0.4068228,-0.02244722,5.57999987527728,9
-34.91087,0.6833328,-32.14376,-0.4672877772149242,0.1458367879225018,0.5508274514587299,10.71939,48.18925,0.566635,0.08727833,0.4060334,-0.03363859,5.59999987483025,9
-34.73338,0.2833332,-31.95251,-0.4381827709164021,-0.0989634759566374,0.5124901078130648,3.513092,48.30595,0.248469,0.02885598,0.4089204,-0.01056472,5.61999987438321,9
-34.69052,0.483333,-31.90848,-0.523246993993169,0.1416557237116202,0.3596092254165448,7.024997,48.35446,0.5003497,0.05767656,0.4085432,-0.02111613,5.63999987393618,9
-34.64767,0.683333,-31.86448,-0.6068661717077362,0.3885474558181099,0.2071859890681935,10.53519,48.41913,0.7579234,0.08643212,0.4077807,-0.03164024,5.65999987348914,9
-34.60483,0.8833326,-31.82048,-0.5596829268569294,-0.0508736707166881,0.1971114512704979,14.04408,48.5009,1.023036,0.1150984,0.4066339,-0.04213101,5.67999987304211,9
-34.45756,0.2833333,-31.65857,-0.5102948232845996,-0.511725959121172,0.190912042624447,3.453284,47.79359,0.2793948,0.02853524,0.4048381,-0.009977596,5.69999987259507,9
-34.41623,0.4833333,-31.61447,-0.5700691452050144,-0.0890317285697297,0.0674308068791553,6.904927,47.84444,0.5627527,0.05703435,0.404485,-0.01993793,5.71999987214804,9
-34.28154,0.2833335,-31.46745,-0.4880768185211117,-0.3280827632651772,0.1008080677979705,3.409468,46.86716,0.2434828,0.02813976,0.3974508,-0.009881984,5.739999871701,9
-34.24105,0.4833335,-31.42367,-0.4089038169548011,-0.5629516097587867,0.1339838431878846,6.817445,46.91438,0.4902754,0.05624415,0.3971225,-0.01975007,5.75999987125397,9
-34.20057,0.6833334,-31.3799,-0.4620575603098658,-0.1277125593926258,0.0325610128075588,10.22423,46.97688,0.7420224,0.08429056,0.3964412,-0.0295981,5.77999987080693,9
-34.1601,0.8833334,-31.33614,-0.5156948671920958,0.2860953916542715,-0.0671903013610624,13.62972,47.05553,1.000733,0.1122541,0.3954078,-0.03941672,5.7999998703599,9
-34.01974,0.2833334,-31.182,-0.4569442464792708,-0.2265050003748238,-0.040138046496974,3.365067,44.86447,0.1479311,0.02763216,0.3813906,-0.01001133,5.81999986991286,9
-33.98016,0.4833336,-31.13855,-0.4643555128727534,-0.0402475526061656,-0.0870288637818035,6.728692,44.90283,0.2985434,0.05523012,0.3810991,-0.02000813,5.83999986946583,9
-33.9406,0.6833336,-31.09512,-0.4674414003482603,0.1522823033710605,-0.1282562633047383,10.09127,44.95047,0.4526985,0.08277275,0.3804787,-0.02998499,5.85999986901879,9
-33.78694,0.2833333,-30.92685,-0.3346114381746972,-0.3415004772303016,-0.0212673080710956,3.315294,42.91929,0.03662169,0.02703885,0.3656842,-0.01028565,5.87999986857176,9
-33.74803,0.4833336,-30.88405,-0.3212579342187744,-0.1364256150067458,-0.0395280579443451,6.629543,42.94765,0.07493928,0.05404672,0.3654284,-0.02055948,5.89999986812472,9
-33.60863,0.2833333,-30.73171,-0.1970603306490197,-0.3519547816225962,0.063884180681228,3.269315,41.60722,359.9465,0.02650085,0.3550337,-0.01056745,5.91999986767769,9
-33.57007,0.4833336,-30.68968,-0.0742938162057775,-0.562257533666811,0.1668649259545134,6.537655,41.62772,359.8942,0.05297209,0.354804,-0.02112302,5.93999986723065,9
-33.53152,0.6833335,-30.64765,-0.0901931222272764,-0.1014058579602391,0.1250212305662472,9.804782,41.64533,359.8425,0.07939003,0.3542858,-0.03165814,5.95999986678362,9
-33.49297,0.8833335,-30.60564,-0.1071723551396388,0.3390601842186111,0.0833528680108699,13.07098,41.66011,359.7913,0.1057359,0.3534796,-0.04216449,5.97999986633658,9
-33.34671,0.2833332,-30.44444,-0.0040607505557979,-0.1458364087001289,0.1739002451619526,3.225625,39.04205,359.8496,0.02608893,0.3340549,-0.01064134,5.99999986588955,9
-33.30924,0.4833334,-30.40237,0.0167247102176801,0.0691690819721942,0.1710368037040446,6.450283,39.05429,359.6997,0.05214901,0.3338618,-0.02127085,6.01999986544251,9
-33.27178,0.683333,-30.36032,0.0385495098036443,0.2914927426701479,0.1706641844095884,9.674096,39.05805,359.5493,0.07816072,0.3334038,-0.03188064,6.03999986499548,9
-33.11193,0.2833333,-30.18389,0.1975218273228307,-0.1714500327564285,0.3222306019779921,3.282814,37.5395,359.7925,0.0265384,0.3216824,-0.01093007,6.05999986454844,9
-33.07416,0.4833336,-30.14065,0.215945852956203,0.0655096094168444,0.3195268557480553,6.564704,37.5465,359.5852,0.05304716,0.3214899,-0.02184772,6.07999986410141,9
-33.0364,0.6833332,-30.09743,0.2297920590729276,0.3097875971576604,0.313679733154359,9.845757,37.54151,359.3767,0.07950547,0.3210326,-0.03274455,6.09999986365438,9
-32.92561,0.2833333,-29.97691,0.3899623826450167,-0.1312008998376577,0.4712166927857417,3.548804,38.52705,359.7937,0.0286369,0.3298074,-0.01191403,6.11999986320734,9
-32.88419,0.4833336,-29.93067,0.3843059342890456,0.1277127746597202,0.449544627733264,7.096662,38.53264,359.5875,0.05723829,0.3295352,-0.02381326,6.13999986276031,9
-32.84279,0.6833338,-29.88445,0.3652581555259395,0.3939444567955676,0.4157147561619148,10.64504,38.52522,359.3791,0.0857878,0.3289456,-0.03569425,6.15999986231327,9
-32.68668,0.2833333,-29.71454,0.3415935982661366,0.6152237238579832,0.3797325751908325,3.566109,40.29808,359.8523,0.02876722,0.3443339,-0.01192715,6.17999986186624,9
-32.64447,0.4833333,-29.66874,0.4355427512218881,-0.1144720735901775,0.4759907794885407,7.131338,40.30897,359.7047,0.05749801,0.3440349,-0.02384267,6.1999998614192,9
-32.60228,0.6833335,-29.62296,0.4024147423985482,0.0691720408335322,0.4331570799709503,10.69554,40.31061,359.5564,0.08616459,0.3434024,-0.03573177,6.21999986097217,9
-32.43275,0.2833333,-29.43685,0.3643252395437386,0.2601339225383205,0.3869694234860041,3.596812,41.7358,359.9787,0.0292583,0.3560445,-0.01135235,6.23999986052513,9
-32.39071,0.4833335,-29.39025,0.3468998688148339,0.2460205897160763,0.3641736462490677,7.192829,41.75854,359.9591,0.05848212,0.355719,-0.02268869,6.2599998600781,9
-32.34867,0.6833335,-29.34366,0.3146328865501679,0.2669285332708565,0.3266740077869698,10.78785,41.78024,359.9409,0.08764028,0.3550433,-0.03399935,6.27999985963106,9
-32.30665,0.8833334,-29.29708,0.2769116819579515,0.2695419159243543,0.2847738602098353,14.38186,41.80104,359.9237,0.116704,0.3540183,-0.04527327,6.29999985918403,9
-32.16627,0.2833333,-29.14229,0.3859539636021658,-0.4397695066708162,0.4050402309089307,3.555938,42.63784,0.07920534,0.0291545,0.3633638,-0.01063635,6.31999985873699,9
-32.12527,0.4833336,-29.0957,0.370569226252929,-0.2367856551331033,0.3895961316436569,7.110485,42.66993,0.1608539,0.05827089,0.3630381,-0.02125575,6.33999985828996,9
-32.08429,0.6833338,-29.04912,0.3480522252579696,-0.0275295565543367,0.3671847781325894,10.66397,42.70744,0.2453089,0.087323,0.362363,-0.0318516,6.35999985784292,9
-31.92787,0.2833333,-28.87804,0.3281889650046068,0.1357286690000373,0.3484592298582178,3.624948,43.52776,0.1026707,0.02970592,0.3705704,-0.01089555,6.37999985739589,9
-31.8856,0.4833336,-28.83093,0.2996716277359255,0.0672542563902903,0.3194298851739177,7.248765,43.56212,0.2076748,0.05937323,0.3702118,-0.02177711,6.39999985694885,9
-31.74208,0.2833336,-28.6735,0.2640788100572422,0.0338007819671377,0.2828591901325268,3.642625,43.81572,0.1052773,0.02982998,0.3728993,-0.0110066,6.41999985650182,9
-31.69941,0.4833335,-28.62636,0.1106003707860061,0.4622448315753761,0.11803054169199,7.284184,43.85034,0.212936,0.05962151,0.3725311,-0.02199908,6.43999985605478,9
-31.65675,0.6833335,-28.57923,0.0850937385250105,0.2341706348429784,0.0946823344844993,10.92461,43.89226,0.3239332,0.08934426,0.3717865,-0.03296588,6.45999985560775,9
-31.6141,0.8833334,-28.53211,0.0515207244135851,0.0155056847700594,0.0643115359473647,14.56412,43.94199,0.4391165,0.1189696,0.3706663,-0.04389802,6.47999985516071,9
-31.4655,0.2833333,-28.37011,0.0199867494301813,-0.2481120789392027,0.0379858939343478,3.604177,45.10379,0.1593199,0.02957543,0.3832896,-0.01077724,6.49999985471368,9
-31.42292,0.4833331,-28.32375,0.015327901856434,-0.2909737838824281,0.041827186619745,7.207231,45.14333,0.3214036,0.05911315,0.3829155,-0.02154071,6.51999985426664,9
-31.38036,0.683333,-28.27741,0.0024357377337871,-0.299859831828457,0.0374285418207058,10.80907,45.19361,0.4875727,0.08858334,0.3821622,-0.03227971,6.53999985381961,9
-31.21807,0.2833333,-28.10019,-0.0083459072900353,-0.3280855926698041,0.0358610178589593,3.543572,46.54863,0.2412365,0.0292339,0.3948842,-0.010284,6.55999985337257,9
-31.1761,0.4833333,-28.05461,-0.1535860555989785,0.2913206400700316,-0.1131258570071302,7.085931,46.59549,0.4857858,0.05843116,0.3945093,-0.02055491,6.57999985292554,9
-31.13414,0.6833336,-28.00904,-0.1724975650503815,0.0141123346288394,-0.1282484314359848,10.62697,46.65813,0.7355596,0.0875634,0.3937557,-0.03080304,6.5999998524785,9
-30.95874,0.2833336,-27.81672,-0.1867701681410025,-0.253687017129284,-0.140833845863078,3.48203,46.78487,0.2822965,0.02886214,0.3967735,-0.009802364,6.61999985203147,9
-30.91785,0.4833336,-27.77152,-0.2743124158094154,0.1538492389406385,-0.2331737194032968,6.962851,46.83502,0.5680807,0.05768913,0.3964138,-0.01959282,6.63999985158443,9
-30.87698,0.6833335,-27.72634,-0.2223224674352906,-0.0951325666408133,-0.1758601989298185,10.44196,46.90328,0.8598013,0.08645181,0.3956862,-0.02935881,6.6599998511374,9
-30.83612,0.8833337,-27.68116,-0.1663255374586327,-0.3347058591798937,-0.1165300895275756,13.91964,46.99063,1.159563,0.1151259,0.3945916,-0.03909456,6.67999985069036,9
-30.68895,0.2833336,-27.5194,-0.2345643249910942,0.1010572293646737,-0.1932489715652465,3.426959,46.28961,0.2737903,0.02843338,0.3928137,-0.009556915,6.69999985024333,9
-30.64904,0.4833336,-27.47462,-0.1535925807056273,-0.1196986604803822,-0.1057277715032256,6.852356,46.33849,0.5510835,0.05683053,0.3924765,-0.01909985,6.7199998497963,9
-30.60915,0.6833335,-27.42985,-0.0753475381313535,-0.3310460603692213,-0.0199458302797133,10.27649,46.40461,0.8337945,0.08516854,0.3917864,-0.0286227,6.73999984934926,9
-30.44873,0.2833333,-27.25364,-0.1431817167955102,0.1329424436826221,-0.0938776991085639,3.380266,44.61752,0.1729783,0.02785925,0.3793908,-0.009799952,6.75999984890223,9
-30.40946,0.4833333,-27.20953,-0.2121694541255863,0.5807270572377712,-0.1689974335045505,6.759061,44.65699,0.3485339,0.05568301,0.379088,-0.01958728,6.77999984845519,9
-30.37021,0.6833333,-27.16544,-0.1600742590084571,0.1073299522419227,-0.1123971794698057,10.13675,44.70729,0.5279455,0.0834503,0.3784547,-0.02935473,6.79999984800816,9
-30.19714,0.2833333,-26.97495,-0.1054666627043623,-0.3822708965446225,-0.0526776893515297,3.328601,42.90906,0.07440214,0.02726834,0.3655908,-0.01001897,6.81999984756112,9
-30.15856,0.4833333,-26.93152,-0.1569416503772203,0.0169015790929514,-0.1094455053313367,6.655795,42.93958,0.1507018,0.05450254,0.3653221,-0.02002514,6.83999984711409,9
-30.12,0.6833333,-26.88811,-0.0690670230226828,-0.2404439653657631,-0.0164057117652305,9.981995,42.97483,0.2294052,0.08168295,0.3647453,-0.03001174,6.85999984666705,9
-30.08144,0.8833335,-26.84471,0.0227263619655211,-0.4883812769522299,0.0789198030560847,13.30717,43.01517,0.3111334,0.1087866,0.3638611,-0.0399701,6.87999984622002,9
-29.93427,0.2833333,-26.68396,-0.0105797064706116,-0.0609827709315292,0.0374066753085813,3.278261,41.21907,359.9552,0.02663612,0.3518639,-0.01043439,6.89999984577298,9
-29.896,0.4833333,-26.64145,0.0318247821753523,-0.2901021722769765,0.0762101938131714,6.555567,41.23911,359.9115,0.05324247,0.3516262,-0.02085739,6.91999984532595,9
-29.85775,0.6833331,-26.59896,-0.0410309058183919,-0.0296208177032142,-0.0119753213217208,9.831636,41.25673,359.8684,0.07979478,0.351101,-0.03126033,6.93999984487891,9
-29.69874,0.2833332,-26.42371,-0.1129744553717344,0.2413147453463937,-0.1000120396376011,3.228699,38.75352,359.8536,0.02615259,0.3316805,-0.01055137,6.95999984443188,9
-29.6615,0.4833336,-26.38137,-0.0547685285888022,-0.1698805305288372,-0.0475163650253236,6.456395,38.76491,359.7077,0.052276,0.3314801,-0.02109081,6.97999984398484,9
-29.62428,0.6833335,-26.33904,0.0068189714328958,-0.598324950125419,0.0074216072609019,9.683238,38.76805,359.5613,0.0783508,0.3310162,-0.03161068,6.99999984353781,9
-29.45211,0.2833333,-26.14852,-0.0462492573100483,-0.1390412328358856,-0.0629291977926982,3.283696,37.33044,359.795,0.02657232,0.3199547,-0.01086415,7.01999984309077,9
-29.41452,0.4833333,-26.10511,0.0430367705989525,-0.3373205764746492,0.0224853860379283,6.566496,37.33648,359.59,0.05311511,0.3197546,-0.02171636,7.03999984264374,9
-29.37695,0.6833332,-26.06172,0.1310910256826574,-0.5272367665791391,0.1069748421976903,9.848372,37.33065,359.3837,0.07960681,0.3192912,-0.0325473,7.0599998421967,9
-29.33938,0.8833334,-26.01834,0.0835588313825468,-0.0428631628560775,0.0439093576583857,13.12977,37.31265,359.175,0.10603,0.318565,-0.04334842,7.07999984174967,9
-29.18859,0.2833333,-25.85416,0.0376837614706779,0.4242611302283607,-0.0163006653929294,3.534428,38.88577,359.8147,0.02854207,0.3327552,-0.01178952,7.09999984130263,9
-29.14732,0.4833331,-25.80815,0.1076047458296081,-0.030840545652447,0.052519832327146,7.067978,38.89219,359.6294,0.05704951,0.332473,-0.02356478,7.1199998408556,9
-29.10608,0.6833333,-25.76216,0.0228061006820041,0.2170967534762063,-0.046360114426605,10.60246,38.88696,359.4423,0.08550873,0.3318731,-0.03532447,7.13999984040856,9
-28.94319,0.2833336,-25.58461,-0.0642289484609897,0.4754880623655133,-0.1461448207619682,3.564548,40.55537,359.8751,0.02879648,0.3464343,-0.01180056,7.15999983996153,9
-28.9011,0.4833337,-25.53876,-0.0235326699496525,0.0517485624726636,-0.1048031229799022,7.128337,40.56723,359.7504,0.05755756,0.3461231,-0.02359006,7.17999983951449,9
-28.85902,0.6833341,-25.49293,0.0174607230534427,-0.3892406219674472,-0.0610972545657766,10.69108,40.5713,359.6253,0.08625451,0.3454768,-0.03535293,7.19999983906746,9
-28.68283,0.2833333,-25.29906,-0.0592491161798562,0.0574983370994957,-0.1444738795264584,3.593063,41.95242,0.01762462,0.02932768,0.3577998,-0.01107923,7.21999983862042,9
-28.64116,0.4833333,-25.25221,0.0057522167189638,-0.1533264373966641,-0.0718473107566808,7.185325,41.97768,0.03731652,0.05862146,0.3574631,-0.02214146,7.23999983817339,9
-28.5995,0.6833335,-25.20537,0.0688960286704549,-0.3557878388222574,5.518028323336921e-05,10.77653,42.00443,0.05878753,0.08784906,0.3567753,-0.03317888,7.25999983772635,9
-28.55785,0.8833337,-25.15855,-0.004540925211284,0.1160409064930015,-0.0757950524078658,14.36668,42.03291,0.08229425,0.116982,0.3557372,-0.04418043,7.27999983727932,9
-28.40998,0.2833333,-24.99626,-0.0758713848262111,0.5706202826266225,-0.1482507400530295,3.561747,42.8301,0.08316582,0.02919639,0.364924,-0.01067159,7.29999983683228,9
-28.36881,0.4833333,-24.94969,-0.0272892930635606,0.1029727128585071,-0.0903663468182571,7.122221,42.86137,0.1685202,0.05835484,0.3645845,-0.02132827,7.31999983638525,9
-28.32765,0.683333,-24.90313,-0.1319004699001027,0.3383640455309125,-0.1993548072242355,10.68167,42.89832,0.2566708,0.08744897,0.363893,-0.03196136,7.33999983593822,9
-28.16443,0.2833333,-24.72437,-0.2367772682247064,0.5842095518321286,-0.3081134688892568,3.635779,43.60382,0.1078989,0.02980332,0.3711839,-0.01090801,7.35999983549118,9
-28.12203,0.4833331,-24.67712,-0.2097894368076716,0.1479248231075428,-0.2734954097643083,7.2705,43.63754,0.2181326,0.05956846,0.3708115,-0.021802,7.37999983504415,9
-28.07966,0.6833329,-24.62988,-0.1793484215045993,-0.3056094047781009,-0.2350945486942848,10.90474,43.67867,0.3313995,0.08926944,0.3700654,-0.03267483,7.39999983459711,9
-27.97155,0.2833333,-24.51215,-0.2657994082853818,0.1285845884650635,-0.3228677189203033,3.637045,43.91588,0.1065514,0.02977935,0.3737101,-0.01100416,7.41999983415008,9
-27.92888,0.4833333,-24.46514,-0.2078619691588095,-0.0947845283543806,-0.2509951963263823,7.272968,43.94942,0.2154351,0.05952004,0.3733326,-0.02199388,7.43999983370304,9
-27.88622,0.6833333,-24.41814,-0.1490083928952685,-0.3097901272267317,-0.1761628976594949,10.90777,43.99029,0.3275095,0.089192,0.3725792,-0.03295866,7.45999983325601,9
-27.73049,0.2833331,-24.24846,-0.2238900785159074,0.1494942074650598,-0.2465902442150529,3.589699,45.61447,0.1864168,0.02950231,0.3873943,-0.0106421,7.47999983280897,9
-27.68801,0.4833331,-24.20232,-0.2927386280954458,0.5915288941989729,-0.3099542022801245,7.178197,45.65534,0.3756905,0.05896661,0.3870086,-0.02127065,7.49999983236194,9
-27.64555,0.683333,-24.1562,-0.2329968881483139,0.11133708995913,-0.2341205219284887,10.76549,45.70865,0.5693731,0.08836431,0.3862425,-0.03187534,7.5199998319149,9
-27.47637,0.2833331,-23.97145,-0.3211936066035932,0.3341845123243051,-0.3203784735852295,3.527877,46.70913,0.2549906,0.02914134,0.3961683,-0.01016051,7.53999983146787,9
-27.43464,0.4833328,-23.926,-0.4043072584503697,0.5674857702149828,-0.4018627305681406,7.054535,46.756,0.5132803,0.0582463,0.3957869,-0.02030832,7.55999983102083,9
-27.39292,0.6833328,-23.88057,-0.347151168147878,0.1186564986224499,-0.3342148092807058,10.57987,46.81944,0.7768679,0.08728687,0.3950287,-0.03043396,7.5799998305738,9
-27.3512,0.8833327,-23.83514,-0.2782362262639886,-0.3474223105499898,-0.2565965253923323,14.10349,46.90041,1.04799,0.1162331,0.3938952,-0.04052629,7.59999983012676,9
-27.21082,0.2833336,-23.68079,-0.3238174311698039,0.0742270522720666,-0.3036402601577173,3.466625,46.74309,0.2902549,0.0287699,0.396439,-0.009674804,7.61999982967973,9
-27.17026,0.4833338,-23.63564,-0.2213555668886009,-0.161686728160285,-0.1910732623862898,6.931696,46.7927,0.584299,0.05750339,0.3960751,-0.01933401,7.63999982923269,9
-27.12971,0.6833338,-23.59051,-0.1149371969280821,-0.389237368038878,-0.076004883801179,10.3954,46.86078,0.8839731,0.086175,0.3953466,-0.02897283,7.65999982878566,9
-26.97578,0.2833336,-23.42151,-0.1414000055639555,0.0575018294688671,-0.1062253783850906,3.415468,45.94707,0.254554,0.02830406,0.3900706,-0.009587237,7.67999982833862,9
-26.93605,0.4833335,-23.37687,-0.1633699081839594,0.4869915106533919,-0.1317092206884318,6.829411,45.99297,0.5123382,0.05657211,0.389732,-0.01916099,7.69999982789159,9
-26.89634,0.6833335,-23.33225,0.0065064719762766,-0.005746392635652,0.0542515903412947,10.24214,46.05485,0.7751298,0.08478165,0.3890457,-0.02871503,7.71999982744455,9
-26.72944,0.2833333,-23.14869,0.0145457167017042,0.2045550350471804,0.0635629171942753,3.367115,44.17975,0.1552063,0.0277319,0.375861,-0.009793952,7.73999982699752,9
-26.69046,0.4833333,-23.10467,0.0130952090674867,0.4253107873335839,0.0625408363734862,6.732766,44.21644,0.312867,0.05542879,0.3755579,-0.01957469,7.75999982655048,9
-26.65148,0.6833332,-23.06066,0.0109554533102382,0.6042498397034439,0.0606160258106243,10.09735,44.26282,0.4740106,0.08306984,0.3749301,-0.02933603,7.77999982610345,9
-26.61252,0.8833331,-23.01665,0.1317148310817089,-0.1646508344123638,0.1905685990024324,13.46083,44.31946,0.639891,0.1106313,0.3739787,-0.03906923,7.79999982565641,9
-26.47202,0.2833328,-22.86324,0.128791531137594,-0.0170741850588629,0.1850469128243475,3.315715,42.44962,0.04246159,0.02710265,0.3618667,-0.01012858,7.81999982520938,9
-26.43354,0.4833328,-22.82005,0.1248416725294738,0.1409564676957094,0.176997431783672,6.630359,42.47615,0.08649656,0.05417395,0.3615971,-0.02024565,7.83999982476234,9
-26.39506,0.6833328,-22.77687,0.258075799271598,-0.3831429092393968,0.3133301477437342,9.94365,42.50547,0.1323813,0.08118889,0.3610251,-0.03034221,7.85999982431531,9
-26.2416,0.2833331,-22.60911,0.2469866988998603,-0.2042039952122468,0.2910241803640474,3.265932,40.78554,359.9312,0.0265015,0.3483282,-0.01049269,7.87999982386827,9
-26.20348,0.4833331,-22.56675,0.2289933215779136,-0.0148109300326161,0.2597804288720837,6.530882,40.80238,359.8632,0.0529733,0.348089,-0.02097374,7.89999982342124,9
-26.16537,0.683333,-22.5244,0.3562611924418277,-0.5075478535102869,0.2745963581465318,9.794602,40.8154,359.7955,0.07939157,0.3475672,-0.0314349,7.91999982297421,9
-26.00025,0.2833333,-22.34224,0.3989568715841649,-0.2972464716512996,0.2067340927758323,3.216255,37.92086,359.8177,0.02602392,0.324829,-0.01062263,7.93999982252717,9
-25.96327,0.4833333,-22.29992,0.4355597217227576,-0.0764909642524021,0.1411726287127273,6.431595,37.92813,359.6355,0.05201954,0.3246304,-0.02123378,7.95999982208014,9
-25.9263,0.6833333,-22.25761,0.4747238285846222,0.1024482295092855,0.0874092801221486,9.646001,37.92507,359.4523,0.07796666,0.3241755,-0.03182457,7.9799998216331,9
-25.88934,0.8833334,-22.21531,0.5060311584832036,0.0538368786118851,-0.2302032278709518,12.85917,37.91151,359.2675,0.1038435,0.3234652,-0.04238311,7.99999982118607,9
-25.74677,0.2833335,-22.05904,0.5300058543121793,0.0444284286426372,-0.5203033869476208,3.372323,37.62741,359.7983,0.02728533,0.322401,-0.01115453,8.01999982073903,9
-25.70805,0.4833337,-22.01455,0.5550875183274648,0.0209070459821714,-0.7741510914867256,6.74374,37.63211,359.5966,0.05453935,0.3221665,-0.02229613,8.039999820292,9
-25.66933,0.6833335,-21.97008,0.5837231873991726,0.009930164983038,-1.279084821146938,10.11429,37.62479,359.3935,0.08173911,0.3216523,-0.03341535,8.05999981984496,9
-25.51277,0.2833335,-21.79964,0.5986570825827293,0.03815659183825,-1.7379532683807284,3.537367,39.3715,359.8309,0.02856369,0.3367432,-0.01178571,8.07999981939793,9
-25.47131,0.4833335,-21.75378,0.6082330813421493,0.0522701594423602,-2.142767751503442,7.073923,39.37829,359.6618,0.05709294,0.3364451,-0.02355827,8.09999981895089,9
-25.42987,0.6833335,-21.70793,0.7885229999220549,-0.6413594796121085,-2.5983776616504635,10.61069,39.37445,359.4912,0.08556829,0.3358254,-0.03531195,8.11999981850386,9
-25.26002,0.2833336,-21.52271,0.8438668268576919,-0.4185132965815639,-3.106250755735715,3.567912,40.90664,359.8961,0.02885174,0.349301,-0.01172725,8.13999981805682,9
-25.21789,0.4833337,-21.47684,0.8894749946530638,-0.1852132401293721,-3.542531201150453,7.135079,40.91934,359.7927,0.05766857,0.3489755,-0.02344235,8.15999981760979,9
-25.17577,0.6833339,-21.43098,0.9340637822726876,0.0062702474311112,-3.899944262165928,10.70124,40.92559,359.689,0.08642122,0.3483116,-0.03513157,8.17999981716275,9
-25.13366,0.8833339,-21.38513,0.8503063838125051,0.7101256929765347,-4.320007901554995,14.26642,40.92527,359.5844,0.1150821,0.3473104,-0.04678347,8.19999981671572,9
-24.92394,0.2833336,-21.1545,0.9509944384246792,0.4110328510792499,-4.766326704838285,3.577377,42.47331,0.06165631,0.0292886,0.3620287,-0.01080489,8.21999981626868,9
-24.8826,0.4833333,-21.10772,1.0412770478400013,0.1270639402928711,-5.121124740162731,7.153867,42.50158,0.125753,0.05854341,0.3616807,-0.02159204,8.23999981582165,9
-24.84127,0.6833335,-21.06095,0.9776798934484958,0.5241455891498052,-5.544823203583007,10.72924,42.53416,0.1922493,0.08773238,0.3609805,-0.03235497,8.25999981537461,9
-24.79995,0.8833335,-21.01419,1.084718444717982,0.2704238762266068,-5.934387659263717,14.30359,42.57146,0.2617719,0.1168279,0.3599289,-0.04308321,8.27999981492758,9
-24.65108,0.2833333,-20.85187,1.1699661548324016,0.0318259102477589,-6.227925495297935,3.597463,43.45425,0.09489722,0.02946511,0.3699799,-0.01085072,8.29999981448054,9
-24.60912,0.4833333,-20.80515,1.2432242476196933,-0.246009554881692,-6.420030970289211,7.19384,43.48556,0.1919139,0.05889262,0.3696125,-0.02168768,8.31999981403351,9
-24.56716,0.6833332,-20.75845,1.3816662630323897,-0.2973740982026506,-6.5928056389375485,10.78936,43.52331,0.2916258,0.08825485,0.3688808,-0.03250286,8.33999981358647,9
-24.40394,0.2833334,-20.58298,1.490114664163503,-0.3090476530527468,-6.672030710678822,3.642255,44.52473,0.1219553,0.02981342,0.3786255,-0.0110551,8.35999981313944,9
-24.36089,0.4833332,-20.53617,1.5792112026337826,-0.3343465065854523,-6.65293286544501,7.283447,44.55869,0.2462945,0.05958856,0.3782299,-0.02209592,8.3799998126924,9
-24.31785,0.683333,-20.48936,1.5216265548413332,0.2937012749654928,-6.680384336599538,10.9235,44.601,0.3740654,0.08929485,0.377452,-0.0331112,8.39999981224537,9
-24.14022,0.2833333,-20.39979,1.5643898720694942,0.0308505193947539,-6.51565806002214,3.601051,48.15382,0.2072653,0.02942383,0.4077086,-0.01116758,8.41999981179833,9
-24.09582,0.4833332,-20.35519,1.5874817967928827,-0.2168763582067973,-6.2644815458751,7.200926,48.19566,0.4174828,0.05880986,0.4072784,-0.02232109,8.4399998113513,9
-24.05143,0.6833332,-20.3106,1.4496607206120655,0.216446699724654,-6.090671328028947,10.79957,48.25132,0.6323717,0.08812898,0.4064452,-0.03344958,8.45999981090426,9
-24.00706,0.8833333,-20.26603,1.4251615159955089,-0.0010335751138764,-5.709828840090417,14.39678,48.32141,0.8527649,0.1173475,0.4052094,-0.04454944,8.47999981045723,9
-23.85339,0.2833336,-20.35065,1.3836937765048738,-0.2033900878495972,-5.262349038300279,3.532488,53.9417,0.3338002,0.02879001,0.4532397,-0.01138391,8.49999981001019,9
-23.80697,0.4833336,-20.30969,1.3366715772042284,-0.4449845519632584,-4.744954716275373,7.063725,53.99484,0.6713228,0.05754388,0.4527588,-0.02275445,8.51999980956316,9
-23.76057,0.6833336,-20.26875,1.1687847185419749,0.1802060319335884,-4.29125806490088,10.59354,54.06959,1.01526,0.0862339,0.4518443,-0.03410026,8.53999980911613,9
-23.57726,0.2833333,-20.34928,1.1676373278004029,-0.0855029025836194,-3.607270527941232,3.46378,59.86848,0.4101595,0.02797596,0.4986808,-0.01198073,8.55999980866909,9
-23.52856,0.4833333,-20.31279,1.1587136567355003,-0.3360879975504902,-2.8796227808888606,6.926207,59.9279,0.8244623,0.05591744,0.4981536,-0.02394748,8.57999980822206,9
-23.47989,0.6833334,-20.2763,1.012101380475194,0.0943772806072217,-2.257010804313037,10.38702,60.01295,1.244007,0.08378936,0.4971645,-0.03590389,8.59999980777502,9
-23.27411,0.2833332,-20.34548,0.999993379074226,-0.1259606719903648,-1.449785150626294,3.408716,64.45611,0.3993798,0.02701761,0.5329637,-0.0129142,8.61999980732799,9
-23.22345,0.4833331,-20.31357,0.9762215365200682,-0.3311749888056286,-0.6268519279904403,6.816053,64.51369,0.8004678,0.05399189,0.5324075,-0.02582978,8.63999980688095,9
-23.17279,0.6833331,-20.28167,0.7982148650560674,0.1446607431649612,0.0464645684195197,10.22194,64.59598,1.208539,0.08091031,0.5313745,-0.03871832,8.65999980643392,9
-23.12216,0.883333,-20.24978,0.6131127196985915,0.6100074322615023,0.7201223827789107,13.62618,64.70419,1.626668,0.1077487,0.5298657,-0.05156862,8.67999980598688,9
-23.07154,0.9766703,-20.2179,0.5344552276741901,0.1598878860395267,1.5298967221227675,17.02858,64.84009,2.058251,0.1344829,0.5278832,-0.06436908,8.69999980553985,9
-22.84986,0.2833333,-20.28241,0.4557088060285537,-0.3007204563395216,2.3289192716360425,3.366069,65.65192,0.2511368,0.02586791,0.5417997,-0.01408042,8.71999980509281,9
-22.79815,0.4833336,-20.25422,0.1873678208681788,0.133159898647182,2.8968918801279564,6.730751,65.69584,0.5034747,0.05169583,0.5412537,-0.02815613,8.73999980464578,9
-22.74646,0.6833336,-20.22604,0.0418839088708011,-0.0837627793645195,3.577396499972913,10.09427,65.75516,0.7605417,0.07747172,0.5402388,-0.04220366,8.75999980419874,9
-22.52679,0.2833334,-20.24615,-0.1066901419397154,-0.2855620624739919,4.207604911349108,3.316861,63.4055,0.06104143,0.02490244,0.5252792,-0.01475586,8.77999980375171,9
-22.47552,0.4833334,-20.21929,-0.2466855421317753,-0.5265991054769721,4.788476845028214,6.63273,63.43258,0.1237141,0.04977665,0.5247797,-0.02949523,8.79999980330467,9
-22.42427,0.6833335,-20.19243,-0.3574458172142272,-0.5411647435173832,5.34497343785975,9.947199,63.4635,0.1880149,0.07459685,0.523841,-0.04420723,8.81999980285764,9
-22.19573,0.2833332,-20.12442,-0.4685977642048975,-0.5160396307436828,5.81996283565082,3.264709,58.85264,359.8878,0.02433021,0.4911286,-0.01484776,8.8399998024106,9
-22.14599,0.4833333,-20.09661,-0.5683890914761314,-0.5045397085396777,6.214422680546704,6.528449,58.8647,359.7762,0.04863325,0.4906942,-0.02967887,8.85999980196357,9
-22.09626,0.6833331,-20.06881,-0.7906382407730099,0.1603070635799188,6.3747342129971365,9.790989,58.87043,359.6647,0.07288921,0.4898618,-0.04447779,8.87999980151653,9
-22.04654,0.883333,-20.04102,-0.99610621896581,0.6741772899288092,6.438469509728204,13.05258,58.86979,359.5527,0.09708072,0.4886324,-0.05923311,8.8999998010695,9
-21.89026,0.2833335,-19.91875,-1.0406499842222097,0.1610198849348739,6.566539472110843,3.207738,52.24042,359.7436,0.02414577,0.4401386,-0.01433086,8.91999980062246,9
-21.8433,0.4833336,-19.88797,-1.2248417422027345,0.3581493338987878,6.527881422533987,6.414576,52.24039,359.4869,0.04826581,0.4397866,-0.02864564,8.93999980017543,9
-21.79636,0.6833335,-19.8572,-1.3956265844415157,0.5729813380211943,6.371618940763302,9.62047,52.22578,359.2283,0.07234116,0.4390882,-0.04293339,8.95999979972839,9
-21.6307,0.2833333,-19.70282,-1.4280960889342538,0.1129306257478902,6.235357260474377,3.361379,48.92176,359.6997,0.02561208,0.4139623,-0.0145289,8.97999979928136,9
-21.58305,0.4833334,-19.66816,-1.440346597265357,-0.357121332393863,5.96711829870673,6.721842,48.91674,359.3987,0.05119505,0.4135942,-0.02904068,8.99999979883432,9
-21.53542,0.6833333,-19.63351,-1.552010011542542,0.0678025980201084,5.7238881271025015,10.08133,48.89375,359.095,0.07672717,0.4128677,-0.04352261,9.01999979838729,9
-21.4878,0.8833334,-19.59889,-1.5088631678994489,-0.1575883821745856,5.527881213451639,13.44122,48.85258,358.7881,0.1022043,0.4117846,-0.05795335,9.03999979794025,9
-21.28461,0.2833333,-19.40274,-1.4463149352537634,-0.3673678866323949,5.210628718839857,3.5257,47.47517,359.7573,0.02730771,0.4024166,-0.01432169,9.05999979749322,9
-21.2364,0.4833333,-19.36423,-1.5172227091035817,0.1043911912803439,4.921816497289395,7.051026,47.47414,359.5146,0.05458845,0.4020132,-0.02862332,9.07999979704618,9
-21.18822,0.6833333,-19.32575,-1.5674968071317892,0.5661492161158277,4.541646295681861,10.57612,47.45802,359.2702,0.08181792,0.4012278,-0.04289199,9.09999979659915,9
-21.01007,0.2833332,-19.14202,-1.4852833237704388,0.1129285855413859,4.195697445895153,3.57275,46.42121,359.8672,0.0281936,0.3939534,-0.01334996,9.11999979615211,9
-20.96333,0.4833332,-19.10069,-1.563500645532212,0.3699951494673957,3.8808602512204864,7.144943,46.43026,359.7362,0.0563599,0.3935494,-0.0266736,9.13999979570508,9
-20.9166,0.683333,-19.05938,-1.6267471865289806,0.6447643145499777,3.496286108065366,10.71614,46.43106,359.6045,0.08446348,0.3927626,-0.0399674,9.15999979525805,9
-20.86989,0.883333,-19.01808,-1.6652347295867678,0.8849652024523096,3.0491148418810976,14.28628,46.42341,359.471,0.1124767,0.3915941,-0.05321847,9.17999979481101,9
-20.727,0.2833333,-18.85072,-1.5251059175396158,0.1845754802354033,2.715782176449084,3.569645,45.66629,0.01344292,0.02875086,0.3878572,-0.0119781,9.19999979436398,9
-20.68263,0.4833335,-18.807,-1.3591138922823944,-0.4244266673870778,2.3135381845126304,7.138262,45.68903,0.02987178,0.05747081,0.3874637,-0.02392874,9.21999979391694,9
-20.63829,0.6833335,-18.76329,-1.3621527101318025,-0.0393319345156953,1.9663180976389896,10.70587,45.71301,0.04789973,0.08612703,0.3866946,-0.03585281,9.23999979346991,9
-20.47984,0.2833333,-18.58189,-1.219394628669999,-0.3050409112849258,1.7290193784414978,3.595856,45.15096,0.05393288,0.02915111,0.3836975,-0.01161034,9.25999979302287,9
-20.43603,0.4833333,-18.53695,-1.0610800314232662,-0.5556262909520352,1.4482572913134852,7.190648,45.17734,0.109635,0.05826516,0.3833011,-0.02320573,9.27999979257584,9
-20.39224,0.6833333,-18.49203,-1.0789625342067275,-0.1251610869313791,1.1922810778962702,10.78464,45.2076,0.1681411,0.08731753,0.3825279,-0.03477121,9.2999997921288,9
-20.21907,0.2833336,-18.29463,-0.9469635604517777,-0.3454991160181996,1.0825914429711112,3.642595,44.67471,0.08194717,0.02966905,0.3798462,-0.01141802,9.31999979168177,9
-20.17541,0.4833336,-18.2484,-0.8107359692702154,-0.5507135244811512,0.9493887221149376,7.284142,44.70378,0.1659371,0.05930006,0.3794405,-0.02282094,9.33999979123473,9
-20.13176,0.6833335,-18.20219,-0.8734964029066674,-0.0748773252118866,0.7550875357478013,10.92461,44.73857,0.2526711,0.08886285,0.3786516,-0.03419735,9.3599997907877,9
-20.08813,0.8833336,-18.15599,-0.9356050141305764,0.3904697396227593,0.5541722697865481,14.56437,44.77964,0.3433818,0.1183322,0.3774808,-0.04553367,9.37999979034066,9
-20.04451,0.9766705,-18.10981,-0.8773474179136116,-0.0596491330061212,0.4888053218461863,18.20306,44.8275,0.438527,0.147674,0.3759293,-0.05682084,9.39999978989363,9
-19.87615,0.2833333,-17.91312,-0.8154863338573684,-0.5202567804482692,0.4245818704917319,3.598577,45.59426,0.1703692,0.02952134,0.3872349,-0.01079595,9.41999978944659,9
-19.83339,0.4833334,-17.86705,-0.8686452781318046,-0.0863765330517714,0.2605321315830693,7.195984,45.63151,0.3433658,0.0590047,0.3868297,-0.02157801,9.43999978899956,9
-19.79065,0.6833335,-17.821,-0.9111219349774338,0.3370144321586989,0.1059474733366059,10.7922,45.68016,0.5204269,0.0884212,0.3860426,-0.03233553,9.45999978855252,9
-19.64108,0.2833332,-17.64711,-0.7762156037947676,-0.155060263060468,0.1548267057261938,3.531203,46.16839,0.2408603,0.02916733,0.3918368,-0.01014765,9.47999978810549,9
-19.59957,0.4833331,-17.60141,-0.770519795718231,0.0626645119583941,0.0698034627569068,7.061192,46.21182,0.4847983,0.0582981,0.3914441,-0.02028246,9.49999978765845,9
-19.55807,0.683333,-17.55571,-0.7596110722870062,0.2976033656130682,-0.0101883220557112,10.58992,46.27093,0.7337508,0.08736486,0.3906784,-0.03039479,9.51999978721142,9
-19.39566,0.2833333,-17.36648,-0.6022143632405701,-0.142828174869604,0.079474463232545,3.468456,45.81372,0.2791974,0.02882459,0.3889869,-0.009536219,9.53999978676438,9
-19.35568,0.4833333,-17.3208,-0.4369838936943004,-0.5937486528140521,0.1788053479811431,6.935375,45.86022,0.5619306,0.05761247,0.3886168,-0.0190574,9.55999978631735,9
-19.31571,0.6833333,-17.27512,-0.4418877071790739,-0.1501805864583318,0.1059559411647104,10.4009,45.92451,0.8502678,0.08633869,0.3878889,-0.02855622,9.57999978587031,9
-19.27576,0.8833333,-17.22947,-0.4436480049121947,0.2828984351938757,0.0399378938877301,13.86506,46.00757,1.146297,0.1149773,0.3868041,-0.03802602,9.59999978542328,9
-19.14079,0.2833332,-17.07099,-0.3321592613740769,-0.1994886304596792,0.1122685591000376,3.415977,44.78545,0.2472869,0.02837976,0.3807234,-0.009360136,9.61999978497624,9
-19.10188,0.4833331,-17.02564,-0.3700816117366692,0.0279233744293627,0.0254373563721479,6.830405,44.82859,0.4977837,0.05672359,0.3803811,-0.01870571,9.63999978452921,9
-19.06298,0.6833332,-16.98031,-0.4094249717222222,0.2725499637588575,-0.0583513957034487,10.24361,44.88725,0.7530454,0.08500843,0.3796994,-0.02803202,9.65999978408217,9
-19.0241,0.8833331,-16.93498,-0.3269128231763307,-0.1581934680986512,0.0069663046713142,13.65557,44.96224,1.015064,0.1132096,0.3786792,-0.03733073,9.67999978363514,9
-18.85022,0.2833333,-16.73108,-0.2452333879769703,-0.599425795862853,0.0797167720570861,3.362288,42.2485,0.1219817,0.0277493,0.3602072,-0.009580373,9.6999997831881,9
-18.81237,0.4833334,-16.68622,-0.2714910085869739,-0.1461701092631002,0.0195721655932352,6.723081,42.28011,0.2462152,0.05546361,0.3599101,-0.01914648,9.71999978274107,9
-18.77453,0.6833335,-16.64137,-0.2924161798165841,0.2965964157213558,-0.0314716336390912,10.08284,42.31936,0.3733757,0.0831223,0.359303,-0.02869338,9.73999978229403,9
-18.62043,0.2833333,-16.46109,-0.1395758942104343,-0.1761030644480758,0.1221266968396825,3.305915,40.39113,0.006053083,0.02709034,0.3450805,-0.009908666,9.759999781847,9
-18.58315,0.4833333,-16.41709,-0.1199590547314954,0.060996820992314,0.1181330616496882,6.610849,40.41238,0.01333905,0.05415013,0.3448187,-0.01980618,9.77999978139997,9
-18.54587,0.6833333,-16.3731,-0.1030772105569362,0.3153110267326691,0.1122434082556296,9.914411,40.4342,0.02186793,0.08115353,0.3442702,-0.02968359,9.79999978095293,9
-18.37988,0.2833332,-16.17841,0.0576602484323789,-0.1057452662925286,0.2754489604329322,3.254117,38.46726,359.908,0.02654438,0.3293095,-0.0101115,9.8199997805059,9
-18.34332,0.4833333,-16.13495,0.0604214748387583,0.1829972737423571,0.2543720216748202,6.507276,38.48004,359.8165,0.05305935,0.3290804,-0.02021174,9.83999978005886,9
-18.30677,0.6833332,-16.09151,0.0514906775560888,0.4889542387054139,0.2203199044563604,9.759511,38.48764,359.7251,0.0795239,0.3285859,-0.03029275,9.85999977961183,9
-18.27022,0.8833331,-16.04807,0.0389398400948284,0.7598550944613627,0.1833202511842451,13.0105,38.49001,359.6333,0.1059145,0.3278268,-0.04034463,9.87999977916479,9
-18.12971,0.2833332,-15.88236,0.1395458735096095,0.0896771591653202,0.2794487374118102,3.205554,35.70476,359.8028,0.02609585,0.306491,-0.01021225,9.89999977871776,9
-18.09429,0.4833332,-15.83894,0.2394087330220031,-0.4896007986941721,0.3766709238189598,6.410189,35.7087,359.6055,0.05216349,0.3063001,-0.02041336,9.91999977827072,9
-18.05888,0.6833332,-15.79554,0.1973654512680553,-0.0752697549559174,0.3050642927775744,9.613873,35.70147,359.407,0.07818255,0.3058687,-0.03059533,9.93999977782369,9
-18.02348,0.883333,-15.75215,0.1554785891211132,0.3280842529752703,0.235377724391137,12.81635,35.68286,359.2064,0.104132,0.3051979,-0.04074629,9.95999977737665,9
-17.84032,0.2833335,-15.53798,0.2718242159059763,-0.1845159385962839,0.3536524304999133,3.462967,36.54924,359.8024,0.02815097,0.3134777,-0.01111159,9.97999977692962,9
-17.80154,0.4833336,-15.49145,0.2571326643941187,0.0121955063880965,0.3187693335745987,6.925038,36.55171,359.6046,0.05626862,0.313216,-0.02221007,9.99999977648258,9
-17.76277,0.6833334,-15.44494,0.2351869978836909,0.2256336616211647,0.2778725191158404,10.38687,36.54202,359.4048,0.08433217,0.3126672,-0.03328974,10.0199997760355,9
-17.59956,0.2833332,-15.25473,0.3441403411948638,-0.2367860785245344,0.3936936109778557,3.541102,38.33773,359.8543,0.02876654,0.3282335,-0.01134575,10.0399997755885,9
-17.55923,0.4833333,-15.20783,0.3008193146709921,0.0101050462853348,0.3331953158687302,7.081808,38.34454,359.7083,0.05750094,0.3279301,-0.02268273,10.0599997751415,9
-17.51892,0.6833333,-15.16095,0.2446883891512694,0.2737225360969365,0.259960683844584,10.62151,38.34223,359.5613,0.08617212,0.3273131,-0.03399494,10.0799997746944,9
-17.47861,0.8833332,-15.11408,0.1845619989725317,0.5017959773457172,0.1844166432965703,14.16019,38.33052,359.4123,0.1147529,0.3263835,-0.04527142,10.0999997742474,9
-17.34251,0.2833334,-14.95416,0.2325233170265939,-0.2116969783271267,0.236287684891689,3.589273,39.7885,359.9789,0.02938551,0.3401237,-0.01083017,10.1199997738004,9
-17.30215,0.4833332,-14.90626,0.1671217137147032,-0.002440239782649,0.1561481573825531,7.177961,39.8069,359.9591,0.05873822,0.3397895,-0.0216455,10.1399997733533,9
-17.26181,0.6833333,-14.85837,0.0998706391193113,0.2235430740653885,0.0753051467385024,10.7656,39.82421,359.9404,0.08802475,0.3391222,-0.0324363,10.1599997729063,9
-17.11322,0.2833333,-14.68327,0.1566461475810339,-0.2263316552167513,0.1406713541793234,3.55426,40.69425,0.0791544,0.02931682,0.3475195,-0.01013567,10.1799997724593,9
-17.07385,0.4833333,-14.63534,0.2146885720980265,-0.6871833156777462,0.2095593418852495,7.107211,40.722,0.1605344,0.05859607,0.3471833,-0.02025488,10.1999997720122,9
-17.03449,0.6833332,-14.58742,0.1215949921405776,-0.2540345307065691,0.1029182645544484,10.65911,40.75513,0.2444162,0.08781062,0.3465132,-0.03035186,10.2199997715652,9
-16.99514,0.8833332,-14.53952,0.0316440219120952,0.1681371912768584,0.0010162439493264,14.20993,40.79406,0.3315441,0.1169324,0.3455103,-0.04041678,10.2399997711182,9
-16.8056,0.2833335,-14.31786,0.1132204144429582,-0.3256454190967595,0.0992249672064158,3.624861,41.75444,0.1108794,0.02989577,0.3561595,-0.01036739,10.2599997706711,9
-16.76492,0.4833335,-14.26937,0.0570851069091364,-0.1101166319650698,0.0375127932221026,7.248641,41.78527,0.2238749,0.05975305,0.3557886,-0.02072168,10.2799997702241,9
-16.72425,0.6833334,-14.2209,-0.0027091823595331,0.1221388392800346,-0.0276939890554501,10.87198,41.8236,0.3397089,0.08954661,0.3550613,-0.03105638,10.2999997697771,9
-16.55387,0.2833332,-14.0217,0.08023653293675,-0.3214638516076471,0.0754314323758098,3.625289,42.3731,0.1230816,0.02988131,0.3611929,-0.01043075,10.31999976933,9
-16.51283,0.4833332,-13.97351,0.0062532821617509,-0.0557551321837312,-0.0034778642892199,7.249454,42.40503,0.2484009,0.05972392,0.3608133,-0.02084795,10.339999768883,9
-16.4718,0.6833332,-13.92534,-0.0769288353877435,0.226680045109249,-0.0919530366513932,10.87248,42.44532,0.3769952,0.089498,0.3600726,-0.03124133,10.359999768436,9
-16.43078,0.8833331,-13.87718,-0.1596969527943983,0.4735713616649025,-0.1788676283226244,14.49446,42.4945,0.5098171,0.1191741,0.3589715,-0.04160239,10.3799997679889,9
-16.28791,0.2833333,-13.71092,-0.1193721871842168,-0.2211037417001111,-0.1218192153435264,3.573579,44.14336,0.2082558,0.02957777,0.3755304,-0.01003312,10.3999997675419,9
-16.2471,0.4833333,-13.66364,-0.1974460872813708,0.0069702818425467,-0.2024257366168207,7.145984,44.18305,0.4193285,0.05911795,0.3751424,-0.02005354,10.4199997670949,9
-16.2063,0.6833332,-13.61638,-0.2720564452126606,0.2517708736322411,-0.2791992587978846,10.71718,44.23649,0.6349148,0.08859186,0.3743887,-0.03005165,10.4399997666478,9
-16.16552,0.8833331,-13.56913,-0.3334753465903866,0.4610274893409355,-0.341160127325276,14.28683,44.30445,0.8566795,0.1179681,0.3732703,-0.04001814,10.4599997662008,9
-15.98417,0.2833332,-13.35697,-0.2142060713912208,-0.2712825230820394,-0.1966523329158196,3.506768,44.98192,0.2777996,0.02919715,0.3822889,-0.009465863,10.4799997657537,9
-15.94436,0.4833332,-13.31026,-0.2546065160393347,-0.0808436306600484,-0.2393806288786368,7.012306,45.02758,0.5588325,0.05835805,0.3819091,-0.01891999,10.4999997653067,9
-15.90457,0.6833332,-13.26356,-0.2918028111031301,0.1263216731102289,-0.2801891409627455,10.51613,45.09114,0.8454265,0.08745256,0.3811699,-0.02835101,10.5199997648597,9
-15.74328,0.2833333,-13.07408,-0.1850134770821796,-0.3423710989187611,-0.1558679611120439,3.441973,44.70314,0.2924004,0.02874581,0.3800451,-0.009062038,10.5399997644126,9
-15.70468,0.4833332,-13.02779,-0.2217250412434328,-0.1017523481673687,-0.1997588149863229,6.88229,44.74961,0.5882959,0.05745428,0.3796875,-0.0181096,10.5599997639656,9
-15.66609,0.683333,-12.98153,-0.2622926470956397,0.1555927594838215,-0.2487168713583756,10.32134,44.81451,0.8896388,0.08610243,0.3789852,-0.02713814,10.5799997635186,9
-15.62751,0.8833329,-12.93527,-0.2981812899258216,0.3773936914676497,-0.2925095350130942,13.759,44.89882,1.198783,0.1146642,0.3779393,-0.03613942,10.5999997630715,9
-15.49218,0.2833332,-12.77726,-0.2196090860080097,-0.342371766674978,-0.2004782754846488,3.394093,43.1785,0.1917582,0.02815253,0.3677422,-0.009341397,10.6199997626245,9
-15.45411,0.4833334,-12.73179,-0.2472373012999824,-0.1393880835355372,-0.2317014410935058,6.786668,43.21549,0.3859255,0.05626845,0.3674172,-0.01867102,10.6399997621775,9
-15.41605,0.6833333,-12.68632,-0.2702911904899068,0.0803224069015691,-0.2567058666663797,10.17816,43.26445,0.5839806,0.08432717,0.3667692,-0.02798168,10.6599997617304,9
-15.26849,0.2833335,-12.51312,-0.2801571165410994,0.2644886123387509,-0.2655599743471963,3.341269,41.47864,0.1065042,0.02759377,0.3539408,-0.009455062,10.6799997612834,9
-15.23128,0.4833333,-12.46821,-0.2532172781964839,0.2273767403911344,-0.2340783308915934,6.681139,41.50782,0.2149972,0.05515339,0.3536499,-0.01889706,10.6999997608364,9
-15.19409,0.6833334,-12.42331,-0.2267490769827524,0.2357401017008245,-0.2045191893830615,10.01996,41.54363,0.3261124,0.08265799,0.3530583,-0.02832023,10.7199997603893,9
-15.1569,0.8833333,-12.37842,-0.1918956000332805,0.2362629806056515,-0.1667606549098064,13.35777,41.5865,0.4406903,0.1100847,0.352167,-0.03771665,10.7399997599423,9
-14.97047,0.2833333,-12.16036,-0.0150615834077854,-0.4646850791117121,0.0337268027727759,3.285568,39.23186,359.9575,0.02687991,0.3355854,-0.009973229,10.7599997594953,9
-14.93365,0.4833332,-12.11643,-0.0064432768689091,-0.2428841175950274,0.0373313360229143,6.570193,39.24789,359.9159,0.05372996,0.3353329,-0.01993522,10.7799997590482,9
-14.89684,0.6833333,-12.0725,0.0012043569305593,-0.0043566027284113,0.0386384193787083,9.85345,39.2616,359.8748,0.08052414,0.3348049,-0.02987802,10.7999997586012,9
-14.73165,0.2833333,-11.87787,0.1544697327470476,-0.4416871422301379,0.2076558245991488,3.230919,36.80048,359.8549,0.02635051,0.3155612,-0.01009969,10.8199997581542,9
-14.69587,0.4833333,-11.83424,0.1513087150743572,-0.1697061513722523,0.1929659483583563,6.460916,36.80779,359.7101,0.05267232,0.3153462,-0.02018823,10.8399997577071,9
-14.6601,0.6833333,-11.79063,0.1380877430860838,0.1190014302090034,0.1656489153041196,9.68996,36.80687,359.5645,0.07894443,0.3148802,-0.03025768,10.8599997572601,9
-14.62434,0.8833333,-11.74702,0.1231452668212718,0.3721647369830963,0.1356574092676989,12.91772,36.79758,359.4176,0.1051442,0.3141641,-0.04029679,10.879999756813,9
-14.48263,0.2833335,-11.58038,0.1148447651982724,0.4236844099611404,0.1129284459842239,3.283203,35.38457,359.7954,0.02675013,0.3038283,-0.01040612,10.899999756366,9
-14.44655,0.4833334,-11.53573,0.1351338735846372,0.3558019346197696,0.1239812793091204,6.565511,35.38647,359.5907,0.05347071,0.3036148,-0.02080075,10.919999755919,9
-14.41048,0.6833334,-11.49108,0.1479485988942226,0.3338827003658349,0.1270228457179456,9.846876,35.37646,359.3844,0.08013967,0.3031512,-0.03117544,10.9399997554719,9
-14.37442,0.8833334,-11.44646,0.1618731934054142,0.3046108709664402,0.1323817657735961,13.12775,35.35425,359.1754,0.1067397,0.3024382,-0.04152133,10.9599997550249,9
-14.19054,0.2833333,-11.23257,0.3007620087282951,-0.4256436768323668,0.2858208244158984,3.525961,37.49104,359.8337,0.02866693,0.3212552,-0.01126017,10.9799997545779,9
-14.15076,0.4833334,-11.18549,0.2741256008995538,-0.2326610888479703,0.247543084872996,7.050972,37.49509,359.6674,0.05729863,0.3209584,-0.02250683,10.9999997541308,9
-14.111,0.6833334,-11.13843,0.2416971723437573,-0.0224639375926924,0.2043516344176268,10.57695,37.48867,359.4991,0.08588225,0.3203564,-0.03373998,11.0199997536838,9
-13.9476,0.2833333,-10.94809,0.3424974866639587,-0.4876371749863477,0.3186498221977611,3.564724,39.02024,359.8965,0.02901585,0.3338381,-0.01123809,11.0399997532368,9
-13.90704,0.4833333,-10.9009,0.2925673026890276,-0.2430113481098754,0.25828503390216,7.128753,39.02995,359.7933,0.05799708,0.3335122,-0.02246495,11.0599997527897,9
-13.86649,0.6833332,-10.85372,0.2317953886984121,0.0188290436055942,0.1864279354749118,10.69178,39.03321,359.6897,0.08691397,0.3328635,-0.03366687,11.0799997523427,9
-13.82595,0.883333,-10.80655,0.1691379803068926,0.2456133752482688,0.1134737915531705,14.25381,39.02986,359.5848,0.1157387,0.331893,-0.04483309,11.0999997518957,9
-13.69053,0.2833332,-10.64654,0.2169643793715892,-0.46868077898818,0.1693844533505206,3.589267,40.34734,0.05532965,0.02956232,0.3446835,-0.01034725,11.1199997514486,9
-13.65073,0.4833332,-10.59817,0.1515525833033226,-0.2597381123714593,0.0957808086995548,7.177688,40.37201,0.1129107,0.05909068,0.3443342,-0.02067699,11.1399997510016,9
-13.61094,0.6833332,-10.54981,0.0858218149436869,-0.0335812112655852,0.0233109435400891,10.76506,40.40057,0.1726193,0.08855268,0.3436473,-0.0309835,11.1599997505546,9
-13.57117,0.883333,-10.50147,0.0288844158911469,0.157519604677629,-0.0374804577809948,14.35139,40.43336,0.2350027,0.1179197,0.3426237,-0.04125669,11.1799997501075,9
-13.39557,0.2833335,-10.29669,0.0041356542674932,0.1278295431377731,-0.0609370044054546,3.586877,41.41607,0.09921934,0.02958039,0.3534074,-0.01025704,11.1999997496605,9
-13.35548,0.4833334,-10.2486,-0.0257334777104212,0.1441029525886366,-0.0897955394015213,7.172727,41.44474,0.2002053,0.05912307,0.3530443,-0.02050282,11.2199997492135,9
-13.31539,0.6833334,-10.20053,-0.0512700784175379,0.1530235427405175,-0.1131463453262453,10.75751,41.48008,0.3039929,0.0885995,0.3523354,-0.03072557,11.2399997487664,9
-13.15842,0.2833332,-10.01718,0.0612429935746323,-0.539038384352534,0.0244878105131487,3.639641,41.93951,0.1131379,0.03000641,0.3576652,-0.0104434,11.2599997483194,9
-13.11744,0.4833332,-9.968606,0.0021645842718633,-0.3078632017976508,-0.0364591714727291,7.278179,41.96961,0.2284038,0.05997393,0.3572794,-0.0208731,11.2799997478724,9
-13.07647,0.6833332,-9.920047,-0.0594353125809981,-0.059473455971885,-0.0992546890992693,10.91561,42.00743,0.3467416,0.08987232,0.3565333,-0.03127889,11.2999997474253,9
-12.90602,0.2833332,-9.721388,0.0182455130148309,-0.4864540993177642,0.0036036376856838,3.603737,43.21552,0.1610728,0.02975106,0.3680269,-0.01027282,11.3199997469783,9
-12.86502,0.4833332,-9.673638,-0.0589300742012319,-0.203635679438924,-0.0733629736323235,7.206331,43.25,0.3245738,0.05946386,0.3676347,-0.02053256,11.3399997465312,9
-12.82403,0.6833332,-9.625903,-0.1432234809688815,0.0963971969917698,-0.1580772236284273,10.80774,43.29525,0.4918715,0.089109,0.3668787,-0.0307689,11.3599997460842,9
-12.78306,0.8833329,-9.578178,-0.2249679145914349,0.3613739840781606,-0.2395834873821405,14.40783,43.35191,0.6641513,0.1186555,0.3657596,-0.0409735,11.3799997456372,9
-12.74209,0.9766703,-9.530468,-0.2945085871739685,0.4251948436847034,-0.3069451281197626,18.00667,43.42095,0.8432932,0.1480759,0.3642791,-0.05113459,11.3999997451901,9
-12.57381,0.2833333,-9.334374,-0.3236580844184935,0.3701010483726721,-0.3310140903926593,3.537109,44.95102,0.2624048,0.02939291,0.3820401,-0.009683264,11.4199997447431,9
-12.53346,0.4833333,-9.287461,-0.3498446170867897,0.3614584666955885,-0.3542193367873532,7.073016,44.99456,0.5279275,0.05874905,0.3816443,-0.01935438,11.4399997442961,9
-12.49313,0.6833333,-9.240562,-0.3637940139718125,0.3459511418498301,-0.3659617318586141,10.60763,45.05515,0.7986552,0.08804023,0.3808833,-0.02900415,11.459999743849,9
-12.34482,0.2833333,-9.066761,-0.240070573942706,-0.3700512900373007,-0.2328111195092352,3.46989,44.92249,0.2911735,0.02894935,0.381811,-0.009219988,11.479999743402,9
-12.30568,0.4833333,-9.0203,-0.2751472809680688,-0.1623284027691853,-0.2844777022526417,6.938248,44.96815,0.5858222,0.05786173,0.381435,-0.0184256,11.499999742955,9
-12.26656,0.6833334,-8.973851,-0.306824032946114,0.0630967776077576,-0.3329667681257433,10.40515,45.03231,0.8859054,0.08671097,0.3807074,-0.02761114,11.5199997425079,9
-12.10535,0.2833333,-8.784839,-0.1951434652183223,-0.3863607013489954,-0.2148054769039475,3.416492,44.13111,0.2549285,0.02846194,0.3754379,-0.009137841,11.5399997420609,9
-12.06705,0.4833333,-8.738951,-0.2269333742153065,-0.1255310276217366,-0.2631230736088454,6.831422,44.17301,0.5128549,0.05688721,0.3750873,-0.01826255,11.5599997416139,9
-12.02876,0.6833333,-8.693076,-0.2628160320680237,0.1530009658723262,-0.3152823506723976,10.24516,44.23087,0.7755319,0.08525352,0.3744018,-0.0273686,11.5799997411668,9
-11.99049,0.8833331,-8.647214,-0.2945144588989112,0.3969647470887348,-0.3613998182690379,13.65763,44.30553,1.045017,0.1135359,0.3733824,-0.03644763,11.5999997407198,9
-11.85534,0.2833333,-8.489296,-0.1417730996557029,-0.299662003582515,-0.211505072852792,3.367208,42.36551,0.1553446,0.02788467,0.3611505,-0.009352853,11.6199997402728,9
-11.81777,0.4833332,-8.444057,-0.1020483563476357,-0.0725639660801374,-0.1940831746305393,6.732989,42.39817,0.3128796,0.05573425,0.3608348,-0.01869336,11.6399997398257,9
-11.7802,0.6833332,-8.39883,-0.0646531640181642,0.1722364071315588,-0.1798349879829057,10.09767,42.44048,0.4736984,0.08352749,0.3602073,-0.02801487,11.6599997393787,9
-11.74265,0.8833331,-8.353617,-0.0209208737145463,0.3824683577637725,-0.1585980281772396,13.46129,42.49299,0.6389914,0.1112408,0.3592688,-0.0373097,11.6799997389317,9
-11.56855,0.2833332,-8.150575,0.1589998606168663,-0.3478902075491542,-0.0207634879751346,3.311055,40.10332,0.01078922,0.02717143,0.3427216,-0.009817158,11.6999997384846,9
-11.53149,0.4833332,-8.106268,0.1868744174061767,-0.1545241159746408,-0.0551048634222972,6.621113,40.12306,0.02272212,0.05431199,0.3424459,-0.01962328,11.7199997380376,9
-11.49444,0.6833332,-8.061971,0.2156216675398958,0.056544379086667,-0.0846103579278372,9.929784,40.14364,0.03582613,0.0813957,0.3418847,-0.0294096,11.7399997375906,9
-11.34094,0.2833334,-7.882218,0.3810140294192692,-0.4072696620014711,0.03061675236472,3.255706,38.21515,359.9099,0.02658512,0.3272317,-0.01004186,11.7599997371435,9
-11.30458,0.4833333,-7.838559,0.4086631241804905,-0.1607965339403769,-0.0081425426450554,6.510493,38.22617,359.8203,0.05314113,0.3269891,-0.02007263,11.7799997366965,9
-11.26822,0.6833333,-7.794912,0.4305749760039372,0.1033789436817364,-0.0473707018332811,9.764326,38.23211,359.7306,0.07964639,0.3264827,-0.03008415,11.7999997362494,9
-11.10781,0.2833333,-7.604537,0.4549995286987247,0.3329862254914148,-0.0773757894997357,3.206468,35.53675,359.8047,0.02612342,0.3050953,-0.01016069,11.8199997358024,9
-11.07253,0.4833332,-7.560987,0.4946471023870717,0.3422907469807082,-0.0996013525842025,6.412027,35.53896,359.6092,0.05221874,0.3048902,-0.02031036,11.8399997353554,9
-11.03727,0.6833332,-7.517449,0.5164603745754679,0.3980464051801273,-0.1350012152869766,9.616623,35.53009,359.4124,0.07826536,0.3044459,-0.03044093,11.8599997349083,9
-11.00201,0.8833332,-7.473924,0.52880407519066,0.446937137612434,-0.1735695337609781,12.81998,35.5099,359.2133,0.1042418,0.303763,-0.04054093,11.8799997344613,9
-10.96676,0.9766706,-7.430411,0.540073738934197,0.4356473614697547,-0.2053148411727932,16.02233,35.47786,359.0103,0.1301292,0.302842,-0.05060624,11.8999997340143,9
-10.79496,0.2833333,-7.23145,0.6520582259075063,-0.4148447677186485,-0.1385538133945569,3.463044,36.98455,359.8128,0.02813793,0.3170784,-0.01113275,11.9199997335672,9
-10.75596,0.4833333,-7.185111,0.6156577507681984,-0.2424913218700612,-0.2345443027688318,6.925171,36.98608,359.6253,0.05624242,0.316796,-0.02225237,11.9399997331202,9
-10.71698,0.6833334,-7.138785,0.5757025422696653,-0.0529234286169671,-0.324228768137023,10.38699,36.97602,359.4358,0.08429179,0.3162233,-0.03335461,11.9599997326732,9
-10.56919,0.2833333,-6.977418,0.6501685341816259,-0.5387258141575455,-0.3102135643777624,3.541014,38.68038,359.8555,0.0287353,0.3310547,-0.01142141,11.9799997322261,9
-10.5286,0.4833334,-6.930753,0.5944765784442918,-0.3147290260954396,-0.4340215250076156,7.081621,38.68541,359.7106,0.05743832,0.3307316,-0.02283422,11.9999997317791,9
-10.48802,0.6833335,-6.884101,0.5336893143368702,-0.0735178973478567,-0.5500295781563445,10.62122,38.68138,359.5646,0.08607828,0.3300923,-0.03422193,12.0199997313321,9
-10.32422,0.2833333,-6.693652,0.4764120591677603,0.132637026189049,-0.6485158196776499,3.589655,40.72327,359.9897,0.02933216,0.3477764,-0.01098215,12.039999730885,9
-10.28323,0.4833333,-6.646289,0.3993949858652375,0.1180012990099342,-0.7912434491910334,7.17867,40.74081,359.9805,0.05863049,0.3474151,-0.02195102,12.059999730438,9
-10.24224,0.6833333,-6.598939,0.3128210395958097,0.1493288304288884,-0.9289953879927442,10.76667,40.75792,359.9724,0.08786304,0.3467131,-0.03289528,12.079999729991,9
-10.20127,0.8833332,-6.551602,0.2254634785742997,0.1733034502042291,-1.0521888073053312,14.35365,40.77472,359.9652,0.1170012,0.3456715,-0.04380417,12.0999997295439,9
-9.999175,0.2833334,-6.335533,0.2169750887335295,-0.5037040732696096,-1.0767352575255256,3.562193,44.09111,0.1266052,0.029223,0.3751303,-0.01064248,12.1199997290969,9
-9.957517,0.4833333,-6.289355,0.0985425656517229,-0.2574745922464275,-1.21065295755186,7.123166,44.12136,0.2547108,0.0584063,0.3747341,-0.02127593,12.1399997286499,9
-9.915871,0.6833333,-6.243191,-0.0166878734034652,0.0059693340904382,-1.3243829261721474,10.68306,44.15999,0.3859548,0.08752494,0.3739757,-0.03188573,12.1599997282028,9
-9.874236,0.8833331,-6.197039,-0.1196876800024711,0.2343571742192357,-1.408621840896266,14.24184,44.20753,0.5214365,0.1165508,0.3728563,-0.04246182,12.1799997277558,9
-9.71908,0.2833333,-6.057717,-0.2013878605101249,0.2615889976597871,-1.4540779771969763,3.635242,44.98558,0.1223216,0.02971343,0.3823431,-0.01114856,12.1999997273088,9
-9.675738,0.4833334,-6.011335,-0.4210785643678854,0.1699064376401317,-1.5929384923755143,7.269378,45.01565,0.2467447,0.05938828,0.3819126,-0.02228283,12.2199997268617,9
-9.632414,0.6833334,-5.964966,-0.6242919092123866,0.124675017466836,-1.6978886950981589,10.90308,45.05396,0.3738614,0.08899875,0.3810973,-0.03339753,12.2399997264147,9
-9.469683,0.2833333,-5.796714,-0.8019565326815794,0.0725787813816907,-1.760540150745764,3.628524,45.43067,0.1231265,0.02961856,0.3859278,-0.01123478,12.2599997259676,9
-9.426091,0.4833332,-5.750749,-1.117008547972496,0.0402755746708481,-1.8991051430707069,7.25593,45.46075,0.248361,0.05919871,0.3854933,-0.02245509,12.2799997255206,9
-9.382512,0.6833332,-5.704797,-1.4059595957356272,0.054423482193801,-1.9977554217598763,10.88221,45.49918,0.3767623,0.08871093,0.3846723,-0.03364966,12.2999997250736,9
-9.338946,0.8833332,-5.658858,-1.6597061541558151,0.0617065609986165,-2.048915817413084,14.50737,45.54646,0.5092502,0.1181251,0.3834658,-0.04480911,12.3199997246265,9
-9.145566,0.2833333,-5.454493,-2.03408285577988,0.0887827892257572,-2.168110742988594,3.566596,48.71732,0.2562536,0.029271,0.412183,-0.01079889,12.3399997241795,9
-9.101757,0.4833333,-5.410082,-2.3720482666177007,0.1623102650636987,-2.246138274756036,7.131989,48.75962,0.5155596,0.05850489,0.4117253,-0.02158415,12.3599997237325,9
-9.057961,0.6833332,-5.365684,-2.6647971092607348,0.2289729260352018,-2.276458557295797,10.69611,48.81873,0.7799965,0.08767329,0.410867,-0.03234535,12.3799997232854,9
-9.014177,0.8833331,-5.321294,-2.903575496958392,0.2354547096630216,-2.252505191334061,14.25858,48.89543,1.051184,0.1167434,0.4096093,-0.04307568,12.3999997228384,9
-8.882887,0.2833333,-5.200355,-3.085636922689795,-0.597266016130934,-2.0453036918663683,3.496762,50.55133,0.30742,0.02873416,0.4266995,-0.01060226,12.4199997223914,9
-8.83919,0.4833333,-5.157453,-3.36225504018359,-0.4071408446399868,-1.967053981532348,6.992294,50.5978,0.6181472,0.05743287,0.4262416,-0.02119157,12.4399997219443,9
-8.795506,0.6833333,-5.114559,-3.583997146895649,-0.1998012236537076,-1.84933671029877,10.48609,50.66385,0.9340855,0.0860643,0.425384,-0.03176031,12.4599997214973,9
-8.649109,0.2833333,-4.989641,-3.7432093757639713,-0.0275179253125988,-1.686527915082602,3.437925,51.03068,0.3142842,0.02825221,0.430483,-0.01044722,12.4799997210503,9
-8.605932,0.4833333,-4.947649,-3.954971570917863,-0.0760251683549542,-1.5186035409788423,6.874245,51.07721,0.6316664,0.05646677,0.4300389,-0.02088177,12.4999997206032,9
-8.562768,0.6833332,-4.90567,-4.108151386821013,-0.078569389759047,-1.3202286505292191,10.30928,51.14347,0.9546891,0.08462217,0.429205,-0.03129435,12.5199997201562,9
-8.519616,0.8833332,-4.863702,-4.195955442841136,-0.0884664401321713,-1.0859779113366317,13.74289,51.23046,1.285852,0.1126928,0.4279825,-0.04167561,12.5399997197092,9
-8.368988,0.2833332,-4.728328,-4.359610541745745,0.561256078018784,-0.9830054492023046,3.387773,49.06341,0.1825386,0.02755236,0.4149719,-0.01082451,12.5599997192621,9
-8.326432,0.4833332,-4.687189,-4.394987758234682,0.326352138213541,-0.705623402915017,6.774035,49.0977,0.3672782,0.05506878,0.4145688,-0.02163556,12.5799997188151,9
-8.283889,0.683333,-4.646061,-4.369792430176034,0.1128442868291527,-0.416074671085604,10.15921,49.14335,0.5556516,0.0825292,0.4138028,-0.03242463,12.5999997183681,9
-8.174977,0.2833334,-4.535109,-4.278144995875786,-0.1336287232747462,-0.108711991906544,3.331113,45.07025,0.03791141,0.0269728,0.3830789,-0.01083384,12.619999717921,9
-8.134316,0.4833334,-4.493582,-4.198467912851014,-0.1473586327421622,0.1616407706788685,6.660793,45.09159,0.07784425,0.05391377,0.3827377,-0.02164802,12.639999717474,9
-8.093667,0.6833333,-4.452066,-4.072203642556568,-0.1151251907441734,0.4211542590930683,9.989513,45.11546,0.119373,0.08080163,0.3820734,-0.0324408,12.6599997170269,9
-8.053029,0.8833333,-4.410563,-3.894728618294354,-0.0902444602807235,0.6757367045530791,13.31727,45.14207,0.1628074,0.1076137,0.3810869,-0.0432032,12.6799997165799,9
-8.012403,0.9766705,-4.369071,-3.6614707389452334,-0.1260321575366961,0.9313478230207766,16.64405,45.17171,0.2085244,0.1343274,0.3797794,-0.05392605,12.6999997161329,9
-7.97594,0.2833333,-4.282589,-3.386795216196232,-0.169172778719856,1.189633738548051,3.262712,35.30179,359.7953,0.02658709,0.3031415,-0.01033328,12.7199997156858,9
-7.940188,0.4833333,-4.238153,-3.0755413695197023,-0.1663502741592532,1.4331239735389745,6.524487,35.30209,359.5905,0.053145,0.3029194,-0.02065434,12.7399997152388,9
-7.904443,0.6833333,-4.19373,-2.7240060712204155,-0.1708804939394717,1.6681564431305658,9.785122,35.29066,359.3848,0.07965237,0.3024514,-0.03094942,12.7599997147918,9
-7.898873,0.2833334,-4.115568,-2.4719132709653566,0.4842087337109576,1.754786790189514,3.19872,26.85114,359.6875,0.0265147,0.2321647,-0.009131852,12.7799997143447,9
-7.86887,0.4833333,-4.068198,-2.0341370664342278,0.2546715028824831,1.9866104136882403,6.39652,26.84265,359.3742,0.05300113,0.2320414,-0.01825299,12.7999997138977,9
-7.838876,0.6833333,-4.020841,-1.5786620778901987,0.0465303738038532,2.190463713789104,9.593294,26.81639,359.0582,0.07943842,0.2317356,-0.02735626,12.8199997134507,9
-7.823871,0.2833333,-3.9238,-1.1022318320618334,-0.1945760201906112,2.373398194402789,3.342085,20.91558,359.6022,0.02804664,0.1815324,-0.008705384,12.8399997130036,9
-7.796646,0.4833333,-3.871726,-0.6528471487255025,-0.2029390862588388,2.4906914051558595,6.683227,20.89836,359.203,0.05606173,0.1814493,-0.01739969,12.8599997125566,9
-7.769431,0.6833333,-3.819664,-0.211936225575438,-0.1653390260605928,2.562679621632542,10.02326,20.85738,358.7995,0.08402119,0.1812098,-0.02607542,12.8799997121096,9
-7.742216,0.8833332,-3.767635,0.223371775999654,-0.1350915557807537,2.5967915441954568,13.36378,20.79219,358.391,0.111919,0.1808156,-0.03471097,12.8999997116625,9
-7.720602,0.2833333,-3.600984,0.6559069427513808,-0.1655126178485427,2.600479495137765,3.518835,19.16705,359.7242,0.02987373,0.1664791,-0.007483574,12.9199997112155,9
-7.69593,0.4833333,-3.544521,1.1534063869412456,-0.2032866017526993,2.6771557470608665,7.03729,19.15924,359.4481,0.05971678,0.1663938,-0.01495385,12.9399997107685,9
-7.67126,0.6833333,-3.488083,1.6215491151500592,-0.1950974444932799,2.705444521786972,10.55563,19.1343,359.1701,0.08950474,0.1661513,-0.02239863,12.9599997103214,9
-7.646597,0.8833332,-3.431661,2.0634128763294166,-0.1942609828258839,2.6937937038400253,14.0728,19.09144,358.887,0.1191994,0.1657512,-0.02982009,12.9799997098744,9
-7.614458,0.2833333,-3.288613,2.358721411935228,0.4661948349729414,2.5522027835821817,3.573735,20.82393,359.9059,0.03051995,0.1806618,-0.006442181,12.9999997094274,9
-7.590772,0.4833332,-3.2309,2.728908352313677,0.2420241958609814,2.4914371912784743,7.146882,20.83277,359.8129,0.06100601,0.1805487,-0.01287154,13.0199997089803,9
-7.567093,0.6833332,-3.173203,3.055051701670833,0.0392497662633047,2.3903495545691764,10.71901,20.83578,359.7195,0.091424,0.18026,-0.01928648,13.0399997085333,9
-7.54342,0.8833331,-3.115522,3.340113935853309,-0.1964899272047963,2.257961255156486,14.29013,20.83282,359.6251,0.1217446,0.1797961,-0.02568085,13.0599997080863,9
-7.456824,0.2833333,-2.918891,3.579036086716525,-0.1994862783722596,2.1236459416290048,3.560049,26.16359,0.1371057,0.03052681,0.2261963,-0.00586583,13.0799997076392,9
-7.431579,0.4833333,-2.862085,3.753691168197573,-0.1565193688508295,1.947212683361951,7.118994,26.19394,0.2755092,0.06101361,0.2260166,-0.01173119,13.0999997071922,9
-7.406341,0.6833333,-2.805296,3.867103074033909,-0.1209049143026819,1.7381629593503929,10.67684,26.2333,0.4171358,0.09143278,0.2256187,-0.01758359,13.1199997067451,9
-7.278759,0.2833333,-2.615417,3.842574438486783,0.5743284454563249,1.4221881771007243,3.618921,31.15466,0.1929228,0.03086782,0.2683532,-0.006858388,13.1399997062981,9
-7.24893,0.4833333,-2.559644,3.9194584353365993,0.3849352175410636,1.2630575676435607,7.236707,31.19057,0.3883643,0.06169575,0.268097,-0.01370865,13.1599997058511,9
-7.21912,0.6833333,-2.503885,3.9174069636593662,0.2169381879019206,1.0663105008922906,10.85403,31.23911,0.5864563,0.09245563,0.267572,-0.0205579,13.179999705404,9
-7.189322,0.8833333,-2.44814,3.840036645140063,0.0159758826314788,0.8421819119530499,14.47015,31.30112,0.7899709,0.1231133,0.2667793,-0.02738883,13.199999704957,9
-7.049514,0.2833333,-2.291681,3.831258872492516,-0.7845806676519229,0.7585078551314388,3.631111,34.61987,0.192657,0.03074715,0.2973398,-0.007822397,13.21999970451,9
-7.016255,0.4833333,-2.237644,3.741710496973914,-0.5627793075723313,0.5944909159464478,7.261081,34.65574,0.3878548,0.06145438,0.2970352,-0.01563524,13.2399997040629,9
-6.983005,0.6833333,-2.183624,3.577154614533833,-0.324251378200288,0.4054721521360866,10.88985,34.70453,0.5872341,0.09209075,0.2964319,-0.02343057,13.2599997036159,9
-6.949774,0.8833332,-2.129614,3.342608480550473,-0.1212675316282748,0.2019351822944096,14.51771,34.76665,0.7909487,0.1226242,0.2955293,-0.03121427,13.2799997031689,9
-6.771255,0.2833333,-1.928255,3.079306357669373,0.6003604025352389,-0.0461585651378379,3.572808,39.5597,0.2891481,0.03018772,0.3381675,-0.008176062,13.2999997027218,9
-6.735421,0.4833333,-1.877004,2.913384277371309,0.3253123943914829,-0.1350287924973259,7.144392,39.60429,0.5814948,0.06033692,0.3378131,-0.01634226,13.3199997022748,9
-6.699597,0.6833333,-1.825768,2.6884497436158243,0.0716603572340913,-0.2335036895156809,10.71466,39.6678,0.8794009,0.09041815,0.3371285,-0.02449054,13.3399997018278,9
-6.543238,0.2833334,-1.644863,2.4290403154032907,0.5053311591688037,-0.3907792441671911,3.507056,41.81423,0.3354338,0.02962933,0.3566017,-0.008186506,13.3599997013807,9
-6.506793,0.4833333,-1.595374,2.253711889983756,0.2944713040801771,-0.4134277616003256,7.012857,41.86253,0.6743137,0.05922181,0.3562366,-0.01636322,13.3799997009337,9
-6.470359,0.6833333,-1.545895,2.03332300758026,0.1050075400259313,-0.4422570600947949,10.51697,41.93227,1.018892,0.08874593,0.3555351,-0.02452446,13.3999997004867,9
-6.43394,0.8833333,-1.496426,1.7752155750571434,-0.117421380134296,-0.4673132574300813,14.01963,42.02439,1.371417,0.1181752,0.3544976,-0.03266784,13.4199997000396,9
-6.238234,0.2833333,-1.270957,1.6284761585357792,-0.1071070769964962,-0.4665819386965237,3.444717,43.00643,0.3378859,0.0290445,0.3663038,-0.008275056,13.4399996995926,9
-6.201556,0.4833332,-1.222986,1.447523956464793,-0.0508295259760871,-0.4814018555341309,6.887829,43.05428,0.6786262,0.05804926,0.3659419,-0.0165433,13.4599996991456,9
-6.164889,0.6833332,-1.175029,1.24085444308613,-0.0019047900730162,-0.5023852636434143,10.3296,43.12333,1.025298,0.08699277,0.3652465,-0.02479411,13.4799996986985,9
-6.128233,0.8833331,-1.127086,1.0170559652043618,-0.0136485859948705,-0.5202014486776981,13.76991,43.21466,1.380605,0.1158488,0.3642187,-0.03302003,13.4999996982515,9
-5.989681,0.2833333,-0.9722593,0.9519151901715528,-0.0327450775087457,-0.4308431729959059,3.394301,42.23299,0.2180151,0.02831285,0.3600542,-0.008895789,13.5199996978045,9
-5.952695,0.4833333,-0.9258562,0.8653957873450575,-0.0058782016147018,-0.3562869188600368,6.787109,42.2696,0.4379328,0.05658751,0.3597175,-0.0177847,13.5399996973574,9
-5.91572,0.6833333,-0.8794663,0.7673906352116071,0.0136358724909935,-0.287120675021465,10.17878,42.31972,0.6619394,0.08480433,0.3590644,-0.02665542,13.5599996969104,9
-5.765332,0.2833333,-0.7089588,0.6678817431206423,-0.0275185713765402,-0.2139806855278827,3.341265,41.08125,0.1234832,0.02767833,0.3506926,-0.00922061,13.5799996964633,9
-5.728656,0.4833333,-0.6635993,0.6144778878194148,-0.0760258165097179,-0.1703070204566608,6.681091,41.10921,0.248572,0.05532106,0.3503841,-0.01843106,13.5999996960163,9
-5.691989,0.6833333,-0.6182528,0.5563349113254419,-0.0785698132375821,-0.1372093303443717,10.0199,41.14479,0.3763445,0.0829089,0.3497777,-0.0276233,13.6199996955693,9
-5.655334,0.8833332,-0.5729191,0.5036236337810207,-0.0884666245600782,-0.1054735307183174,13.35767,41.18842,0.5077646,0.1104185,0.3488742,-0.03678939,13.6399996951222,9
-5.465331,0.2833333,-0.358406,0.343732366969478,0.5612559212942636,-0.2257215225885422,3.285785,39.3447,359.9711,0.02691171,0.3365093,-0.009888883,13.6599996946752,9
-5.428598,0.4833333,-0.3143977,0.345911456311998,0.3263520112832339,-0.1735800463464187,6.570607,39.35925,359.943,0.05379329,0.3362338,-0.01976687,13.6799996942282,9
-5.391877,0.6833333,-0.2703978,0.3458690657708452,0.1128441917838775,-0.1336118214193229,9.854094,39.3722,359.915,0.08061851,0.3356819,-0.02962797,13.6999996937811,9
-5.223691,0.2833333,-0.0787404,0.3535915788689423,-0.1336289043921864,-0.0965367421510803,3.231431,37.18878,359.8634,0.02634411,0.3187714,-0.01011979,13.7199996933341,9
-5.187726,0.4833333,-0.03526383,0.3807892469056297,-0.147358671596601,-0.0257264904510141,6.461931,37.19416,359.727,0.05265947,0.3185304,-0.02022853,13.7399996928871,9
-5.151771,0.6833333,0.0082004,0.4004260528616705,-0.1151251919638187,0.0298754128763205,9.691485,37.19178,359.5898,0.07892522,0.318036,-0.03031813,13.75999969244,9
-5.115824,0.8833332,0.05165367,0.4222798077162548,-0.0902444217747548,0.0799925881934309,12.91976,37.18145,359.4511,0.1051182,0.3172889,-0.0403787,13.779999691993,9
-5.079887,0.9766705,0.09509438,0.4561901375956432,-0.1260323039813405,0.134310506205304,16.14707,37.16284,359.3098,0.1312202,0.3162898,-0.05040432,13.799999691546,9
-4.906894,0.2833334,0.2894118,0.5135656143465526,-0.1691728823026534,0.2224219140252958,3.33933,36.20086,359.7969,0.02714468,0.3106002,-0.01073632,13.8199996910989,9
-4.869611,0.4833333,0.3343587,0.5575651473963035,-0.1663502137867732,0.2924927340455725,6.677747,36.19991,359.5934,0.05425866,0.3103428,-0.02146052,13.8399996906519,9
-4.832337,0.6833333,0.3792934,0.5980030151413493,-0.1708802547146082,0.3547693826846689,10.0152,36.18693,359.3883,0.08131885,0.3098211,-0.03216343,13.8599996902049,9
-4.678348,0.2833333,0.5515504,0.5000112015798894,0.4842089271119755,0.263793523051957,3.528119,38.12303,359.833,0.02862003,0.3264704,-0.01143047,13.8799996897578,9
-4.638021,0.4833333,0.5982048,0.5115794852068061,0.2546716386987835,0.2942959078258553,7.055385,38.12436,359.6656,0.05720544,0.3261436,-0.02284833,13.8999996893108,9
-4.597716,0.6833333,0.6448402,0.5164995234688048,0.0465304397518592,0.315884626395976,10.58305,38.11515,359.4963,0.0857386,0.3255067,-0.0342494,13.9199996888638,9
-4.43098,0.2833333,0.8317529,0.5246748911485146,-0.1945760369171874,0.3389307682721361,3.565306,39.79156,359.8987,0.02895058,0.3401714,-0.01141758,13.9399996884167,9
-4.389807,0.4833333,0.8784273,0.3547936315328823,0.4373748884457088,0.1624937058244784,7.129895,39.79884,359.7973,0.05786631,0.3398143,-0.02282404,13.9599996879697,9
-4.348645,0.6833332,0.9250885,0.3404287578620368,0.184699356375112,0.1582436903175126,10.69347,39.79977,359.6955,0.0867178,0.3391283,-0.03420518,13.9799996875226,9
-4.307495,0.8833332,0.9717363,0.3164930523751494,-0.0465800729002275,0.1417718171153632,14.25603,39.79417,359.5923,0.1154772,0.3381144,-0.04554998,13.9999996870756,9
-4.101351,0.2833333,1.204594,0.292950485856505,-0.3108246459979769,0.1236027065160803,3.576766,41.4834,0.06424783,0.02938385,0.3539667,-0.01052845,14.0199996866286,9
-4.060863,0.4833333,1.252104,0.290924896810997,-0.3423259963203983,0.1350822147721775,7.152596,41.50626,0.1305175,0.0587331,0.3535854,-0.02104001,14.0399996861815,9
-4.020387,0.6833332,1.2996,0.2778206824111258,-0.3278642188082329,0.1342772320649841,10.72738,41.53353,0.1988735,0.0880168,0.3528599,-0.03152808,14.0599996857345,9
-3.979923,0.8833332,1.347083,0.2638263703175851,-0.3207551496943737,0.1321413164505074,14.3011,41.56556,0.2699177,0.1172065,0.3517913,-0.04198246,14.0799996852875,9
-3.833509,0.2833333,1.510813,0.1229751357743944,0.345973263267335,-0.0093978420111717,3.596847,42.41493,0.09455965,0.02955623,0.3615436,-0.01058384,14.0999996848404,9
-3.792396,0.4833333,1.558267,0.1628163448269235,0.1280751008383547,0.050174383982239,7.192619,42.44058,0.1908869,0.05907479,0.3611441,-0.02115422,14.1199996843934,9
-3.751297,0.6833332,1.605707,0.1948890296337562,-0.0684269705562442,0.1000996597180376,10.78754,42.47258,0.2895479,0.08852787,0.3603887,-0.03170337,14.1399996839464,9
-3.71021,0.8833331,1.653134,0.2297774816763782,-0.2978943047758557,0.1518846180670885,14.38139,42.5114,0.3916416,0.1178854,0.3592787,-0.0422183,14.1599996834993,9
-3.523199,0.2833333,1.862388,0.0939666757864956,0.3456956712145487,0.0139112297857577,3.636962,43.13272,0.1186977,0.02989213,0.3673627,-0.01070159,14.1799996830523,9
-3.481323,0.4833333,1.910126,0.0742758760993813,0.104659190816871,0.0057639031801857,7.272827,43.16073,0.2393743,0.05974552,0.3669414,-0.02138937,14.1999996826053,9
-3.439457,0.6833333,1.957851,0.0523319188357569,-0.1149811995918363,-0.0041522611026945,10.90759,43.19679,0.363047,0.08953017,0.3661503,-0.0320526,14.2199996821582,9
-3.272284,0.2833333,2.144534,-0.1192161752930796,0.352701248046151,-0.181683961306756,3.589814,44.85704,0.1899632,0.02958473,0.3812949,-0.01041866,14.2399996817112,9
-3.230461,0.4833333,2.19127,-0.2893741072612688,0.81616711172109,-0.3579885701575938,7.178479,44.89159,0.3824037,0.05913165,0.3808651,-0.02082407,14.2599996812642,9
-3.188651,0.6833333,2.237992,-0.2894678048274046,0.3704392421117022,-0.3457788119698803,10.76595,44.93871,0.5788867,0.08861174,0.380061,-0.03120605,14.2799996808171,9
-3.146852,0.8833332,2.284704,-0.28616663936851,-0.079504985216389,-0.3302989223566053,14.35195,44.99909,0.7808083,0.1179932,0.3788834,-0.04155589,14.2999996803701,9
-2.940184,0.2833333,2.515857,-0.2689283013627994,-0.4610259959719307,-0.300181311887199,3.520456,46.10669,0.2696707,0.02918492,0.3913356,-0.00986399,14.3199996799231,9
-2.899199,0.4833333,2.561836,-0.25399845017707,-0.5106831223638524,-0.273552221150787,7.039716,46.14821,0.54233,0.05833356,0.3909103,-0.01971567,14.339999679476,9
-2.858224,0.6833333,2.607802,-0.2380122378402067,-0.5148647748797199,-0.2485035047411843,10.55761,46.20712,0.8201537,0.08741771,0.3901144,-0.02954504,14.359999679029,9
-2.817259,0.8833332,2.653757,-0.2110100355950535,-0.5268870165194812,-0.2141433402980892,14.07382,46.28436,1.105343,0.1164079,0.388949,-0.03934262,14.379999678582,9
-2.672413,0.2833333,2.816596,-0.3031253185442569,0.1202222049630216,-0.3124237398890166,3.455138,46.00041,0.2924897,0.02874739,0.3904847,-0.009431037,14.3999996781349,9
-2.632609,0.4833333,2.862151,-0.2060710921222206,-0.1177830296707471,-0.2013698182913872,6.908628,46.04348,0.5882721,0.05745719,0.39008,-0.01884714,14.4199996776879,9
-2.592817,0.6833333,2.907692,-0.1093928509564121,-0.3348800539957203,-0.0922553058972077,10.36086,46.10503,0.8893257,0.08610626,0.3893187,-0.02824331,14.4399996772408,9
-2.553035,0.8833332,2.953221,-0.1551007032991254,0.1348578800458273,-0.1425436471263363,13.81174,46.18601,1.198016,0.1146685,0.3882017,-0.03761099,14.4599996767938,9
-2.36821,0.2833333,3.16051,-0.200196139209373,0.5998913504441519,-0.1923743251450425,3.402819,44.35867,0.1994302,0.02815058,0.3772919,-0.009597605,14.4799996763468,9
-2.329201,0.4833333,3.205396,-0.1247382352059984,0.1552433279259963,-0.1063793382388595,6.804131,44.3929,0.401239,0.05626485,0.376923,-0.01918215,14.4999996758997,9
-2.290203,0.6833333,3.250269,-0.0448045940572639,-0.2941090381873649,-0.0137074400166143,10.20433,44.43959,0.6068513,0.08432138,0.376221,-0.02874701,14.5199996754527,9
-2.126138,0.2833334,3.4349,-0.1488096321538151,0.1568114014253521,-0.127177915870261,3.343989,42.6833,0.1091718,0.02752342,0.3637474,-0.009731583,14.5399996750057,9
-2.087995,0.4833333,3.479084,-0.1233585897920513,-0.0372864699438069,-0.0985360056954895,6.686505,42.70923,0.220086,0.05501191,0.3634145,-0.01945,14.5599996745586,9
-2.049863,0.6833333,3.523256,-0.101858615056183,-0.2104760237624335,-0.0757772699806276,10.02801,42.74194,0.3334655,0.08244576,0.3627721,-0.02914902,14.5799996741116,9
-2.011743,0.8833332,3.567415,-0.0748743812465797,-0.4171188396115623,-0.0485631794097587,13.36849,42.7818,0.4501439,0.1098016,0.3618212,-0.03882049,14.5999996736646,9
-1.808192,0.2833333,3.795737,-0.1601657978393701,0.2488078695046018,-0.1461182838899013,3.286445,40.45668,359.9587,0.02678243,0.3456298,-0.01025316,14.6199996732175,9
-1.770445,0.4833333,3.838896,-0.0659726767390099,0.0296200045472967,-0.0454252078206058,6.571931,40.46935,359.918,0.05353495,0.3453359,-0.0204949,14.6399996727705,9
-1.732707,0.6833332,3.882046,0.0263252661449319,-0.1686595279623711,0.0517386437867557,9.856068,40.47973,359.8776,0.08023189,0.3447581,-0.03071699,14.6599996723235,9
-1.69498,0.8833331,3.925183,0.1262770961279902,-0.400392188080122,0.1559975005950482,13.13927,40.48783,359.8374,0.1068553,0.3438973,-0.04091092,14.6799996718764,9
-1.550929,0.2833333,4.087182,0.068243186735456,0.2404445844227898,0.083689756887952,3.230933,38.0331,359.8554,0.02624203,0.3257451,-0.01037804,14.6999996714294,9
-1.514225,0.4833333,4.130033,0.1198027289761232,-0.0038330965770428,0.1310224153504338,6.460938,38.03699,359.7109,0.0524555,0.3254889,-0.02074469,14.7199996709824,9
-1.477532,0.6833333,4.172873,0.1731393632146909,-0.2272025646545526,0.1789343002785237,9.689989,38.03264,359.5656,0.07861952,0.3249736,-0.03109167,14.7399996705353,9
-1.440846,0.8833332,4.215701,0.0870230902526446,0.2362629282479842,0.07101743745209,12.91776,38.01989,359.4186,0.1047116,0.3242003,-0.0414077,14.7599996700883,9
-1.255395,0.2833333,4.423969,0.0037774369753377,0.6950240668398566,-0.0335640549417251,3.339088,36.79932,359.7906,0.0270688,0.3155594,-0.01092968,14.7799996696413,9
-1.21756,0.4833333,4.468456,0.0784516127036533,0.2441035822744715,0.0384250945642108,6.677256,36.79703,359.5807,0.05410697,0.3152889,-0.02184696,14.7999996691942,9
-1.179736,0.6833333,4.512931,0.1546853805997472,-0.2115212560788722,0.1130768481538462,10.01445,36.7823,359.369,0.08109147,0.3147498,-0.03274256,14.8199996687472,9
-1.012851,0.2833333,4.699484,0.0439412512701848,0.2331268211491204,-0.0203236322125066,3.528053,38.58301,359.8288,0.02856121,0.3302609,-0.01157982,14.8399996683002,9
-0.9720957,0.4833333,4.745768,0.0572212292903927,0.032756364287129,-0.0135663147717757,7.055252,38.58316,359.6571,0.05708789,0.3299221,-0.0231468,14.8599996678531,9
-0.931361,0.6833333,4.792032,0.0612885455550369,-0.1467058786071275,-0.01482672227299,10.58284,38.5725,359.4835,0.08556265,0.3292694,-0.03469595,14.8799996674061,9
-0.8906378,0.8833332,4.838283,0.0655542343762493,-0.3596211546740144,-0.0135205580076016,14.10938,38.55067,359.3068,0.1139481,0.3283042,-0.04620889,14.899999666959,9
-0.6831284,0.2833333,5.069983,-0.0452923010536296,0.3000329895961823,-0.1393917564144322,3.572328,40.60146,359.9328,0.0290298,0.3467961,-0.01136421,14.919999666512,9
-0.6416721,0.4833333,5.116553,0.0191453590815111,0.0745726814090448,-0.0687903114823615,7.143995,40.61113,359.8658,0.05802542,0.3464208,-0.02271654,14.939999666065,9
-0.6002277,0.6833333,5.16311,0.0774812429764026,-0.1299794128103594,-0.003436251716244,10.71466,40.61665,359.7989,0.08695644,0.3457089,-0.03404357,14.9599996656179,9
-0.5587951,0.8833332,5.209654,0.1396613237953463,-0.3679845402023918,0.0677065008854658,14.2843,40.61793,359.7314,0.1157948,0.3446616,-0.04533431,14.9799996651709,9
-0.4134323,0.2833333,5.373457,0.0414974615508485,0.2665797527426593,-0.0385305251296284,3.570595,41.74206,0.06633081,0.02931619,0.3560757,-0.01055859,14.9999996647239,9
-0.3728303,0.4833333,5.420726,0.0537974583187568,0.0160295932303744,-0.0216422028921927,7.14015,41.7643,0.1346578,0.05859714,0.3556866,-0.02109987,15.0199996642768,9
-0.3322399,0.6833332,5.467981,0.0663490930713186,-0.2136124590332039,-0.0030206259595741,10.70867,41.79107,0.2050487,0.08781297,0.3549524,-0.03161767,15.0399996638298,9
-0.1719765,0.2833334,5.647171,-0.0610837463431528,0.2435803434869383,-0.1395218377650851,3.595258,42.61703,0.09410996,0.02952318,0.3631867,-0.01063457,15.0599996633828,9
-0.1307086,0.4833334,5.694455,-0.1847563536241179,0.6960688045027005,-0.2709825459961612,7.189443,42.64185,0.189924,0.05900874,0.3627788,-0.02125571,15.0799996629357,9
-0.08945476,0.6833333,5.741724,-0.1455553443757506,0.2388757741700971,-0.2223195045822397,10.78282,42.67299,0.288036,0.08842929,0.3620138,-0.03185543,15.0999996624887,9
-0.04821269,0.8833333,5.78898,-0.1021860921843402,-0.2230214919932673,-0.1688238874675089,14.37511,42.71088,0.3895118,0.1177544,0.3608928,-0.04242081,15.1199996620417,9
0.1528651,0.2833333,6.013515,-0.2430944613172236,0.2153541553338821,-0.3203585672320459,3.636541,43.31038,0.1180975,0.02987016,0.3688037,-0.01075143,15.1399996615946,9
0.1948925,0.4833333,6.06111,-0.2548309041759673,0.0087112664802267,-0.3270405279699302,7.271986,43.33755,0.2381203,0.05970161,0.3683739,-0.02148898,15.1599996611476,9
0.2369083,0.6833332,6.108693,-0.2715584491068874,-0.177023290448498,-0.3376796085659306,10.90633,43.37273,0.3610848,0.0894644,0.3675731,-0.03220182,15.1799996607006,9
0.2789093,0.8833332,6.15626,-0.2831712648079487,-0.3962108687889794,-0.3411435645402374,14.53996,43.4164,0.4879283,0.1191315,0.3664023,-0.04288176,15.1999996602535,9
0.4183612,0.2833333,6.310741,-0.4072166238892034,0.2571708654431813,-0.4690047217752804,3.589439,45.02319,0.1894736,0.02956494,0.3826342,-0.01046423,15.2199996598065,9
0.4603206,0.4833333,6.357345,-0.3473214244248357,0.025438146172598,-0.3922534537789985,7.177727,45.05689,0.381363,0.05909204,0.3821962,-0.02091521,15.2399996593595,9
0.5022681,0.6833333,6.403935,-0.2853601073377985,-0.185386360175663,-0.3128336977779602,10.76483,45.10312,0.5772429,0.08855237,0.3813825,-0.03134259,15.2599996589124,9
0.5442036,0.8833333,6.450515,-0.210959026217429,-0.4296640074609945,-0.2194704044200328,14.35047,45.16256,0.778498,0.1179143,0.3801942,-0.04173771,15.2799996584654,9
0.7233849,0.2833334,6.650201,-0.2923379996152402,0.1986277773516305,-0.2995053394390563,3.520452,46.22545,0.2686461,0.02917115,0.3922889,-0.009902438,15.2999996580184,9
0.7644784,0.4833333,6.696082,-0.251305862821511,-0.0581946656168526,-0.2481502917596323,7.039719,46.26608,0.5402242,0.05830606,0.3918559,-0.01979254,15.3199996575713,9
0.8055611,0.6833333,6.74195,-0.1997781989054656,-0.2941090162337351,-0.1874111209099158,10.55762,46.32404,0.8169183,0.08737659,0.3910514,-0.02966011,15.3399996571243,9
0.9642857,0.2833333,6.919703,-0.2830804608349435,0.1568118070447836,-0.277305732165189,3.455529,46.08221,0.291542,0.02874055,0.3911416,-0.009460499,15.3599996566772,9
1.004171,0.4833333,6.965194,-0.3580369876924596,0.6030280364393045,-0.3585623918683058,6.909404,46.12443,0.5863362,0.05744347,0.3907297,-0.01890589,15.3799996562302,9
1.044045,0.6833333,7.010671,-0.2668065389759881,0.1395625364802456,-0.2572306246186304,10.36203,46.18506,0.8863425,0.08608565,0.3899605,-0.02833126,15.3999996557832,9
1.083908,0.8833332,7.056135,-0.1671261843465057,-0.328607197218756,-0.1474254291006751,13.81331,46.26505,1.193913,0.114641,0.388835,-0.03772811,15.4199996553361,9
1.282394,0.2833333,7.278191,-0.2500060550553442,0.1034959846635801,-0.2414264196275635,3.402894,44.46799,0.199663,0.02814279,0.3781748,-0.009622825,15.4399996548891,9
1.321487,0.4833333,7.323006,-0.2039466720656038,-0.1094192608250371,-0.1909472694769345,6.804276,44.50149,0.4016521,0.05624919,0.3777985,-0.01923261,15.4599996544421,9
1.360569,0.6833333,7.367808,-0.1627084377385252,-0.3014263051522047,-0.1441848016451548,10.20454,44.54743,0.6074055,0.08429784,0.3770883,-0.02882261,15.479999653995,9
1.39964,0.8833332,7.412597,-0.1172999441321178,-0.5268863949355804,-0.0911826585528192,13.60366,44.60648,0.8184961,0.1122641,0.3760451,-0.03838439,15.499999653548,9
1.53795,0.2833333,7.566942,-0.1835119424960787,0.1202229238572556,-0.1627615409040643,3.343663,42.80659,0.109481,0.02751127,0.3647489,-0.009757639,15.519999653101,9
1.57618,0.4833332,7.611044,-0.0697809347461277,-0.1177823277644407,-0.0367163869934827,6.685866,42.83177,0.2206677,0.05498775,0.3644084,-0.01950206,15.5399996526539,9
1.614399,0.6833332,7.655133,0.0416315108619835,-0.3348792432795605,0.0852014280279984,10.02705,42.86373,0.3342648,0.08240952,0.3637577,-0.02922712,15.5599996522069,9
1.652607,0.8833331,7.699209,0.0163287185607066,0.1348586857962839,0.0547500605433732,13.36722,42.90285,0.45112,0.1097533,0.3627977,-0.03892453,15.5799996517599,9
1.831113,0.2833333,7.897685,-0.0101380013145093,0.5998921308433938,0.0221515854493805,3.28638,40.55961,359.9584,0.02677197,0.3464723,-0.01027896,15.5999996513128,9
1.868941,0.4833333,7.940772,0.0763782694346919,0.1552439558694811,0.111940374985469,6.571803,40.57149,359.9175,0.05351401,0.3461709,-0.02054653,15.6199996508658,9
1.906759,0.6833333,7.98385,0.1669301281316912,-0.2941085702788654,0.2048312367002598,9.855871,40.58104,359.8768,0.08020053,0.3455851,-0.03079429,15.6399996504188,9
2.06373,0.2833333,8.159877,0.0786448032615085,0.1568119279639785,0.0980098111778886,3.231235,38.13575,359.8554,0.026235,0.3265916,-0.01040303,15.6599996499717,9
2.100515,0.4833333,8.202665,-0.0106708143934239,0.6030279683133595,-0.0106476320606887,6.461532,38.13887,359.7108,0.05244134,0.3263279,-0.02079467,15.6799996495247,9
2.13729,0.6833333,8.245441,0.0545062442384254,0.1395624147769913,0.0497283761073976,9.690869,38.13375,359.5652,0.07859824,0.3258046,-0.03116659,15.6999996490777,9
2.174057,0.8833332,8.288206,0.1170260282042274,-0.328607463798538,0.1059682639347787,12.91894,38.1202,359.418,0.1046833,0.3250225,-0.04150742,15.7199996486306,9
2.372122,0.2833333,8.510235,0.0687219721841092,0.1034955881043774,0.0396896366638408,3.339044,36.90559,359.7906,0.02705837,0.3164389,-0.0109544,15.7399996481836,9
2.410038,0.4833333,8.554651,0.1480210595403601,-0.1094196662702341,0.1153287015785657,6.677154,36.90255,359.5807,0.05408604,0.3161609,-0.02189635,15.7599996477365,9
2.447944,0.6833332,8.599055,0.2211975280377354,-0.3014268251570125,0.1851633829111652,10.01429,36.88706,359.3689,0.08106006,0.3156137,-0.0328166,15.7799996472895,9
2.485836,0.8833331,8.643441,0.2973120218758756,-0.5268870289772938,0.2595084625975676,13.35138,36.85873,359.1537,0.1079655,0.3147978,-0.04370821,15.7999996468425,9
2.627922,0.2833334,8.800078,0.2206487103102836,0.1202221624496452,0.1648532347589384,3.527863,38.69258,359.8288,0.02854871,0.3311629,-0.01160613,15.8199996463954,9
2.668763,0.4833333,8.846281,0.3160535137991416,-0.1177830036225924,0.2632019838376269,7.054868,38.69198,359.6572,0.0570629,0.3308164,-0.0231994,15.8399996459484,9
2.709584,0.6833335,8.892465,0.4013008801476889,-0.3348798602462318,0.3530284003258046,10.58225,38.68054,359.4835,0.08552507,0.3301554,-0.0347749,15.8599996455014,9
2.750393,0.8833333,8.938636,0.3445953196941529,0.1348581149148111,0.2865545887401897,14.10861,38.65794,359.3067,0.1138982,0.3291811,-0.04631405,15.8799996450543,9
2.931037,0.2833333,9.138794,0.2817296454128,0.5998916204215192,0.2148256454937822,3.572241,40.73043,359.933,0.02901701,0.3478509,-0.01139465,15.8999996446073,9
2.972594,0.4833333,9.185272,0.3274694243432092,0.1552434007562892,0.2634294356309716,7.143822,40.73936,359.8663,0.05799986,0.3474678,-0.02277742,15.9199996441603,9
3.014139,0.6833333,9.231737,0.3717345910775016,-0.2941091551862677,0.3118763906103279,10.71438,40.74414,359.7995,0.08691803,0.3467472,-0.03413481,15.9399996437132,9
3.173776,0.2833334,9.410666,0.2336658352732481,0.1568113281594709,0.1587566536008182,3.570895,41.87349,0.06641231,0.02930677,0.3571466,-0.01059248,15.9599996432662,9
3.214489,0.4833334,9.457846,0.0922031869337711,0.6030272484608319,0.0029758571022089,7.140755,41.89499,0.1347798,0.05857833,0.3567497,-0.02116758,15.9799996428192,9
3.255191,0.6833334,9.505013,0.1051439382705607,0.1395616826408857,0.0186190078312797,10.70958,41.92102,0.205163,0.08778478,0.3560067,-0.03171913,15.9999996423721,9
3.295881,0.8833333,9.552166,0.1135383578671103,-0.3286081137827694,0.0307611924263966,14.27734,41.95191,0.2781728,0.1168978,0.3549185,-0.04223693,16.0199996419251,9
3.497002,0.2833333,9.77603,0.0079469166461709,0.1034950085111475,-0.0814787023704468,3.607732,43.01444,0.1088027,0.02963432,0.3664088,-0.01065755,16.0399996414781,9
3.53856,0.4833333,9.823361,0.0325213568721567,-0.1094202801006724,-0.0501327837417964,7.21438,43.03992,0.2193925,0.05923069,0.3659859,-0.02130149,16.059999641031,9
3.580104,0.6833334,9.870678,0.052814860340276,-0.3014273377568284,-0.0231068288025042,10.8203,43.0727,0.3324444,0.08876207,0.3652002,-0.0319244,16.079999640584,9
3.621635,0.8833333,9.917982,0.078797362775175,-0.5268875177940124,0.0105735803712629,14.42515,43.11325,0.4492004,0.1181973,0.3640527,-0.04251268,16.099999640137,9
3.762073,0.2833333,10.07309,-0.0479990495488609,0.1202216332974912,-0.1234902288970172,3.632769,43.45684,0.1131798,0.02980995,0.3699923,-0.01081726,16.1199996396899,9
3.804238,0.4833333,10.12047,0.0019872747340867,-0.1177836510804133,-0.0605249417662516,7.264444,43.48277,0.2281924,0.0595813,0.3695558,-0.0216206,16.1399996392429,9
3.846391,0.6833333,10.16783,0.0463556148131925,-0.3348808117443929,-0.0017668968937769,10.89501,43.51635,0.3460039,0.08928417,0.3687479,-0.03239916,16.1599996387959,9
3.888529,0.8833332,10.21518,-0.0476882994143617,0.1348570183658883,-0.0955927506024867,14.52475,43.55807,0.4674916,0.1188906,0.3675696,-0.04314443,16.1799996383488,9
4.068806,0.2833332,10.41414,-0.1421199661304237,0.599890416195271,-0.1892532124650561,3.580151,45.60529,0.2151338,0.02952345,0.3873143,-0.01037655,16.1999996379018,9
4.110806,0.4833332,10.46052,-0.1160024175144878,0.1552425515341613,-0.1508561305554394,7.159134,45.64061,0.4328192,0.0590092,0.3868655,-0.02073999,16.2199996374547,9
4.152795,0.6833332,10.50689,-0.0823613480243148,-0.2941096663922026,-0.1033434444941239,10.7369,45.69009,0.6548226,0.0884285,0.3860382,-0.03108017,16.2399996370077,9
4.312901,0.2833334,10.68423,-0.2247274596358863,0.1568111385045082,-0.2510304214619481,3.514316,46.3655,0.2665163,0.02910251,0.3934134,-0.009934084,16.2599996365607,9
4.354055,0.4833333,10.72991,-0.3630784650598793,0.6030273644143248,-0.3946386241044575,7.027452,46.40515,0.535888,0.05816894,0.3929748,-0.01985588,16.2799996361136,9
4.395199,0.6833334,10.77558,-0.334349081869763,0.1395622088310426,-0.358725807018299,10.53897,46.46194,0.8102593,0.08716914,0.3921652,-0.0297544,16.2999996356666,9
4.436333,0.8833333,10.82123,-0.2987229835349616,-0.3286072851203905,-0.3177803095160243,14.0491,46.53679,1.091824,0.1160782,0.3909854,-0.03962176,16.3199996352196,9
4.635857,0.2833334,11.04329,-0.3717692238017838,0.1034959123559935,-0.3961560868226055,3.449351,46.16559,0.2933904,0.02869041,0.3918111,-0.009445444,16.3399996347725,9
4.675707,0.4833335,11.08867,-0.3086876591004621,-0.109419315447757,-0.3257711865635482,6.89705,46.20719,0.5900565,0.05734355,0.3913942,-0.0188753,16.3599996343255,9
4.715547,0.6833334,11.13404,-0.2438179774107025,-0.3014264605699592,-0.2539543774016071,10.34353,46.26727,0.8918983,0.08593644,0.3906206,-0.02828533,16.3799996338785,9
4.755375,0.8833333,11.17939,-0.1679747036716286,-0.5268866639546543,-0.1704735066789116,13.78865,46.34678,1.201277,0.1144429,0.3894912,-0.03766691,16.3999996334314,9
4.894313,0.2833333,11.33311,-0.2398490879682029,0.120222767481209,-0.2499767282868674,3.396348,44.65469,0.1924556,0.02805037,0.3796842,-0.009705124,16.4199996329844,9
4.933564,0.4833332,11.37762,-0.1325567997902563,-0.1177822653011382,-0.1308376860227014,6.791193,44.68674,0.3870189,0.05606418,0.3793018,-0.01939808,16.4399996325374,9
4.972803,0.6833333,11.42212,-0.0290700120418092,-0.3348792020729477,-0.0140008929600927,10.18493,44.73076,0.5851703,0.0840205,0.3785855,-0.02907123,16.4599996320903,9
5.012031,0.8833331,11.46662,-0.0618638491702894,0.134858705223504,-0.0482414228440468,13.57753,44.78737,0.7884426,0.1118951,0.3775364,-0.038716,16.4799996316433,9
5.190815,0.2833333,11.66509,-0.0952365817176383,0.5998920340557684,-0.0835078684644141,3.337124,42.43823,0.07751121,0.0273884,0.3617637,-0.009908476,16.4999996311963,9
5.229095,0.4833333,11.70897,0.0620228997236846,0.1552438608242065,0.09487623118412,6.672772,42.45985,0.1565215,0.05474212,0.3614233,-0.01980309,16.5199996307492,9
5.267364,0.6833333,11.75285,0.2185430604730003,-0.2941086661953158,0.2760116423877381,10.00744,42.48629,0.2374616,0.08204171,0.3607765,-0.02967814,16.5399996303022,9
5.425621,0.2833333,11.92807,0.1909238766601255,0.1568118413691091,0.2570745160132208,3.2812,40.76369,359.9565,0.02670525,0.3481425,-0.01032706,16.5599996298552,9
5.46357,0.4833333,11.97093,0.1577120406920098,0.6030281141481815,0.2349061273224268,6.561436,40.77468,359.9135,0.05338068,0.3478344,-0.02064263,16.5799996294081,9
5.501509,0.6833332,12.01378,0.3010684778967656,0.1395624297612144,0.3946227983158969,9.840346,40.78322,359.8706,0.08000095,0.3472414,-0.03093872,16.5999996289611,9
5.539437,0.8833331,12.05662,0.4687292498978515,-0.3286073837374854,0.5697789042996284,13.11832,40.78932,359.8278,0.1065481,0.3463642,-0.04120649,16.6199996285141,9
5.736798,0.2833332,12.27624,0.5470339200968031,0.1034953955745347,0.6376453077550366,3.224211,37.45902,359.8077,0.0261043,0.321018,-0.01062234,16.639999628067,9
5.773661,0.4833331,12.31886,0.6455165183610578,0.530893656794849,0.7194703861172531,6.447473,37.45739,359.615,0.05218012,0.3207563,-0.021233,16.65999962762,9
5.810513,0.6833331,12.36147,0.9938275559836276,0.0486110083508478,1.0444173663606602,9.669753,37.44474,359.4208,0.07820684,0.3202401,-0.03182352,16.6799996271729,9
5.847359,0.883333,12.40406,1.3644195190387896,-0.4383760006762802,1.3573326166407345,12.89075,37.42082,359.224,0.1041625,0.3194702,-0.04238231,16.6999996267259,9
5.988361,0.2833334,12.56031,1.5954379966765302,-0.0250901943072839,1.4855255890401224,3.372932,37.18378,359.7956,0.02732585,0.3187363,-0.01107276,16.7199996262789,9
6.026786,0.4833333,12.60507,2.0582784730702315,-0.2568226759211218,1.848601649653016,6.744956,37.18026,359.5908,0.05462055,0.318441,-0.02213281,16.7399996258318,9
6.0652,0.6833334,12.64982,2.5189277298701844,-0.4676470437524375,2.1820196119031863,10.11599,37.16446,359.3839,0.08186008,0.3178692,-0.03317058,16.7599996253848,9
6.103598,0.8833332,12.69455,2.839729411065119,0.008363116770413,2.338193451540633,13.4873,37.13597,359.1737,0.1090316,0.3170211,-0.04417965,16.7799996249378,9
6.286224,0.2833334,12.89452,3.1515852863615086,0.479668634971894,2.466800685435569,3.533326,39.46642,359.8481,0.02857146,0.3375186,-0.01165609,16.7999996244907,9
6.32748,0.4833333,12.94045,3.7830380459849176,0.0412931320856835,2.941970059426069,7.066213,39.46682,359.6954,0.05711037,0.3371554,-0.02330426,16.8199996240437,9
6.36872,0.6833333,12.98636,4.383754766635433,-0.4017867371334178,3.3734328332147747,10.59882,39.45761,359.5413,0.08559258,0.336471,-0.03492977,16.8399996235967,9
6.530032,0.2833333,13.16404,4.769132085051857,0.0554064023575083,3.5596989739235667,3.577045,40.98691,359.9386,0.02904777,0.3499454,-0.01142852,16.8599996231496,9
6.571776,0.4833334,13.21046,5.114816665415171,0.5078947209360338,3.6988567560494263,7.153417,40.99565,359.8776,0.05806159,0.349552,-0.02284396,16.8799996227026,9
6.613509,0.6833333,13.25687,5.6132885116282365,0.0507017474912078,4.086305195512278,10.7288,41.0006,359.8166,0.08701076,0.3488182,-0.03423397,16.8999996222556,9
6.65523,0.8833333,13.30326,6.051320512527252,-0.4111952763110631,4.427332276881787,14.30314,41.00168,359.755,0.1158669,0.347745,-0.04558735,16.9199996218085,9
6.856328,0.2833334,13.52603,6.31840929404852,0.0271808927632497,4.601473515380045,3.563225,42.35355,0.07423936,0.02922442,0.3610531,-0.01062733,16.9399996213615,9
6.897245,0.4833333,13.57286,6.529303670086266,0.4608520141581109,4.734722277874864,7.12533,42.37503,0.1503271,0.05841281,0.3606466,-0.02123796,16.9599996209145,9
6.938149,0.6833333,13.61968,6.430304583949607,-0.0151584617303625,5.034151039219694,10.68639,42.40153,0.2285069,0.08753656,0.3598918,-0.03182497,16.9799996204674,9
6.979043,0.8833331,13.66648,6.322044964862435,-0.4958733732973175,5.284822881251113,14.24641,42.43338,0.3094567,0.1165676,0.3587894,-0.04237813,16.9999996200204,9
7.190851,0.2833333,13.90555,6.045331915346511,-0.0763155461316147,5.313476757896067,4.084338,39.54317,0.05025493,0.03368254,0.3380418,-0.01164186,17.0199996195734,9
7.235584,0.4833332,13.96118,5.758171880360019,0.3385370146024091,5.29620071540355,8.167634,39.56305,0.1020977,0.06731401,0.3375154,-0.02326558,17.0399996191263,9
7.280305,0.6833332,14.01678,5.453172888310332,-0.1562904994801538,5.176211875164908,12.24987,39.58695,0.1560705,0.1008515,0.3365607,-0.03485658,17.0599996186793,9
7.325014,0.8833333,14.07238,5.035023820555475,0.064465294884038,4.849906714493942,16.33102,39.61529,0.2128449,0.1342526,0.3351792,-0.04639993,17.0799996182323,9
7.532628,0.2833332,14.29347,4.637763358170165,0.3082199361599994,4.473540249184982,6.125703,36.0963,359.0576,0.04825633,0.309781,-0.02436164,17.0999996177852,9
7.60931,0.4833333,14.37044,4.2427968148038655,-0.1176103045284436,3.9827792771618,12.24887,35.95665,358.0948,0.09636268,0.3085403,-0.04864875,17.1199996173382,9
7.685981,0.6833329,14.44739,3.9033311948838714,-0.5481447964674591,3.4297534659664795,18.36773,35.70467,357.0878,0.144179,0.3063978,-0.07279044,17.1399996168911,9
7.76264,0.8833327,14.52433,3.43248390502446,-0.0784064965320937,2.623336594428263,24.48009,35.32405,356.0082,0.1915653,0.3033604,-0.09671605,17.1599996164441,9
8.04993,0.2833334,14.80994,3.0051910558092345,0.3866270329319468,1.7722878991881554,6.229023,36.96443,357.9414,0.04583479,0.3174166,-0.034233,17.1799996159971,9
8.14454,0.4833333,14.8753,2.626438667480876,0.6819013230543851,0.8964704314172511,12.45481,36.63461,355.8252,0.09153041,0.3159683,-0.06844305,17.19999961555,9
8.239112,0.6833331,14.94064,2.063014570410923,-0.0696792864027613,-0.1211513633094583,18.66482,36.05236,353.6051,0.1369304,0.3134813,-0.1024404,17.219999615103,9
8.540051,0.2833333,15.23837,1.441066686758118,0.1082493559395206,-1.3181536475323377,6.80635,39.54076,357.9982,0.04995581,0.3385792,-0.03648594,17.239999614656,9
8.642836,0.4833332,15.30778,0.87735800096155,0.3096649022451271,-2.548963971662072,13.61676,39.18868,355.936,0.09980674,0.3367443,-0.07290021,17.2599996142089,9
8.745591,0.683333,15.37717,0.3796040436456014,0.4822963786963786,-3.787522977267301,20.40781,38.56316,353.7536,0.1492601,0.3336158,-0.109024,17.2799996137619,9
8.848317,0.8833326,15.44654,-0.3377652599539669,-0.2798774441273913,-5.067820501211585,27.16782,37.6149,351.372,0.1981264,0.3292069,-0.144719,17.2999996133149,9
9.254847,0.2833333,15.85774,-1.1717346973661389,-0.1125417535376577,-6.5134784741250495,7.668252,47.8256,359.0532,0.05778465,0.4049298,-0.03464029,17.3199996128678,9
9.365201,0.4833332,15.93539,-1.9577104908766163,0.0782808784759637,-7.933546007669712,15.33256,47.644,358.0736,0.1152916,0.4022814,-0.06911378,17.3399996124208,9
9.475526,0.6833333,16.01303,-2.914579225598443,-0.3999946995927154,-9.32218092753032,22.99048,47.31199,357.0215,0.1722599,0.3978074,-0.1032639,17.3599996119738,9
9.585817,0.883333,16.09063,-3.957612757153388,-0.1621986752032755,-10.779748874883476,30.64048,46.79444,355.8456,0.2284471,0.3915296,-0.136935,17.3799996115267,9
9.871161,0.2833333,16.43588,-4.9415287061164825,0.0990841053980815,-12.14376881086954,7.813973,49.53088,0.24074,0.06274828,0.4177999,-0.0266396,17.3999996110797,9
9.972052,0.4833335,16.52777,-5.848793963453124,0.3315832163632267,-13.392462055946996,15.62552,49.59631,0.4929117,0.1251879,0.4149949,-0.05314566,17.4199996106327,9
