pX,pY,pZ,aX,aY,aZ,reX,reY,reZ,rtX,rtY,rtZ,t,ID
-44.00101,0.23,-37.99123,3.2632263645851083,-0.029538271099591,6.120444926898536,0.4454828,0.1133913,0.05742652,0.003888054,0.0009875696,0.00049729,1.61999996379018,5
-44.00197,0.43,-37.98577,3.54031312672106,-0.1367159633375941,6.433867523803656,0.7633039,0.2134959,0.113871,0.006662871,0.001856441,0.0009812773,1.63999996334314,5
-44.00294,0.63,-37.98032,3.8770261196104414,-0.4585522426679099,6.774215610788907,1.07806,0.3160405,0.1713618,0.009411785,0.002743777,0.001469395,1.65999996289611,5
-44.00391,0.8299999,-37.97486,4.159548574165612,-0.5412335967189683,7.037627980090711,1.390532,0.4188029,0.229076,0.01214159,0.003630203,0.001954555,1.67999996244907,5
-44.00309,0.2833333,-37.96035,4.388863612227233,-0.4100942077267977,7.225800209795345,0.4669035,4.369994,0.0113117,0.004075291,0.03812543,-5.670395e-05,1.69999996200204,5
-44.00268,0.4833333,-37.9527,4.651751690535505,-0.7297337766167701,7.404361628557311,0.9316524,4.212137,0.02549491,0.008132795,0.03674653,-7.645051e-05,1.719999961555,5
-43.9899,0.2833334,-37.9129,4.854538520797298,-0.8062454555989615,7.502769720386205,1.147136,7.119275,0.4186237,0.01021791,0.06204741,0.003024421,1.73999996110797,5
-43.99478,0.4833334,-37.89083,4.999014308209496,-0.6649636996745314,7.524106043013916,2.35389,6.484347,0.8335169,0.02091799,0.05639382,0.006098924,1.75999996066093,5
-43.99961,0.6833332,-37.8688,5.221690934738241,-0.9704911222836392,7.593002394007108,3.607383,5.852018,1.243187,0.03198578,0.05067699,0.00922253,1.7799999602139,5
-43.96249,0.2833334,-37.82351,5.375271641331452,-1.0289182115808997,7.575393649493286,1.425354,9.830074,0.07910347,0.01245164,0.08566321,-0.0003779722,1.79999995976686,5
-43.95906,0.4833334,-37.79514,5.575632891782206,-1.2924545606923936,7.587919928510026,3.027986,9.041476,0.141491,0.02643616,0.07875982,-0.0008520361,1.81999995931983,5
-43.90594,0.2833333,-37.70837,5.699420467770601,-1.3072875482851103,7.50901856825616,2.421208,13.00569,0.003931188,0.02099541,0.1132265,-0.00235866,1.8399999588728,5
-43.89613,0.4833335,-37.66694,5.75031269113299,-1.0987508716115386,7.344626814457349,4.843705,12.23471,359.9744,0.04199231,0.1064794,-0.004724999,1.85999995842576,5
-43.88632,0.6833335,-37.62553,5.827455051705599,-1.3314477571582135,7.1865848952223175,7.26794,11.45974,359.9117,0.0629887,0.09968636,-0.007093588,1.87999995797873,5
-43.81807,0.2833331,-37.52612,5.828466643570259,-1.3114688120823634,6.944301639394574,3.658925,16.25348,0.03633714,0.03164892,0.1412812,-0.004199225,1.89999995753169,5
-43.80028,0.4833329,-37.4644,5.757988455197648,-1.0641475079148328,6.625030891908274,7.321452,15.48526,0.02307481,0.06329324,0.1344359,-0.008402739,1.91999995708466,5
-43.70612,0.283334,-37.31549,5.698094485998908,-1.254086978274822,6.297807843036942,4.731471,19.95629,0.1237065,0.04084064,0.1730809,-0.006090058,1.93999995663762,5
-43.6793,0.4833339,-37.23692,5.567110100953222,-1.187377963173864,5.900801812758452,9.467303,19.19817,0.1841997,0.08163543,0.1660532,-0.01218155,1.95999995619059,5
-43.65248,0.683334,-37.15839,5.465514995566956,-1.31623070729038,5.528386408280305,14.20525,18.43272,0.1811635,0.1223018,0.1587409,-0.01825508,1.97999995574355,5
-43.56334,0.2833331,-37.05834,5.293152175257447,-1.1868320962930052,5.091754121112864,3.582758,23.47993,0.1237087,0.03082597,0.2033377,-0.00530409,1.99999995529652,5
-43.53999,0.4833331,-37.00031,5.0563712219472805,-0.8245161353077388,4.600399277288432,7.165686,22.72394,0.1997216,0.06160955,0.1965145,-0.01060585,2.01999995484948,5
-43.51666,0.6833333,-36.9423,4.907085045938267,-0.8938845065749688,4.206095067941391,10.74823,21.96589,0.2273439,0.09231918,0.1894966,-0.01590443,2.03999995440245,5
-43.36356,0.2833336,-36.7621,4.689451298680268,-0.701028695484204,3.758674628067297,3.645436,28.10302,0.1776011,0.03123139,0.2426232,-0.006219834,2.05999995395541,5
-43.3359,0.4833335,-36.70472,4.411027499552446,-0.2712828502084977,3.269207177807018,7.291893,27.35459,0.3077188,0.06242103,0.2358078,-0.01243228,2.07999995350838,5
-43.30825,0.6833333,-36.64736,4.16745810953249,-0.2692505958844171,2.8294570484374617,10.93869,26.60766,0.3906122,0.0935356,0.2287496,-0.01863069,2.09999995306134,5
-43.19626,0.2833333,-36.53302,3.867497477964825,-0.0010219276682165,2.3605637291358263,3.620379,30.7192,0.1538782,0.03081572,0.2647029,-0.007072805,2.11999995261431,5
-43.1659,0.4833336,-36.47756,3.62631487429919,0.081193893754693,1.9795645428139248,7.241377,29.97074,0.2605726,0.06158988,0.2579169,-0.01413683,2.13999995216727,5
-43.03889,0.2833328,-36.33576,3.334048101116757,0.1911131044868839,1.5748136032508668,3.577594,34.03644,0.2646448,0.03052397,0.2924635,-0.00692869,2.15999995172024,5
-43.00738,0.4833325,-36.28168,3.000399843555272,0.2756985243151943,1.15879180991805,7.157228,33.2999,0.4835057,0.06100706,0.2857101,-0.01384949,2.1799999512732,5
-42.97588,0.6833318,-36.22763,2.727416510889846,-0.3584011944692802,0.8281432805498881,10.73836,32.57072,0.6576269,0.0914191,0.278671,-0.02075496,2.19999995082617,5
-42.86415,0.2833337,-36.11397,2.422672235821281,-0.1507125526845521,0.4941223165764086,3.523849,36.21139,0.3101703,0.03006479,0.3105437,-0.006983594,2.21999995037913,5
-42.83181,0.4833339,-36.06141,2.096760280327942,0.0496581913169698,0.1768222209212027,7.050385,35.48112,0.5757773,0.06009082,0.3038327,-0.01395884,2.2399999499321,5
-42.79948,0.6833335,-36.00885,1.8858073360152967,0.0303184826032952,-0.0150610345580588,10.57904,34.76122,0.7981541,0.09004887,0.2968257,-0.02091883,2.25999994948506,5
-42.64108,0.283333,-35.84265,1.6649120635375851,0.0313641210618707,-0.201066519480495,3.474269,38.20525,0.3166535,0.02954859,0.3270304,-0.007310624,2.27999994903803,5
-42.60758,0.483333,-35.79184,1.4457647877912194,-0.0005205951177795,-0.3693553560603497,6.95125,37.47757,0.5895605,0.05905942,0.3203636,-0.01461223,2.29999994859099,5
-42.46814,0.2833333,-35.63616,1.2701975391209643,-0.0386782331512235,-0.4661383479218202,3.429932,38.79158,0.298581,0.02909369,0.3318684,-0.007481958,2.31999994814396,5
-42.43438,0.4833334,-35.58648,1.0958466870239576,-0.0564503618866079,-0.5404950107610986,6.862103,38.06348,0.5534757,0.05814752,0.3252303,-0.01495774,2.33999994769692,5
-42.40063,0.6833336,-35.53681,0.9740607157413308,-0.0538369685176493,-0.5540627107003502,10.29621,37.34503,0.7663516,0.08713803,0.3182914,-0.02241729,2.35999994724989,5
-42.2776,0.2833332,-35.4069,0.8498208688591333,-0.0308384937721625,-0.5564425624959206,3.393173,38.09192,0.2058403,0.02857181,0.3261326,-0.007964213,2.37999994680285,5
-42.24358,0.4833332,-35.35831,0.7342387230834646,-0.0407706564485541,-0.5375469432905007,6.787423,37.35759,0.3680444,0.05710536,0.319519,-0.01592113,2.39999994635582,5
-42.20957,0.6833335,-35.30975,0.7182353289826935,-0.0569740147439773,-0.406857155038459,10.18244,36.62725,0.4875024,0.0855777,0.3126173,-0.02386116,2.41999994590878,5
-42.10318,0.2833333,-35.20357,0.6970454509996529,-0.052791295386278,-0.2853356640036857,3.356134,37.4227,0.1482062,0.02815058,0.3206269,-0.008169733,2.43999994546175,5
-42.06933,0.4833334,-35.15572,0.5899877164398859,0.398651732768386,-0.2698119305627386,6.712639,36.68545,0.2531879,0.05626469,0.3140371,-0.01633057,2.45999994501472,5
-41.94656,0.2833332,-35.02735,0.5725244408538259,0.1789408200723902,-0.1931888604348479,3.315453,36.91016,0.06140747,0.02761057,0.3164138,-0.008649603,2.47999994456768,5
-41.91237,0.4833332,-34.98068,0.5500180333561389,-0.0459974999000127,-0.1473057582824779,6.630424,36.16678,0.07983333,0.05518853,0.3098431,-0.01728904,2.49999994412065,5
-41.87819,0.683333,-34.93403,0.5717002127591613,-0.0371117214086448,-0.0393107518620574,9.944111,35.41888,0.05432254,0.08270635,0.3030062,-0.02591421,2.51999994367361,5
-41.70779,0.2833336,-34.75431,0.5908010548375273,-0.0078404912039367,0.0566181218645454,3.274228,35.66958,359.9433,0.02704479,0.3061618,-0.009220598,2.53999994322658,5
-41.67337,0.4833339,-34.70871,0.6180498992228749,-0.011500312490941,0.1485642413862677,6.546479,34.9183,359.8436,0.05405837,0.2996104,-0.01843082,2.55999994277954,5
-41.63897,0.6833339,-34.66312,0.601257960386377,-0.0214322364651752,0.1838803997799942,9.815945,34.15576,359.6992,0.08101472,0.2928082,-0.0276253,2.57999994233251,5
-41.52222,0.2833329,-34.54215,0.5799587934045292,-0.010978566637303,0.204102863221177,3.233317,34.12438,359.8786,0.02665992,0.2933211,-0.0092898,2.59999994188547,5
-41.48853,0.4833328,-34.49686,0.5643217635562294,-0.0334551269566413,0.2171591481443293,6.463749,33.36999,359.7145,0.05328902,0.2867867,-0.018569,2.61999994143844,5
-41.35502,0.2833333,-34.35336,0.6067604981211474,-0.0622039392827321,0.3026027508393021,3.205114,32.40444,359.8001,0.02636893,0.2789657,-0.009477783,2.6399999409914,5
-41.32182,0.4833333,-34.30823,0.6430356903461671,-0.0705676246698049,0.3732019193890998,6.406376,31.64509,359.5575,0.05270821,0.2724384,-0.01894494,2.65999994054437,5
-41.28864,0.6833333,-34.26311,0.5673854012029196,0.3683312174505011,0.3338605282607894,9.603179,30.86677,359.2701,0.07899635,0.2656925,-0.02839346,2.67999994009733,5
-41.16911,0.2833332,-34.13931,0.5761984765056027,0.1360766612884117,0.3639755931546702,3.432138,32.54425,359.7756,0.02819848,0.2801298,-0.01026988,2.6999999396503,5
-41.13325,0.4833335,-34.09113,0.5834756253910598,-0.1014039129732259,0.384364294353567,6.860043,31.78316,359.5053,0.05636228,0.2735732,-0.02052699,2.71999993920326,5
-41.0974,0.6833335,-34.04296,0.5031139829113229,0.3218134242955032,0.3321203546876248,10.28312,30.99951,359.1864,0.08446562,0.2667654,-0.03076253,2.73999993875623,5
-40.92978,0.2833337,-33.86895,0.565944084472946,0.0738756449747742,0.4136015189966251,3.554174,34.6321,359.814,0.02912251,0.2975468,-0.01077937,2.75999993830919,5
-40.89152,0.4833336,-33.82,0.6280287122281578,-0.179288733519734,0.4883439558842397,7.104775,33.87576,359.5805,0.05820842,0.29099,-0.02154676,2.77999993786216,5
-40.85328,0.6833335,-33.77107,0.5485950810106672,0.2282472076201518,0.4290781740997609,10.65177,33.098,359.2965,0.08723276,0.2841465,-0.03229729,2.79999993741512,5
-40.73989,0.2833333,-33.65678,0.5501528042452222,-0.0353702411590732,0.4374360862050785,3.569516,35.78213,359.8535,0.02924626,0.3070968,-0.01078377,2.81999993696809,5
-40.70108,0.4833333,-33.60799,0.4257514413777699,0.1759770263110533,0.3176164370100949,7.135906,35.0316,359.6597,0.05845451,0.3005604,-0.02155639,2.83999993652105,5
-40.56894,0.2833332,-33.46843,0.2978907615469666,0.3831425442163305,0.1915063238791639,3.602822,37.16621,359.9741,0.02972435,0.3185291,-0.01023215,2.85999993607402,5
-40.53028,0.483333,-33.41885,0.3074558531858997,-0.1064588676982228,0.1921232295673434,7.204247,36.42842,359.9019,0.05941237,0.312004,-0.02044979,2.87999993562698,5
-40.49164,0.6833328,-33.36928,0.2098093519148349,0.0923432936017115,0.0919716972563442,10.80342,35.67939,359.7819,0.08903091,0.3051644,-0.0306434,2.89999993517995,5
-40.31264,0.2833335,-33.17913,0.2228365395678082,-0.1399114995201838,0.0988716009041965,3.5582,38.10927,0.06204521,0.02952175,0.3262963,-0.009624096,2.91999993473291,5
-40.27486,0.4833338,-33.12985,0.229533250182385,-0.3773938420072544,0.0959961372208511,7.115528,37.38209,0.07922244,0.05900316,0.3198066,-0.01923276,2.93999993428588,5
-40.2371,0.6833338,-33.08059,0.1536049775670918,0.045823908460135,0.0239396484424716,10.67182,36.64962,0.05067518,0.08841721,0.313002,-0.02881984,2.95999993383884,5
-40.11119,0.2833337,-32.94987,0.0827169445599054,0.438201758903656,-0.0455137410410309,3.616154,38.5642,0.06097926,0.02995738,0.3300392,-0.00991693,2.97999993339181,5
-40.07236,0.4833336,-32.90011,0.0462508951504219,0.3749544521435053,-0.0821844906180935,7.2318,37.83903,0.07620296,0.05987542,0.3235544,-0.01982115,2.99999993294477,5
-39.92663,0.2833332,-32.74397,0.0072915755732694,0.3362741188490833,-0.121824390119329,3.657459,39.07882,0.08435797,0.03032025,0.3342626,-0.00997969,3.01999993249774,5
-39.88721,0.4833331,-32.69374,0.0822571292839029,-0.1580308381409761,-0.0507148345410009,7.314619,38.35733,0.1227536,0.06059955,0.3277812,-0.01994583,3.0399999320507,5
-39.84781,0.6833327,-32.64353,-0.0014163226804271,0.0371120619508482,-0.1352762062595296,10.97096,37.6316,0.1146358,0.09080612,0.3209591,-0.02988885,3.05999993160367,5
-39.72147,0.2833333,-32.51274,-0.0883114871322874,0.229118263763941,-0.2224709593422424,3.626969,39.4272,0.0860924,0.03004453,0.3371273,-0.009967873,3.07999993115664,5
-39.68213,0.4833333,-32.46316,-0.1680657284514808,0.3657176574256152,-0.3023631600542309,7.253666,38.70807,0.1267267,0.06004886,0.3306744,-0.01992262,3.0999999307096,5
-39.6428,0.6833333,-32.41359,-0.2099901295617527,0.2611770876418235,-0.345146261683837,10.87953,37.98498,0.1214694,0.08998182,0.3238834,-0.02985403,3.11999993026257,5
-39.46907,0.2833335,-32.23276,-0.2499472415793633,0.1822494792109308,-0.3841851544543466,3.575028,41.42122,0.185397,0.02974906,0.3534283,-0.009518703,3.13999992981553,5
-39.42993,0.4833335,-32.1841,-0.2923793464965953,0.1289336752986538,-0.4273975714966553,7.151053,40.71364,0.3268828,0.05945937,0.3470203,-0.01902505,3.1599999293685,5
-39.39079,0.6833335,-32.13545,-0.3340013015196916,0.1012306630342412,-0.4688812099447759,10.72749,40.00878,0.4248236,0.08910049,0.3402662,-0.02850962,3.17999992892146,5
-39.27217,0.2833335,-32.01416,-0.364414238828239,0.0458242470861477,-0.4989354493474671,3.5217,42.02884,0.2283088,0.02939817,0.3583757,-0.009160074,3.19999992847443,5
-39.23369,0.4833336,-31.9661,-0.4768907911326323,0.6296867075129948,-0.6023098528098778,7.044906,41.32728,0.4138286,0.05875874,0.3520046,-0.01830814,3.21999992802739,5
-39.19523,0.6833339,-31.91805,-0.4579621282307755,0.3085717536940189,-0.5883626599996141,10.56905,40.63132,0.5571817,0.08805231,0.3452922,-0.0274361,3.23999992758036,5
-39.02899,0.283333,-31.74572,-0.424095632430749,-0.0114981864736365,-0.5603052686831163,3.466213,42.35073,0.2719508,0.0290585,0.3609905,-0.008712781,3.25999992713332,5
-38.99146,0.483333,-31.69806,-0.4303750585698935,-0.0914730057482273,-0.5737857726408748,6.934114,41.65513,0.5023333,0.05807814,0.3546548,-0.01741223,3.27999992668629,5
-38.95395,0.683333,-31.65042,-0.4334768275793337,-0.1447895013740554,-0.5835615668482994,10.40349,40.96797,0.6920235,0.08703332,0.3479851,-0.02609263,3.29999992623925,5
-38.84203,0.2833333,-31.53747,-0.4240514725316373,-0.2247639657316422,-0.5806522841221629,3.418394,41.86401,0.2466522,0.02862685,0.35704,-0.00864635,3.31999992579222,5
-38.80514,0.4833333,-31.49041,-0.3390895864710259,-0.3047381698690308,-0.4922974472672479,6.838195,41.16806,0.4521143,0.05721583,0.3507319,-0.01728082,3.33999992534518,5
-38.76826,0.6833333,-31.44336,-0.2517821380926222,-0.3580545640900008,-0.398300789097604,10.25924,40.47899,0.6172001,0.08574322,0.3441027,-0.02589697,3.35999992489815,5
-38.60851,0.283333,-31.27989,-0.2645350012117973,0.0421632229667695,-0.3984238949436935,3.378022,40.54383,0.1558539,0.02811985,0.3462875,-0.008936925,3.37999992445111,5
-38.57197,0.483333,-31.23356,-0.1838733693601995,-0.222499460132598,-0.3108538480570431,6.756356,39.84177,0.2703893,0.05620268,0.3399986,-0.01786286,3.39999992400408,5
-38.42961,0.2833337,-31.0824,-0.0962672819326542,-0.4861161177100004,-0.2136021549270168,3.333789,39.3755,0.08331618,0.02763308,0.3367315,-0.009115526,3.41999992355704,5
-38.39355,0.4833336,-31.03674,-0.1605117896050245,-0.0827614119670318,-0.2663874083607886,6.667088,38.66843,0.1255161,0.05523111,0.3304574,-0.01821986,3.43999992311001,5
-38.3575,0.6833338,-30.99109,-0.0774047499822003,-0.3442888790060997,-0.1774829380095077,9.999663,37.9585,0.1263309,0.08277201,0.3238972,-0.02730578,3.45999992266297,5
-38.32146,0.8833337,-30.94546,0.0075920266674813,-0.6047709740792546,-0.0868833251600627,13.33109,37.24077,0.08480585,0.1102323,0.3170568,-0.03636525,3.47999992221594,5
-38.16749,0.2833333,-30.78992,-0.0017477440739526,-0.1982809394587267,-0.0834524520851758,3.288135,37.4441,359.9541,0.02704378,0.3208562,-0.009588337,3.4999999217689,5
-38.1317,0.4833331,-30.74508,0.0752819124910431,-0.4566715012277047,-0.003789239920767,6.574504,36.72869,359.867,0.05405643,0.3146031,-0.01916596,3.51999992132187,5
-37.99661,0.2833331,-30.60302,0.031621362639747,-0.2338238611557097,-0.0438577230471075,3.243546,36.201,359.9038,0.02664032,0.3105827,-0.009590162,3.53999992087483,5
-37.96156,0.4833331,-30.55856,-0.0105439185671514,-0.0088853484792264,-0.0825098050699715,6.484654,35.48289,359.7669,0.05325017,0.3043433,-0.01916928,3.5599999204278,5
-37.92653,0.683333,-30.51412,0.0878076688022275,-0.4744404184607801,0.010771521974533,9.722828,34.75184,359.5877,0.07980748,0.2978545,-0.02872969,3.57999991998076,5
-37.89149,0.883333,-30.46968,0.0852528065089188,-0.2453203199133769,0.009391422765006,12.95724,34.00283,359.3644,0.1062882,0.2911221,-0.03826173,3.59999991953373,5
-37.74474,0.2833333,-30.32181,0.1968569721228377,-0.4409864689854895,0.1200984428735019,3.201467,33.40732,359.7868,0.02622122,0.2873588,-0.009809953,3.61999991908669,5
-37.71062,0.4833335,-30.27743,0.3042062892082313,-0.6356071956506146,0.2258110036597465,6.399045,32.6824,359.5329,0.0524129,0.2811342,-0.01960904,3.63999991863966,5
-37.57841,0.2833333,-30.13946,0.2555053690722886,-0.1632559919470648,0.1780484879131556,3.438647,33.85995,359.766,0.02810852,0.2911296,-0.01068996,3.65999991819263,5
-37.54127,0.4833335,-30.0921,0.2032511495324485,0.2845280392270942,0.1263831744727745,6.873121,33.13267,359.4879,0.05618265,0.2848664,-0.0213668,3.67999991774559,5
-37.50414,0.6833335,-30.04476,0.2785054980062753,-0.1972324787391699,0.1942927098399813,10.30284,32.38257,359.1631,0.08419637,0.2783411,-0.0320211,3.69999991729856,5
-37.46703,0.8833335,-29.99744,0.2568145545752216,0.0167282640775526,0.1738700066511747,13.72873,31.60357,358.7881,0.112137,0.2715594,-0.0426477,3.71999991685152,5
-37.32258,0.2833338,-29.85546,0.3389293947057084,-0.1930515923352614,0.2553812003885234,3.555711,35.55886,359.8053,0.02902408,0.3052562,-0.01109057,3.73999991640449,5
-37.28342,0.4833335,-29.8072,0.4145168459415416,-0.4007409941337182,0.3315547264025227,7.107925,34.83704,359.5653,0.0580121,0.2989958,-0.02216894,3.75999991595745,5
-37.15696,0.2833329,-29.67823,0.3401100120904345,0.0595886300236414,0.2625719896213105,3.570524,37.01941,359.8574,0.02914718,0.3173477,-0.0110697,3.77999991551042,5
-37.11717,0.4833331,-29.63023,0.2624289861240996,0.4963964200772581,0.1902662748825925,7.137999,36.30378,359.6696,0.05825574,0.3111022,-0.02212791,3.79999991506338,5
-37.07738,0.683333,-29.58225,0.3088739966392069,0.0047048024432618,0.2312423576233584,10.70184,35.56996,359.4348,0.08729763,0.3045489,-0.03316049,3.81999991461635,5
-36.90276,0.283333,-29.40098,0.2667538771835609,0.2097789482989938,0.1946038851080587,3.595009,38.42034,-0.003413702,0.02961084,0.3288733,-0.01034901,3.83999991416931,5
-36.86344,0.4833328,-29.3521,0.3254684834904324,-0.007840777820775,0.2543206397343667,7.188879,37.71991,359.9496,0.05918572,0.3226463,-0.02068181,3.85999991372228,5
-36.82413,0.6833327,-29.30324,0.3826315257756221,-0.2223241597947561,0.3130165941682747,10.78085,37.01021,359.8575,0.08869151,0.3160961,-0.03099058,3.87999991327524,5
-36.70561,0.2833332,-29.1821,0.3010325610808024,0.2322557910535127,0.2405851687679785,3.548903,38.82174,0.05431709,0.02936245,0.3321669,-0.009844083,3.89999991282821,5
-36.66724,0.4833335,-29.1335,0.3734184936831326,0.0240449403852307,0.3197772490834403,7.096798,38.12891,0.06601367,0.0586848,0.3259717,-0.01967233,3.91999991238117,5
-36.62889,0.6833335,-29.08491,0.3123719676706358,0.2991618468575471,0.2665633336187198,10.64359,37.43078,0.03421214,0.08794053,0.3194581,-0.02947869,3.93999991193414,5
-36.45993,0.2833331,-28.91166,0.2413390842705354,0.5784601492844716,0.2030341309361993,3.623254,39.9067,0.08258446,0.02996165,0.3410628,-0.0101112,3.9599999114871,5
-36.42016,0.4833331,-28.86248,0.264687535407127,0.1693555585367031,0.2261135194404104,7.246173,39.21856,0.1217262,0.05988343,0.33487,-0.02020905,3.97999991104007,5
-36.38041,0.683333,-28.8133,0.2864345651333622,-0.2632705235942665,0.246617816950458,10.86893,38.52662,0.1166848,0.08973911,0.3283358,-0.03028787,3.99999991059303,5
-36.26687,0.2833336,-28.69987,0.1755101518266641,0.1855596247495469,0.1426106611127195,3.642319,40.12312,0.08187859,0.03009659,0.3428349,-0.0102306,4.019999910146,5
-36.22671,0.4833339,-28.65059,0.2123145658998879,-0.0294462972418947,0.182952205567922,7.284298,39.437,0.1202487,0.06015302,0.3366548,-0.02044733,4.03999990969896,5
-36.18655,0.6833339,-28.60132,0.1248892735769331,0.2378304706786289,0.1022450896301307,10.92546,38.74703,0.1146612,0.09013809,0.3301285,-0.03063995,4.05999990925193,5
-36.02433,0.2833338,-28.43739,0.0303385302025489,0.5082435037292997,0.0144090902084919,3.604872,41.64745,0.1410635,0.02983605,0.3552817,-0.0100314,4.07999990880489,5
-35.98408,0.4833341,-28.389,0.0269442813564353,0.0892081968053634,0.0097822670554492,7.210126,40.96902,0.2395367,0.05963264,0.3491378,-0.02005032,4.09999990835786,5
-35.83767,0.2833333,-28.23605,0.0255722405226848,-0.3543942180938377,0.0079766594712857,3.560904,42.84672,0.2123859,0.02959964,0.3650258,-0.009623879,4.11999990791082,5
-35.79786,0.4833333,-28.18823,-0.096987439372544,0.0824131693023453,-0.1050097397328215,7.123004,42.17633,0.3833674,0.05916069,0.3589132,-0.01923545,4.13999990746379,5
-35.75805,0.6833333,-28.14042,-0.0652147796556867,-0.1456608910910459,-0.0713180976188603,10.68579,41.51085,0.5135975,0.0886535,0.3524461,-0.02882521,4.15999990701675,5
-35.71825,0.8833333,-28.09262,-0.1437091614431871,0.107502437898027,-0.1437644375482207,14.24833,40.84513,0.6026281,0.118044,0.3456312,-0.03838479,4.17999990656972,5
-35.56396,0.2833333,-27.93712,-0.2214100153696918,0.3627565021071683,-0.2167504534350115,3.498668,43.10904,0.2512528,0.02919718,0.367152,-0.009176825,4.19999990612268,5
-35.52517,0.4833336,-27.88979,-0.2083743076178166,-0.072483119924522,-0.2124695741747864,6.99896,42.44478,0.4622848,0.05835706,0.3610814,-0.01834184,4.21999990567565,5
-35.38711,0.2833331,-27.74569,-0.1838918818464243,-0.5333351187501841,-0.1992314748711834,3.444223,43.08148,0.2709607,0.02882078,0.3669298,-0.008835508,4.23999990522861,5
-35.34925,0.4833331,-27.69879,-0.26689870141022,-0.1148223988871974,-0.2813895340309784,6.889934,42.42017,0.5026976,0.05760302,0.3608856,-0.0176573,4.25999990478158,5
-35.31139,0.6833335,-27.65191,-0.2046509285710662,-0.3622364100068878,-0.2263685648306186,10.33701,41.76762,0.696099,0.08632212,0.3545068,-0.02646,4.27999990433455,5
-35.27355,0.8833334,-27.60504,-0.2394858320535888,-0.1294580066281169,-0.2608931119499651,13.78512,41.11929,0.8515741,0.114952,0.3477996,-0.03523576,4.29999990388751,5
-35.12515,0.2833331,-27.45717,-0.1567359047967684,-0.3225104933993133,-0.1771733744178121,3.402634,41.84884,0.2009528,0.02835725,0.3569296,-0.008965801,4.31999990344048,5
-35.08788,0.4833328,-27.41083,-0.0747121983620999,-0.5155629328656682,-0.0914920104353207,6.806089,41.18377,0.3626862,0.05667783,0.3509112,-0.01791955,4.33999990299344,5
-34.95729,0.2833333,-27.27591,-0.1454370514383995,-0.0426883491569983,-0.1545422842459451,3.359424,40.83348,0.1425682,0.02790471,0.3486615,-0.009059981,4.35999990254641,5
-34.92058,0.4833334,-27.23016,-0.2153251837596599,0.4045737310887476,-0.2165536548319302,6.718956,40.16446,0.2460986,0.05577353,0.3426594,-0.01810789,4.37999990209937,5
-34.88388,0.6833334,-27.18441,-0.1508419390828699,-0.0787535987401424,-0.1551986977548622,10.07851,39.49648,0.3107143,0.08358452,0.3363564,-0.02713721,4.39999990165234,5
-34.70517,0.2833331,-26.99941,-0.1770527775546853,0.1325940892465211,-0.1766668292744952,3.313744,39.05032,0.02355776,0.02731983,0.3340754,-0.009469928,4.4199999012053,5
-34.6688,0.4833333,-26.95448,-0.0906046482304638,-0.0808441968371456,-0.0908914392927471,6.626498,38.37289,0.007910122,0.05460726,0.3280901,-0.01892881,4.43999990075827,5
-34.63243,0.683333,-26.90955,-0.0019207944277539,-0.2932371753347887,-0.0044415763287837,9.937598,37.68948,359.9523,0.08183663,0.3218251,-0.02836882,4.45999990031123,5
-34.50765,0.2833334,-26.78271,-0.0579147014245258,0.161342606679619,-0.0578162585674775,3.268098,37.58834,359.9261,0.02678766,0.3220558,-0.0097969,4.4799998998642,5
-34.47159,0.4833336,-26.73853,-0.1116825365702709,0.5913551807949016,-0.1101804204876835,6.534097,36.90465,359.8131,0.05354438,0.3160887,-0.01958281,4.49999989941716,5
-34.43554,0.6833338,-26.69436,-0.037859590846331,0.0918237316985668,-0.0485283402071132,9.797258,36.20946,359.6595,0.08024503,0.3098596,-0.0293498,4.51999989897013,5
-34.26423,0.2833335,-26.5179,-0.0461141205246562,0.2880124584229299,-0.059137997713087,3.224873,35.2622,359.8337,0.02637755,0.3028059,-0.00990492,4.53999989852309,5
-34.22913,0.4833333,-26.47383,-0.0489711936877093,0.4873373535769296,-0.0648829749492847,6.446644,34.57287,359.6285,0.05272606,0.2968512,-0.01979862,4.55999989807606,5
-34.19403,0.6833333,-26.42978,0.0932009262487447,-0.0027866707497883,0.0645411865876361,9.664715,33.86703,359.3824,0.07902285,0.2906566,-0.02967321,4.57999989762902,5
-34.07655,0.2833333,-26.31027,0.0968160965548499,0.2028105283330407,0.0627872571493526,3.188734,33.53675,359.7818,0.02609112,0.2884419,-0.009849519,4.59999989718199,5
-34.04239,0.4833333,-26.2662,0.2146576453658824,-0.0153328178878887,0.1731135560287384,6.373703,32.84534,359.5249,0.05215347,0.2825024,-0.01968786,4.61999989673495,5
-34.00823,0.6833332,-26.22214,0.2007967512259441,0.2488075935161537,0.1541591150360339,9.55437,32.13474,359.2271,0.07816573,0.2763394,-0.02950776,4.63999989628792,5
-33.8383,0.2833333,-26.04898,0.17829747865769,0.5160842428696569,0.1271247018512902,3.528471,35.12495,359.7834,0.02878181,0.3016575,-0.01109064,4.65999989584088,5
-33.79945,0.483333,-26.00098,0.1564746392170413,0.7342264780801455,0.1010624598281921,7.053219,34.43298,359.5239,0.05752806,0.2956641,-0.02216732,4.67999989539385,5
-33.76062,0.6833331,-25.953,0.2673937819104495,-0.0027881543620995,0.1997779634461807,10.57474,33.71875,359.2181,0.08621787,0.2893846,-0.03322755,4.69999989494681,5
-33.64655,0.2833333,-25.8405,0.2442050782721487,0.1693561175701862,0.1740961725874577,3.559409,36.43605,359.8174,0.02900197,0.3125296,-0.01122226,4.71999989449978,5
-33.60681,0.4833335,-25.79266,0.2197664116588669,0.3446362673078765,0.1485878153984678,7.115566,35.74899,359.5914,0.05796721,0.3065501,-0.02243334,4.73999989405274,5
-33.56708,0.6833338,-25.74483,0.2223646236577217,0.3106605643125996,0.1474892366345663,10.66771,35.04166,359.32,0.08686616,0.3002697,-0.03361904,4.75999989360571,5
-33.40435,0.2833336,-25.58092,0.2130410045148529,0.3075243010119231,0.1355130702607994,3.584501,38.20459,359.9201,0.02932538,0.3271163,-0.01089351,4.77999989315867,5
-33.36428,0.4833333,-25.53287,0.2017761095872963,0.2819111743098631,0.1220795923703583,7.167058,37.52909,359.7977,0.05861455,0.3211548,-0.0217745,4.79999989271164,5
-33.21833,0.2833333,-25.37939,0.2785830936291198,-0.4598079683835081,0.1861050080519177,3.588918,39.11355,0.04364791,0.02963503,0.3345653,-0.01012335,4.8199998922646,5
-33.17914,0.4833332,-25.33055,0.2306130986644845,-0.2934131544056654,0.137166831910573,7.177138,38.45109,0.046356,0.0592336,0.3286181,-0.02022935,4.83999989181757,5
-33.13996,0.6833334,-25.28171,0.1864003889070602,-0.1249272359163533,0.09298467428696,10.76408,37.78289,0.006894512,0.08876319,0.3223434,-0.03031232,4.85999989137053,5
-33.10079,0.8833332,-25.23289,0.1758454586620885,-0.1667435538223247,0.0802092215804393,14.34934,37.10342,359.9238,0.1181947,0.315748,-0.04036226,4.8799998909235,5
-32.94513,0.2833335,-25.07744,0.1603654756674508,-0.1787659896471648,0.0638509191883756,3.568064,39.7379,0.06412339,0.02946907,0.3396888,-0.01005488,4.89999989047647,5
-32.90591,0.4833335,-25.02907,0.1501970425466474,-0.2143103678628912,0.0535871533045408,7.135505,39.08,0.08718452,0.05889888,0.3337719,-0.02009771,4.91999989002943,5
-32.76521,0.2833332,-24.88337,0.1308783716820869,-0.2467176858263624,0.0316092968499539,3.651789,40.41073,0.08659385,0.03016254,0.345188,-0.01029604,4.9399998895824,5
-32.72475,0.4833331,-24.83409,0.1004044520706841,-0.2493312182349718,-0.0009570649633943,7.303261,39.75627,0.1315313,0.06028452,0.3392614,-0.0205786,4.95999988913536,5
-32.68431,0.6833332,-24.78483,0.0690590866384823,-0.2754664288939811,-0.034260615701541,10.95415,39.09862,0.1343233,0.0903357,0.3329847,-0.03083885,4.97999988868833,5
-32.64388,0.8833331,-24.73559,0.0282053692443859,-0.2984652473183032,-0.0768424060374393,14.60435,38.43225,0.0939161,0.1202881,0.3263645,-0.04106582,4.99999988824129,5
-32.49448,0.2833334,-24.58838,-0.0162752967520809,-0.2916701093502001,-0.1206383975836509,3.633277,40.97019,0.09982818,0.03000106,0.3497618,-0.01027854,5.01999988779426,5
-32.45395,0.4833333,-24.53961,-0.0539513308813255,-0.3083971062157083,-0.1557155401968017,7.26641,40.31965,0.1584742,0.05996221,0.3438648,-0.02054383,5.03999988734722,5
-32.41343,0.6833336,-24.49085,-0.0978523339531172,-0.3219874625614407,-0.198205578302069,10.89887,39.66692,0.1757498,0.08985197,0.3376165,-0.03078493,5.05999988690019,5
-32.25067,0.2833333,-24.32813,-0.149239106368892,-0.3057834014014159,-0.2463773724189764,3.576775,43.01621,0.1919353,0.02964877,0.3664052,-0.00988437,5.07999988645315,5
-32.21027,0.4833335,-24.28046,-0.1974833039028496,-0.3131008790165578,-0.2903131615387089,7.154384,42.3763,0.3441302,0.05925839,0.3605513,-0.01975616,5.09999988600612,5
-32.06358,0.2833333,-24.12875,-0.1733666848314214,-0.3172825831931474,-0.2579042995904785,3.53461,43.71429,0.2441573,0.02941623,0.3720548,-0.009505092,5.11999988555908,5
-32.02377,0.4833333,-24.08146,-0.1491967410920196,-0.291670056644066,-0.2259566467992932,7.070676,43.08044,0.4495263,0.05879463,0.3662277,-0.01899815,5.13999988511205,5
-31.98398,0.6833333,-24.0342,-0.1144539034634775,-0.2895790299285902,-0.1847290730412503,10.60772,42.45402,0.6170554,0.08810613,0.3600447,-0.02846991,5.15999988466501,5
-31.9442,0.8833332,-23.98694,-0.2216005240857015,0.355962522541463,-0.2794521524036497,14.14476,41.83031,0.7467656,0.1173167,0.3535119,-0.03791116,5.17999988421798,5
-31.78942,0.2833334,-23.83215,-0.1959391797220675,0.1007083624158697,-0.2536772938390648,3.470021,43.56824,0.2694096,0.02898691,0.3708732,-0.009053939,5.19999988377094,5
-31.75084,0.4833333,-23.78526,-0.167817112317536,-0.1493188033706213,-0.2269596575828529,6.941469,42.93908,0.5013963,0.05793604,0.3650853,-0.01809293,5.21999988332391,5
-31.71228,0.6833333,-23.73838,-0.1103013309688059,-0.1550683739680914,-0.1639261713292441,10.41411,42.319,0.6967188,0.08682047,0.3589546,-0.02711223,5.23999988287687,5
-31.54456,0.2833333,-23.5685,-0.0552454014851733,-0.1299783434420929,-0.1021341105281514,3.41716,42.98806,0.2381744,0.02850356,0.3661829,-0.008991602,5.25999988242984,5
-31.50669,0.4833331,-23.52227,0.0071372380727474,-0.1273648419602221,-0.0323086680143624,6.835388,42.35775,0.439044,0.05696943,0.3604226,-0.01797123,5.2799998819828,5
-31.46883,0.683333,-23.47606,-0.0610325871868475,0.5197446085543884,-0.0845458473565052,10.25458,41.73458,0.6034847,0.08537409,0.3543346,-0.02693186,5.29999988153577,5
-31.35601,0.2833333,-23.36474,-0.0038074997643171,0.2671034757297031,-0.0205738086135482,3.371277,41.61045,0.1488274,0.02795868,0.3550026,-0.009234668,5.31999988108873,5
-31.31864,0.4833333,-23.31925,-0.0699786736040763,0.5009269019071412,-0.0765566865252651,6.742658,40.97397,0.2603073,0.05588094,0.3492629,-0.01845777,5.3399998806417,5
-31.28128,0.6833332,-23.27378,-0.1362605216117849,0.742068020008958,-0.1323935118214834,10.11411,40.33921,0.3347217,0.08374502,0.343215,-0.02766203,5.35999988019466,5
-31.12025,0.2833333,-23.11249,-0.0606681133858373,0.2979427553893172,-0.0574711248696537,3.32597,40.14977,0.058022,0.02743106,0.3430896,-0.009485845,5.37999987974763,5
-31.08335,0.4833331,-23.06769,0.0185282966731001,-0.1665678215555452,0.0197033646649344,6.651113,39.50719,0.07870894,0.05482749,0.3373691,-0.01896038,5.39999987930059,5
-31.04647,0.6833329,-23.0229,0.0867690617744614,-0.1733628149084748,0.0917330909240128,9.975298,38.86102,0.06179219,0.08216801,0.3313595,-0.02841547,5.41999987885356,5
-30.873,0.2833333,-22.84723,0.1492729341506056,-0.1493180511974748,0.1571191350368401,3.277421,38.48941,359.9375,0.02681934,0.3294833,-0.009940208,5.43999987840652,5
-30.83631,0.4833331,-22.80336,0.0939459296187585,0.3324424983053512,0.1080399329641039,6.552991,37.83842,359.8376,0.05360807,0.3237809,-0.01986961,5.45999987795949,5
-30.79963,0.6833328,-22.7595,0.036820922867033,0.7938176206619935,0.0558005843944755,9.82592,37.17688,359.6991,0.08034024,0.317809,-0.02977992,5.47999987751245,5
-30.68124,0.2833333,-22.64074,0.1105217471735571,0.3298295027152446,0.1214296255609248,3.234092,36.74861,359.8759,0.02643907,0.3151267,-0.009922724,5.49999987706542,5
-30.64551,0.4833333,-22.59702,0.1857666521020853,-0.1545441187798047,0.1865742407364621,6.46562,36.09447,359.7147,0.05284844,0.3094405,-0.01983432,5.51999987661839,5
-30.60979,0.6833332,-22.55331,0.1414080116938585,0.2456739994108717,0.1426636721547787,9.694135,35.4265,359.5148,0.07920624,0.3035034,-0.02972683,5.53999987617135,5
-30.4439,0.2833333,-22.38521,0.2407097556134516,-0.0148077119093616,0.2331941136492261,3.192517,34.36713,359.7772,0.02603872,0.2953705,-0.01008643,5.55999987572432,5
-30.40901,0.4833333,-22.34162,0.3379455410742018,-0.2700629448878987,0.3202880891204138,6.381352,33.70686,359.5173,0.05204866,0.2896967,-0.02016174,5.57999987527728,5
-30.37413,0.6833335,-22.29805,0.296181218509119,0.1458357528785845,0.2764717120615678,9.565977,33.02742,359.2183,0.07800854,0.2837937,-0.03021764,5.59999987483025,5
-30.19169,0.2833331,-22.11132,0.3328077733399972,-0.0989650100971439,0.3017978889764343,3.529312,35.70456,359.7788,0.02871991,0.3064746,-0.01127688,5.61999987438321,5
-30.1523,0.4833331,-22.06374,0.2416916055376319,0.1416535633699809,0.2030859658907644,7.054912,35.04365,359.5165,0.05740362,0.3007436,-0.02253988,5.63999987393618,5
-30.11292,0.6833332,-22.01618,0.1460935346692089,0.388544914075724,0.1005772149302011,10.57746,34.36057,359.2099,0.0860318,0.2947221,-0.03378529,5.65999987348914,5
-30.07357,0.8833334,-21.96864,0.1860239799967153,-0.0508763629111281,0.1259532666571203,14.09654,33.64946,358.8559,0.1145791,0.2884161,-0.04499942,5.67999987304211,5
-29.91657,0.2833331,-21.81401,0.2232638251365273,-0.5117284502482456,0.1500886072955509,3.559693,37.31448,359.8303,0.02895331,0.319795,-0.01133881,5.69999987259507,5
-29.87629,0.4833331,-21.76663,0.1297359727763556,-0.0890341052243102,0.0533254085472094,7.116413,36.66068,359.6192,0.05786996,0.3140829,-0.02266671,5.71999987214804,5
-29.73528,0.2833332,-21.62212,0.1844608554725368,-0.3280850037549878,0.0987066002110133,3.59028,38.54853,359.9305,0.02937016,0.3299463,-0.01091223,5.739999871701,5
-29.69503,0.4833334,-21.5741,0.2334749545809629,-0.5629539442484589,0.1388139987582981,7.178707,37.90532,359.8208,0.05870398,0.324242,-0.0218097,5.75999987125397,5
-29.65479,0.6833336,-21.52609,0.1320384118941362,-0.1277146439419756,0.0356502368819349,10.76466,37.24937,359.669,0.08797017,0.318215,-0.03268202,5.77999987080693,5
-29.61456,0.8833336,-21.4781,0.0284794411359854,0.2860938363441937,-0.0697042445333302,14.34763,36.57508,359.4729,0.1171392,0.3118718,-0.04351848,5.7999998703599,5
-29.46569,0.2833331,-21.3308,0.0496578631579289,-0.2265059574485112,-0.0606940308688557,3.575762,39.59896,0.04997667,0.02950261,0.3385516,-0.01015799,5.81999986991286,5
-29.42634,0.4833331,-21.28238,-0.0175911467508953,-0.0402486663172538,-0.1264853807904984,7.150714,38.96963,0.06112646,0.0589674,0.3328764,-0.02029913,5.83999986946583,5
-29.38699,0.6833328,-21.23398,-0.0825351824203117,0.1522809579272219,-0.1874616029194769,10.72459,38.33544,0.03248185,0.08836489,0.3268726,-0.03041731,5.85999986901879,5
-29.22337,0.2833334,-21.07111,-0.0278915542870166,-0.3415016770135533,-0.1050707133270698,3.597469,40.73924,0.07977299,0.02966803,0.347883,-0.01027332,5.87999986857176,5
-29.18318,0.4833334,-21.02286,-0.1139890963517658,-0.1364271182205124,-0.1531732228359814,7.194552,40.11457,0.1203819,0.05929726,0.3422217,-0.02053345,5.89999986812472,5
-29.03487,0.2833336,-20.87009,-0.1201648003052362,-0.3519558784328724,-0.0766576557964526,3.651865,41.15312,0.09008103,0.03010651,0.3512567,-0.01046299,5.91999986767769,5
-28.99384,0.4833338,-20.82129,-0.1255343879081927,-0.5622575527455606,-0.0012154208473305,7.303458,40.53071,0.1406087,0.06017305,0.3455917,-0.02091198,5.93999986723065,5
-28.95283,0.6833336,-20.77251,-0.2830152438209303,-0.1014058445441333,-0.0740132453473236,10.95438,39.9058,0.1512969,0.09016836,0.3395708,-0.03133647,5.95999986678362,5
-28.91183,0.8833336,-20.72374,-0.4362923805102348,0.3390605978528599,-0.1449929260439653,14.60463,39.27309,0.1208964,0.1200643,0.3332003,-0.0417282,5.97999986633658,5
-28.75508,0.2833334,-20.56947,-0.5157165856059045,-0.1458353466497632,-0.0783466129469481,3.62065,41.8338,0.1097291,0.02985069,0.3568069,-0.01038435,5.99999986588955,5
-28.7141,0.4833333,-20.52135,-0.6796711311396848,0.0691705620126851,-0.0943341342253667,7.241213,41.21577,0.1805628,0.05966201,0.3511744,-0.02075478,6.01999986544251,5
-28.67314,0.6833335,-20.47324,-0.8291723830193298,0.2914943708105177,-0.1033956165832954,10.86124,40.59668,0.2123326,0.08940284,0.3451863,-0.0311014,6.03999986499548,5
-28.5029,0.2833333,-20.30346,-0.8935747128918656,-0.1714484202101035,0.0464879594885871,3.560748,43.85529,0.2107443,0.02950718,0.3732015,-0.009896795,6.05999986454844,5
-28.46225,0.4833331,-20.25634,-1.0866159351862414,0.0655111883357842,0.0600182772760469,7.122523,43.24858,0.3840634,0.05897646,0.3676115,-0.019781,6.07999986410141,5
-28.42162,0.6833329,-20.20924,-1.2579825485950558,0.3097886964943486,0.0792144608292915,10.68485,42.64752,0.5207111,0.08837804,0.3616601,-0.02964258,6.09999986365438,5
-28.30828,0.2833333,-20.09807,-1.344715726626859,-0.1312007558323061,0.2392399165848679,3.503207,44.19753,0.2416126,0.02911375,0.3759679,-0.00954656,6.11999986320734,5
-28.26844,0.4833333,-20.05153,-1.573712376084906,0.1277128562888864,0.2405708204993288,7.007738,43.59535,0.4467013,0.05819058,0.370412,-0.01908131,6.13999986276031,5
-28.22862,0.6833336,-20.00499,-1.782847995499612,0.3939443808290407,0.2398156766420065,10.51278,43.00086,0.6163851,0.08719968,0.3645031,-0.02859269,6.15999986231327,5
-28.06627,0.2833333,-19.84334,-1.9627287315386328,0.615223153412098,0.2451544594701111,3.4512,44.31884,0.2749254,0.02879309,0.3769459,-0.00913712,6.17999986186624,5
-28.02739,0.4833333,-19.79712,-2.1045914185582646,-0.1144734251322454,0.3267031660353936,6.903733,43.72136,0.5144082,0.05754832,0.3714208,-0.01826033,6.1999998614192,5
-27.98852,0.6833335,-19.75091,-2.343501194370056,0.0691709779991103,0.2970219902269235,10.35753,43.13365,0.7194647,0.08624092,0.3655514,-0.02736388,6.21999986097217,5
-27.81334,0.2833333,-19.57448,-2.5459984022516835,0.2601331520704808,0.2783833591575515,3.40483,43.21114,0.2058066,0.02828206,0.3680022,-0.009269971,6.23999986052513,5
-27.77504,0.4833336,-19.52893,-2.930922749349012,0.2460202363671888,0.1957704417119536,6.810259,42.60906,0.3761012,0.05652685,0.3624999,-0.01852743,6.2599998600781,5
-27.73676,0.6833335,-19.4834,-3.2694663264315977,0.2669284832653694,0.1242221445991198,10.21634,42.01249,0.5115205,0.08471209,0.3566714,-0.02776588,6.27999985963106,5
-27.69848,0.8833334,-19.43787,-3.55327331221579,0.2695418964971349,0.0709866239757666,13.62265,41.41727,0.6121776,0.1128118,0.3505224,-0.03697653,6.29999985918403,5
-27.55048,0.2833333,-19.29169,-3.883391661442243,-0.4397698883329158,0.1383415862799317,3.354761,39.82867,0.08405122,0.02777099,0.3404485,-0.009281015,6.31999985873699,5
-27.51388,0.4833335,-19.24599,-4.264318304958948,-0.236785833027192,0.1088920735285512,6.70883,39.21819,0.1330733,0.05550771,0.3349619,-0.01854467,6.33999985828996,5
-27.47729,0.6833334,-19.2003,-4.5716294819697545,-0.0275291504121981,0.0954218407329001,10.06231,38.60595,0.1462424,0.08318757,0.3291839,-0.02778971,6.35999985784292,5
-27.34039,0.2833333,-19.03359,-4.797945279696673,0.1357298552800658,0.1052711883093167,3.302159,35.52352,359.9405,0.02728107,0.3049473,-0.009283781,6.37999985739589,5
-27.30585,0.4833334,-18.98748,-5.205376295644413,0.0672554749909382,0.0747663158232949,6.602494,34.90235,359.8451,0.05453055,0.2994693,-0.01855673,6.39999985694885,5
-27.19843,0.2833335,-18.82766,-5.5244473696473975,0.0338024717867525,0.0609619435664221,3.256148,31.87328,359.8631,0.02699151,0.2744958,-0.008949456,6.41999985650182,5
-27.16617,0.4833333,-18.78084,-5.878961758857386,0.4622467127923034,-0.0546063156677156,6.509715,31.24688,359.6904,0.053953,0.2690262,-0.01788862,6.43999985605478,5
-27.13392,0.6833333,-18.73403,-6.232860644972007,0.2341724015002946,-0.0520521328915997,9.760077,30.60608,359.4805,0.08086048,0.2633368,-0.02680872,6.45999985560775,5
-27.10168,0.8833333,-18.68723,-6.487927289917362,0.0155070837040879,-0.0399245126127159,13.00688,29.94653,359.2319,0.1076941,0.2574333,-0.03569609,6.47999985516071,5
-27.01387,0.2833334,-18.52202,-6.639688554655606,-0.2481107288781328,-0.0110408372267958,3.203403,25.09762,359.7216,0.02675596,0.217252,-0.008443123,6.49999985471368,5
-26.98555,0.4833332,-18.47359,-6.859965902169311,-0.2909727507550982,0.0628726149465332,6.40267,24.46205,359.4074,0.05348261,0.2118028,-0.01687666,6.51999985426664,5
-26.95724,0.6833332,-18.42518,-6.978329938640279,-0.2998587978299533,0.1353173344888354,9.597246,23.80434,359.055,0.08015779,0.2061864,-0.02529348,6.53999985381961,5
-26.87281,0.2833333,-18.24326,-6.991804213691424,-0.3280851731986771,0.2141220116572348,3.35862,21.85894,359.6781,0.02824129,0.1895991,-0.008312983,6.55999985337257,5
-26.84553,0.4833332,-18.19105,-7.052790471764986,0.2913206278735724,0.1611020024924094,6.712598,21.21991,359.3184,0.05644977,0.1841454,-0.01661542,6.57999985292554,5
-26.81826,0.6833332,-18.13885,-6.994009873894463,0.0141127128062359,0.235196798611156,10.06136,20.55462,358.9178,0.0846,0.1785322,-0.02490059,6.5999998524785,5
-26.74183,0.2833333,-17.96864,-6.8405002988017465,-0.2536862242722283,0.3071814589483512,3.527882,20.00688,359.7209,0.02989078,0.1736983,-0.007744379,6.61999985203147,5
-26.71591,0.4833333,-17.91256,-6.678111561013438,0.1538497664375577,0.3085383326121498,7.051661,19.37185,359.4023,0.05974516,0.1682427,-0.01547844,6.63999985158443,5
-26.68999,0.6833333,-17.8565,-6.333056215217713,-0.0951321580593842,0.4522236761254454,10.57201,18.71163,359.0422,0.08954574,0.1626279,-0.02318807,6.6599998511374,5
-26.66408,0.8833333,-17.80046,-5.905221156665984,-0.3347059433354714,0.5920618116698861,14.08691,18.02034,358.6356,0.1192498,0.1568588,-0.03087325,6.67999985069036,5
-26.63873,0.2833336,-17.68645,-5.541086190633084,0.1010559697316466,0.599173951155576,3.558114,17.15853,359.7721,0.03040147,0.1491664,-0.006596592,6.69999985024333,5
-26.61634,0.4833336,-17.62841,-4.964027428086059,-0.1196997964935675,0.7581187917913734,7.113013,16.53061,359.5066,0.06077024,0.1437431,-0.01317008,6.7199998497963,5
-26.59395,0.6833335,-17.57038,-4.331468741331253,-0.3310470941934925,0.9040845249641372,10.66376,15.88045,359.1991,0.09107012,0.1381821,-0.01972863,6.73999984934926,5
-26.67156,0.2833333,-17.48077,-3.807148467503282,0.132941277178284,0.8907471464713588,3.581466,13.60502,359.9178,0.03094413,0.1184119,-0.004413808,6.75999984890223,5
-26.6552,0.4833334,-17.42043,-3.2458123103989003,0.5807253220299029,0.8672480167758057,7.161224,12.99257,359.8,0.06185457,0.1130261,-0.008796994,6.77999984845519,5
-26.63884,0.6833335,-17.36012,-2.516895469351873,0.1073284363961077,0.9534751723695684,10.73848,12.3672,359.6422,0.09269405,0.1075322,-0.01317029,6.79999984800816,5
-26.72488,0.2833332,-17.21087,-1.765218874185507,-0.3822721247282035,1.032835833905578,3.563348,10.25633,359.9572,0.03093328,0.08935227,-0.003150414,6.81999984756112,5
-26.7128,0.4833332,-17.14988,-1.1233388420565724,0.0169008013072366,0.994946814727415,7.125,9.649299,359.8776,0.06182743,0.08401011,-0.006288453,6.83999984711409,5
-26.70071,0.6833333,-17.0889,-0.3322319174288743,-0.2404447815703287,1.0829779052477893,10.68457,9.032064,359.7599,0.09265194,0.07859031,-0.009410407,6.85999984666705,5
-26.68863,0.8833333,-17.02794,0.4519459714334957,-0.4883814465701508,1.1629201027363418,14.24167,8.399369,359.6011,0.1233758,0.07309772,-0.0125226,6.87999984622002,5
-26.78916,0.2833333,-16.90482,1.1076836046580247,-0.0609825528762386,1.1004973803817517,3.644441,8.133848,0.01146185,0.0317254,0.07088259,-0.002155472,6.89999984577298,5
-26.78007,0.4833334,-16.84186,1.8328127129050245,-0.290101609933027,1.0964444442580366,7.28775,7.534081,359.9848,0.06340873,0.0655755,-0.00430775,6.91999984532595,5
-26.77098,0.6833335,-16.77892,2.4392947396780222,-0.0296200457543759,0.9536016845126304,10.92956,6.927055,359.9191,0.09501746,0.06020563,-0.006454577,6.93999984487891,5
-26.84021,0.2833333,-16.61999,3.0060709102333583,0.2413158205515108,0.8027550759126783,3.618988,9.112225,0.09339239,0.0315413,0.0793701,-0.001696259,6.95999984443188,5
-26.8315,0.4833334,-16.55743,3.677099611989778,-0.1698789496061928,0.7673033538594911,7.237671,8.522114,0.1496126,0.0630409,0.07407054,-0.003390357,6.97999984398484,5
-26.82279,0.6833336,-16.49489,4.2898998932053445,-0.5983230180318269,0.7290340229050081,10.85566,7.930248,0.1684923,0.09446658,0.06870035,-0.005080675,6.99999984353781,5
-26.8489,0.2833333,-16.29399,4.776998451061015,-0.139039021443346,0.5567695322030293,3.557465,13.17525,0.2441148,0.03107902,0.1146013,-0.001445734,7.01999984309077,5
-26.83856,0.4833333,-16.23265,5.360843646613791,-0.3373186085757323,0.5193626304001864,7.116172,12.60103,0.4528654,0.06211795,0.1092871,-0.002890113,7.03999984264374,5
-26.82823,0.6833333,-16.17132,5.867386943177692,-0.5272347774235367,0.4789760548700723,10.67572,12.03497,0.6273288,0.09308593,0.1038693,-0.004331541,7.0599998421967,5
-26.81791,0.8833332,-16.11001,6.228941085879786,-0.0428610189796587,0.2858539439066128,14.23546,11.47267,0.7670776,0.1239492,0.09835303,-0.005775359,7.07999984174967,5
-26.78232,0.2833333,-15.93572,6.506058286896593,0.4242634720359099,0.0877155419565944,3.488438,17.96012,0.3436776,0.03053237,0.1559275,-0.001790002,7.09999984130263,5
-26.76892,0.4833333,-15.87605,6.829490388329294,-0.0308387728097814,-0.0091114442805917,6.979106,17.39713,0.6534595,0.06102628,0.1506101,-0.00357863,7.1199998408556,5
-26.75552,0.6833332,-15.8164,6.996368608412698,0.2170976305759578,-0.245955418445094,10.47133,16.84844,0.9300928,0.091449,0.1451525,-0.00537272,7.13999984040856,5
-26.65373,0.2833333,-15.62954,7.060501352947341,0.4754882884356204,-0.4923858977485729,3.421988,23.80338,0.4060705,0.02994648,0.2060363,-0.002691773,7.15999983996153,5
-26.63578,0.4833331,-15.57216,7.162403852699093,0.0517484607193344,-0.6259519424539093,6.846758,23.24711,0.7771099,0.05985168,0.2007198,-0.00540029,7.17999983951449,5
-26.61784,0.683333,-15.51479,7.146185809603811,-0.3892404220326103,-0.7660145974143102,10.27391,22.70893,1.117628,0.08969251,0.195222,-0.008103282,7.19999983906746,5
-26.46416,0.2833333,-15.31447,7.013156478858374,0.0574982031126636,-0.97304502061413,3.379153,27.05064,0.2942659,0.02926692,0.233699,-0.004399995,7.21999983862042,5
-26.44161,0.4833333,-15.25976,6.920506153125668,-0.1533267682692152,-1.0475308091240176,6.759992,26.48582,0.5531561,0.05849323,0.2284017,-0.00881526,7.23999983817339,5
-26.41906,0.6833333,-15.20507,6.698198025230138,-0.3557884568343382,-1.1280469459125992,10.14223,25.9321,0.7804106,0.08765846,0.2229036,-0.0132217,7.25999983772635,5
-26.39651,0.8833332,-15.15039,6.468429078464247,0.1160400300901907,-1.2434621395663257,13.52549,25.38586,0.9768464,0.1167363,0.2172098,-0.0176153,7.27999983727932,5
-26.25079,0.2833334,-14.99232,6.134487731243119,0.5706191622074825,-1.3540359307664431,3.332168,29.11168,0.1878003,0.02855302,0.2511708,-0.005721513,7.29999983683228,5
-26.22507,0.4833335,-14.94007,5.82538411011393,0.1029718686891993,-1.3541480336628062,6.664839,28.53965,0.3407532,0.05706685,0.2459033,-0.01145105,7.31999983638525,5
-26.19936,0.6833334,-14.88785,5.528746299692202,0.338363746020687,-1.4513704378639734,9.997937,27.97234,0.4611989,0.08552285,0.2404261,-0.01716942,7.33999983593822,5
-26.04117,0.2833332,-14.71759,5.145381601127717,0.5842097483693793,-1.5432162589210474,3.285747,30.8735,0.04938801,0.02775003,0.2660531,-0.007215846,7.35999983549118,5
-26.0122,0.4833333,-14.66812,4.820480287917377,0.1479250300117854,-1.5069305951635812,6.57082,30.29127,0.06532015,0.05546781,0.2608124,-0.0144242,7.37999983504415,5
-25.98324,0.6833333,-14.61865,4.405008450415938,-0.3056091786208743,-1.4626125951043465,9.854662,29.70551,0.0461729,0.08312523,0.2553551,-0.02162921,7.39999983459711,5
-25.86998,0.2833335,-14.51137,4.0406834722388965,0.1285849505257074,-1.4762642676747184,3.242949,31.70156,359.9681,0.02714431,0.2730311,-0.007996507,7.41999983415008,5
-25.83951,0.4833335,-14.46369,3.771192543792072,-0.0947844990828754,-1.3458600072768316,6.48448,31.11417,359.9028,0.05425834,0.2678152,-0.01598455,7.43999983370304,5
-25.80905,0.6833335,-14.41603,3.433319188354055,-0.309790793240599,-1.2100821867146705,9.724216,30.51887,359.8033,0.08131946,0.262383,-0.02395752,7.45999983325601,5
-25.64252,0.2833335,-14.26233,3.1298252944248297,0.1494932685989478,-1.1755970690102036,3.204249,31.67296,359.8532,0.02654811,0.2728204,-0.008861444,7.47999983280897,5
-25.61073,0.4833335,-14.21627,2.786914356464795,0.5915275979765651,-1.131519618000782,6.405895,31.07775,359.6729,0.053067,0.2676262,-0.01771343,7.49999983236194,5
-25.57896,0.6833336,-14.17023,2.535808303012871,0.1113351512446026,-0.9720007945062168,9.604523,30.46822,359.4575,0.07953491,0.2622207,-0.02654916,7.5199998319149,5
-25.39776,0.2833333,-13.99856,2.2913555581993457,0.3341818706580601,-0.96583667719025,3.450896,34.04657,359.829,0.02835418,0.2926703,-0.01024146,7.53999983146787,5
-25.36127,0.4833334,-13.9505,2.025196101673693,0.567482922777024,-0.9562781803517986,6.898886,33.44947,359.6216,0.05667375,0.2874414,-0.02047125,7.55999983102083,5
-25.3248,0.6833334,-13.90245,1.8847485177053365,0.1186533418299804,-0.8208636662152227,10.34391,32.83476,359.3755,0.08493453,0.2819488,-0.03068341,7.5799998305738,5
-25.28836,0.8833333,-13.85443,1.7269216830527083,-0.3474254144620924,-0.6809924434155672,13.78673,32.19728,359.0875,0.1131195,0.276197,-0.04087587,7.59999983012676,5
-25.12908,0.2833332,-13.71551,1.5332210155578174,0.0742239104638199,-0.6641143104498113,3.548017,37.02411,359.8589,0.02896475,0.3173879,-0.01099604,7.61999982967973,5
-25.08957,0.4833331,-13.66777,1.49112257966679,-0.1616902520662181,-0.5091993546271443,7.094139,36.43141,359.6799,0.05789629,0.3121594,-0.02198806,7.63999982923269,5
-25.05007,0.6833332,-13.62004,1.440711863856443,-0.3892410329010505,-0.35576595514258,10.63715,35.82225,359.4617,0.08676147,0.3066283,-0.03295751,7.65999982878566,5
-24.87889,0.2833333,-13.46565,1.288487037786627,0.0574980908181078,-0.348260523361743,3.581025,39.7169,359.9503,0.02924003,0.3395444,-0.01102154,7.67999982833862,5
-24.83805,0.4833335,-13.41835,1.1356075841183468,0.4869880449419984,-0.3406691413808431,7.160579,39.13441,359.8635,0.05844252,0.3343284,-0.02203474,7.69999982789159,5
-24.79722,0.6833333,-13.37106,1.194194990053056,-0.0057486245879392,-0.1516375664867908,10.73808,38.54122,359.7388,0.08757852,0.3287827,-0.03302284,7.71999982744455,5
-24.61318,0.2833332,-13.20077,1.0881121185880964,0.2045531210740444,-0.1401600088454611,3.573199,41.58117,0.07152329,0.0293683,0.3547625,-0.01048314,7.73999982699752,5
-24.5725,0.4833331,-13.15351,0.969115260047804,0.4253089954121715,-0.142680433561102,7.145865,41.0119,0.1076465,0.05869865,0.3495688,-0.02095248,7.75999982655048,5
-24.53183,0.683333,-13.10626,0.849091686031759,0.6042483458112579,-0.1510722518268838,10.71769,40.4399,0.1080341,0.08796198,0.3440315,-0.03139818,7.77999982610345,5
-24.49117,0.883333,-13.05903,0.8713953447957188,-0.1646512684321264,-0.0497479427128677,14.28832,39.86053,0.0717055,0.1171293,0.3381565,-0.04180977,7.79999982565641,5
-24.3331,0.2833333,-12.92079,0.7525080714538497,-0.0170741958614442,-0.0761790405511497,3.596057,42.8606,0.08974186,0.02949307,0.3651662,-0.01073531,7.81999982520938,5
-24.29132,0.4833333,-12.87395,0.6323364759651149,0.1409566559567898,-0.1090894122470569,7.19178,42.29535,0.1440771,0.0589477,0.3599889,-0.02145695,7.83999982476234,5
-24.24956,0.6833333,-12.82711,0.6691960093284699,-0.3831426547689582,-0.0170589280650137,10.78707,41.72842,0.162361,0.08833467,0.3544527,-0.03215894,7.85999982431531,5
-24.07708,0.2833333,-12.67296,0.5517762141243878,-0.2042030096511126,-0.0723877620659738,3.642244,43.98639,0.1079725,0.02981927,0.3742793,-0.01102797,7.87999982386827,5
-24.03406,0.4833331,-12.62613,0.4296499528797319,-0.0148095617639745,-0.1375045431761705,7.284339,43.42462,0.1803163,0.05959901,0.3691059,-0.02204186,7.89999982342124,5
-23.99104,0.6833333,-12.57932,0.4742940427362541,-0.5075462651826463,-0.0648163997040001,10.92587,42.86235,0.2170729,0.08930814,0.3635553,-0.03302977,7.91999982297421,5
-23.80466,0.2833333,-12.41084,0.4162682489643678,-0.2972446007142458,-0.0707984325752466,3.604694,45.56633,0.1521066,0.02951149,0.3870143,-0.01095629,7.93999982252717,5
-23.76138,0.4833333,-12.36513,0.3560435640250112,-0.0764888425909649,-0.0827100970959406,7.209639,45.01044,0.2694386,0.05898429,0.3818727,-0.02189831,7.95999982208014,5
-23.71811,0.6833334,-12.31944,0.3058152375710499,0.1024504622456311,-0.0913897605433557,10.81447,44.45706,0.3522793,0.08838817,0.3763483,-0.03281564,7.9799998216331,5
-23.67485,0.8833331,-12.27376,0.2501527345437431,0.0538388544385016,-0.1029113299839501,14.41874,43.90166,0.3999432,0.1176913,0.370447,-0.04369971,7.99999982118607,5
-23.5176,0.2833332,-12.13638,0.1941291117419012,0.0444302166437596,-0.1169292361304705,3.544259,47.13048,0.22829,0.02914165,0.3995446,-0.01053821,8.01999982073903,5
-23.47477,0.4833332,-12.09161,0.149619653386626,0.0209083524844534,-0.1244541125542131,7.089498,46.58387,0.4230665,0.05824588,0.3944473,-0.02106308,8.039999820292,5
-23.43195,0.6833334,-12.04685,0.0988606763559829,0.0099315997223908,-0.1426782904692469,10.63533,46.04476,0.5852863,0.0872838,0.3889667,-0.03156433,8.05999981984496,5
-23.26105,0.2833334,-11.8946,0.0422058518718202,0.0381576168636446,-0.1699864837030311,3.482933,47.71368,0.2720917,0.02875295,0.4041989,-0.01012057,8.07999981939793,5
-23.21908,0.4833334,-11.8504,-0.0094298415927873,0.0522705543463313,-0.197927252463403,6.967273,47.17253,0.5116496,0.05746992,0.3991374,-0.02022861,8.09999981895089,5
-23.17711,0.6833335,-11.80622,0.1167057272935707,-0.641359711606212,-0.0793432136229608,10.45227,46.64168,0.720008,0.08612064,0.3937006,-0.03031279,8.11999981850386,5
-22.9924,0.2833335,-11.63932,0.1037374833922371,-0.4185129677127173,-0.0702963565637322,3.42838,47.33262,0.2605617,0.02831027,0.4011663,-0.00992598,8.13999981805682,5
-22.95129,0.4833335,-11.59563,0.0901429338161712,-0.1852120933136083,-0.0648400425432615,6.857697,46.79184,0.4891885,0.05658326,0.3961338,-0.01983792,8.15999981760979,5
-22.91019,0.6833335,-11.55196,0.0866171809895597,0.006272153302312,-0.0543389344077258,10.28801,46.2606,0.6869386,0.08479577,0.3907401,-0.02972909,8.17999981716275,5
-22.8691,0.8833334,-11.5083,-0.0542116033543678,0.7101280492456041,-0.1582272941057567,13.71902,45.7353,0.8544821,0.1129221,0.3849908,-0.03959024,8.19999981671572,5
-22.64033,0.2833333,-11.302,-0.0215003214540985,0.4110350977544075,-0.1190652676115906,3.377239,45.32585,0.1437063,0.02767541,0.3851073,-0.01019742,8.21999981626868,5
-22.59999,0.4833332,-11.25899,0.0125873310233579,0.1270659970517132,-0.0789727348075466,6.754327,44.77667,0.2552258,0.0553149,0.3800984,-0.02038133,8.23999981582165,5
-22.55965,0.6833332,-11.21599,-0.1130904001562669,0.5241474012824953,-0.1770081158685243,10.13135,44.22989,0.3348467,0.08289696,0.3747549,-0.03054434,8.25999981537461,5
-22.51933,0.8833331,-11.173,-0.0964876545587181,0.2704259343793306,-0.1596842615082554,13.508,43.6817,0.3823234,0.110397,0.3690816,-0.04067753,8.27999981492758,5
-22.35593,0.2833332,-11.02926,-0.0824183403309106,0.0318282387263199,-0.1471084465669001,3.318648,43.48646,0.02538556,0.02697848,0.3702864,-0.01052123,8.29999981448054,5
-22.31621,0.4833332,-10.98714,-0.0601921900739803,-0.2460072647348646,-0.1307437767512915,6.636396,42.92907,0.01848812,0.05392566,0.365303,-0.02103026,8.31999981403351,5
-22.27649,0.683333,-10.94503,-0.0057776376057461,-0.297372102687464,-0.0805402796775798,9.952554,42.36709,359.9787,0.08081496,0.3600097,-0.03151779,8.33999981358647,5
-22.0996,0.2833333,-10.78759,0.0429880892945888,-0.3090461571568567,-0.0369980720834099,3.266411,42.04151,359.9183,0.02634862,0.3585792,-0.0108886,8.35999981313944,5
-22.06017,0.4833332,-10.74642,0.0967470297357238,-0.3343452777049305,0.0085456618107215,6.530927,41.47665,359.8043,0.05266758,0.353616,-0.02176513,8.3799998126924,5
-22.02076,0.683333,-10.70526,0.0091856684713036,0.2937024683891592,-0.0640762792734701,9.792878,40.90108,359.6565,0.0789316,0.3483618,-0.032621,8.39999981224537,5
-21.83169,0.2833334,-10.53389,0.0499006511260979,0.0308512957865885,-0.0350760989400811,3.215642,39.20211,359.8029,0.02585549,0.3353818,-0.01103184,8.41999981179833,5
-21.79337,0.4833332,-10.49276,0.092368029949938,-0.2168764615282415,-0.0059706352742736,6.428263,38.62936,359.5735,0.05168254,0.3304305,-0.02205166,8.4399998113513,5
-21.75507,0.6833332,-10.45166,-0.0251021366363701,0.2164461579404515,-0.1141679409019085,9.637425,38.03959,359.3098,0.07745974,0.3252154,-0.03305016,8.45999981090426,5
-21.71677,0.8833332,-10.41056,-0.003100749724588,-0.0010343419227764,-0.1069409970039254,12.8425,37.42873,359.0097,0.1031654,0.319741,-0.04401522,8.47999981045723,5
-21.55132,0.2833334,-10.2644,0.0140177841911004,-0.2033913331082224,-0.1041873933854811,3.370813,38.78418,359.7798,0.02710529,0.33194,-0.01157732,8.49999981001019,5
-21.51126,0.4833335,-10.22113,0.0366464437826437,-0.4449858231829204,-0.0970800392682056,6.738346,38.21051,359.5255,0.05417884,0.326966,-0.02314105,8.51999980956316,5
-21.4712,0.6833335,-10.17787,-0.0616817176705772,0.1802045479728053,-0.1868891115183117,10.1022,37.61722,359.2349,0.08119658,0.3217052,-0.03468124,8.53999980911613,5
-21.29084,0.2833334,-10.0178,0.0360026536105202,-0.0855038789974043,-0.1092124701796901,3.536614,40.73757,359.8163,0.02837057,0.3479416,-0.01224277,8.55999980866909,5
-21.24789,0.4833334,-9.973329,0.1311561286434646,-0.3360888100961189,-0.0319208850406065,7.07037,40.16766,359.5969,0.05670591,0.3429428,-0.02447155,8.57999980822206,5
-21.20496,0.6833334,-9.928873,0.0809285601123441,0.0943767033661671,-0.0748038983330507,10.60195,39.57899,359.3392,0.08498603,0.337613,-0.0366812,8.59999980777502,5
-21.01045,0.2833333,-9.754467,0.1936002035156931,-0.1259611671666666,0.0237827026353292,3.567339,42.29317,359.8794,0.02865046,0.3606108,-0.01220968,8.61999980732799,5
-20.96679,0.4833333,-9.710049,0.2990050737366871,-0.3311757670269309,0.1179587236968497,7.132547,41.73063,359.7233,0.0572653,0.355622,-0.02440669,8.63999980688095,5
-20.92314,0.6833332,-9.665643,0.2370610363248637,0.144659997090043,0.0698957707943028,10.69503,41.15325,359.5302,0.08581512,0.3502849,-0.03657633,8.65999980643392,5
-20.8795,0.8833331,-9.62125,0.1716593110483231,0.6100068083254253,0.0199989850843582,14.25434,40.55607,359.2974,0.1142716,0.3446052,-0.04870635,8.67999980598688,5
-20.83587,0.9766704,-9.57687,0.2444243967632147,0.1598875029835454,0.0844086110537043,17.81003,39.93353,359.0216,0.1426066,0.3385889,-0.06078514,8.69999980553985,5
-20.64056,0.2833332,-9.405945,0.3184535062300035,-0.300720770659733,0.1514680609584795,3.577469,43.86117,0.04405412,0.02909899,0.3732898,-0.01130153,8.71999980509281,5
-20.59765,0.4833332,-9.3606,0.1798462549113821,0.1331594958155129,0.035428171562911,7.154265,43.31692,0.05471899,0.05816321,0.3683262,-0.02258433,8.73999980464578,5
-20.55475,0.6833332,-9.315269,0.1865829699166497,-0.0837633473711122,0.0412970221509967,10.72998,42.76852,0.0309387,0.08716109,0.3630001,-0.03384176,8.75999980419874,5
-20.38162,0.2833333,-9.162907,0.1847719697545322,-0.2855624321138644,0.0402754178633717,3.597832,44.95981,0.07924318,0.02927077,0.3821508,-0.0113643,8.77999980375171,5
-20.33802,0.4833333,-9.117715,0.1857342182242938,-0.5265991250784265,0.0418096071559066,7.195219,44.42047,0.1246926,0.05850358,0.3771978,-0.02271402,8.79999980330467,5
-20.29443,0.6833332,-9.072536,0.2142265614605492,-0.5411650463380779,0.071561985030117,10.79206,43.87915,0.1358616,0.08766983,0.3718691,-0.03404089,8.81999980285764,5
-20.10628,0.2833333,-8.904806,0.232062578305527,-0.5160400640665039,0.0924952425130261,3.64316,45.53983,0.09561539,0.02963269,0.3868113,-0.01153366,8.8399998024106,5
-20.06186,0.4833333,-8.859297,0.2508435072228216,-0.5045398000131309,0.1144014133993405,7.28601,45.0037,0.1572215,0.05922613,0.381859,-0.02305243,8.85999980196357,5
-20.01744,0.6833334,-8.8138,0.1174804203334538,0.1603069875262746,0.0086054488596678,10.92822,44.46662,0.1848029,0.08874983,0.376517,-0.03454401,8.87999980151653,5
-19.97304,0.8833333,-8.768316,-0.0104138258991888,0.6741773430705309,-0.091520064045091,14.56993,43.92407,0.1773933,0.1181765,0.3707907,-0.04599965,8.8999998010695,5
-19.81466,0.2833333,-8.631797,0.0434665303070964,0.1610198347551515,-0.0401375882681813,3.605164,46.72723,0.1418839,0.02936738,0.3963327,-0.01133817,8.91999980062246,5
-19.77035,0.4833333,-8.58709,-0.0761430958365458,0.358148960687093,-0.1370926582497524,7.210434,46.19767,0.2506208,0.05869635,0.3914146,-0.02266171,8.93999980017543,5
-19.72605,0.6833333,-8.542397,-0.1970905517420789,0.5729806605949257,-0.2341240562952196,10.8155,45.67028,0.3265108,0.08795717,0.3861046,-0.03395939,8.95999979972839,5
-19.55333,0.2833333,-8.391315,-0.1634620350233078,0.1129301015614373,-0.202773460323919,3.544616,48.39735,0.2278932,0.02902479,0.4096489,-0.01086416,8.97999979928136,5
-19.50952,0.4833333,-8.347489,-0.1224573602942875,-0.3571213920694017,-0.1642120990595605,7.090124,47.87733,0.423918,0.05801242,0.4047702,-0.02171462,8.99999979883432,5
-19.46572,0.6833332,-8.303677,-0.2151577524975927,0.0678031961693814,-0.2350689840487074,10.63622,47.36512,0.5890851,0.08693469,0.3994985,-0.03254082,9.01999979838729,5
-19.42194,0.8833331,-8.259874,-0.1407881526983665,-0.157587703441554,-0.1664794001745546,14.18223,46.85694,0.723655,0.1157596,0.3938394,-0.04333216,9.03999979794025,5
-19.20481,0.2833334,-8.06885,-0.0616088438195454,-0.3673671171228492,-0.0953554649691641,3.478251,48.74032,0.2771425,0.0286421,0.412372,-0.01032078,9.05999979749322,5
-19.16218,0.4833335,-8.025392,-0.1348397820584637,0.1043917154667961,-0.1526666045193572,6.957838,48.22669,0.523482,0.05724848,0.4075329,-0.02062875,9.07999979704618,5
-19.11957,0.6833336,-7.981945,-0.2037166100030418,0.5661495980392779,-0.206554025089912,10.43801,47.72403,0.740612,0.08578952,0.4023123,-0.03091087,9.09999979659915,5
-18.92674,0.2833334,-7.809594,-0.1350087988669823,0.112929034458253,-0.1494157790803685,3.419748,47.91061,0.2384552,0.02811275,0.4057855,-0.0102143,9.11999979615211,5
-18.88506,0.4833332,-7.766706,-0.2380562762033449,0.3699955283417313,-0.2392441984017042,6.840094,47.39479,0.4465232,0.0561884,0.4009745,-0.02041406,9.13999979570508,5
-18.84339,0.6833332,-7.723832,-0.3420701923650036,0.6447641528597567,-0.3290767052796735,10.26116,46.88747,0.6251597,0.08420442,0.3958009,-0.03059228,9.15999979525805,5
-18.80173,0.8833332,-7.680969,-0.437209197168606,0.8849647212148237,-0.4106583753933268,13.68267,46.38519,0.7748817,0.1121353,0.3902697,-0.04073989,9.17999979481101,5
-18.63736,0.2833334,-7.537664,-0.343251480555196,0.1845748860935376,-0.3347044187744279,3.368584,45.98765,0.1363044,0.02752133,0.3904307,-0.01038703,9.19999979436398,5
-18.59655,0.4833333,-7.495306,-0.2419071082634971,-0.4244275146055002,-0.2505480496956238,6.736919,45.46468,0.2421459,0.05500766,0.3856438,-0.02075956,9.21999979391694,5
-18.55575,0.6833333,-7.452961,-0.3045126381387888,-0.0393329220805318,-0.301208088166776,10.10509,44.94399,0.317679,0.08243714,0.3805195,-0.03111097,9.23999979346991,5
-18.37781,0.2833332,-7.296293,-0.2105563589652792,-0.3050415529929875,-0.2225600544976158,3.316326,44.38898,0.02808495,0.02688492,0.377587,-0.01070393,9.25999979302287,5
-18.33749,0.4833333,-7.254796,-0.1141343649137009,-0.5556265387144206,-0.142732096899504,6.631765,43.85807,0.02543205,0.05373856,0.3728207,-0.02139555,9.27999979257584,5
-18.29719,0.6833333,-7.213307,-0.160974261975662,-0.12516125071242,-0.1815544728746019,9.945705,43.32302,359.9915,0.08053495,0.367739,-0.03206547,9.2999997921288,5
-18.10585,0.2833333,-7.043281,-0.0406959735920615,-0.3454989716643756,-0.0791921595893692,3.265755,42.72264,359.9159,0.02627056,0.3641196,-0.01106225,9.31999979168177,5
-18.06593,0.4833334,-7.002607,0.0752325168171204,-0.5507130597088847,0.0186327009788946,6.529604,42.18373,359.801,0.05251125,0.359372,-0.0221122,9.33999979123473,5
-18.02601,0.6833336,-6.961944,0.0238780040395099,-0.0748768729845505,-0.0264053711440279,9.790937,41.63428,359.6539,0.07869743,0.3543295,-0.03314056,9.3599997907877,5
-17.98611,0.8833335,-6.921291,-0.0316096888605894,0.3904701664988802,-0.0757634052140021,13.04978,41.07043,359.4731,0.1048106,0.3489965,-0.04413841,9.37999979034066,5
-17.94622,0.9766706,-6.88065,0.0482211723663184,-0.0596489843835378,-0.01671725554952,16.30576,40.48796,359.2563,0.130829,0.3433777,-0.05509677,9.39999978989363,5
-17.75139,0.2833332,-6.712081,0.1276302190037679,-0.5202569639178818,0.0408689969485438,3.209417,39.25119,359.7758,0.02572003,0.3357917,-0.01124785,9.41999978944659,5
-17.71276,0.4833332,-6.67137,0.0802342853036872,-0.0863765032575617,-0.0035715191708458,6.415612,38.70333,359.5206,0.05141152,0.3310641,-0.02248315,9.43999978899956,5
-17.67413,0.6833332,-6.630669,0.0376342961062814,0.3370150220318043,-0.0437130120525166,9.618246,38.1372,359.2325,0.07705391,0.3260733,-0.03369698,9.45999978855252,5
-17.49999,0.2833333,-6.478327,0.1878900384612336,-0.1550597636154067,0.0764228983348509,3.451852,40.0517,359.7824,0.02764744,0.3423418,-0.01209731,9.47999978810549,5
-17.45809,0.4833334,-6.434828,0.1863074867177161,0.062664630612533,0.0713627471335502,6.900556,39.50415,359.5314,0.05526145,0.337567,-0.02418028,9.49999978765845,5
-17.4162,0.6833334,-6.39134,0.1807140417925374,0.2976035852364751,0.0642816650635191,10.34608,38.93675,359.2445,0.08281879,0.3324822,-0.03624016,9.51999978721142,5
-17.22788,0.2833333,-6.22568,0.3350745639404042,-0.1428277321380847,0.1921719544158291,3.548895,41.889,359.8267,0.02837878,0.3573354,-0.0124803,9.53999978676438,5
-17.18406,0.4833333,-6.181798,0.4870288289555073,-0.5937479571802113,0.3189852283465288,7.095749,41.34639,359.619,0.05672592,0.3525512,-0.02495172,9.55999978631735,5
-17.14026,0.6833332,-6.137929,0.4395366477578832,-0.1501799538976148,0.2774562225496955,10.63945,40.78599,359.3752,0.08500937,0.3474253,-0.03739507,9.57999978587031,5
-17.09647,0.8833333,-6.094072,0.3891214715277158,0.282898874963397,0.2338082977774256,14.17953,40.2029,359.0924,0.113201,0.341963,-0.04979853,9.59999978542328,5
-16.93736,0.2833333,-5.957373,0.4645919499948281,-0.1994886342928505,0.2674705812684461,3.581049,43.30637,359.9191,0.02878021,0.3688276,-0.01218506,9.61999978497624,5
-16.89327,0.4833332,-5.913069,0.3625675553312248,0.0279232343443024,0.152596684830311,7.160448,42.77441,359.8048,0.05752572,0.3640558,-0.02435523,9.63999978452921,5
-16.8492,0.683333,-5.868777,0.2546838241899767,0.272549780811949,0.0359024039248674,10.73761,42.23048,359.6556,0.08620577,0.3589253,-0.0364978,9.65999978408217,5
-16.80513,0.883333,-5.824498,0.2868222122011854,-0.1581939340034458,0.0352300287338369,14.31215,41.66988,359.4694,0.1147914,0.3534417,-0.04860072,9.67999978363514,5
-16.60141,0.2833334,-5.648085,0.3166239674460556,-0.5994265724289225,0.0362848709900043,3.564605,44.95808,0.06203793,0.02894577,0.3821449,-0.01139171,9.6999997831881,5
-16.55803,0.4833334,-5.6035,0.2078935318755768,-0.1461709984721946,-0.0723796801715668,7.128506,44.44174,0.09233089,0.05785491,0.3774001,-0.02276605,9.71999978274107,5
-16.51466,0.6833334,-5.558929,0.1030941549404556,0.2965956385454636,-0.1743689045986465,10.69152,43.92279,0.09028206,0.0866987,0.372287,-0.0341148,9.73999978229403,5
-16.33279,0.2833333,-5.400055,0.2004041035932982,-0.1761038106972303,-0.1048392532606685,3.627438,45.9472,0.08712994,0.02943636,0.3900892,-0.01165355,9.759999781847,5
-16.28814,0.4833333,-5.35515,0.135184096867805,0.0609960250861424,-0.168127956550435,7.254479,45.43479,0.1418858,0.05883411,0.3853399,-0.0232922,9.77999978139997,5
-16.24351,0.6833333,-5.310258,0.0652441295891339,0.3153100872567335,-0.2322907261575784,10.88138,44.92117,0.1639053,0.08816677,0.3802009,-0.03490805,9.79999978095293,5
-16.04682,0.2833334,-5.136679,0.1626084831679684,-0.1057461236165908,-0.1515208106442358,3.639229,46.30586,0.09333313,0.02951558,0.3929645,-0.01173632,9.8199997805059,5
-16.00182,0.4833333,-5.091837,0.0753996518850641,0.1829968448625318,-0.2244889308386355,7.278115,45.7956,0.1543555,0.05899235,0.388225,-0.0234574,9.83999978005886,5
-15.95684,0.6833333,-5.047008,-0.0236122867075359,0.4889542531669313,-0.3040044421230266,10.91633,45.2846,0.1830395,0.08839981,0.3830906,-0.03515102,9.85999977961183,5
-15.91187,0.8833331,-5.002192,-0.1232609415250838,0.7598551957791029,-0.3809077808170178,14.5538,44.76857,0.1785143,0.1177089,0.3775666,-0.04680714,9.87999977916479,5
-15.74539,0.2833333,-4.859373,-0.0797873111440878,0.0896773381919391,-0.3372712344713853,3.59096,47.84919,0.1675772,0.02923259,0.4052926,-0.01137006,9.89999977871776,5
-15.70071,0.4833333,-4.815364,-0.0317501398169834,-0.4896007640213774,-0.285552441293758,7.182205,47.34801,0.3039443,0.05842716,0.4005903,-0.02272567,9.91999977827072,5
-15.65604,0.6833333,-4.771369,-0.1531622982943634,-0.0752695269692214,-0.3696734371522026,10.77343,46.85104,0.4096881,0.08755434,0.3954904,-0.03405531,9.93999977782369,5
-15.61138,0.8833333,-4.727384,-0.265997017087562,0.3280846928319095,-0.4442150924210364,14.36412,46.35437,0.484586,0.1165825,0.3899984,-0.04534842,9.95999977737665,5
-15.39977,0.2833333,-4.545084,-0.1712119622818875,-0.1845150271722068,-0.3468829618910556,3.521458,49.29153,0.2553068,0.02885524,0.4167468,-0.01078873,9.97999977692962,5
-15.35592,0.4833333,-4.501835,-0.2251619515664842,0.0121964442087987,-0.3710360100479604,7.043957,48.80036,0.4807578,0.05767388,0.4120888,-0.02156409,9.99999977648258,5
-15.31207,0.6833334,-4.458597,-0.2762441783614573,0.2256343674477624,-0.3921717444578592,10.56709,48.3191,0.6776593,0.08642744,0.4070361,-0.03231488,10.0199997760355,5
-15.1242,0.2833333,-4.295181,-0.1583285360523145,-0.236785770738141,-0.2730470443601431,3.454712,50.53766,0.3012888,0.02838093,0.4265988,-0.0104906,10.0399997755885,5
-15.08082,0.4833332,-4.253009,-0.2099026983733036,0.010105482047446,-0.2963583093596478,6.910451,50.05186,0.5734392,0.05672267,0.4219809,-0.02096885,10.0599997751415,5
-15.03745,0.6833333,-4.21085,-0.2666133913587938,0.2737232934100212,-0.3238436030417384,10.36733,49.57877,0.8182971,0.08500326,0.4169728,-0.03142437,10.0799997746944,5
-14.9941,0.8833332,-4.168702,-0.3183090217155069,0.5017972385468599,-0.3471877348889889,13.8251,49.11523,1.036888,0.1131963,0.4115796,-0.04184804,10.0999997742474,5
-14.83975,0.2833333,-4.060336,-0.2325186649342097,-0.2116959081748272,-0.2585572693501241,3.405959,49.08525,0.209807,0.02779338,0.4151364,-0.01067928,10.1199997738004,5
-14.79706,0.4833333,-4.01884,-0.274887618321106,-0.0024396821430486,-0.2713005599900653,6.812224,48.593,0.3905878,0.05555024,0.4105449,-0.02134466,10.1399997733533,5
-14.75438,0.6833333,-3.977356,-0.3125157116484693,0.2235432496944212,-0.2787266302730611,10.21892,48.10777,0.5432386,0.08324878,0.4055859,-0.03198778,10.1599997729063,5
-14.58471,0.2833333,-3.833487,-0.1968513355932923,-0.2263314920455316,-0.1601707530600979,3.355005,47.22528,0.1139393,0.02722088,0.4003526,-0.01081496,10.1799997724593,5
-14.54291,0.4833333,-3.79246,-0.0731144097634874,-0.6871831283749592,-0.0338574608346742,6.709505,46.72591,0.1988723,0.05440715,0.395781,-0.02161507,10.1999997720122,5
-14.50113,0.6833333,-3.751444,-0.1220693995968691,-0.2540347490232135,-0.0497319705805547,10.06364,46.22775,0.2548544,0.08153778,0.3908666,-0.03239334,10.2199997715652,5
-14.45936,0.8833332,-3.71044,-0.1624411041568709,0.1681367096037824,-0.0591620029708981,13.41719,45.72738,0.2815603,0.1085892,0.3856142,-0.04314047,10.2399997711182,5
-14.24185,0.2833334,-3.523112,0.0052677384513177,-0.3256457961416273,0.1015710644214806,3.300003,44.82724,359.9629,0.02649538,0.3811406,-0.01127799,10.2599997706711,5
-14.20062,0.4833334,-3.482921,0.0143855858805146,-0.1101168960184402,0.129355784695623,6.598585,44.3167,359.8963,0.0529605,0.3765906,-0.02254322,10.2799997702241,5
-14.15941,0.6833333,-3.442739,0.0213841240475236,0.1221385770561328,0.1538112249268355,9.895096,43.79848,359.7993,0.07936954,0.3717254,-0.03378577,10.2999997697771,5
-13.96731,0.2833333,-3.274409,0.199059199883365,-0.3214641031160864,0.3185541636117344,3.243054,42.58764,359.8717,0.02595889,0.3630346,-0.011319,10.31999976933,5
-13.92721,0.4833333,-3.234441,0.1928366005387971,-0.0557557109057882,0.3245719591188718,6.483872,42.07099,359.714,0.05188877,0.3585024,-0.02262534,10.339999768883,5
-13.88711,0.6833334,-3.194485,0.174575319248321,0.2266793732585056,0.3173208096024167,9.722151,41.54162,359.5254,0.07776824,0.3536803,-0.0339099,10.359999768436,5
-13.84702,0.8833333,-3.15454,0.1542793721321107,0.4735702833235508,0.3048833582793344,12.95728,40.99588,359.3044,0.1035747,0.3485726,-0.04516016,10.3799997679889,5
-13.68272,0.2833333,-3.012684,0.2718343302546948,-0.221104861683662,0.3995623125896241,3.194403,39.7802,359.7717,0.02553245,0.3401365,-0.01135569,10.3999997675419,5
-13.64384,0.4833333,-2.972568,0.2453523209052033,0.0069691243984361,0.3742737800503046,6.385683,39.25741,359.5139,0.05103698,0.3356215,-0.02269883,10.4199997670949,5
-13.60496,0.6833333,-2.932462,0.2149142937349051,0.2517697757765531,0.3427227230527293,9.573506,38.71649,359.2248,0.07649322,0.3308426,-0.03402051,10.4399997666478,5
-13.56609,0.8833331,-2.892369,0.1906207127320716,0.461026321355599,0.3131817446874668,12.75732,38.15374,358.9022,0.1018807,0.325804,-0.04530745,10.4599997662008,5
-13.35134,0.2833333,-2.708628,0.3613736786499171,-0.27128390476679,0.4409806231357759,3.516599,41.8457,359.8028,0.02804566,0.3569913,-0.01256434,10.4799997657537,5
-13.3076,0.4833333,-2.665369,0.3354879891055624,-0.0808448904673086,0.4031658607140688,7.030359,41.32531,359.5732,0.05605678,0.3524124,-0.02511344,10.4999997653067,5
-13.26388,0.6833333,-2.622129,0.3023510333072394,0.1263206978289714,0.3565292531247109,10.54256,40.78606,359.3084,0.08401774,0.3474977,-0.03764562,10.5199997648597,5
-13.07435,0.2833334,-2.45814,0.4263357563691592,-0.3423720928431827,0.4375411801305966,3.559018,43.48422,359.8591,0.02838891,0.3702861,-0.01264461,10.5399997644126,5
-13.02964,0.4833334,-2.414969,0.3713286911337423,-0.1017534643177476,0.366460638973614,7.115951,42.97029,359.6856,0.05674318,0.365711,-0.02527714,10.5599997639656,5
-12.98493,0.6833334,-2.371811,0.3020679273216231,0.1555918700133741,0.2812654486478139,10.67015,42.4409,359.4781,0.08503344,0.3607802,-0.03788129,10.5799997635186,5
-12.94024,0.8833334,-2.328666,0.2291253743933214,0.3773930312906606,0.1905609121742721,14.22124,41.89145,359.234,0.1132318,0.3554989,-0.05044493,10.5999997630715,5
-12.78095,0.2833332,-2.19228,0.2873247586462479,-0.3423722077512642,0.2007738596754387,3.591403,44.73873,-0.001706095,0.02897208,0.3803895,-0.0119394,10.6199997626245,5
-12.73663,0.4833332,-2.147971,0.2140600797703111,-0.1393881951331528,0.130826234500515,7.181901,44.23986,359.9658,0.05791066,0.3758245,-0.02386049,10.6399997621775,5
-12.69233,0.6833332,-2.103674,0.1392323547760874,0.0803223893909362,0.0609738317106327,10.77095,43.73446,359.9012,0.08678302,0.3708879,-0.0357544,10.6599997617304,5
-12.51839,0.2833334,-1.953915,0.0736013970228324,0.2644888937285209,0.0001260130475717,3.561761,45.76687,0.06899814,0.0288654,0.3886525,-0.01153015,10.6799997612834,5
-12.47451,0.4833333,-1.90989,0.0490004390779095,0.227376872896966,-0.0259625593480427,7.122759,45.27615,0.1076133,0.05769264,0.3841114,-0.02304459,10.6999997608364,5
-12.43065,0.6833332,-1.865877,0.0170344306135703,0.2357402234040772,-0.0564317080873875,10.68295,44.78356,0.1156073,0.0864549,0.3791965,-0.03453323,10.7199997603893,5
-12.3868,0.8833331,-1.821877,-0.0111405432948057,0.2362629889689396,-0.0820594835923967,14.24205,44.28516,0.09215067,0.1151237,0.373913,-0.04598508,10.7399997599423,5
-12.16556,0.2833333,-1.63194,0.1235972763613588,-0.464684740747048,0.0265333965320493,3.634723,46.76418,0.101242,0.0294597,0.3966355,-0.01177535,10.7599997594953,5
-12.12036,0.4833333,-1.587396,0.0553010696347904,-0.242883351657302,-0.0327174597466386,7.269141,46.27853,0.1717914,0.05888077,0.3920891,-0.02353544,10.7799997590482,5
-12.07517,0.6833333,-1.542865,-0.0168581089859465,-0.004355416796853,-0.0935146448732615,10.90344,45.79293,0.2114529,0.08823581,0.3871451,-0.03527181,10.7999997586012,5
-11.8775,0.2833333,-1.371276,0.0802221925106021,-0.4416855423158607,-0.0107764201726729,3.615933,47.53873,0.1175916,0.02928692,0.4028256,-0.01177764,10.8199997581542,5
-11.83215,0.4833332,-1.327369,-0.0062064015686189,-0.1697044887333207,-0.0811320856377397,7.231666,47.05611,0.2048798,0.05853549,0.3982994,-0.0235399,10.8399997577071,5
-11.78681,0.6833332,-1.283474,-0.1025798746153547,0.1190031378006054,-0.1583050236257341,10.84696,46.57471,0.2620351,0.08771612,0.3933734,-0.03527523,10.8599997572601,5
-11.74148,0.883333,-1.23959,-0.1975457306239754,0.3721664584263916,-0.2329905885048394,14.46148,46.09059,0.2884001,0.1167979,0.3880529,-0.04697349,10.879999756813,5
-11.57445,0.2833334,-1.098057,-0.2797415787745532,0.4236859941071363,-0.2958828562799105,3.559353,49.20738,0.2092214,0.02899634,0.4160863,-0.01127067,10.899999756366,5
-11.52964,0.4833334,-1.054915,-0.3152162676341827,0.3558035899408249,-0.3231075588692506,7.119283,48.73524,0.3894125,0.05795561,0.4115992,-0.02252696,10.919999755919,5
-11.48484,0.6833335,-1.011786,-0.3490021413450979,0.333884315699924,-0.3482670741470924,10.6795,48.27036,0.541484,0.08684907,0.4067106,-0.03375799,10.9399997554719,5
-11.44006,0.8833334,-0.9686674,-0.3697011858395829,0.3046123351515348,-0.3622309768228521,14.23947,47.80925,0.6657458,0.1156457,0.4014258,-0.04495248,10.9599997550249,5
-11.22776,0.2833334,-0.787755,-0.222424052635068,-0.4256422487139517,-0.2420696447428807,3.490942,49.87745,0.2705829,0.02861452,0.4213868,-0.01070306,10.9799997545779,5
-11.18406,0.4833333,-0.7450796,-0.2648941599814094,-0.2326598084809614,-0.2776796285738939,6.982972,49.41265,0.5132299,0.05719348,0.4169396,-0.02139282,10.9999997541308,5
-11.14037,0.6833333,-0.7024155,-0.3043470633488674,-0.022462917184528,-0.3107025963038332,10.47536,48.95902,0.7294755,0.08570669,0.4121004,-0.03205641,11.0199997536838,5
-10.95237,0.2833332,-0.5397646,-0.1744877495217895,-0.4876363010228293,-0.2044349628702317,3.430825,49.38055,0.2597553,0.0281448,0.417463,-0.01044562,11.0399997532368,5
-10.90971,0.4833332,-0.4975334,-0.2142090743362334,-0.2430106276475252,-0.2384919891815118,6.862211,48.91593,0.4922103,0.05625252,0.4130456,-0.02087561,11.0599997527897,5
-10.86707,0.6833332,-0.4553144,-0.2588735566749065,0.0188294829395296,-0.2755565167342233,10.29437,48.4617,0.6984531,0.0843005,0.4082529,-0.0312837,11.0799997523427,5
-10.82443,0.8833331,-0.4131072,-0.2983921144609152,0.2456133781231487,-0.3072318704577477,13.72704,48.01484,0.8793133,0.1122631,0.4030896,-0.04166032,11.0999997518957,5
-10.66537,0.2833333,-0.2792502,-0.2000986920121299,-0.468681502848115,-0.2274963005781569,3.381664,47.64623,0.1573199,0.02754653,0.4037011,-0.01066265,11.1199997514486,5
-10.62344,0.4833333,-0.2376498,-0.2295677809539791,-0.2597389221293239,-0.2484101395012772,6.763144,47.17415,0.2869715,0.05505742,0.399309,-0.02131137,11.1399997510016,5
-10.58153,0.6833333,-0.1960613,-0.2538514784678307,-0.0335819858279509,-0.2635796384358593,10.1446,46.70616,0.3894564,0.0825114,0.3945658,-0.03193827,11.1599997505546,5
-10.53963,0.8833332,-0.1544846,-0.2626707304067004,0.1575187740115458,-0.2648638733780566,13.52581,46.23905,0.4648188,0.1098841,0.3894759,-0.04253398,11.1799997501075,5
-10.33513,0.2833333,0.01804777,-0.2270631532684834,0.1278287790295178,-0.2328395304449793,3.325507,45.68454,0.03724157,0.026867,0.3880235,-0.01096468,11.1999997496605,5
-10.2939,0.4833333,0.05887103,-0.1927504360190672,0.1441021386491282,-0.2015076715998758,6.649808,45.20374,0.04656582,0.05369949,0.3836568,-0.02191557,11.2199997492135,5
-10.25268,0.6833333,0.09968252,-0.1493498572099136,0.1530229099184489,-0.1625613702985462,9.973124,44.71989,0.02766473,0.08047811,0.3789646,-0.03284482,11.2399997487664,5
-10.07281,0.2833334,0.2530715,0.061773819256258,-0.5390390304164729,0.0116134678631043,3.268532,44.11021,359.9211,0.02617423,0.3753636,-0.01134645,11.2599997483194,5
-10.03196,0.4833334,0.2928798,0.0727749204223942,-0.3078639482210386,0.0204653267779018,6.53531,43.62091,359.8142,0.05231887,0.3710186,-0.02268025,11.2799997478724,5
-9.991127,0.6833334,0.3326796,0.0814404324907878,-0.0594744165302745,0.0272083344773217,9.799774,43.12188,359.678,0.07840919,0.3663693,-0.03399253,11.2999997474253,5
-9.798481,0.2833334,0.4997187,0.2612061018934701,-0.4864550548233335,0.1738853240597706,3.216352,41.19779,359.8042,0.02566899,0.3517294,-0.01147268,11.3199997469783,5
-9.75879,0.4833333,0.5395292,0.2556919679379676,-0.2036365302291664,0.1650537556646019,6.429969,40.70023,359.5801,0.05130975,0.3473988,-0.02293271,11.3399997465312,5
-9.71911,0.6833333,0.5793284,0.2373868055246344,0.0963964449057391,0.145205145782298,9.640545,40.18647,359.3261,0.07690147,0.3427919,-0.03437098,11.3599997460842,5
-9.679439,0.8833331,0.619116,0.216240268535337,0.3613733390596298,0.1225854133900337,12.8475,39.65295,359.0403,0.1024227,0.3379128,-0.04577444,11.3799997456372,5
-9.639778,0.9766704,0.6588922,0.202206628954646,0.4251943418003483,0.1054328102471511,16.05073,39.09556,358.7194,0.1278539,0.3327655,-0.05713796,11.3999997451901,5
-9.439226,0.2833334,0.826958,0.2225841163792195,0.3701006200155529,0.1147734846939663,3.398743,41.1514,359.7849,0.02710412,0.3513415,-0.01217864,11.4199997447431,5
-9.397171,0.4833333,0.8689921,0.2331797401148856,0.3614580161234881,0.1171966155079409,6.794592,40.65328,359.5399,0.05417637,0.3469815,-0.02434311,11.4399997442961,5
-9.355127,0.6833333,0.9110151,0.2443095792783856,0.3459503465534823,0.1212342218828261,10.18721,40.13648,359.2629,0.08119237,0.3423134,-0.03648252,11.459999743849,5
-9.178665,0.2833333,1.059646,0.4049673701160099,-0.3700520738341287,0.2470415553531957,3.53341,43.13885,359.8307,0.02812797,0.3674955,-0.01270754,11.479999743402,5
-9.134152,0.4833333,1.102436,0.3678640721930337,-0.1623293924248433,0.2123422503946064,7.065087,42.64538,359.63,0.0562256,0.3631127,-0.02540651,11.499999742955,5
-9.089654,0.6833333,1.145213,0.3233309074031272,0.0630957238335637,0.173101244622162,10.59408,42.13508,359.3966,0.08426233,0.3583817,-0.03807815,11.5199997425079,5
-8.898992,0.2833333,1.308147,0.4373296825299722,-0.3863615579761166,0.264348264991963,3.576998,44.67999,359.9232,0.0286131,0.379936,-0.01248239,11.5399997420609,5
-8.85397,0.4833333,1.351401,0.3720872996551554,-0.1255316654095091,0.2080707607362355,7.152543,44.19646,359.8161,0.05719232,0.3755554,-0.0249501,11.5599997416139,5
-8.80896,0.6833333,1.394644,0.2933473438760163,0.1530005691388882,0.1413442170563201,10.72603,43.70185,359.6773,0.08570669,0.3708065,-0.03738968,11.5799997411668,5
-8.763963,0.8833332,1.437874,0.2117711560713875,0.3969644940992952,0.0727437226814675,14.29717,43.19189,359.5048,0.1141279,0.3656945,-0.049789,11.5999997407198,5
-8.604145,0.2833333,1.572566,0.34226817752144,-0.2996623301863053,0.1786079243621077,3.572167,45.72821,0.05114853,0.02889243,0.3883451,-0.01169913,11.6199997402728,5
-8.559963,0.4833333,1.616539,0.3260233884591743,-0.0725642512159628,0.1690299047885015,7.143603,45.25869,0.07356829,0.05774963,0.3839837,-0.02337936,11.6399997398257,5
-8.515794,0.6833332,1.660501,0.2992843909733613,0.1722361579752933,0.1515090567511379,10.71408,44.78643,0.066456,0.08654144,0.3792468,-0.03503332,11.6599997393787,5
-8.471637,0.8833331,1.704449,0.2733243335105957,0.3824682452949838,0.1351008617750042,14.28336,44.30762,0.02891908,0.1152395,0.3741397,-0.04664969,11.6799997389317,5
-8.264134,0.2833333,1.877601,0.3933015008651477,-0.3478904294376195,0.2332370385853193,3.608389,47.11233,0.09788983,0.02920155,0.3994249,-0.0117998,11.6999997384846,5
-8.218974,0.4833333,1.921517,0.324849825855483,-0.1545240941952453,0.1798372824099541,7.216421,46.64909,0.1667168,0.05836525,0.3950695,-0.02358448,11.7199997380376,5
-8.17383,0.6833333,1.965421,0.2534202874217932,0.056544571268039,0.1245482359553529,10.82421,46.18602,0.2062278,0.08746338,0.3903196,-0.03534596,11.7399997375906,5
-7.989783,0.2833333,2.121105,0.3387611323228467,-0.4072691592459436,0.1961667951351562,3.633533,47.6067,0.1000021,0.02935847,0.4033705,-0.01199734,11.7599997371435,5
-7.943949,0.4833333,2.164952,0.2583770753618335,-0.160795953388851,0.1342325432921542,7.266704,47.1451,0.1708508,0.05867838,0.3990192,-0.02397906,11.7799997366965,5
-7.898128,0.6833333,2.208787,0.1720096247531142,0.103379568837459,0.069201894719193,10.89928,46.68384,0.2126159,0.0879298,0.394264,-0.03593316,11.7999997362494,5
-7.699114,0.2833334,2.378152,0.0910608350775685,0.3329867548178048,0.0103266351523387,3.589457,49.2594,0.1724344,0.0290962,0.4165043,-0.01168496,11.8199997358024,5
-7.653451,0.4833334,2.421113,0.043246526189983,0.3422911590468389,-0.0241289881129618,7.179118,48.80602,0.3166921,0.05815466,0.4121826,-0.02335498,11.8399997353554,5
-7.607801,0.6833333,2.464061,-0.0197765948146235,0.3980467975576874,-0.0701419696771719,10.76875,48.35778,0.4334533,0.08714648,0.407453,-0.03499855,11.8599997349083,5
-7.562164,0.8833333,2.507,-0.0862882415633485,0.4469376073504021,-0.1184324480746656,14.35789,47.9112,0.5226299,0.11604,0.4023206,-0.04660507,11.8799997344613,5
-7.51654,0.9766705,2.549926,-0.1445627115836361,0.4356477655210719,-0.1597182836280772,17.94657,47.46277,0.5840447,0.1448094,0.3967909,-0.05816212,11.8999997340143,5
-7.31777,0.2833333,2.714681,-0.0502202158045017,-0.4148444528757304,-0.0837003334001202,3.521029,50.43473,0.2527743,0.02873338,0.42579,-0.01109445,11.9199997335672,5
-7.273057,0.4833333,2.757029,-0.128996767063664,-0.2424911069510026,-0.1454711272329234,7.042896,49.99094,0.4786364,0.05743055,0.4215126,-0.02217497,11.9399997331202,5
-7.228356,0.6833332,2.799364,-0.2010419262013574,-0.0529232048119141,-0.2020622433310652,10.56525,49.5575,0.6789662,0.08606344,0.4168326,-0.03323,11.9599997326732,5
-7.053734,0.2833333,2.946285,-0.1137416885446693,-0.5387254726566513,-0.134273037808537,3.456335,50.46124,0.2797665,0.02832071,0.426001,-0.01064754,11.9799997322261,5
-7.010174,0.4833333,2.988266,-0.1755321219894847,-0.3147285776141603,-0.1858759872612099,6.913268,50.021,0.5335714,0.05660382,0.4217561,-0.0212787,11.9999997317791,5
-6.966625,0.6833333,3.030234,-0.2353022770762249,-0.0735173520789508,-0.2355055607161729,10.37103,49.59271,0.7626617,0.08482609,0.4171225,-0.03188726,12.0199997313321,5
-6.777334,0.2833333,3.190798,-0.2827311342504588,0.1326377786235495,-0.2747344490785233,3.406281,49.32971,0.2104015,0.02777525,0.4170751,-0.01073501,12.039999730885,5
-6.734487,0.4833333,3.23214,-0.2934366358996536,0.1180021432663591,-0.2861662377591889,6.812719,48.88432,0.3945912,0.05551414,0.4128547,-0.02145585,12.059999730438,5
-6.691651,0.6833333,3.273471,-0.3150474921434929,0.1493297584053027,-0.3049880309176993,10.2195,48.44653,0.5534937,0.08319498,0.4082657,-0.0321545,12.079999729991,5
-6.648829,0.8833332,3.31479,-0.3371026384400668,0.1733046677594669,-0.3228361841122451,13.62642,48.01337,0.6876001,0.1107929,0.4033126,-0.04282144,12.0999997295439,5
-6.414615,0.2833333,3.5133,-0.1845992565358187,-0.5037031457287824,-0.1982380391939342,3.351594,47.14309,0.09236182,0.02712609,0.3997011,-0.01095605,12.1199997290969,5
-6.372685,0.4833333,3.554086,-0.1692881056604314,-0.2574738283995239,-0.1820652623909353,6.70241,46.68892,0.1583529,0.05421754,0.395506,-0.02189713,12.1399997286499,5
-6.330767,0.6833333,3.594861,-0.1569808045106779,0.0059699399931774,-0.1690264515110335,10.05269,46.23521,0.1979506,0.08125398,0.3909701,-0.03281623,12.1599997282028,5
-6.288861,0.8833332,3.635625,-0.1368704038918196,0.2343577341238946,-0.1506362771539429,13.40222,45.77879,0.2107861,0.1082119,0.3860978,-0.04370384,12.1799997277558,5
-6.121504,0.2833333,3.774184,-0.0981443059055013,0.2615894100743909,-0.1184069261973341,3.293664,45.29598,359.9637,0.02640052,0.3849178,-0.01135891,12.1999997273088,5
-6.080057,0.4833333,3.813983,-0.0585753174974232,0.1699067072690275,-0.0893978964606505,6.585957,44.83244,359.9006,0.05277099,0.3807484,-0.02270498,12.2199997268617,5
-6.03862,0.6833333,3.853775,-0.0214267924851143,0.1246750284436517,-0.0622740797351673,9.876266,44.3618,359.8098,0.07908553,0.3762625,-0.03402882,12.2399997264147,5
-5.858021,0.2833333,4.005723,0.0238145049046507,0.0725785368426548,-0.0286858627357622,3.241563,43.41282,359.8789,0.0258878,0.3697303,-0.0114426,12.2599997259676,5
-5.817466,0.4833333,4.045191,0.0611719387344402,0.0402753168028241,-0.0056210272224941,6.481079,42.94355,359.731,0.05174679,0.3655801,-0.02287251,12.2799997255206,5
-5.776922,0.6833333,4.084649,0.0908347501579718,0.0544232264165979,0.011144420030396,9.718312,42.46249,359.5551,0.07755592,0.3611352,-0.03428045,12.2999997250736,5
-5.736388,0.8833332,4.124095,0.1231880537435041,0.0617063094030586,0.0300331482357254,12.95269,41.96627,359.3497,0.1032923,0.3563999,-0.04565478,12.3199997246265,5
-5.509786,0.2833333,4.315114,0.1409460289219195,0.0887825305736745,0.0334489412582774,3.26712,41.08638,359.7739,0.02600219,0.3508227,-0.01185031,12.3399997241795,5
-5.469185,0.4833333,4.355335,0.1417962929752674,0.162309748020887,0.0236721373581652,6.531343,40.60979,359.5203,0.05197524,0.346673,-0.0236874,12.3599997237325,5
-5.428596,0.6833333,4.395545,0.1361925838573445,0.2289722450371132,0.0092882790252559,9.792375,40.11514,359.2372,0.07789761,0.3422388,-0.03550145,12.3799997232854,5
-5.388019,0.8833332,4.435741,0.1345932924716568,0.2354538519033709,-0.0011221763034958,13.05022,39.59875,358.9223,0.1037511,0.3375241,-0.04728218,12.3999997228384,5
-5.22316,0.2833333,4.570575,0.3526894998950971,-0.5972667171660662,0.1671448521333793,3.529461,42.63358,359.7973,0.02804596,0.363402,-0.01284165,12.4199997223914,5
-5.178631,0.4833333,4.613339,0.3859384000356662,-0.4071416146722376,0.1901200880913069,7.056204,42.15903,359.5651,0.05605718,0.3591969,-0.02566758,12.4399997219443,5
-5.134126,0.6833333,4.656084,0.4096832762154108,-0.1998020616376672,0.2072718503927211,10.58185,41.66578,359.3004,0.08402063,0.3546478,-0.03847589,12.4599997214973,5
-4.956697,0.2833334,4.802552,0.4348690910347805,-0.027518590106819,0.2274524372863595,3.562875,44.55365,359.8637,0.02831594,0.3789326,-0.01288479,12.4799997210503,5
-4.91121,0.4833334,4.845,0.4491507935560981,-0.0760257645876425,0.2367468398078598,7.12375,44.08642,359.6976,0.05659642,0.3747314,-0.02575744,12.4999997206032,5
-4.865736,0.6833333,4.887437,0.4531665975554544,-0.0785698080976454,0.2398642063480638,10.68213,43.6046,359.5005,0.08481322,0.3701657,-0.03860127,12.5199997201562,5
-4.820275,0.8833333,4.929862,0.4581148863048767,-0.088466556869722,0.245715224839607,14.2377,43.10396,359.2699,0.1129386,0.3652404,-0.05140374,12.5399997197092,5
-4.597223,0.2833333,5.115857,0.3002217412383947,0.5612560413422835,0.120818186488683,3.587749,46.43496,0.02788939,0.02886465,0.3940221,-0.01211713,12.5599997192621,5
-4.552029,0.4833333,5.159183,0.3292810874732388,0.3263521740188639,0.1441786232613182,7.174791,45.98501,0.02798061,0.05769526,0.3898313,-0.02421655,12.5799997188151,5
-4.506849,0.6833333,5.202497,0.3500538125283801,0.112844281340745,0.1628244293340781,10.76071,45.53106,-0.0005448979,0.08646034,0.3852564,-0.03628852,12.5999997183681,5
-4.307506,0.2833333,5.370522,0.3740829481303258,-0.1336287637844202,0.1859113866133306,3.56789,47.23485,0.06748438,0.02875902,0.4004167,-0.01193249,12.619999717921,5
-4.262434,0.4833333,5.413479,0.3406220639217534,-0.1473585819526158,0.1581691457401604,7.135046,46.78997,0.1072522,0.05748016,0.3962445,-0.02385009,12.639999717474,5
-4.217376,0.6833333,5.456424,0.2886505714059746,-0.1151251485792663,0.1160770424256565,10.70139,46.34367,0.1192472,0.08613651,0.391686,-0.03574103,12.6599997170269,5
-4.17233,0.8833333,5.499356,0.2296657516435045,-0.090244526664317,0.0687687925654492,14.2667,45.8924,0.1027827,0.1146998,0.3867463,-0.04759366,12.6799997165799,5
-4.127297,0.9766704,5.542276,0.1751688922320637,-0.1260324329153519,0.0253703028357152,17.83074,45.43236,0.05656996,0.1431421,0.3814304,-0.05939644,12.6999997161329,5
-3.925309,0.2833333,5.706604,0.1135231933138556,-0.1691730310994729,-0.0256604880002555,3.638514,48.02462,0.1008513,0.02935721,0.4067021,-0.01211524,12.7199997156858,5
-3.879105,0.4833332,5.750202,0.0465127278794534,-0.1663503782647556,-0.0790963720781681,7.276667,47.5852,0.1739358,0.05867608,0.4025254,-0.02421467,12.7399997152388,5
-3.832913,0.6833332,5.793788,-0.014238145474273,-0.1708803239730816,-0.1256722131548189,10.91423,47.14646,0.2193649,0.08792645,0.3979407,-0.03628606,12.7599997147918,5
-3.655294,0.2833333,5.939373,-0.224173507717903,0.484209171215422,-0.2907736877069524,3.603894,49.47443,0.1501842,0.02910738,0.4182124,-0.0119685,12.7799997143447,5
-3.609032,0.4833333,5.982037,-0.2457643112381851,0.2546719623405779,-0.3078631060577725,7.207774,49.041,0.2732989,0.05817691,0.4140605,-0.02392168,12.7999997138977,5
-3.562783,0.6833333,6.024689,-0.2673221285596474,0.0465307296791508,-0.3226247210085704,10.81142,48.61155,0.3698845,0.08717938,0.4094964,-0.03584754,12.8199997134507,5
-3.37014,0.2833334,6.184173,-0.276825046127287,-0.1945756538612064,-0.3256547574063324,3.544383,50.98119,0.2292614,0.02877577,0.4301004,-0.01150416,12.8399997130036,5
-3.324454,0.4833333,6.226033,-0.328854362933872,-0.2029388088764779,-0.367684716269431,7.089345,50.55634,0.4325596,0.05751494,0.4259824,-0.02299385,12.8599997125566,5
-3.278781,0.6833333,6.267881,-0.3842797571845,-0.1653387107820869,-0.4121588650000776,10.63466,50.1406,0.6110512,0.08618957,0.4214529,-0.03445798,12.8799997121096,5
-3.23312,0.8833332,6.309719,-0.4319213824848887,-0.1350914225779795,-0.4504171163412946,14.17976,49.73096,0.7653239,0.1147686,0.4165169,-0.04588502,12.8999997116625,5
-2.995163,0.2833334,6.50721,-0.4605697933732042,-0.1655127676907744,-0.4737890256275454,3.478199,51.23534,0.2778669,0.02841294,0.432097,-0.01093602,12.9199997112155,5
-2.950732,0.4833333,6.548819,-0.4073891415769757,-0.2032865769241899,-0.4302233067420351,6.957343,50.81643,0.5307002,0.05679076,0.4280156,-0.02185851,12.9399997107685,5
-2.90631,0.6833333,6.590415,-0.3576035144088759,-0.1950972536186707,-0.3898969660461597,10.43676,50.40968,0.7602733,0.08510445,0.4235353,-0.03275356,12.9599997103214,5
-2.861901,0.8833332,6.632,-0.3002571367576958,-0.1942606340071093,-0.3441154412446598,13.91669,50.01235,0.9673886,0.1133299,0.4186606,-0.04361495,12.9799997098744,5
-2.693169,0.2833334,6.769904,-0.3839816876230671,0.466195320827661,-0.4087239609951432,3.419398,50.36468,0.2400663,0.02789079,0.4252535,-0.01079995,12.9999997094274,5
-2.649744,0.4833333,6.81102,-0.3331157679315796,0.2420245715990849,-0.3687552205236359,6.839051,49.9438,0.4554641,0.05574508,0.4212039,-0.02158434,13.0199997089803,5
-2.606331,0.6833333,6.852126,-0.2775036342828025,0.0392499175865334,-0.3221548575918458,10.2592,49.53262,0.6472422,0.08354075,0.4167753,-0.03234622,13.0399997085333,5
-2.562931,0.8833332,6.893219,-0.2063440245173068,-0.1964899955920945,-0.2604190181182098,13.67964,49.12841,0.8161791,0.1112526,0.411972,-0.0430759,13.0599997080863,5
-2.348074,0.2833334,7.068691,-0.1806879419682011,-0.1994863493730837,-0.2390166926016839,3.363378,48.32577,0.1192036,0.0272012,0.4091277,-0.01106388,13.0799997076392,5
-2.305474,0.4833333,7.109098,-0.159565855397764,-0.1565195721832507,-0.2197534433252332,6.726147,47.89566,0.2133093,0.05436721,0.4051051,-0.02211324,13.0999997071922,5
-2.262886,0.6833333,7.149493,-0.1323086987760834,-0.1209055002554966,-0.1944267541590196,10.08856,47.46785,0.2826001,0.08147776,0.4007313,-0.03314023,13.1199997067451,5
-2.072738,0.2833333,7.306345,-0.2733284503342232,0.5743279186563447,-0.3045634555740335,3.306316,46.65715,-0.0006185213,0.02648847,0.3958388,-0.01142928,13.1399997062981,5
-2.030629,0.4833333,7.345762,-0.2145249611011229,0.3849347653137283,-0.2593346491022519,6.611548,46.21783,359.9734,0.05294659,0.3918395,-0.02284562,13.1599997058511,5
-1.988531,0.6833332,7.385171,-0.1613171746193654,0.216937599422697,-0.2183895244631859,9.915117,45.77372,359.9213,0.07934836,0.3875123,-0.03423939,13.179999705404,5
-1.946444,0.8833332,7.424569,-0.1030500884235301,0.0159751733201777,-0.1734637129194229,13.21723,45.32169,359.8423,0.1056753,0.3828613,-0.04560116,13.199999704957,5
-1.78492,0.2833333,7.554615,0.1376120810305772,-0.7845812561311468,0.0139483906737964,3.253765,44.77471,359.8976,0.02591075,0.3807361,-0.01163865,13.21999970451,5
-1.743524,0.4833333,7.593496,0.196470281146592,-0.5627798798476843,0.0597998194891253,6.505675,44.32851,359.7698,0.05179248,0.3767601,-0.02326436,13.2399997040629,5
-1.70214,0.6833334,7.632366,0.2502718212981621,-0.3242518121329327,0.1011819110775391,9.755524,43.87177,359.6153,0.07762404,0.3724786,-0.03486766,13.2599997036159,5
-1.660766,0.8833334,7.671226,0.309532018497466,-0.1212679179947241,0.1463544378530894,13.00277,43.40126,359.4325,0.103382,0.3678956,-0.04643773,13.2799997031689,5
-1.453483,0.2833334,7.839192,0.2269847051163532,0.6003600930064917,0.0811079761334063,3.200855,41.82099,359.768,0.02536742,0.356822,-0.01185829,13.2999997027218,5
-1.413088,0.4833333,7.87796,0.3189550706790833,0.3253120709239234,0.1486043546557613,6.398876,41.36585,359.5103,0.05070728,0.3528654,-0.02370363,13.3199997022748,5
-1.372704,0.6833333,7.916717,0.4084322367268923,0.0716600352475319,0.215230492193486,9.59376,40.89299,359.225,0.0759991,0.348631,-0.03552661,13.3399997018278,5
-1.185424,0.2833333,8.069632,0.3303877713064346,0.5053307335123285,0.1492730247361873,3.530909,43.31074,359.7835,0.02793668,0.3689012,-0.01312423,13.3599997013807,5
-1.140197,0.4833333,8.111736,0.3926263611690525,0.2944710020435434,0.1923604141186281,7.05909,42.85582,359.5385,0.05583888,0.3648652,-0.02623252,13.3799997009337,5
-1.094991,0.6833332,8.153826,0.446249418490637,0.1050073621318429,0.2310335533307501,10.58546,42.38158,359.2623,0.08368802,0.3604797,-0.03931979,13.3999997004867,5
-1.049805,0.8833331,8.195896,0.5021366129910428,-0.1174214333631363,0.2739204782022622,14.10981,41.88382,358.9523,0.1114594,0.355749,-0.05237103,13.4199997000396,5
-0.8164715,0.2833334,8.385056,0.498158177814318,-0.1071071250853984,0.2655655707820799,3.563517,45.6283,359.8645,0.02820195,0.3875894,-0.013145,13.4399996995926,5
-0.7702057,0.4833333,8.426671,0.4730414663111024,-0.0508294622060228,0.2422709103924862,7.125095,45.18245,359.7006,0.05636824,0.3835602,-0.02627818,13.4599996991456,5
-0.7239531,0.6833333,8.468273,0.4377197864925519,-0.0019045077249535,0.2125061748901178,10.68426,44.72232,359.5069,0.0844711,0.379158,-0.039382,13.4799996986985,5
-0.6777138,0.8833333,8.509864,0.4031360876719128,-0.0136482045941229,0.1847473555423224,14.24072,44.24387,359.2812,0.112483,0.3743877,-0.05244363,13.4999996982515,5
-0.5146126,0.2833333,8.641206,0.4393572378155297,-0.0327447165806293,0.2143897335384803,3.592679,46.94356,0.002267169,0.02876102,0.3981011,-0.01246725,13.5199996978045,5
-0.4686774,0.4833332,8.683869,0.4562531939047489,-0.005877874488206,0.2301205585244723,7.184493,46.51242,359.9779,0.05748863,0.3940788,-0.02491586,13.5399996973574,5
-0.4227554,0.6833332,8.726521,0.4653825512209353,0.0136362586832075,0.2408132538899448,10.775,46.07587,359.9258,0.08615079,0.3896675,-0.03733622,13.5599996969104,5
-0.2443942,0.2833334,8.870728,0.4783098551758631,-0.027518153299295,0.2553527930727846,3.562064,47.98888,0.07197195,0.02864937,0.4064336,-0.01206504,13.5799996964633,5
-0.1988993,0.4833333,8.913087,0.4364790612907809,-0.0760255004471528,0.2220496831495459,7.123334,47.56557,0.1177416,0.0572609,0.4024329,-0.02411385,13.5999996960163,5
-0.1534174,0.6833333,8.955434,0.3817922607359751,-0.0785694935160793,0.1795837600603977,10.68383,47.14145,0.1372074,0.08580813,0.3980415,-0.03613577,13.6199996955693,5
-0.1079483,0.8833332,8.997769,0.3257839180955475,-0.0884661955060182,0.1368128575048715,14.24336,46.71313,0.1297821,0.1142632,0.3932643,-0.04811914,13.6399996951222,5
0.1189135,0.2833333,9.180441,0.102833099364527,0.5612564458291875,-0.0372283822131347,3.63467,49.0268,0.1043145,0.02923216,0.4146709,-0.01233013,13.6599996946752,5
0.1657781,0.4833332,9.223232,0.0681850718806427,0.3263526179700295,-0.0681082584016454,7.268988,48.60834,0.1822103,0.05842625,0.4106605,-0.02464438,13.6799996942282,5
0.2126258,0.6833332,9.266011,0.0233324567852206,0.1128449878642844,-0.1059914485427668,10.90318,48.19101,0.2336131,0.08755492,0.4062346,-0.03693382,13.6999996937811,5
0.4156296,0.2833333,9.430818,-0.0199064731844789,-0.1336279173500553,-0.1417156360407236,3.615864,49.84642,0.1207615,0.02905492,0.4211631,-0.01233967,13.7199996933341,5
0.4626509,0.4833333,9.472932,-0.0339693366172695,-0.1473577177462648,-0.1522619024428237,7.231453,49.43079,0.2154473,0.05807193,0.4171704,-0.0246634,13.7399996928871,5
0.5096591,0.6833333,9.515034,-0.0587774637288207,-0.1151242686917524,-0.1690019383701493,10.84658,49.01746,0.2843779,0.08702175,0.4127602,-0.03695891,13.75999969244,5
0.5566531,0.8833331,9.557126,-0.0821116710547484,-0.0902437532344797,-0.1825921320673895,14.46099,48.60308,0.3270899,0.1158739,0.4079371,-0.0492158,13.779999691993,5
0.6036336,0.9766704,9.599206,-0.0917490935419227,-0.1260320086527586,-0.1836912980037546,18.07457,48.18425,0.3431282,0.1446007,0.4027065,-0.06141983,13.799999691546,5
0.8064522,0.2833333,9.758876,-0.0602305736521437,-0.1691726400286772,-0.1534747690119182,3.551089,51.95676,0.2345079,0.02874941,0.4377638,-0.01173321,13.8199996910989,5
0.8528727,0.4833332,9.800104,-0.0340106961220727,-0.166349931177357,-0.126936243006515,7.102717,51.55379,0.4443792,0.05746224,0.4338133,-0.02345157,13.8399996906519,5
0.8992798,0.6833332,9.84132,-0.0010491150600739,-0.1708799445760415,-0.0949087347608479,10.65466,51.16053,0.6308366,0.08611031,0.4294426,-0.03514375,13.8599996902049,5
1.077746,0.2833333,9.983791,-0.1256423664971189,0.484209372544139,-0.1853038504268784,3.485082,52.33826,0.2732329,0.02834242,0.4407521,-0.01127174,13.8799996897578,5
1.123108,0.4833333,10.02455,-0.107494803001511,0.2546721014673456,-0.1716272962057861,6.970975,51.93981,0.5226191,0.05664968,0.4368351,-0.02252951,13.8999996893108,5
1.168461,0.6833333,10.0653,-0.0887345588458292,0.0465311359084048,-0.157668238852862,10.45702,51.55347,0.7497798,0.08489223,0.4325099,-0.0337602,13.9199996888638,5
1.361718,0.2833333,10.2211,-0.0581997260157853,-0.1945749964719806,-0.1348342683996861,3.42904,51.85458,0.2622945,0.02790841,0.4369717,-0.01102405,13.9399996884167,5
1.406085,0.4833333,10.2615,-0.2306083188578935,0.4373759193079817,-0.271116049326876,6.858421,51.45608,0.5012437,0.05578039,0.4330829,-0.0220321,13.9599996879697,5
1.450438,0.6833333,10.30188,-0.2100094498182998,0.1847001310245968,-0.261220322966702,10.28837,51.06892,0.7180759,0.08359341,0.4288022,-0.03301704,13.9799996875226,5
1.494779,0.8833332,10.34225,-0.1946954346041196,-0.0465795615200583,-0.2531565807789988,13.71871,50.69055,0.9138016,0.1113222,0.4241339,-0.04396892,13.9999996870756,5
1.734372,0.2833333,10.53494,-0.1737360524768525,-0.3108245255143685,-0.2384648227986296,3.377413,49.78599,0.146218,0.02726823,0.4207076,-0.01124737,14.0199996866286,5
1.777865,0.4833333,10.57478,-0.1166103858967639,-0.3423260485909437,-0.1958382810353693,6.754386,49.37856,0.2686476,0.05450132,0.416845,-0.02247967,14.0399996861815,5
1.821345,0.6833333,10.6146,-0.0674414596906061,-0.3278642123615324,-0.1580183800706578,10.13118,48.97529,0.3677624,0.08167852,0.4126181,-0.03368901,14.0599996857345,5
1.864813,0.8833333,10.65441,-0.0150147334123253,-0.3207550787806689,-0.1165657049512969,13.5076,48.57343,0.4436719,0.1087758,0.4080308,-0.04486559,14.0799996852875,5
2.035446,0.2833333,10.78863,-0.1071189227223436,0.3459732720662096,-0.1849726616382003,3.318818,47.97204,0.02979384,0.02656306,0.4063364,-0.01153442,14.0999996848404,5
2.078248,0.4833333,10.82762,0.0215336502952165,0.1280750281822963,-0.0860640593003658,6.636786,47.55596,0.03549895,0.05309566,0.4025012,-0.02305565,14.1199996843934,5
2.12104,0.6833333,10.8666,0.144583287711832,-0.0684273435937016,0.0088035916787294,9.953315,47.13709,0.01674003,0.0795716,0.3983269,-0.03455319,14.1399996839464,5
2.16382,0.8833332,10.90557,0.2734873795372023,-0.2978948508288198,0.108286120248886,13.26867,46.71252,359.9729,0.1059723,0.3938175,-0.04601824,14.1599996834993,5
2.381292,0.2833334,11.07642,0.2019460373689523,0.3456949594639555,0.052542833964857,3.260782,45.90039,359.8954,0.02584412,0.3897967,-0.01193401,14.1799996830523,5
2.423554,0.4833334,11.11454,0.2678862237482575,0.1046584407345436,0.095601671433064,6.51975,45.47449,359.7665,0.05165935,0.3859863,-0.02385475,14.1999996826053,5
2.465804,0.6833334,11.15265,0.3301256441027149,-0.1149819668363252,0.1361300133938705,9.776682,45.03809,359.612,0.07742417,0.3818618,-0.03575266,14.2199996821582,5
2.657158,0.2833333,11.30572,0.2121935222844273,0.3527003652837582,0.0360417833267607,3.207421,43.2916,359.7931,0.02534687,0.3687695,-0.01200124,14.2399996817112,5
2.698289,0.4833333,11.34383,0.0907119344097617,0.8161661218040774,-0.065899029863548,6.412274,42.85852,359.5616,0.05066605,0.3649769,-0.02398936,14.2599996812642,5
2.739408,0.6833332,11.38193,0.1621940966505271,0.3704381534033605,-0.0259037594767637,9.614314,42.40934,359.3038,0.07593731,0.3608962,-0.03595472,14.2799996808171,5
2.780519,0.8833331,11.42002,0.2277115224306714,-0.0795060443047567,0.0105545808985318,12.813,41.94089,359.018,0.1011394,0.3565313,-0.04788427,14.2999996803701,5
3.02254,0.2833334,11.61223,0.2984246530529884,-0.4610271099443694,0.0521048163773123,3.462111,44.26541,359.7922,0.02729912,0.3766313,-0.01306006,14.3199996799231,5
3.067493,0.4833334,11.65282,0.3585592599000282,-0.5106840422383331,0.0850225608335843,6.921652,43.83217,359.5578,0.05456548,0.3727809,-0.02610465,14.339999679476,5
3.11243,0.6833334,11.69341,0.4049792982491667,-0.5148654907248387,0.110278652530015,10.37901,43.38092,359.2944,0.08177783,0.3685876,-0.03912678,14.359999679029,5
3.157346,0.8833333,11.73397,0.4490406856487841,-0.5268876240774549,0.136639713935688,13.83459,42.90785,358.9996,0.1089175,0.3640554,-0.05211458,14.379999678582,5
3.331586,0.2833334,11.86833,0.3435471184105401,0.1202216104726863,0.0512755145548897,3.54036,46.03207,359.8412,0.02788989,0.3908412,-0.0133528,14.3999996781349,5
3.378131,0.4833335,11.90906,0.4533594061702999,-0.1177835995939278,0.1288094076476422,7.079057,45.60446,359.6552,0.05574807,0.3869817,-0.0266948,14.4199996776879,5
3.424663,0.6833335,11.94977,0.5507371183581853,-0.3348805878522226,0.2003813223351045,10.61525,45.16148,359.4406,0.08354436,0.3827509,-0.04000723,14.4399996772408,5
3.471182,0.8833334,11.99048,0.4700947264231523,0.1348573937555206,0.1369578368305788,14.14865,44.69923,359.1951,0.1112518,0.3781532,-0.05327734,14.4599996767938,5
3.692243,0.2833333,12.16234,0.3816559831464099,0.599890923219562,0.0701907874854104,3.584131,48.16603,-0.001950632,0.02854331,0.4078608,-0.01277652,14.4799996763468,5
3.739013,0.4833333,12.20386,0.4340837835843834,0.1552429579376528,0.1055745491177511,7.16749,47.75471,359.9705,0.05705371,0.4040034,-0.02553646,14.4999996758997,5
3.785769,0.6833333,12.24538,0.4841063871105344,-0.2941092460498987,0.1423516431192997,10.74953,47.33797,359.9166,0.08549941,0.3997493,-0.03826757,14.5199996754527,5
3.982335,0.2833334,12.39991,0.3094533816412514,0.1568114611008922,0.0067208421777067,3.55963,49.13158,0.06963452,0.02849985,0.4155201,-0.01235984,14.5399996750057,5
4.028652,0.4833334,12.4413,0.2852312928056699,-0.0372865831966542,-0.0194104927946145,7.118476,48.72823,0.1143807,0.05696268,0.4116816,-0.02470278,14.5599996745586,5
4.074957,0.6833334,12.48268,0.2490141243707784,-0.2104763913114856,-0.0523608775929549,10.67653,48.32416,0.1340798,0.08536164,0.4074444,-0.0370183,14.5799996741116,5
4.121248,0.8833334,12.52405,0.2128710964774356,-0.4171193309546895,-0.0831497882225633,14.23362,47.91619,0.1282043,0.1136691,0.402813,-0.04929433,14.5999996736646,5
4.367043,0.2833334,12.71586,0.0362011178909087,0.2488072771050896,-0.2161544559823358,3.633954,50.16246,0.1039387,0.02910149,0.4236634,-0.01261954,14.6199996732175,5
4.414733,0.4833332,12.75771,0.0729899117828614,0.0296194528316908,-0.192702047442717,7.267531,49.76405,0.1827405,0.05816516,0.4198131,-0.02522284,14.6399996727705,5
4.462407,0.6833332,12.79955,0.1034317878075539,-0.1686601378725181,-0.1714013471916882,10.90097,49.36703,0.2363806,0.0871639,0.4155386,-0.03780056,14.6599996723235,5
4.510066,0.8833331,12.84137,0.1401136422618982,-0.4003927426706069,-0.14286117640642,14.53387,48.9682,0.2648094,0.1160673,0.4108447,-0.05033719,14.6799996718764,5
4.684677,0.2833333,12.97398,-0.0141000214329238,0.2404439713764103,-0.2560076367322264,3.615354,50.9782,0.1210229,0.0289286,0.4300949,-0.01262206,14.6999996714294,5
4.732504,0.4833333,13.01516,-0.028442922308848,-0.0038337628522608,-0.2691739163064941,7.230409,50.58302,0.2172743,0.05781958,0.4262649,-0.02522779,14.7199996709824,5
4.780317,0.6833333,13.05634,-0.0401889893859337,-0.227203279976967,-0.2756859115255032,10.84497,50.19044,0.2891033,0.08664367,0.4220087,-0.03780464,14.7399996705353,5
4.828116,0.8833332,13.0975,-0.215794953977908,0.2362621803435971,-0.4043130517865858,14.45885,49.79728,0.3361287,0.1153708,0.4173307,-0.05034188,14.7599996700883,5
5.050502,0.2833333,13.26603,-0.3830300320440081,0.6950232083832655,-0.5237516312822645,3.550876,53.40137,0.2407631,0.02862207,0.4490549,-0.01204512,14.7799996696413,5
5.097874,0.4833333,13.30617,-0.3398119183834884,0.2441029872614299,-0.4948368287865552,7.102247,53.01891,0.4581643,0.05720761,0.4452633,-0.02407504,14.7999996691942,5
5.145232,0.6833332,13.34629,-0.2827535774854794,-0.2115215604676816,-0.452834178669967,10.65393,52.64681,0.6535152,0.08572888,0.4410405,-0.03607817,14.8199996687472,5
5.342649,0.2833334,13.49774,-0.4407131871639311,0.2331265944691896,-0.5737942666238958,3.485061,53.72662,0.27441,0.02820826,0.4515884,-0.01160505,14.8399996683002,5
5.388966,0.4833334,13.53741,-0.4342790471799533,0.032756321512399,-0.5798194314067988,6.970872,53.34813,0.5261949,0.05638169,0.4478301,-0.02319578,14.8599996678531,5
5.435274,0.6833333,13.57708,-0.4279432429018337,-0.1467056451320249,-0.5844783138277396,10.45679,52.98207,0.7569965,0.08449085,0.4436534,-0.03475882,14.8799996674061,5
5.481569,0.8833332,13.61673,-0.4103198556659881,-0.3596207793714993,-0.5793667859074798,13.94308,52.62601,0.9678732,0.1125125,0.4390627,-0.04628607,14.899999666959,5
5.726527,0.2833333,13.80425,-0.525277513039577,0.3000334918290054,-0.6687363682832448,3.425985,53.04012,0.2511713,0.02772571,0.4462519,-0.01138711,14.919999666512,5
5.771786,0.4833333,13.84353,-0.4171149882328882,0.0745731751043441,-0.5987444789295857,6.852135,52.6608,0.4801465,0.05541514,0.4425257,-0.02275772,14.939999666065,5
5.817032,0.6833333,13.88281,-0.3088979252103181,-0.1299790641658212,-0.5243160399197624,10.27873,52.29235,0.6881125,0.08304629,0.4384004,-0.03410448,14.9599996656179,5
5.862265,0.8833332,13.92207,-0.1891033319013528,-0.3679845680800165,-0.4369941735825158,13.70558,51.93237,0.8760316,0.110594,0.4338799,-0.04541717,14.9799996651709,5
6.03615,0.2833334,14.05218,-0.2557454973306763,0.2665797011690539,-0.4857925434384516,3.370388,51.2728,0.145603,0.02706245,0.4324374,-0.01157854,14.9999996647239,5
6.080567,0.4833334,14.09079,-0.1815965942281092,0.0160297496935415,-0.4388943211597684,6.740282,50.88541,0.2686082,0.05408992,0.4287397,-0.02314189,15.0199996642768,5
6.124971,0.6833334,14.12939,-0.1027443073046567,-0.2136121028965543,-0.3840902660109062,10.10997,50.50236,0.3695255,0.08106214,0.424669,-0.0346819,15.0399996638298,5
6.314238,0.2833332,14.27149,-0.1877354430913893,0.2435808909337845,-0.4489890702350614,3.316979,49.75443,0.03520575,0.02638576,0.4204907,-0.0118966,15.0599996633828,5
6.358143,0.4833332,14.30919,-0.2656480101501843,0.6960693081294042,-0.5053746926988918,6.633129,49.35845,0.04749038,0.05274111,0.4168165,-0.02377971,15.0799996629357,5
6.402037,0.6833332,14.34688,-0.1390726072750059,0.2388762245679632,-0.4245269428587814,9.94794,48.96021,0.03646219,0.07904033,0.4127917,-0.03563931,15.0999996624887,5
6.445918,0.8833331,14.38456,-0.0048288975995678,-0.2230212253263691,-0.3345991807525248,13.26164,48.55696,0.001680649,0.1052649,0.4084201,-0.04746537,15.1199996620417,5
6.682891,0.2833332,14.56136,-0.0911059576253627,0.2153543329666203,-0.408169799130464,3.260378,47.66566,359.8972,0.02566008,0.4039291,-0.01231549,15.1399996615946,5
6.726276,0.4833332,14.59819,-0.0295884748703176,0.0087119022642933,-0.3841913659575731,6.518972,47.25945,359.7711,0.05129125,0.4002793,-0.02461734,15.1599996611476,5
6.769649,0.6833332,14.635,0.0258799188732066,-0.1770224481086586,-0.3616246208269977,9.775608,46.84306,359.6205,0.07687248,0.396304,-0.03689569,15.1799996607006,5
6.81301,0.8833331,14.67181,0.0861177481122634,-0.3962098441991729,-0.3327331309945744,13.02977,46.41346,359.4439,0.10238,0.3920067,-0.04914004,15.1999996602535,5
6.98009,0.2833332,14.79409,0.0095362043190938,0.2571719417808295,-0.3987869051893433,3.207063,45.05837,359.794,0.02515914,0.3830498,-0.01238169,15.2199996598065,5
7.022354,0.4833332,14.83092,0.1268739216991772,0.0254392638039742,-0.3403457086817116,6.411628,44.64527,359.5646,0.05029072,0.379421,-0.02474974,15.2399996593595,5
7.064606,0.6833331,14.86775,0.2419539888493922,-0.1853852117046629,-0.2818330409150977,9.613495,44.2163,359.3101,0.07537482,0.375493,-0.03709457,15.2599996589124,5
7.106849,0.883333,14.90457,0.3657341581013718,-0.4296629453235134,-0.2149875944636452,12.81215,43.76846,359.0286,0.1003906,0.3712694,-0.04940252,15.2799996584654,5
7.327258,0.2833333,15.0637,0.2995813599719046,0.1986290756648601,-0.2844708304285976,3.462127,46.42078,359.7993,0.02707309,0.3939768,-0.01351457,15.2999996580184,5
7.373617,0.4833332,15.10267,0.3431432857581669,-0.0581933811553162,-0.3283280569186217,6.921808,46.00801,359.5732,0.05411366,0.390287,-0.02701314,15.3199996575713,5
7.419958,0.6833332,15.14163,0.392840080005584,-0.2941076355072783,-0.3624337601578915,10.37944,45.57788,359.3193,0.08110004,0.3862384,-0.04048938,15.3399996571243,5
7.614619,0.2833333,15.28202,0.2790332222842107,0.1568127277033242,-0.5122362907492786,3.540708,48.49839,359.8491,0.02762717,0.4105467,-0.01388828,15.3599996566772,5
7.662782,0.4833334,15.32082,0.1728674279548148,0.6030288323454753,-0.6508000529740752,7.079834,48.09085,359.6721,0.05522206,0.4068431,-0.02776615,15.3799996562302,5
7.710931,0.6833333,15.35961,0.2263003439368631,0.1395633023308516,-0.7813236992976407,10.6166,47.66867,359.4679,0.08275576,0.4027492,-0.04161337,15.3999996557832,5
7.759066,0.8833332,15.39838,0.2929937275311935,-0.3286064734459374,-0.8921976541045691,14.15076,47.22817,359.2342,0.1102017,0.3982692,-0.05541647,15.4199996553361,5
8.002952,0.2833333,15.57402,0.144825466903244,0.1034967610554165,-1.1525050833172124,3.584145,50.62088,0.0004683571,0.0282722,0.4273134,-0.01336599,15.4399996548891,5
8.051424,0.4833332,15.61354,0.1198277380584205,-0.1094185633617265,-1.444593596516475,7.167558,50.22906,359.9766,0.05651189,0.4236106,-0.02671503,15.4599996544421,5
8.099883,0.683333,15.65306,0.1001040567135476,-0.3014255913979077,-1.7155244913707293,10.7497,49.83223,359.9275,0.08468755,0.4194922,-0.04003406,15.479999653995,5
8.148328,0.883333,15.69256,0.0956345374108629,-0.5268857959151289,-1.9570200300797376,14.33038,49.42706,359.8522,0.1127713,0.4149625,-0.05330985,15.499999653548,5
8.319174,0.2833333,15.81177,-0.0380096726679948,0.1202233838380553,-2.2700211608659053,3.559236,51.65424,0.07199568,0.02822676,0.4354294,-0.01296417,15.519999653101,5
8.367231,0.4833332,15.85112,-0.003486209291367,-0.1177821511771141,-2.6471820077881656,7.117713,51.2707,0.1203108,0.05641697,0.4317488,-0.025911,15.5399996526539,5
8.415276,0.6833332,15.89046,0.041912342291777,-0.3348794949622373,-2.981139314949095,10.6754,50.88687,0.1448774,0.08454393,0.4276503,-0.03882896,15.5599996522069,5
8.463306,0.883333,15.92979,-0.0654299130429141,0.1348583401137449,-3.388036282734774,14.23218,50.49969,0.1452247,0.1125805,0.4231383,-0.05170564,15.5799996517599,5
8.686366,0.2833332,16.08272,-0.1607168765946891,0.5998918258447625,-3.748953805041237,3.633486,53.10318,0.1126126,0.02879825,0.4467507,-0.01329262,15.5999996513128,5
8.736039,0.4833332,16.12219,-0.1666652446211731,0.1552436939069308,-4.184890676161258,7.266586,52.72514,0.2013836,0.05755876,0.4430569,-0.02656812,15.6199996508658,5
8.785694,0.6833332,16.16165,-0.149543091841414,-0.2941086790887176,-4.5526522423262445,10.89962,52.34929,0.2662375,0.08625458,0.4389156,-0.03981798,15.6399996504188,5
8.972886,0.2833335,16.28904,-0.3308841118488637,0.156811750505479,-5.011954935827498,3.615192,54.30047,0.1309727,0.02858889,0.4560658,-0.01337747,15.6599996499717,5
9.022913,0.4833334,16.32753,-0.4946874813824937,0.6030278344136455,-5.406911019857622,7.230138,53.92531,0.2384442,0.05714075,0.4523895,-0.02673783,15.6799996495247,5
9.072926,0.6833334,16.366,-0.5327162031760402,0.1395623043119056,-5.927780008962756,10.84464,53.55364,0.3228891,0.08562658,0.448261,-0.04006757,15.6999996490777,5
9.122923,0.8833332,16.40447,-0.5473183197846705,-0.3286075699077445,-6.3555109532998575,14.45853,53.18245,0.3838502,0.1140158,0.4436844,-0.05335684,15.7199996486306,5
9.346531,0.2833333,16.55028,-0.67676706067442,0.1034954816467011,-6.78690255202936,3.544036,60.08186,0.3053433,0.02810194,0.5003061,-0.01317481,15.7399996481836,5
9.3976,0.4833333,16.58554,-0.6872929197844115,-0.1094198834543499,-7.314818699620432,7.088911,59.72438,0.5889713,0.056168,0.496681,-0.02633344,15.7599996477365,5
9.448656,0.6833331,16.62078,-0.6657865488761363,-0.3014270228267918,-7.72994251983075,10.63442,59.38163,0.8527433,0.08417097,0.4925753,-0.03946309,15.7799996472895,5
9.499693,0.8833333,16.65603,-0.6024305463881436,-0.5268871692365915,-8.027620270176167,14.18005,59.05106,1.096654,0.112075,0.4879928,-0.0525608,15.7999996468425,5
9.646997,0.2833334,16.70746,-0.7011852259087235,0.1202219984943681,-8.350298212180293,3.471724,65.03017,0.375986,0.02730633,0.5371883,-0.01351694,15.8199996463954,5
9.69926,0.4833333,16.73877,-0.6491294523656581,-0.1177832851865956,-8.80414325963321,6.944737,64.6802,0.7312337,0.05457871,0.5336243,-0.02701789,15.8399996459484,5
9.751503,0.6833332,16.77007,-0.5730496892558214,-0.3348802332836914,-9.129678440323817,10.41857,64.34893,1.066249,0.08178172,0.5295617,-0.04050241,15.8599996455014,5
9.803731,0.8833333,16.80137,-0.6414336895903734,0.1348576632101821,-9.446071650728497,13.89321,64.03459,1.384917,0.1089001,0.5250056,-0.05394514,15.8799996450543,5
9.989024,0.2833333,16.82255,-0.6893429784148104,0.5998910761980242,-9.643156565971758,3.392864,73.80358,0.4456002,0.02600699,0.6000855,-0.01466724,15.8999996446073,5
10.0438,0.4833333,16.84629,-0.6567066934218868,0.1552426434432033,-9.889370723623207,6.787615,73.46036,0.8678674,0.05196527,0.5966221,-0.02934326,15.9199996441603,5
