pX,pY,pZ,aX,aY,aZ,reX,reY,reZ,rtX,rtY,rtZ,t,ID
-45.00042,0.23,-35.99971,5.281870379520974,0.0816016843310485,2.72748522051878,0.0161887,0.01359542,0.02369684,0.0001412976,0.0001186132,0.0002067772,7.67999982833862,18
-45.00084,0.43,-35.99943,5.684421286676226,0.3054714567973632,2.875654148467248,0.03234789,0.01360563,0.04743051,0.0002823377,0.0001186146,0.0004138757,7.69999982789159,18
-45.00126,0.63,-35.99914,6.296189337873535,-0.1568675622064734,2.99154093569301,0.04866156,0.0136227,0.0713765,0.0004247262,0.000118616,0.0006228268,7.71999982744455,18
-45.00178,0.2833333,-35.99866,6.818690744822398,-0.3714087003453359,3.081274138117678,0.02504257,8.006981,0.03801201,0.000241164,0.06981717,0.0003156503,7.73999982699752,18
-45.00238,0.4833333,-35.99814,7.253112353814281,-0.3634864659363359,3.1449651094263302,0.0501268,8.007006,0.07605573,0.0004827099,0.06981716,0.0006315509,7.75999982655048,18
-45.00298,0.6833333,-35.99761,7.600925171248953,-0.1573889159439156,3.18286641218262,0.07521542,8.007047,0.1142065,0.0007243595,0.06981713,0.0009483804,7.77999982610345,18
-45.00358,0.8833333,-35.99709,8.038157768206418,-0.6301124700099641,3.1642738401756105,0.1003332,8.007106,0.1523194,0.0009662401,0.06981708,0.001264862,7.79999982565641,18
-44.97267,0.2833333,-35.98681,8.373450474548783,-0.8476512156388465,3.1174870935466004,1.085895,15.93324,0.5244918,0.01001886,0.1385455,0.003219328,7.81999982520938,18
-44.97631,0.4833332,-35.96585,8.609816338746334,-0.8353386233159998,3.043877507476978,2.171706,15.94816,1.04942,0.02003674,0.1385225,0.006438803,7.83999982476234,18
-44.97994,0.6833332,-35.9449,8.943135265736693,-1.2577780390532745,2.927612987155058,3.259421,15.97311,1.575848,0.03007133,0.1384841,0.009661449,7.85999982431531,18
-44.89766,0.2833332,-35.94463,9.161899119609023,-1.4210600694851916,2.784808898901524,1.874686,24.24963,0.0947139,0.01616764,0.2100006,-0.002628085,7.87999982386827,18
-44.88559,0.4833332,-35.91391,9.27089709325424,-1.3505182923389216,2.6176641861542507,3.750028,24.25424,0.188661,0.03233481,0.209916,-0.005264939,7.89999982342124,18
-44.87352,0.6833333,-35.88321,9.487713468570725,-1.7107557211856497,2.4204016817330256,5.627779,24.26183,0.2815023,0.04851114,0.2097742,-0.007917622,7.91999982297421,18
-44.74049,0.2833331,-35.85635,9.579988247858369,-1.8078632027559296,2.1996898614461458,3.425786,32.8574,0.09006906,0.02889298,0.2826729,-0.007700301,7.93999982252717,18
-44.70914,0.4833328,-35.80496,9.554433988418744,-1.6671743147769378,1.9584977706765656,6.854928,32.86539,0.1792417,0.05778444,0.2822928,-0.01541484,7.95999982208014,18
-44.67781,0.6833328,-35.7536,9.418093484147208,-1.3129773563999705,1.6998525273832854,10.28609,32.87885,0.2695155,0.08664062,0.2816591,-0.02312217,7.9799998216331,18
-44.6465,0.8833328,-35.70227,9.34837247818298,-1.622268535919681,1.4180136583088014,13.71919,32.89804,0.3617483,0.1154353,0.2807721,-0.03081381,7.99999982118607,18
-44.48515,0.2833333,-35.69759,9.161992910390786,-1.661042181981882,1.123373209966914,4.45596,41.54667,0.2240769,0.03704145,0.354332,-0.01196118,8.01999982073903,18
-44.43628,0.4833339,-35.63659,8.86780522080113,-1.454632086274514,0.8194162774115767,8.914348,41.57281,0.448442,0.07403956,0.3535249,-0.02393171,8.039999820292,18
-44.38743,0.6833345,-35.57562,8.665296957699077,-1.6676403835266544,0.5102694633884184,13.37428,41.61726,0.6781792,0.1109384,0.3521805,-0.03587258,8.05999981984496,18
-44.19215,0.2833333,-35.56918,8.350090889785456,-1.6061584257508028,0.1967126270108536,3.692561,50.47657,0.2926569,0.03023092,0.4260866,-0.01142831,8.07999981939793,18
-44.14566,0.4833335,-35.52432,7.932960098427074,-1.2955205617517902,-0.1173795642923707,7.383911,50.50504,0.5875069,0.06042053,0.425419,-0.02284253,8.09999981895089,18
-44.09917,0.6833336,-35.47947,7.635790757540995,-1.4003292048607046,-0.4212367733588493,11.07324,50.55288,0.885577,0.09052637,0.4243071,-0.03423968,8.11999981850386,18
-43.8558,0.2833333,-35.45362,7.23310987096292,-1.226675201808104,-0.7197016919823511,3.632365,59.17854,0.3189583,0.02893348,0.4934523,-0.01323008,8.13999981805682,18
-43.80416,0.4833333,-35.41646,6.737690896406306,-0.7998923437592209,-1.008643744855764,7.263563,59.20906,0.6402487,0.05782864,0.4927031,-0.02644411,8.15999981760979,18
-43.75254,0.6833338,-35.3793,6.162638425490556,-0.1442692244098767,-1.2839133389051725,10.89342,59.26055,0.9664868,0.08665565,0.4914556,-0.03962876,8.17999981716275,18
-43.70095,0.8833342,-35.34215,5.521330825527627,0.6031221337008651,-1.5413085669529425,14.52211,59.33372,1.298947,0.1153812,0.4897106,-0.05278329,8.19999981671572,18
-43.3954,0.2833333,-35.3205,5.040564670008479,0.3541159308423589,-1.771898161281264,3.535558,71.88889,0.4647895,0.02735422,0.586615,-0.01482588,8.21999981626868,18
-43.33924,0.4833339,-35.29373,4.49548377262785,0.1270636418280555,-1.977105161352771,7.069803,71.93216,0.9328062,0.05467266,0.5857632,-0.02963422,8.23999981582165,18
-43.28309,0.6833339,-35.26697,3.901661288626897,0.5241451938973645,-2.1529101103279835,10.60262,72.00514,1.407771,0.08193009,0.5843449,-0.04441091,8.25999981537461,18
-43.22696,0.8833342,-35.24022,3.462067822793486,0.2704234189464514,-2.289091232994757,14.13403,72.10899,1.89237,0.1090962,0.5823611,-0.0591512,8.27999981492758,18
-43.00756,0.2833334,-35.24262,2.9896367981339367,0.0318248782529594,-2.388810897348087,3.469068,78.81062,0.4945142,0.02612584,0.6344044,-0.01588156,8.29999981448054,18
-42.94983,0.4833334,-35.22251,2.5008841650052744,-0.2460116374273376,-2.44763420025426,6.936889,78.85578,0.9924018,0.0522191,0.6335148,-0.03174463,8.31999981403351,18
-42.89211,0.6833337,-35.20241,2.174691211771517,-0.2973764189277457,-2.4651035130882057,10.40326,78.93188,1.496994,0.07825363,0.6320335,-0.0475775,8.33999981358647,18
-42.65396,0.2833333,-35.19854,1.8420837391743348,-0.3090502686708379,-2.46084399505747,3.419549,83.01394,0.4813978,0.02512661,0.6623164,-0.01662838,8.35999981313944,18
-42.59575,0.4833333,-35.18301,1.5217279771306664,-0.3343492491338495,-2.433051266935756,6.83795,83.05711,0.9641854,0.05021266,0.6614141,-0.03324977,8.3799998126924,18
-42.53756,0.6833335,-35.16748,1.129513605170004,0.2936987991711092,-2.355183121128885,10.25499,83.12965,1.452159,0.07523738,0.6599116,-0.04984739,8.39999981224537,18
-42.28028,0.2833333,-35.1595,0.9130476777249968,0.0308477312838644,-2.252728914482475,3.389076,84.68521,0.3260586,0.02377242,0.6732028,-0.0178156,8.41999981179833,18
-42.22192,0.4833333,-35.14839,0.7155066497026255,-0.2168797858478114,-2.132297656347866,6.776967,84.71412,0.6522852,0.04750451,0.6723114,-0.03562278,8.4399998113513,18
-42.16359,0.6833335,-35.13728,0.4097108480728764,0.2164436628059671,-1.9891560223357168,10.16364,84.76286,0.9830384,0.07118779,0.6708274,-0.05339332,8.45999981090426,18
-42.10527,0.8833338,-35.12617,0.2956536780349665,-0.0010359498518701,-1.8449551431452529,13.549,84.83228,1.320753,0.09480128,0.6687528,-0.07111186,8.47999981045723,18
-41.88761,0.2833332,-35.12333,0.1903880216997251,-0.2033918331631078,-1.7103054167815763,3.347805,84.74371,0.1905477,0.0227008,0.6736152,-0.01845843,8.49999981001019,18
-41.82975,0.4833332,-35.11469,0.1103380771937949,-0.4449848181074503,-1.5884114632640376,6.694276,84.76039,0.3812438,0.04536705,0.6727501,-0.03690086,8.51999980956316,18
-41.7719,0.6833332,-35.10604,-0.0840533978290025,0.1802068999731133,-1.426773931618584,10.03973,84.78852,0.574517,0.06798811,0.6713099,-0.05530655,8.53999980911613,18
-41.53571,0.2833336,-35.09682,-0.0159157189547585,-0.0855017346853991,-1.2826037875086165,3.301516,84.12038,0.04607534,0.02165689,0.6696243,-0.01899984,8.55999980866909,18
-41.4785,0.4833338,-35.09014,0.0577095047194902,-0.3360873235218082,-1.170482927553646,6.60206,84.12437,0.09244495,0.04328945,0.6687906,-0.03797833,8.57999980822206,18
-41.4213,0.6833335,-35.08345,-0.024112637780469,0.094379038814133,-1.030162029963858,9.901376,84.13099,0.1385454,0.06487306,0.6674023,-0.05692387,8.59999980777502,18
-41.16657,0.2833333,-35.07032,0.1228026769666286,-0.1259588742320755,-0.8993187666789559,3.253324,83.08143,359.9337,0.02086385,0.6628971,-0.01925729,8.61999980732799,18
-41.11008,0.4833333,-35.06464,0.2768895018269148,-0.3311732618739262,-0.7892177015793926,6.505693,83.07575,359.8671,0.04170472,0.6620955,-0.03849353,8.63999980688095,18
-41.05362,0.6833333,-35.05896,0.2174869977195968,0.1446633026793313,-0.6804175719484888,9.757088,83.06619,359.7996,0.0625059,0.6607608,-0.05769294,8.65999980643392,18
-40.99716,0.8833331,-35.05329,0.1632491022709388,0.6100114785244197,-0.5874730153159788,13.00724,83.05251,359.7303,0.08324631,0.6588945,-0.07684167,8.67999980598688,18
-40.94072,0.9766705,-35.04761,0.293805557073334,0.1598919462412558,-0.5098335182979241,16.25643,83.03453,359.6592,0.1039136,0.6564988,-0.09592292,8.69999980553985,18
-40.68507,0.2833331,-35.0372,0.4372369354301852,-0.3007170274788623,-0.4546706171433712,3.20184,80.41874,359.7915,0.02016157,0.6453683,-0.01942501,8.71999980509281,18
-40.62938,0.4833333,-35.03149,0.3038345062438097,0.1331634355336349,-0.4062753490215911,6.402627,80.40117,359.5818,0.04030085,0.6446096,-0.03882881,8.73999980464578,18
-40.57372,0.6833335,-35.02579,0.3608994454268881,-0.0837601153090562,-0.3675122966307214,9.60238,80.3716,359.3694,0.06040244,0.6433463,-0.05819666,8.75999980419874,18
-40.34276,0.2833333,-35.01446,0.4103164720342889,-0.2855593086874258,-0.3448985080093933,3.533697,82.12714,359.8034,0.02212069,0.6566226,-0.02154649,8.77999980375171,18
-40.28114,0.4833329,-35.00942,0.4665094165560219,-0.5265966060737267,-0.3402745074657431,7.066505,82.10884,359.6054,0.04421502,0.6556833,-0.04306723,8.79999980330467,18
-40.21955,0.6833326,-35.00438,0.5582504003224429,-0.5411628832086749,-0.3160246333506862,10.59947,82.07786,359.4037,0.06626557,0.6541185,-0.06455193,8.81999980285764,18
-39.97071,0.2833333,-34.9921,0.6348352432582445,-0.5160385696516115,-0.3019739709957463,3.561781,84.19249,359.8598,0.02224009,0.6700819,-0.02174115,8.8399998024106,18
-39.90863,0.4833333,-34.98825,0.7108454673767852,-0.5045392097044382,-0.2992866812758876,7.122712,84.17928,359.718,0.04445041,0.6691095,-0.04345962,8.85999980196357,18
-39.84657,0.6833333,-34.98441,0.5842538466936205,0.1603079820605192,-0.2897451723645403,10.68258,84.15697,359.574,0.0666114,0.6674904,-0.06512986,8.87999980151653,18
-39.78453,0.8833333,-34.98057,0.4606847267380018,0.6741783720162151,-0.2864564838848693,14.24137,84.12515,359.4266,0.08870177,0.6652269,-0.08673105,8.8999998010695,18
-39.57647,0.2833333,-34.97057,0.5635676999561028,0.1610205026856032,-0.2885402404643216,3.595328,85.88367,359.985,0.02287509,0.6809233,-0.02146682,8.91999980062246,18
-39.51387,0.4833333,-34.96632,0.4315537419780781,0.3581495786120572,-0.2897496502079306,7.189904,85.88225,359.97,0.04572349,0.679918,-0.04290739,8.93999980017543,18
-39.4513,0.6833336,-34.96208,0.2906461162283591,0.5729808068653343,-0.293639624194661,10.78341,85.87986,359.9547,0.06852017,0.6782443,-0.06429939,8.95999979972839,18
-39.22348,0.2833333,-34.95103,0.3332529790024168,0.112929460201845,-0.2995084390645885,3.555669,87.0344,0.0850319,0.02300836,0.688224,-0.02082448,8.97999979928136,18
-39.16161,0.4833333,-34.94634,0.3719157155046915,-0.3571234864630375,-0.3088094686200548,7.110007,87.04239,0.1708582,0.04598701,0.6872299,-0.04162011,8.99999979883432,18
-39.09975,0.6833338,-34.94164,0.2300920745824228,0.0678006182732002,-0.3119375906962176,10.66325,87.05585,0.2580356,0.06891464,0.685575,-0.06236912,9.01999979838729,18
-39.03791,0.883334,-34.93695,0.292422522000848,-0.1575902104240278,-0.3148440682363826,14.21547,87.07507,0.3472134,0.09176943,0.6832612,-0.08305263,9.03999979794025,18
-38.74826,0.2833336,-34.92507,0.3478335775696521,-0.367369465115747,-0.3186443024084298,3.625195,88.41182,0.1178151,0.02339046,0.6968665,-0.02131739,9.05999979749322,18
-38.68507,0.4833338,-34.92127,0.1973169006519839,0.1043889081029223,-0.3239878854149154,7.249354,88.42307,0.23653,0.04675081,0.6958195,-0.04260752,9.07999979704618,18
-38.6219,0.6833341,-34.91747,0.0461048773811114,0.5661462305965111,-0.3278962586336149,10.87309,88.442,0.3567086,0.07005914,0.6940759,-0.06385546,9.09999979659915,18
-38.36111,0.2833333,-34.90767,0.0680273183459263,0.1129262036597517,-0.3306644980048645,3.625052,89.27704,0.1292251,0.02329787,0.7022542,-0.02142169,9.11999979615211,18
-38.29789,0.4833333,-34.90463,-0.1393929124461763,0.3699930791182107,-0.3390141078052551,7.249027,89.28937,0.2594402,0.04656554,0.7011989,-0.04281575,9.13999979570508,18
-38.23468,0.6833335,-34.90158,-0.350402082442045,0.6447622785251184,-0.3447499202724202,10.87188,89.31021,0.3917511,0.06977976,0.6994423,-0.06416042,9.15999979525805,18
-38.1715,0.883334,-34.89854,-0.5507687080473929,0.8849634709904952,-0.3476583405345508,14.49367,89.33989,0.5268619,0.09291527,0.6969861,-0.08543752,9.17999979481101,18
-37.95327,0.2833333,-34.8925,-0.5011038493607956,0.1845734452559556,-0.3485146366089182,3.573029,91.29705,0.2143482,0.02313035,0.7146754,-0.02098549,9.19999979436398,18
-37.89087,0.4833333,-34.89018,-0.4387188227813112,-0.4244290142474479,-0.3456381536499435,7.144941,91.31722,0.4302973,0.04623118,0.7136297,-0.04194434,9.21999979391694,18
-37.82848,0.6833333,-34.88786,-0.5875426571047129,-0.0393339218418297,-0.3445842400671139,10.71571,91.35128,0.6495756,0.06928013,0.7118888,-0.06285624,9.23999979346991,18
-37.59006,0.2833331,-34.88159,-0.5237042305875264,-0.3050429455674344,-0.3429412809967047,3.511739,92.30546,0.2706375,0.02292854,0.7207982,-0.02046251,9.25999979302287,18
-37.52866,0.4833338,-34.87933,-0.4476469629780482,-0.5556288448908836,-0.3387524327432842,7.022225,92.33049,0.5432022,0.04582761,0.7197771,-0.04089903,9.27999979257584,18
-37.46727,0.6833339,-34.87708,-0.5551420800379958,-0.1251638482971752,-0.3386414449520174,10.53125,92.37271,0.8197283,0.06867445,0.7180772,-0.06128991,9.2999997921288,18
-37.20879,0.2833333,-34.87053,-0.4404243845419273,-0.3455007864977105,-0.3379658481530043,3.452455,92.42865,0.2965518,0.02271192,0.7215493,-0.01995738,9.31999979168177,18
-37.1484,0.4833331,-34.86791,-0.327357575815455,-0.5507134813579506,-0.3349816094647693,6.90343,92.45562,0.5953368,0.04539514,0.72056,-0.03988738,9.33999979123473,18
-37.08802,0.6833336,-34.86529,-0.4267581807599434,-0.0748768992940592,-0.3381378008237163,10.35311,92.5011,0.8983895,0.06802946,0.7189131,-0.05977475,9.3599997907877,18
-37.02766,0.883334,-34.86267,-0.5263825733327288,0.390471286221081,-0.3380998698314315,13.80152,92.56593,1.208102,0.09059525,0.7166106,-0.07960191,9.37999979034066,18
-36.96731,0.9766709,-34.86005,-0.4454100275656465,-0.0596473238354284,-0.3353795712620311,17.2486,92.65133,1.527063,0.1130725,0.713655,-0.09935092,9.39999978989363,18
-36.71038,0.2833336,-34.85592,-0.3582974089333532,-0.5202551922948657,-0.3278343267491976,3.401284,91.13941,0.2059423,0.0220582,0.7137496,-0.01993516,9.41999978944659,18
-36.65098,0.4833333,-34.8535,-0.4266357631430573,-0.0863745834475469,-0.3226770011192741,6.801223,91.15786,0.4133148,0.04408879,0.7128034,-0.03984477,9.43999978899956,18
-36.59159,0.6833331,-34.85109,-0.4823205072873548,0.3370168069838117,-0.3137130033285444,10.20009,91.18893,0.6234878,0.06607351,0.7112278,-0.05971406,9.45999978855252,18
-36.36481,0.2833331,-34.84779,-0.2813416106490614,-0.1550580779774365,-0.3036726330440586,3.343312,89.6806,0.1141972,0.02138736,0.7048121,-0.01986363,9.47999978810549,18
-36.30649,0.4833329,-34.84547,-0.2683497665964296,0.0626668912265022,-0.2976890581917786,6.685185,89.69064,0.22907,0.04274705,0.7039115,-0.03970223,9.49999978765845,18
-36.24819,0.6833329,-34.84315,-0.2529611699387182,0.2976065231024769,-0.2890573878168041,10.02604,89.70756,0.3454591,0.06406382,0.7024121,-0.05950134,9.51999978721142,18
-36.00238,0.2833331,-34.84061,-0.0199630272854314,-0.1428252798654468,-0.2803874554026464,3.291644,88.1628,359.9845,0.02053772,0.6953955,-0.02007784,9.53999978676438,18
-35.94498,0.4833331,-34.83905,0.2193580044654091,-0.5937462894013419,-0.2694281166598387,6.58229,88.16145,359.9689,0.0410522,0.694535,-0.04013311,9.55999978631735,18
-35.88759,0.6833329,-34.83749,0.2056269764954095,-0.1501779063732349,-0.2649076902019374,9.871655,88.15914,359.9527,0.06152306,0.6931024,-0.0601494,9.57999978587031,18
-35.83022,0.8833331,-34.83592,0.1932783824858965,0.2829010140483491,-0.258207547154818,13.15999,88.15583,359.9362,0.08193666,0.6910994,-0.0801101,9.59999978542328,18
-35.62333,0.2833338,-34.83483,0.3495103121227494,-0.1994871315146713,-0.2525425612765559,3.241011,86.33041,359.8947,0.01999818,0.6838494,-0.02001597,9.61999978497624,18
-35.56679,0.4833335,-34.83304,0.2764205566268956,0.0279245708150287,-0.2523430881637623,6.481157,86.32142,359.7888,0.03997529,0.6830281,-0.04001044,9.63999978452921,18
-35.51026,0.6833335,-34.83125,0.1974019883867583,0.2725506734186292,-0.2503234326963266,9.720291,86.3063,359.6815,0.05991434,0.6816608,-0.05996677,9.65999978408217,18
-35.45374,0.8833337,-34.82947,0.3019558679936018,-0.1581930312040091,-0.2487364205330067,12.95811,86.28482,359.5723,0.0797981,0.6797492,-0.07986675,9.67999978363514,18
-35.18622,0.2833333,-34.82862,0.4035255524712333,-0.5994263124700772,-0.2453606580363683,3.269421,84.17803,359.7907,0.01994636,0.6700491,-0.02047621,9.6999997831881,18
-35.12909,0.4833335,-34.82647,0.3294950055643824,-0.1461702095354287,-0.2437647424568325,6.537823,84.16003,359.5801,0.03987052,0.669228,-0.04092954,9.71999978274107,18
-35.07198,0.6833338,-34.82431,0.2589966407613211,0.296596597361501,-0.2398719894193632,9.805191,84.12968,359.3667,0.05975603,0.6678604,-0.0613439,9.73999978229403,18
-34.83105,0.2833331,-34.82465,0.4465080749429759,-0.1761033330315616,-0.2353938498326684,3.53057,85.96062,359.8166,0.02144589,0.6814587,-0.02217181,9.759999781847,18
-34.76933,0.4833328,-34.82351,0.4217502792266749,0.0609963160588454,-0.2324305106508717,7.060153,85.94356,359.6318,0.04286567,0.680486,-0.04431648,9.77999978139997,18
-34.70763,0.683333,-34.82238,0.3870063526284859,0.3153099652921275,-0.2267265048105002,10.59059,85.91467,359.4436,0.06424693,0.6788653,-0.06642839,9.79999978095293,18
-34.44725,0.2833336,-34.82336,0.5661282510249244,-0.1057468462568805,-0.219970266756512,3.563465,87.8037,359.8783,0.02166645,0.6931132,-0.02232507,9.8199997805059,18
-34.38503,0.4833338,-34.82311,0.4990559242712926,0.1829962654435364,-0.2150462681293916,7.126147,87.79223,359.7552,0.04330502,0.6921068,-0.04462608,9.83999978005886,18
-34.32283,0.6833335,-34.82286,0.4108241497036395,0.4889539487781228,-0.2079636353665463,10.68784,87.77287,359.6303,0.0648959,0.6904311,-0.06687793,9.85999977961183,18
-34.26065,0.883334,-34.82261,0.3150686573760701,0.7598550735531455,-0.1989248906960412,14.24835,87.74523,359.5024,0.08641678,0.6880885,-0.08905846,9.87999977916479,18
-34.0412,0.2833336,-34.82315,0.3934682552413022,0.0896763597744479,-0.1906411243593666,3.592426,89.33252,0.02044857,0.02241816,0.7026266,-0.02190772,9.89999977871776,18
-33.97852,0.4833333,-34.82206,0.4705215206693189,-0.4896023862377525,-0.1805619954653323,7.184146,89.33449,0.04150118,0.0448126,0.701591,-0.04378685,9.91999977827072,18
-33.91586,0.6833333,-34.82096,0.3248059194795587,-0.0752718094497025,-0.1707571214112704,10.77479,89.33783,0.06288476,0.06715637,0.6998668,-0.06561646,9.93999977782369,18
-33.85322,0.883333,-34.81987,0.1807863232520574,0.328082078346349,-0.1596285567778821,14.36447,89.34259,0.08477921,0.08942819,0.6974562,-0.08737576,9.95999977737665,18
-33.57405,0.2833333,-34.8214,0.2844441724584996,-0.1845177259875822,-0.1504444738558206,3.56997,90.61633,0.09369525,0.02248774,0.7105366,-0.02156892,9.97999977692962,18
-33.51175,0.4833336,-34.82043,0.1872892930901279,0.0121938158715424,-0.1410731229932906,7.138731,90.62514,0.1880679,0.04494595,0.7095019,-0.04310979,9.99999977648258,18
-33.44947,0.6833338,-34.81947,0.0832949261125435,0.2256323255860269,-0.1307525651620764,10.70645,90.63999,0.283832,0.06735373,0.707779,-0.06460308,10.0199997760355,18
-33.19801,0.2833333,-34.82086,0.1868426499914548,-0.2367872539148646,-0.1227644061830304,3.647137,91.34083,0.1158804,0.02295966,0.7149469,-0.02205693,10.0399997755885,18
-33.13433,0.4833333,-34.82033,0.0618552733282236,0.010104078844656,-0.1147452856174169,7.293218,91.35196,0.2326336,0.04588925,0.7138597,-0.04408543,10.0599997751415,18
-33.07067,0.6833338,-34.81981,-0.0761373112237926,0.2737218382851556,-0.1058371737514392,10.93816,91.37075,0.351263,0.06876537,0.7120499,-0.06606265,10.0799997746944,18
-33.00702,0.8833336,-34.81927,-0.212696480609992,0.5017960654215887,-0.0962128944316802,14.58281,91.39758,0.4726636,0.09156924,0.709519,-0.08797253,10.0999997742474,18
-32.79869,0.2833333,-34.8217,-0.1732897687236132,-0.2116965987558486,-0.0880512146654197,3.618544,92.25404,0.1355739,0.02273414,0.7204922,-0.02194035,10.1199997738004,18
-32.73552,0.4833331,-34.82183,-0.3030561803681522,-0.0024404493875368,-0.0779550978442955,7.236036,92.26696,0.2721866,0.04543904,0.7194134,-0.04385262,10.1399997733533,18
-32.67236,0.683333,-34.82195,-0.4268781677989004,0.2235426982401682,-0.0670252222655207,10.85239,92.28877,0.4108916,0.06809125,0.7176172,-0.06571493,10.1599997729063,18
-32.44341,0.2833336,-34.82421,-0.3455722056462917,-0.226332429517763,-0.0588310563553733,3.559193,94.12196,0.2291375,0.02261827,0.7316822,-0.02137303,10.1799997724593,18
-32.38118,0.4833336,-34.82468,-0.2481089736190895,-0.6871842964474131,-0.0499956789532518,7.117305,94.14343,0.459982,0.04520811,0.7306194,-0.04271926,10.1999997720122,18
-32.31898,0.6833338,-34.82516,-0.3725792813358559,-0.2540353007388219,-0.0397755589749948,10.67424,94.1797,0.6943622,0.0677474,0.7288498,-0.0640178,10.2199997715652,18
-32.25679,0.8833335,-34.82564,-0.4804378703448186,0.1681368496017284,-0.029991706391911,14.22966,94.2314,0.9340714,0.09021193,0.7263761,-0.08524726,10.2399997711182,18
-31.96819,0.2833331,-34.82781,-0.3108937827532969,-0.3256462470621986,-0.0267094297656527,3.490059,94.63036,0.284027,0.02246635,0.7346999,-0.02070525,10.2599997706711,18
-31.90711,0.4833332,-34.82778,-0.3438716967057296,-0.1101174362345283,-0.0225500359645991,6.978948,94.65646,0.5700301,0.04490441,0.7336712,-0.04138507,10.2799997702241,18
-31.84604,0.6833335,-34.82775,-0.3747903515406143,0.1221387282051263,-0.0192604240385847,10.46614,94.70052,0.8604414,0.0672923,0.7319589,-0.06201592,10.2999997697771,18
-31.58776,0.2833335,-34.82928,-0.1781556686398282,-0.3214632915287526,-0.0201297354786262,3.429582,94.13654,0.2737042,0.02213017,0.7317871,-0.02028332,10.31999976933,18
-31.52774,0.4833336,-34.82882,-0.2158879023172488,-0.0557546683697619,-0.0192919606010448,6.857631,94.16127,0.5495276,0.0442327,0.7307981,-0.04053821,10.339999768883,18
-31.46773,0.6833335,-34.82837,-0.2633277345636458,0.2266802701339458,-0.0181346558793933,10.28456,94.20298,0.8293077,0.06628942,0.7291515,-0.06075073,10.359999768436,18
-31.40774,0.8833336,-34.82792,-0.3072626089487862,0.4735713361394517,-0.016713663679873,13.71025,94.26242,1.115117,0.0882799,0.7268494,-0.08090293,10.3799997679889,18
-31.19032,0.2833332,-34.82981,-0.1675437373653956,-0.2211049392183038,-0.0166584834074257,3.380718,92.52361,0.173457,0.02148705,0.7221603,-0.02026644,10.3999997675419,18
-31.13126,0.4833332,-34.82938,-0.2067629548057254,0.0069685714631845,-0.0142407441782808,6.760013,92.53904,0.3480148,0.04294626,0.7212154,-0.04050712,10.4199997670949,18
-31.07222,0.6833333,-34.82896,-0.2444686611812123,0.2517691190842678,-0.0115271275268611,10.13825,92.56506,0.5249803,0.06436175,0.7196423,-0.06070656,10.4399997666478,18
-31.0132,0.8833331,-34.82853,-0.2674999433603311,0.4610258242627127,-0.00885930858513,13.51549,92.6021,0.705739,0.08571585,0.7174428,-0.08084733,10.4599997662008,18
-30.73652,0.2833333,-34.83094,-0.0304291934348164,-0.2712838593785307,-0.010987686786926,3.325231,90.33833,0.04759093,0.02074977,0.7088842,-0.02028383,10.4799997657537,18
-30.6785,0.4833333,-34.83045,-0.0393871888246373,-0.0808443855338399,-0.0106963830375121,6.649061,90.34249,0.09551636,0.04147356,0.7079892,-0.04054186,10.4999997653067,18
-30.6205,0.6833334,-34.82996,-0.0498329694591888,0.126321299811417,-0.0109160325810293,9.971916,90.34952,0.1441142,0.06215661,0.7064988,-0.06075968,10.5199997648597,18
-30.37496,0.2833334,-34.83227,0.1520909176573823,-0.342371557244326,-0.0151461484299062,3.268683,88.72639,359.933,0.01998121,0.6989316,-0.02035995,10.5399997644126,18
-30.31793,0.4833332,-34.83217,0.1280998959946444,-0.1017522530349783,-0.0176187107494811,6.536448,88.72062,359.8655,0.03994092,0.6980785,-0.04069728,10.5599997639656,18
-30.2609,0.683333,-34.83208,0.0914565274715926,0.1555932739131044,-0.0205540939012394,9.802925,88.71088,359.797,0.05985888,0.696658,-0.06099509,10.5799997635186,18
-30.2039,0.8833331,-34.83198,0.0550516433118524,0.3773940246923744,-0.0241160005217651,13.06834,88.69703,359.7272,0.07972202,0.6946721,-0.08123665,10.5999997630715,18
-29.99693,0.2833331,-34.83373,0.1860623640005485,-0.3423713501658491,-0.0314632180734548,3.216823,85.89764,359.8182,0.01946443,0.6811081,-0.02028506,10.6199997626245,18
-29.94073,0.4833333,-34.83287,0.1501517762530788,-0.1393872797887864,-0.0364494534964379,6.432584,85.88225,359.6353,0.03890696,0.6803007,-0.04054791,10.6399997621775,18
-29.88454,0.6833334,-34.83202,0.1152675293756999,0.0803238228235252,-0.0415636907734082,9.647346,85.85633,359.4501,0.05831339,0.6789563,-0.06077258,10.6599997617304,18
-29.65547,0.2833333,-34.83419,0.0944439807980686,0.2644911876214049,-0.046855935392621,3.373024,85.65425,359.7988,0.02039196,0.679531,-0.02129377,10.6799997612834,18
-29.59649,0.4833336,-34.83324,0.1206433110381262,0.2273788793018508,-0.0522439657861966,6.745031,85.63638,359.5963,0.04076014,0.678645,-0.04256306,10.6999997608364,18
-29.53752,0.6833335,-34.83228,0.1377271895821898,0.2357421267488693,-0.0566548506045947,10.11607,85.60626,359.391,0.06108777,0.6771697,-0.06378962,10.7199997603893,18
-29.47858,0.8833337,-34.83132,0.159221621897931,0.2362642795287047,-0.0601178874884169,13.48727,85.56335,359.1813,0.08136384,0.675106,-0.0849628,10.7399997599423,18
-29.18847,0.2833331,-34.83562,0.3869056359970564,-0.4646840951186932,-0.0643051414901449,3.532969,87.92045,359.8486,0.02127283,0.6938577,-0.0223485,10.7599997594953,18
-29.12674,0.4833329,-34.83603,0.3505066584087792,-0.2428826387741807,-0.0646613129862387,7.065464,87.9063,359.6956,0.04251914,0.6928665,-0.04467657,10.7799997590482,18
-29.06504,0.6833332,-34.83645,0.3063541294726306,-0.0043547910313065,-0.0637277349106995,10.59753,87.88242,359.5401,0.06372252,0.6912159,-0.06695994,10.7999997586012,18
-28.80459,0.2833333,-34.83981,0.4784411529612313,-0.4416851985499065,-0.0641616414195596,3.577117,89.41567,359.9388,0.02180618,0.7031609,-0.02233634,10.8199997581542,18
-28.74216,0.4833333,-34.84024,0.4068433730654597,-0.1697043299179815,-0.061402444852753,7.153558,89.4099,359.8771,0.04358698,0.7021331,-0.04464676,10.8399997577071,18
-28.67975,0.6833333,-34.84068,0.3169072128248302,0.1190029675728617,-0.0578170339103607,10.72898,89.40016,359.8144,0.06531916,0.7004216,-0.06690736,10.8599997572601,18
-28.61736,0.8833331,-34.84111,0.2224100032008387,0.372166160310048,-0.0536501567095157,14.30337,89.38625,359.7503,0.08698161,0.6980289,-0.08909654,10.879999756813,18
-28.39857,0.2833331,-34.843,0.1371530847584381,0.4236853151998702,-0.0491694210190871,3.571619,90.52583,0.06733387,0.02235156,0.7099861,-0.02172321,10.899999756366,18
-28.33625,0.4833331,-34.84239,0.0966723177055364,0.3558027559642727,-0.0449497418556674,7.142163,90.53221,0.1355896,0.04467727,0.7089515,-0.04341629,10.919999755919,18
-28.27394,0.6833332,-34.84178,0.0459512978026488,0.3338834717919681,-0.039952625447448,10.71167,90.54298,0.2049687,0.06695358,0.7072291,-0.06506056,10.9399997554719,18
-28.21165,0.8833333,-34.84117,-0.0007450207828938,0.3046113863540176,-0.0344467511093071,14.28012,90.55833,0.2759168,0.08915811,0.7048211,-0.08663585,10.9599997550249,18
-27.93174,0.2833333,-34.84471,0.1498171489325521,-0.4256429710057708,-0.0322039526836874,3.608459,91.6315,0.1082317,0.02262068,0.7167257,-0.02191967,10.9799997545779,18
-27.86874,0.4833334,-34.84462,0.0490838541632179,-0.2326604386895026,-0.026724823441306,7.215857,91.64179,0.2172553,0.04521209,0.715659,-0.04381146,10.9999997541308,18
-27.80576,0.6833334,-34.84453,-0.0553527564753792,-0.0224634691614863,-0.0213366013890592,10.82258,91.65913,0.3277701,0.06775314,0.7138827,-0.06565735,11.0199997536838,18
-27.55471,0.2833333,-34.84748,0.050953554147572,-0.4876371215832729,-0.018741090034986,3.633109,92.03211,0.1118562,0.02271596,0.719151,-0.02213137,11.0399997532368,18
-27.49128,0.4833336,-34.84778,-0.068008222144968,-0.2430115977888492,-0.0126084395872325,7.265117,92.04283,0.2246088,0.04540244,0.718066,-0.04423371,11.0599997527897,18
-27.42787,0.6833333,-34.84808,-0.196585592135122,0.0188287217932708,-0.0057546734073739,10.89612,92.06092,0.3391968,0.06803731,0.7162597,-0.06628546,11.0799997523427,18
-27.36448,0.8833331,-34.84838,-0.3203031778632415,0.2456131989222955,0.0015669577124057,14.52629,92.08672,0.4563768,0.09059765,0.713734,-0.08826713,11.0999997518957,18
-27.15653,0.2833335,-34.85145,-0.2643587275142636,-0.4686813915118535,0.0063940554600421,3.588233,93.72498,0.1872642,0.02259886,0.7293211,-0.02172914,11.1199997514486,18
-27.09385,0.4833333,-34.85226,-0.3745744044962293,-0.259738597180767,0.0144789323716736,7.175417,93.74269,0.3759448,0.04516909,0.7282459,-0.04343086,11.1399997510016,18
-27.03118,0.6833335,-34.85307,-0.4753775675611535,-0.0335815636561776,0.0225916346369388,10.76143,93.77256,0.5675582,0.06768803,0.7264556,-0.06508337,11.1599997505546,18
-26.96853,0.8833336,-34.85388,-0.5520950731411212,0.1575192570785013,0.0303007821565444,14.34606,93.81517,0.7634779,0.09013109,0.7239531,-0.08666576,11.1799997501075,18
-26.70072,0.2833333,-34.85698,-0.566748127396238,0.12782942004064,0.0345693081446114,3.519943,94.90468,0.2673911,0.02248607,0.7363171,-0.02104915,11.1999997496605,18
-26.63914,0.4833335,-34.85757,-0.5768508477297516,0.1441023682039378,0.0373075180875019,7.038746,94.92947,0.5367342,0.04494404,0.7352693,-0.04207196,11.2199997492135,18
-26.57758,0.6833333,-34.85817,-0.5686333081740962,0.1530227034497934,0.0382022068774645,10.55627,94.97131,0.8102046,0.06735286,0.7335249,-0.06304765,11.2399997487664,18
-26.33962,0.2833332,-34.86031,-0.3383444872755987,-0.5390401664296586,0.0326217947415869,3.455305,94.75026,0.290662,0.02228198,0.7354146,-0.02046648,11.2599997483194,18
-26.27913,0.4833332,-34.86024,-0.3616751402916058,-0.3078648974541433,0.0305514978273819,6.90901,94.77673,0.5835984,0.0445356,0.734405,-0.04090367,11.2799997478724,18
-26.21865,0.6833331,-34.86018,-0.3818050674439277,-0.0594748086464831,0.0277975021798084,10.36157,94.82137,0.8808327,0.06674272,0.7327242,-0.06129738,11.2999997474253,18
-25.96097,0.2833333,-34.86244,-0.173922303307787,-0.4864555306595319,0.0219256817535011,3.405313,93.58766,0.2223918,0.02175592,0.7285323,-0.02032922,11.3199997469783,18
-25.90143,0.4833333,-34.86229,-0.199996785350315,-0.2036371708918188,0.0201545378823908,6.809184,93.6076,0.4462807,0.04348374,0.7275636,-0.04063208,11.3399997465312,18
-25.84191,0.6833333,-34.86213,-0.2357754073942572,0.0963956506548001,0.0191987796719175,10.21198,93.64121,0.6733405,0.06516704,0.7259507,-0.06089294,11.3599997460842,18
-25.78241,0.8833331,-34.86197,-0.2683022091164666,0.3613724948032045,0.0188920822469782,13.61366,93.68909,0.9052176,0.08678642,0.7236957,-0.08109445,11.3799997456372,18
-25.72292,0.9766704,-34.86182,-0.2846146963755878,0.4251930036743875,0.0190602191679261,17.01413,93.75214,1.143797,0.1083227,0.7208011,-0.1012183,11.3999997451901,18
-25.46596,0.2833332,-34.8646,-0.2512607655435062,0.3700999422408154,0.0171757004838255,3.35077,91.41235,0.1052877,0.02107455,0.7154429,-0.0202854,11.4199997447431,18
-25.40748,0.4833332,-34.86421,-0.2226690124417167,0.3614582218080837,0.014948478680715,6.70012,91.42164,0.2113684,0.04212292,0.7145249,-0.04054424,11.4399997442961,18
-25.34901,0.6833332,-34.86381,-0.1856162174485689,0.3459516358064847,0.0120601477314963,10.04848,91.4373,0.3188872,0.06312925,0.7129964,-0.0607626,11.459999743849,18
-25.12285,0.2833335,-34.86666,0.0523486724260848,-0.3700504032674985,0.0045613978687129,3.293757,89.68839,359.9785,0.02024464,0.7048939,-0.02039972,11.479999743402,18
-25.06539,0.4833334,-34.86673,0.043980759222979,-0.1623274543201392,0.0008225902992222,6.586551,89.68652,359.9568,0.04046679,0.7040206,-0.04077647,11.499999742955,18
-25.00794,0.6833334,-34.86679,0.0334483053125715,0.0630978034172113,-0.0032297882718665,9.877989,89.68335,359.9347,0.06064573,0.7025666,-0.06111271,11.5199997425079,18
-24.76292,0.2833332,-34.86915,0.232868677234812,-0.3863595824979718,-0.0115012448951787,3.241835,87.66919,359.8899,0.01973906,0.692321,-0.02028353,11.5399997420609,18
-24.70634,0.4833332,-34.86877,0.2053293392934492,-0.125529479890888,-0.0170081385089062,6.482686,87.65979,359.7791,0.03945645,0.6914892,-0.04054467,11.5599997416139,18
-24.64977,0.6833333,-34.86838,0.1637409332489348,0.1530024528822242,-0.0226634804715359,9.722538,87.64397,359.6669,0.05913637,0.6901041,-0.06076724,11.5799997411668,18
-24.59321,0.8833333,-34.868,0.1208131206143576,0.3969664702743788,-0.0285664280076431,12.96111,87.62151,359.5528,0.07876252,0.6881678,-0.08093235,11.5999997407198,18
-24.38646,0.2833332,-34.87015,0.3523432362890091,-0.2996606133602425,-0.038830969237722,3.195266,85.15617,359.7916,0.01929989,0.6763676,-0.02020222,11.6199997402728,18
-24.33061,0.4833333,-34.86906,0.4017516905270035,-0.0725626925083005,-0.0459866239524728,6.389513,85.13864,359.582,0.03857871,0.6755756,-0.04038263,11.6399997398257,18
-24.27477,0.6833333,-34.86797,0.4375314625228164,0.1722377531852205,-0.052448056130558,9.582758,85.10915,359.3698,0.05782197,0.674257,-0.06052567,11.6599997393787,18
-24.21895,0.8833333,-34.86688,0.473144325955527,0.3824698325772113,-0.0582414358918299,12.77472,85.06729,359.154,0.07701533,0.6724135,-0.08061196,11.6799997389317,18
-23.94683,0.2833333,-34.87162,0.6879489299451294,-0.3478893736597186,-0.0651105086296794,3.517873,87.13663,359.8185,0.02114839,0.6889285,-0.02230242,11.6999997384846,18
-23.8853,0.4833332,-34.87174,0.662207454835432,-0.1545230540985114,-0.0678305545579647,7.034804,87.1198,359.6356,0.04227123,0.6879523,-0.04457814,11.7199997380376,18
-23.8238,0.6833332,-34.87185,0.6294745677762776,0.056544899178593,-0.0692103401443304,10.55237,87.09131,359.4493,0.06335514,0.6863257,-0.06681959,11.7399997375906,18
-23.58435,0.2833331,-34.876,0.791558115273677,-0.4072692011494968,-0.0713815714815737,3.559891,88.81118,359.8756,0.02143085,0.6994191,-0.02250943,11.7599997371435,18
-23.5222,0.4833333,-34.87689,0.7382667348607583,-0.1607962228435138,-0.0695581309297139,7.118975,88.79948,359.7499,0.0428337,0.6984055,-0.04499474,11.7799997366965,18
-23.46006,0.6833334,-34.87778,0.6727136166613938,0.1033794413844462,-0.0663831483096117,10.67703,88.77972,359.6222,0.06418945,0.696718,-0.06743017,11.7999997362494,18
-23.19958,0.2833332,-34.88092,0.6086523172504208,0.3329871143520388,-0.0621175930310045,3.591727,90.19305,0.01686367,0.02222655,0.7079459,-0.0220932,11.8199997358024,18
-23.1369,0.4833332,-34.88083,0.5559719098188509,0.3422913404256312,-0.0514735327943327,7.182675,90.19469,0.03430791,0.04442923,0.7069029,-0.04415716,11.8399997353554,18
-23.07424,0.6833332,-34.88073,0.4770967458200097,0.3980469231812322,-0.0401890451240518,10.77259,90.19745,0.0520259,0.06658193,0.7051663,-0.06617144,11.8599997349083,18
-23.0116,0.8833333,-34.88064,0.3861537067755876,0.446937560568263,-0.0285713588623579,14.36147,90.20141,0.0701672,0.08866294,0.7027386,-0.08811447,11.8799997344613,18
-22.94898,0.9766701,-34.88055,0.2972494019476528,0.4356477636916027,-0.0169153060203939,17.94937,90.20662,0.08889548,0.110651,0.6996225,-0.1099651,11.8999997340143,18
-22.69123,0.2833335,-34.88432,0.3821061283826736,-0.4148447510791931,-0.0092158111280724,3.569499,91.31225,0.08969691,0.02232852,0.7147935,-0.02172652,11.9199997335672,18
-22.62893,0.4833337,-34.88418,0.240168860006456,-0.2424914426150211,0.0017432662619469,7.137821,91.32068,0.1800551,0.04462802,0.7137529,-0.04342492,11.9399997331202,18
-22.56664,0.6833338,-34.88404,0.0973641357945744,-0.0529235447446941,0.0122870106102226,10.70512,91.33489,0.2717755,0.06687774,0.7120202,-0.06507528,11.9599997326732,18
-22.33643,0.2833335,-34.8873,0.1249885527601541,-0.538725795949974,0.0208612879264364,3.647047,91.93214,0.1127348,0.02282527,0.7185421,-0.02219361,11.9799997322261,18
-22.27275,0.4833334,-34.88749,-0.0411127440721195,-0.3147294358965161,0.0320641290047021,7.293066,91.94297,0.2263844,0.04562123,0.7174496,-0.04435841,11.9999997317791,18
-22.20908,0.6833335,-34.88767,-0.2066601996290522,-0.0735185115267645,0.0427422696368822,10.938,91.96127,0.3418296,0.06836415,0.7156308,-0.06647209,12.0199997313321,18
-21.95857,0.2833333,-34.89131,-0.3574090535974683,0.1326363245440956,0.0526974912030198,3.618942,92.75768,0.1331069,0.0226243,0.7235304,-0.02205742,12.039999730885,18
-21.89539,0.4833336,-34.89204,-0.5160147455113879,0.1180008541004749,0.0616328185996337,7.236762,92.77037,0.2671689,0.04521868,0.7224468,-0.04408653,12.059999730438,18
-21.83223,0.6833335,-34.89276,-0.6797597210054107,0.1493287484512493,0.0709609591446849,10.85353,92.79179,0.4033859,0.06776177,0.7206428,-0.06606537,12.079999729991,18
-21.76909,0.8833335,-34.89348,-0.8342197662716941,0.1733037065912541,0.0802573627568321,14.46904,92.82233,0.5426736,0.0902285,0.7181208,-0.08797239,12.0999997295439,18
-21.45945,0.2833332,-34.89796,-0.8146993920843535,-0.5037043942107583,0.0912056724145671,3.551335,94.85751,0.247401,0.02255156,0.7360361,-0.02135952,12.1199997290969,18
-21.39736,0.4833335,-34.89891,-0.950779423516348,-0.25747511390647,0.1042902792615976,7.101499,94.88066,0.4966023,0.04507413,0.7349709,-0.042692,12.1399997286499,18
-21.33528,0.6833335,-34.89985,-1.067538362215206,0.0059684280676518,0.1155615424839737,10.65051,94.91971,0.7495756,0.06754656,0.7331975,-0.06397742,12.1599997282028,18
-21.27322,0.8833336,-34.9008,-1.1510434246176755,0.234355592425415,0.1245185708686236,14.19788,94.97539,1.008266,0.08994393,0.7307184,-0.08519344,12.1799997277558,18
-21.05574,0.2833335,-34.90337,-1.1873222496455431,0.2615868996072129,0.130684822565172,3.484103,95.06537,0.2829698,0.02234571,0.7372687,-0.02075828,12.1999997273088,18
-20.99476,0.4833336,-34.9038,-1.27833225597033,0.169904180859334,0.1381497533850435,6.96708,95.09134,0.5680009,0.04466423,0.73624,-0.04149083,12.2199997268617,18
-20.9338,0.6833332,-34.90425,-1.3464166276000231,0.1246728389176232,0.143538402313581,10.44849,95.13518,0.857417,0.06693377,0.7345275,-0.06217518,12.2399997264147,18
-20.6964,0.2833333,-34.90661,-1.37894135592391,0.0725765850604924,0.1466346654921366,3.428332,94.21445,0.2672449,0.02206767,0.7322515,-0.02032872,12.2599997259676,18
-20.6364,0.4833332,-34.90635,-1.4075084721753497,0.0402738514852032,0.1566663414425875,6.855188,94.23862,0.536631,0.04410855,0.7312629,-0.04062892,12.2799997255206,18
-20.57643,0.6833335,-34.90609,-1.420256151798716,0.0544218180738699,0.1659169124983108,10.28085,94.27933,0.8098407,0.06610308,0.7296169,-0.06088642,12.2999997250736,18
-20.51647,0.8833336,-34.90582,-1.4048422561970355,0.0617050754697171,0.1742535940505121,13.70531,94.33736,1.089,0.08803216,0.7273157,-0.08108326,12.3199997246265,18
-20.2383,0.2833333,-34.90294,-1.395568720948484,0.0887812821788176,0.190253398907167,3.37674,92.1905,0.1570201,0.02141851,0.7201522,-0.02027833,12.3399997241795,18
-20.17933,0.4833335,-34.90245,-1.3852035502067803,0.1623087892919688,0.204749868031925,6.752023,92.20447,0.3151782,0.04281,0.7192127,-0.04052977,12.3599997237325,18
-20.12037,0.6833334,-34.90196,-1.3614822009995216,0.2289715204802364,0.2173898093494699,10.12633,92.228,0.4754829,0.06415825,0.7176483,-0.06074067,12.3799997232854,18
-20.06144,0.8833335,-34.90147,-1.3121051613592822,0.2354536128527435,0.2278334643150827,13.49957,92.26153,0.6391847,0.08544467,0.7154611,-0.08089264,12.3999997228384,18
-19.85484,0.2833333,-34.90446,-0.9601960406719048,-0.5972663117208686,0.2477083721882493,3.318519,90.37052,0.04091591,0.0206615,0.7090847,-0.02028916,12.4199997223914,18
-19.79695,0.4833333,-34.90413,-0.8226812960223118,-0.4071410844746714,0.2679286489782271,6.636053,90.3741,0.08209352,0.04129955,0.7081928,-0.04055532,12.4399997219443,18
-19.73907,0.6833334,-34.90379,-0.6785763158589777,-0.1998015405874479,0.2841087436575336,9.952188,90.3801,0.1237461,0.06189391,0.7067081,-0.06077939,12.4599997214973,18
-19.53392,0.2833335,-34.90461,-0.5154486816413293,-0.0275182536587411,0.2960262624793586,3.266739,88.82812,359.9323,0.01994699,0.6995662,-0.02036992,12.4799997210503,18
-19.47692,0.4833333,-34.90463,-0.3589829284314501,-0.0760255368622996,0.315750866399334,6.53253,88.82231,359.8642,0.03987197,0.6987134,-0.04071744,12.4999997206032,18
-19.41993,0.6833333,-34.90465,-0.2030923777265165,-0.0785694547487583,0.3297023628179474,9.797031,88.81247,359.795,0.05975558,0.6972933,-0.06102514,12.5199997201562,18
-19.36296,0.8833333,-34.90467,-0.035615511798813,-0.0884661908887874,0.3379334665802176,13.06054,88.79849,359.7245,0.07958492,0.6953079,-0.08127703,12.5399997197092,18
-19.12958,0.2833335,-34.90738,-0.0687094053794492,0.5612568661714898,0.344648376056206,3.210105,84.86238,359.7827,0.01939487,0.6744776,-0.02029721,12.5599997192621,18
-19.07347,0.4833336,-34.90613,0.1365867943776066,0.3263526644036981,0.3395523376409244,6.419212,84.84403,359.5642,0.03876882,0.6736802,-0.04057228,12.5799997188151,18
-19.01737,0.6833335,-34.90488,0.3355276885871934,0.1128447752102805,0.3301485616166886,9.627305,84.81314,359.343,0.05810701,0.6723526,-0.06080924,12.5999997183681,18
-18.82047,0.2833333,-34.90168,0.5406079238742887,-0.1336285031286335,0.3167069033858922,3.452841,85.12704,359.7872,0.02093384,0.6761402,-0.02174541,12.619999717921,18
-18.76007,0.4833333,-34.90026,0.6676893805498061,-0.1473577661836382,0.3029934470309428,6.904703,85.10769,359.5729,0.04184316,0.6752161,-0.04346493,12.639999717474,18
-18.6997,0.6833332,-34.89884,0.7679093001576938,-0.1151241349662732,0.2865944607310382,10.3559,85.07505,359.3555,0.06271076,0.6736774,-0.06514154,12.6599997170269,18
-18.63935,0.8833329,-34.89743,0.8537290068501608,-0.0902432456003666,0.2678505916304345,13.80761,85.0285,359.1332,0.08352544,0.6715248,-0.08676276,12.6799997165799,18
-18.57902,0.9766703,-34.89601,0.9376093282094224,-0.1260312811338838,0.2471114251366444,17.25812,84.96716,358.9043,0.1042581,0.6687614,-0.1082987,12.6999997161329,18
-18.38403,0.2833333,-34.89686,0.9989139400396478,-0.1691720462352823,0.2233733057959099,3.546896,86.9896,359.8488,0.02154272,0.6879881,-0.0222576,12.7199997156858,18
-18.32207,0.4833334,-34.89625,1.043497038881446,-0.1663496923880822,0.1982589639778424,7.093481,86.97543,359.696,0.04306076,0.6869975,-0.04449444,12.7399997152388,18
-18.26013,0.6833333,-34.89565,1.0840364360626396,-0.170879910687303,0.1720925119108542,10.63902,86.95152,359.541,0.06453148,0.6853483,-0.0666824,12.7599997147918,18
-18.03946,0.2833335,-34.89077,0.9213519428167752,0.484209163287722,0.1474980616488821,3.591269,88.21729,359.9729,0.02233462,0.6956846,-0.02197903,12.7799997143447,18
-17.97681,0.4833333,-34.88929,0.9756207388693152,0.2546721556544778,0.1074488140834546,7.181902,88.21475,359.9461,0.04464594,0.6946598,-0.04392993,12.7999997138977,18
-17.91418,0.6833335,-34.8878,1.0124168157905622,0.0465310130726234,0.0674663769866583,10.77146,88.21049,359.9188,0.06690641,0.6929536,-0.06583157,12.8199997134507,18
-17.67216,0.2833331,-34.88068,1.0448183685742194,-0.1945754453888481,0.0278238029758668,3.554895,88.65161,0.06844706,0.02260629,0.6983879,-0.02124587,12.8399997130036,18
-17.61018,0.4833332,-34.87802,1.0133062601022989,-0.202938374508245,-0.0289301090388391,7.108448,88.65807,0.1379565,0.04518569,0.6973799,-0.04245986,12.8599997125566,18
-17.54823,0.6833332,-34.87535,0.950664968462254,-0.1653380826643667,-0.0843623167549623,10.66098,88.66897,0.2085308,0.06771526,0.6957017,-0.063627,12.8799997121096,18
-17.48628,0.8833334,-34.87269,0.8700107851632914,-0.1350905389444113,-0.138227723585345,14.21247,88.68454,0.2807883,0.09017339,0.6933553,-0.08472662,12.8999997116625,18
-17.17641,0.2833333,-34.85883,0.7844835147485174,-0.1655119125446488,-0.1902883417367817,3.625534,89.1386,0.09699287,0.02312944,0.7014009,-0.02159676,12.9199997112155,18
-17.11317,0.4833333,-34.85619,0.7832865802417963,-0.2032859942818455,-0.2544912943256676,7.250026,89.14787,0.1947061,0.04622895,0.7003472,-0.04316597,12.9399997107685,18
-17.04995,0.6833334,-34.85354,0.7528339086070179,-0.1950968017398065,-0.3144757961090079,10.87408,89.16351,0.2939953,0.06927953,0.6985928,-0.06468949,12.9599997103214,18
-16.98674,0.8833334,-34.8509,0.7069813237413722,-0.1942605184892057,-0.3699659370129566,14.49708,89.18586,0.395734,0.09225451,0.6961399,-0.08614206,12.9799997098744,18
-16.77036,0.2833333,-34.84059,0.4827658959156657,0.4661950128670305,-0.4193160224752574,3.624539,90.56921,0.1336435,0.02307908,0.7102286,-0.02165274,12.9999997094274,18
-16.70709,0.4833333,-34.8389,0.4114201820131917,0.2420244312526709,-0.47521606028441,7.247993,90.58196,0.2682759,0.04612798,0.7091616,-0.04327774,13.0199997089803,18
-16.64384,0.6833333,-34.8372,0.3261174135908415,0.0392500562777141,-0.5233057460861232,10.87036,90.60352,0.4050705,0.06912412,0.7073852,-0.06485304,13.0399997085333,18
-16.58062,0.8833334,-34.83551,0.2409552180884571,-0.1964897054905657,-0.5633984653218747,14.4917,90.63419,0.5447481,0.09204242,0.7049016,-0.08636046,13.0599997080863,18
-16.30396,0.2833332,-34.84071,0.1428557838299546,-0.1994862617328032,-0.6059063973770904,3.56639,93.16225,0.2462211,0.02294785,0.7259489,-0.02112603,13.0799997076392,18
-16.2416,0.4833333,-34.83986,0.0304753657700942,-0.1565198284831589,-0.639860394070098,7.13163,93.18538,0.4942416,0.04586612,0.7248895,-0.04222536,13.0999997071922,18
-16.17926,0.6833332,-34.839,-0.0823485852907541,-0.1209060167755997,-0.6653019582139237,10.69572,93.22441,0.7460718,0.06873317,0.7231256,-0.0632777,13.1199997067451,18
-15.93018,0.2833335,-34.83909,-0.3508219630308691,0.5743273579676272,-0.6846281647488297,3.498732,93.95165,0.2853773,0.02264881,0.730671,-0.0206191,13.1399997062981,18
-15.86895,0.4833335,-34.83833,-0.3700075008164134,0.3849341630699274,-0.7151350757860016,6.99636,93.97795,0.5728099,0.04526978,0.7296429,-0.04121287,13.1599997058511,18
-15.80773,0.6833335,-34.83756,-0.4007173696696995,0.2169372917234199,-0.7373729869157728,10.49235,94.0223,0.8644281,0.06783867,0.7279312,-0.06175963,13.179999705404,18
-15.74653,0.8833334,-34.8368,-0.4295473719174119,0.0159754044431071,-0.7513190297740593,13.98707,94.08555,1.162633,0.09033757,0.7255383,-0.08224269,13.199999704957,18
-15.54151,0.2833333,-34.83914,-0.2309439189252007,-0.7845809062669626,-0.7715457358410518,3.438083,94.5164,0.3091029,0.02233989,0.7340315,-0.02020145,13.21999970451,18
-15.48129,0.4833333,-34.83848,-0.1899169420967954,-0.5627794039243701,-0.7793250914149965,6.874659,94.54438,0.6203049,0.04465029,0.7330328,-0.04037638,13.2399997040629,18
-15.42108,0.683333,-34.83783,-0.1510522670540677,-0.324251562453961,-0.7762388554691952,10.31009,94.59156,0.9359584,0.06691413,0.7313701,-0.0605092,13.2599997036159,18
-15.3609,0.8833329,-34.83717,-0.1008754880696471,-0.1212676876558533,-0.762307796833845,13.74419,94.65878,1.258418,0.08911034,0.7290454,-0.08058162,13.2799997031689,18
-15.09552,0.2833333,-34.85007,-0.2164812165730296,0.6003602708134637,-0.7427224764938316,3.386567,93.54811,0.1980579,0.0214963,0.7283044,-0.02034794,13.2999997027218,18
-15.03634,0.4833334,-34.85028,-0.1075250158053897,0.3253122830552208,-0.7280905656743002,6.771686,93.56573,0.3969895,0.0429621,0.7273473,-0.04067219,13.3199997022748,18
-14.97717,0.6833335,-34.85049,0.0041684714588292,0.0716601423150328,-0.7020929213335521,10.15577,93.59542,0.5986764,0.06438422,0.725754,-0.0609551,13.3399997018278,18
-14.74056,0.2833334,-34.86438,-0.0831853321816513,0.5053311830390192,-0.6719266138816877,3.330359,92.4203,0.09116092,0.02068315,0.7215617,-0.02042673,13.3599997013807,18
-14.68244,0.4833336,-34.86525,0.0146969702312507,0.2944714832810305,-0.6471799256563102,6.659293,92.42825,0.1825923,0.04133809,0.7206472,-0.04082939,13.3799997009337,18
-14.62434,0.6833335,-34.86612,0.1108876584078171,0.1050078983405204,-0.6139163270382539,9.98729,92.44167,0.2752811,0.06195264,0.7191247,-0.06119173,13.3999997004867,18
-14.56626,0.8833334,-34.86699,0.2188671927468757,-0.1174210718251962,-0.5728056563549231,13.31429,92.46077,0.3698602,0.08250894,0.7169958,-0.08149655,13.4199997000396,18
-14.27078,0.2833332,-34.88506,0.2547805595449031,-0.1071065014106743,-0.5522092581439964,3.275226,90.80084,359.9473,0.0197385,0.7117496,-0.02067114,13.4399996995926,18
-14.21366,0.4833332,-34.88679,0.2697790436990832,-0.0508289117100614,-0.5254273204052708,6.549464,90.7963,359.8942,0.03945484,0.7108775,-0.04131927,13.4599996991456,18
-14.15655,0.6833331,-34.88851,0.2768477376497174,-0.0019039255181961,-0.4933357319556677,9.82237,90.78858,359.8401,0.05912851,0.7094254,-0.0619278,13.4799996986985,18
-14.09946,0.883333,-34.89024,0.288988625935298,-0.0136477386893281,-0.4567980631870298,13.09433,90.7776,359.7849,0.07874833,0.7073952,-0.08247995,13.4999996982515,18
-13.89251,0.2833333,-34.90335,0.3989883994296335,-0.0327440481274723,-0.4445316297631905,3.219218,88.24068,359.8268,0.01911293,0.6959227,-0.02063938,13.5199996978045,18
-13.83628,0.4833334,-34.90465,0.4861599792371027,-0.0058771232733501,-0.4279151108770094,6.43744,88.22601,359.6526,0.03820486,0.6950967,-0.04125639,13.5399996973574,18
-13.78007,0.6833333,-34.90594,0.5641122893338064,0.0136368671994716,-0.4078810740401195,9.654674,88.20129,359.4761,0.05726094,0.6937214,-0.06183499,13.5599996969104,18
-13.55088,0.2833334,-34.92017,0.6464673561790928,-0.0275181263799637,-0.3853700405992555,3.373421,88.18015,359.8043,0.01995313,0.695522,-0.02170643,13.5799996964633,18
-13.49191,0.4833333,-34.92172,0.656339180090006,-0.0760253489496894,-0.3643406593256628,6.745883,88.16277,359.6072,0.03988366,0.6946151,-0.0433879,13.5999996960163,18
-13.43295,0.6833333,-34.92327,0.6482772325242934,-0.0785693105691707,-0.3393023972863531,10.11731,88.13345,359.4074,0.05977353,0.693105,-0.06502599,13.6199996955693,18
-13.37402,0.8833332,-34.92482,0.6358366249313949,-0.088465966996617,-0.3112385244223503,13.48899,88.09167,359.2033,0.0796133,0.6909927,-0.08661024,13.6399996951222,18
-13.08392,0.2833333,-34.94426,0.4083708926297511,0.5612564944407954,-0.2799957050885453,3.533132,90.61559,359.8531,0.02076991,0.7105845,-0.02281637,13.6599996946752,18
-13.02227,0.4833334,-34.94751,0.4099067319291158,0.3263521406528336,-0.2625664227805302,7.065757,90.60186,359.7045,0.04151354,0.7095695,-0.04561153,13.6799996942282,18
-12.96065,0.6833333,-34.95074,0.3935672382215749,0.1128438765924884,-0.2422079078215233,10.59809,90.57866,359.5534,0.06221528,0.7078791,-0.06836266,13.6999996937811,18
-12.70028,0.2833333,-34.96758,0.3733444306660267,-0.1336295464487178,-0.2201568551799013,3.577094,92.21239,359.9417,0.02127266,0.720286,-0.02284418,13.7199996933341,18
-12.63794,0.4833334,-34.971,0.3901220473730404,-0.1473594038198241,-0.2079169403460454,7.15349,92.20688,359.8828,0.04251983,0.719233,-0.04566228,13.7399996928871,18
-12.57562,0.6833333,-34.97443,0.3871889397322334,-0.1151258977032979,-0.1943436213232061,10.72888,92.19759,359.823,0.06371967,0.7174799,-0.06842951,13.75999969244,18
-12.51332,0.8833332,-34.97786,0.3790078266483423,-0.0902448504803462,-0.1807637336351959,14.30323,92.1843,359.7618,0.08485145,0.7150291,-0.09112366,13.779999691993,18
-12.45104,0.9766706,-34.98129,0.3800617445870138,-0.1260322969248171,-0.1685241324245083,17.87653,92.16679,359.6986,0.1058944,0.7118834,-0.1137227,13.799999691546,18
-12.19278,0.2833334,-34.99786,0.4219744484203271,-0.1691727588570495,-0.160472560562205,3.562673,93.64544,0.07605515,0.02175404,0.7288734,-0.02221462,13.8199996910989,18
-12.13065,0.4833334,-35.00048,0.4420723842564147,-0.1663500926933428,-0.151090520373117,7.124248,93.65261,0.1530463,0.04348272,0.7278165,-0.04439879,13.8399996906519,18
-12.06855,0.6833333,-35.0031,0.4553001888760395,-0.1708802680435983,-0.1417266703338882,10.68482,93.66471,0.2312239,0.06516336,0.7260568,-0.06653389,13.8599996902049,18
-11.83835,0.2833333,-35.01856,0.2635766129434689,0.4842091003017143,-0.1173207425055338,3.626734,94.60078,0.1023841,0.02211578,0.7345317,-0.02265012,13.8799996897578,18
-11.77512,0.4833333,-35.02186,0.2405514507740367,0.2546716267636763,-0.1059183673318813,7.252422,94.61056,0.2055218,0.04420282,0.7334275,-0.04527135,13.8999996893108,18
-11.7119,0.6833334,-35.02516,0.2100691487094312,0.0465304174497577,-0.0946652681241602,10.87762,94.62704,0.3100675,0.06624111,0.7315887,-0.06784576,13.9199996888638,18
-11.46102,0.2833335,-35.04177,0.1872523639403631,-0.1945758943057157,-0.0848129846854064,3.638566,95.05563,0.1112148,0.02215219,0.7372123,-0.02276184,13.9399996884167,18
-11.3976,0.4833333,-35.04543,-0.0977934607756605,0.4373753861484191,-0.0569769765519581,7.276089,95.06631,0.223328,0.04427595,0.7360967,-0.04549413,13.9599996879697,18
-11.33421,0.6833335,-35.0491,-0.1434174273434258,0.184699641598055,-0.0454395691362705,10.9125,95.0843,0.3372018,0.06634823,0.7342393,-0.06817402,13.9799996875226,18
-11.27083,0.8833334,-35.05276,-0.1977675215176004,-0.046579754049901,-0.0328682677564771,14.54803,95.10999,0.4537084,0.08834756,0.7316426,-0.09078093,13.9999996870756,18
-10.96039,0.2833335,-35.07384,-0.2455879931024815,-0.3108244865728135,-0.0205073640335982,3.581517,97.24999,0.2153144,0.02206472,0.7499929,-0.02220823,14.0199996866286,18
-10.89793,0.4833335,-35.078,-0.2472070706319895,-0.3423260693249251,-0.0100198976391538,7.161935,97.27032,0.4322817,0.04410151,0.7488903,-0.04438808,14.0399996861815,18
-10.83549,0.6833333,-35.08216,-0.2531698670713513,-0.3278645043796463,0.0006007018342941,10.74123,97.30463,0.6526509,0.06608903,0.7470547,-0.06651801,14.0599996857345,18
-10.77307,0.8833331,-35.08632,-0.2482383894004982,-0.3207556284925701,0.0099924904801227,14.31902,97.35352,0.8779289,0.0880017,0.7444885,-0.08857614,14.0799996852875,18
-10.55535,0.2833333,-35.10102,-0.4248469910415071,0.3459726100597529,0.032332712490529,3.514277,98.03635,0.2667891,0.02186612,0.7545138,-0.02162187,14.0999996848404,18
-10.49399,0.4833334,-35.10498,-0.3198674967765154,0.128074504954137,0.0329045783922126,7.027424,98.06104,0.5355503,0.04370524,0.7534435,-0.04321662,14.1199996843934,18
-10.43265,0.6833333,-35.10894,-0.2159873226459581,-0.068427717066748,0.0312006544422871,10.53906,98.10271,0.8083664,0.06549504,0.7516619,-0.06476186,14.1399996839464,18
-10.37133,0.8833333,-35.11289,-0.0982321195487827,-0.2978950635699387,0.026030600934753,14.04935,98.16216,1.087395,0.08721615,0.7491712,-0.08623917,14.1599996834993,18
-10.09371,0.2833332,-35.13097,-0.2291522126949399,0.3456949184315775,0.0377019951817487,3.449326,97.82208,0.2929657,0.02170627,0.7532956,-0.02100384,14.1799996830523,18
-10.0334,0.4833332,-35.13408,-0.1832633660097187,0.1046583422916846,0.0360036119098055,6.897077,97.84871,0.5882704,0.04338558,0.752265,-0.04197761,14.1999996826053,18
-9.973105,0.6833332,-35.1372,-0.1347718965627926,-0.1149820193682227,0.0334646224388421,10.34364,97.89362,0.8877892,0.06501882,0.750549,-0.06290721,14.2199996821582,18
-9.725821,0.2833333,-35.15341,-0.3081275723600161,0.3527005815095804,0.0454772823648923,3.396519,96.28959,0.1913048,0.02101744,0.7444723,-0.02096031,14.2399996817112,18
-9.666556,0.4833334,-35.15658,-0.4789791780241001,0.8161665900610462,0.0568666857315136,6.791572,96.30669,0.3838284,0.0420072,0.7434886,-0.04189365,14.2599996812642,18
-9.607307,0.6833333,-35.15976,-0.40307836661104,0.3704388574876075,0.0513789928313812,10.18559,96.33551,0.5790047,0.06295388,0.7418507,-0.06278441,14.2799996808171,18
-9.548076,0.8833333,-35.16293,-0.326463846202051,-0.0795052267934268,0.046398838215147,13.57852,96.37657,0.7783596,0.08383937,0.7395608,-0.08361376,14.2999996803701,18
-9.24194,0.2833334,-35.18274,-0.2349350921750659,-0.4610262080161082,0.0408632654954388,3.336995,94.10181,0.07712346,0.020331,0.7316355,-0.02085383,14.3199996799231,18
-9.183775,0.4833334,-35.18556,-0.1483341978261245,-0.510683191622324,0.0345893887459283,6.672554,94.10858,0.1548779,0.04063694,0.7307047,-0.04168023,14.339999679476,18
-9.125627,0.6833334,-35.18838,-0.0683351752853562,-0.514864814343982,0.0276405075969137,10.00714,94.12002,0.2336764,0.0609026,0.7291552,-0.06246532,14.359999679029,18
-9.067495,0.8833334,-35.1912,0.0191100295018804,-0.5268871258520402,0.0189357455760159,13.34076,94.13629,0.3140907,0.08111092,0.7269886,-0.08319159,14.379999678582,18
-8.850995,0.2833335,-35.20614,-0.0737725926326566,0.1202221656729959,0.0228033216340293,3.280729,92.42817,359.9559,0.01953016,0.7216421,-0.02093227,14.3999996781349,18
-8.793845,0.4833336,-35.20934,0.1090239224900306,-0.1177828723364057,0.0063689655984333,6.560503,92.42436,359.9114,0.03903842,0.720755,-0.04184154,14.4199996776879,18
-8.73671,0.6833337,-35.21254,0.2840572937485079,-0.334879813028504,-0.0104786587925076,9.83891,92.41791,359.8661,0.05850514,0.719278,-0.06270926,14.4399996772408,18
-8.679589,0.8833336,-35.21574,0.2403393665194881,0.1348580783254299,-0.012740396578927,13.11641,92.40873,359.8201,0.07791926,0.7172129,-0.08351936,14.4599996767938,18
-8.403878,0.2833333,-35.23372,0.1912134781379704,0.5998918327270506,-0.0150909245986028,3.223906,89.10731,359.8066,0.01886194,0.7013321,-0.02093746,14.4799996763468,18
-8.347589,0.4833334,-35.23621,0.3150929309350214,0.1552436215993441,-0.03084053648967,6.4468,89.0909,359.6121,0.03770326,0.7004967,-0.04185189,14.4999996758997,18
-8.291316,0.6833332,-35.2387,0.4394651712679627,-0.2941089532477274,-0.0473692757067425,9.668704,89.06328,359.4151,0.0565092,0.6991057,-0.06272731,14.5199996754527,18
-8.043581,0.2833333,-35.25437,0.2819564420868294,0.1568113765097258,-0.0446433667655767,3.374334,88.83475,359.795,0.01977773,0.6996131,-0.02188356,14.5399996750057,18
-7.984612,0.4833333,-35.25675,0.3082711996298748,-0.037286733126003,-0.0544214086063234,6.747678,88.81654,359.5886,0.03953273,0.6987001,-0.04374193,14.5599996745586,18
-7.92566,0.6833332,-35.25913,0.319889762294367,-0.2104765212909082,-0.0625855450882397,10.12002,88.78583,359.3793,0.059248,0.6971798,-0.06555628,14.5799996741116,18
-7.866733,0.8833332,-35.26151,0.330933510998431,-0.4171189950293168,-0.0699742567412755,13.4925,88.7421,359.1657,0.07891403,0.6950533,-0.08731486,14.5999996736646,18
-7.557172,0.2833334,-35.28256,0.1690619405995272,0.2488077271544853,-0.0647500248133425,3.533482,91.077,359.847,0.02064234,0.7134101,-0.02293896,14.6199996732175,18
-7.495551,0.4833332,-35.2864,0.2670591571929686,0.0296197729887816,-0.0761309255045361,7.066502,91.06271,359.6924,0.04125926,0.7123907,-0.04585639,14.6399996727705,18
-7.433953,0.6833332,-35.29025,0.3545547168100746,-0.1686600582470526,-0.0850168049651571,10.59918,91.03857,359.5353,0.06183474,0.710693,-0.06872875,14.6599996723235,18
-7.372373,0.8833331,-35.29408,0.446357737873317,-0.4003931081288391,-0.0924118413541918,14.13078,91.00415,359.3747,0.08234594,0.7083194,-0.09152882,14.6799996718764,18
-7.153131,0.2833333,-35.3092,0.2975879025080683,0.2404436483444414,-0.0823324249723143,3.576918,92.57281,359.938,0.02117658,0.7224627,-0.02293193,14.6999996714294,18
-7.090825,0.4833333,-35.31308,0.3104495667673346,-0.0038337821923637,-0.0838498911749638,7.153157,92.56697,359.8756,0.04232893,0.7214067,-0.04583679,14.7199996709824,18
-7.028536,0.6833334,-35.31696,0.322414746743469,-0.2272029728875118,-0.0845348792485012,10.72835,92.55711,359.8122,0.06343372,0.7196485,-0.06869057,14.7399996705353,18
-6.966265,0.8833334,-35.32084,0.1236912283084912,0.2362628115104325,-0.0697488051672436,14.3025,92.54304,359.7473,0.08447073,0.7171903,-0.09147094,14.7599996700883,18
-6.687362,0.2833334,-35.33916,-0.0712302142889176,0.6950240161374279,-0.0544094386514473,3.562998,93.92846,0.07361391,0.02168548,0.7305607,-0.02228489,14.7799996696413,18
-6.625252,0.4833334,-35.34212,-0.0271264886187281,0.2441035050011828,-0.0554509379798489,7.1249,93.93541,0.1481946,0.04334601,0.7295012,-0.04453896,14.7999996691942,18
-6.563159,0.6833334,-35.34509,0.0208497735842176,-0.2115214402454276,-0.0556350522640656,10.68576,93.94714,0.2239228,0.06495839,0.7277373,-0.06674355,14.8199996687472,18
-6.312506,0.2833334,-35.36203,-0.2086388148846101,0.2331264481987794,-0.0361150178352218,3.626822,94.84101,0.1008615,0.02205898,0.7359514,-0.02270598,14.8399996683002,18
-6.249287,0.4833334,-35.36562,-0.2475417807154203,0.0327562654957984,-0.0304424614396126,7.252593,94.85065,0.2025633,0.04408991,0.734845,-0.04538239,14.8599996678531,18
-6.186089,0.6833332,-35.36921,-0.295190741315662,-0.1467056137696976,-0.024058990780027,10.87791,94.8669,0.3055835,0.06607201,0.7330026,-0.06801251,14.8799996674061,18
-6.12291,0.8833332,-35.3728,-0.3365897441679419,-0.3596206763114075,-0.0180537497866097,14.50214,94.89007,0.4110774,0.08798135,0.7304269,-0.09056814,14.899999666959,18
-5.81161,0.2833334,-35.39416,-0.5468875686678989,0.3000336380994153,0.0009967470448444,3.630375,95.60207,0.127168,0.02209849,0.740421,-0.02272082,14.919999666512,18
-5.748349,0.4833334,-35.39814,-0.4882206452948319,0.0745731231822697,0.0020908915242472,7.259692,95.61424,0.2552586,0.04416801,0.7393053,-0.0454127,14.939999666065,18
-5.685106,0.6833334,-35.40212,-0.4311115174637705,-0.1299793294388393,0.0045492188319897,10.88792,95.63478,0.3854244,0.06618699,0.7374477,-0.06805231,14.9599996656179,18
-5.621882,0.8833334,-35.40609,-0.3599232372170275,-0.3679848622760691,0.007191198700724,14.51517,95.66407,0.5185882,0.08813283,0.7348506,-0.09061889,14.9799996651709,18
-5.403983,0.2833334,-35.42173,-0.5214446812083207,0.2665795630005788,0.0265718624321351,3.57503,97.37434,0.2090445,0.02196218,0.7507119,-0.02222577,14.9999996647239,18
-5.34166,0.4833333,-35.42612,-0.5027531854518599,0.0160295138662631,0.0323238700566861,7.148984,97.39402,0.4196595,0.04389657,0.7496125,-0.04442349,15.0199996642768,18
-5.279356,0.6833333,-35.43051,-0.4701974545964313,-0.2136120092451605,0.0375373778109988,10.72177,97.42725,0.633494,0.06578131,0.7477821,-0.06657147,15.0399996638298,18
-5.040891,0.2833334,-35.44706,-0.6385762243917847,0.2435811835617205,0.0567777473985273,3.512792,98.13815,0.2645859,0.0218239,0.7550967,-0.02164409,15.0599996633828,18
-4.979572,0.4833333,-35.45116,-0.7927485734475774,0.6960697913705955,0.0746366064720405,7.024493,98.16264,0.5311331,0.04362112,0.7540266,-0.04326126,15.0799996629357,18
-4.918268,0.6833335,-35.45527,-0.6935200649179165,0.2388767987599037,0.0710960262342297,10.53462,98.20394,0.8016664,0.06536859,0.7522452,-0.06482867,15.0999996624887,18
-4.856981,0.8833333,-35.45937,-0.576765521300818,-0.2230206316200914,0.0644222623890371,14.0435,98.26287,1.078398,0.08704837,0.7497548,-0.08632852,15.1199996620417,18
-4.55911,0.2833333,-35.47936,-0.7289035686823719,0.2153548624672442,0.0759104222393105,3.448874,97.94225,0.2926495,0.02167957,0.7539843,-0.02102543,15.1399996615946,18
-4.498811,0.4833331,-35.48261,-0.6824325030428045,0.0087119508759003,0.0724653141525024,6.896217,97.96886,0.5876452,0.04333252,0.7529531,-0.042021,15.1599996611476,18
-4.438529,0.683333,-35.48586,-0.6366059497800503,-0.1770226050074133,0.0687623467536084,10.34238,98.01373,0.8868836,0.06493971,0.751236,-0.06297219,15.1799996607006,18
-4.378265,0.883333,-35.4891,-0.577742968303042,-0.3962101718483746,0.0638723588281919,13.78725,98.07767,1.192647,0.08648127,0.7488353,-0.08386014,15.1999996602535,18
-4.171364,0.2833333,-35.50365,-0.6814460001689491,0.2571714776183864,0.0704624810889171,3.396123,96.42427,0.1915234,0.02099191,0.7452556,-0.02098115,15.2199996598065,18
-4.112113,0.4833333,-35.50696,-0.5143154780036867,0.0254389102808531,0.0582872336314679,6.790785,96.44138,0.3842309,0.04195598,0.7442711,-0.04193555,15.2399996593595,18
-4.052878,0.6833334,-35.51027,-0.3472593106891757,-0.185385567057255,0.0469897393070724,10.1844,96.47023,0.5796549,0.06287732,0.7426319,-0.06284685,15.2599996589124,18
-3.993661,0.8833333,-35.51358,-0.1662406710127568,-0.4296633215843214,0.0355327675490215,13.57692,96.51133,0.7792309,0.08373743,0.7403401,-0.08369695,15.2799996584654,18
-3.727036,0.2833332,-35.53183,-0.2173041344242763,0.1986285526980539,0.0402179420542481,3.336923,94.21317,0.07684561,0.02030853,0.7322971,-0.02087477,15.2999996580184,18
-3.668879,0.4833331,-35.53477,-0.0990476332752504,-0.0581941504906271,0.0303755377484407,6.672408,94.21992,0.154294,0.04059183,0.7313656,-0.04172222,15.3199996575713,18
-3.610738,0.683333,-35.53771,0.0267195468333166,-0.2941087519190098,0.0190530842387488,10.00693,94.23132,0.2328166,0.06083519,0.7298147,-0.06252821,15.3399996571243,18
-3.375041,0.2833334,-35.55408,-0.0528351961088957,0.1568116154732343,0.021960380684149,3.281044,92.53675,359.9557,0.01951152,0.7222971,-0.02095343,15.3599996566772,18
-3.317893,0.4833335,-35.5574,-0.1252768586084905,0.603027528630956,0.0239517316513016,6.561115,92.53292,359.9112,0.03900122,0.721409,-0.04188353,15.3799996562302,18
-3.260757,0.6833335,-35.5607,0.041290738096318,0.1395621840025329,0.0071152495984279,9.839849,92.52647,359.8659,0.05845005,0.7199304,-0.06277181,15.3999996557832,18
-3.203639,0.8833334,-35.56401,0.2136371491135253,-0.3286076025768365,-0.0108372695805698,13.11764,92.51725,359.8197,0.07784508,0.717863,-0.08360313,15.4199996553361,18
-2.908964,0.2833333,-35.58369,0.1073763623023783,0.1034954244104525,-0.0095198340431963,3.224005,89.22105,359.8067,0.0188423,0.7020388,-0.02095624,15.4399996548891,18
-2.852678,0.4833333,-35.58629,0.1869255443989666,-0.109419972314278,-0.0226598128212671,6.447026,89.20466,359.6123,0.03766417,0.7012025,-0.0418896,15.4599996544421,18
-2.796409,0.6833333,-35.58889,0.2535007509111358,-0.301427378702089,-0.0353894068359252,9.669,89.17705,359.4154,0.05645054,0.69981,-0.06278334,15.479999653995,18
-2.740153,0.8833333,-35.5915,0.3203351689221262,-0.5268878166944134,-0.0485460250710403,12.88964,89.13785,359.2151,0.07518669,0.6978633,-0.0836177,15.499999653548,18
-2.530078,0.2833335,-35.60596,0.2149586161993869,0.1202213790884051,-0.0489497801870939,3.373857,88.94526,359.795,0.01975378,0.7003013,-0.02189958,15.519999653101,18
-2.471122,0.4833336,-35.60846,0.3680568897032326,-0.117783557951726,-0.0673898093191383,6.746762,88.92705,359.5886,0.03948528,0.6993877,-0.04377398,15.5399996526539,18
-2.412181,0.6833335,-35.61095,0.5087053445684366,-0.3348804138784254,-0.0838987554230215,10.11865,88.89634,359.3794,0.05917665,0.6978663,-0.06560466,15.5599996522069,18
-2.353266,0.8833333,-35.61345,0.4393203732736288,0.1348575598887368,-0.0847276704433497,13.49073,88.85263,359.1658,0.07881936,0.6957383,-0.08737967,15.5799996517599,18
-2.083094,0.2833333,-35.63357,0.3620483372661438,0.5998912748260954,-0.0840082709273417,3.533437,91.21805,359.8476,0.02061717,0.7142712,-0.02296078,15.5999996513128,18
-2.021484,0.4833332,-35.63755,0.4455526096165482,0.1552427956376095,-0.0936072687267568,7.06639,91.20379,359.6934,0.04120822,0.7132506,-0.04590046,15.6199996508658,18
-1.959897,0.6833333,-35.64153,0.5276709066595561,-0.2941098100490836,-0.1012721256709809,10.59899,91.17974,359.5368,0.06175834,0.7115509,-0.06879444,15.6399996504188,18
-1.720209,0.2833332,-35.65853,0.3383871806407975,0.1568107260899065,-0.0888911761939041,3.577132,92.72868,359.9384,0.02114915,0.7234014,-0.02295968,15.6599996499717,18
-1.65791,0.4833333,-35.66257,0.1441256111305144,0.6030272552560039,-0.0753318918125245,7.153556,92.72288,359.8764,0.04227368,0.7223439,-0.04589233,15.6799996495247,18
-1.595628,0.6833333,-35.66662,0.1781684217873799,0.1395621900136464,-0.0783528070000656,10.72897,92.71307,359.8133,0.06335091,0.7205831,-0.06877404,15.6999996490777,18
-1.533363,0.8833331,-35.67066,0.205562906129693,-0.3286073054187841,-0.0800129456565414,14.30339,92.69908,359.7488,0.08436093,0.7181216,-0.09158234,15.7199996486306,18
-1.233888,0.2833334,-35.69102,0.0643800623680377,0.1034957992773803,-0.0678469065266611,3.563067,94.07794,0.07359253,0.02165667,0.7314499,-0.02231373,15.7399996481836,18
-1.171785,0.4833334,-35.69415,0.1146731141140837,-0.1094193991677474,-0.0692259080547543,7.125035,94.08488,0.1481504,0.04328839,0.7303891,-0.04459658,15.7599996477365,18
-1.109699,0.6833333,-35.69728,0.1571538529059335,-0.3014265123177993,-0.0690449735619438,10.68599,94.0966,0.223857,0.06487221,0.7286229,-0.06683006,15.7799996472895,18
-1.047631,0.8833333,-35.70041,0.2063737800407412,-0.5268866805941115,-0.0684395064113374,14.24589,94.11333,0.3013392,0.08638713,0.7261537,-0.08899257,15.7999996468425,18
-0.8383398,0.2833333,-35.71591,0.0278731046355502,0.1202227896090717,-0.0505969993069328,3.626497,94.99562,0.1009158,0.02202676,0.7368633,-0.02273332,15.8199996463954,18
-0.7751361,0.4833332,-35.71967,0.1108243708894687,-0.1177821735663309,-0.0522120807530939,7.251959,95.00527,0.2026396,0.0440254,0.7357557,-0.04543732,15.8399996459484,18
-0.7119545,0.6833332,-35.72343,0.1843500966049611,-0.3348787692728306,-0.0530395757569195,10.87693,95.02151,0.3057085,0.0659752,0.7339114,-0.06809455,15.8599996455014,18
-0.6487909,0.8833331,-35.72718,0.0502457654326664,0.1348591652043025,-0.0381187743448734,14.50082,95.04472,0.4112879,0.08785269,0.731333,-0.09067713,15.8799996450543,18
-0.380001,0.2833333,-35.74686,-0.086796699123592,0.5998926208797588,-0.0224090797269269,3.630327,95.7461,0.1269255,0.02206806,0.7412643,-0.02274969,15.8999996446073,18
-0.3167521,0.4833332,-35.751,-0.0536572699528443,0.1552443278615289,-0.0182062316791515,7.259581,95.75826,0.2548659,0.04410772,0.7401474,-0.04546976,15.9199996441603,18
-0.2535212,0.6833332,-35.75514,-0.0150503773845418,-0.2941083260011842,-0.0130009913826825,10.88773,95.77876,0.3848121,0.06609635,0.7382877,-0.06813771,15.9399996437132,18
-0.01457655,0.2833333,-35.77275,-0.2411218867314413,0.1568120604698132,0.0116506428559404,3.57539,97.51089,0.2088606,0.02193655,0.7514977,-0.02225535,15.9599996432662,18
0.04774043,0.4833331,-35.77729,-0.4635614607962339,0.6030280172734365,0.03628589899035,7.149717,97.53056,0.4192919,0.0438454,0.7503969,-0.04448267,15.9799996428192,18
0.110039,0.6833332,-35.78183,-0.4429452028794753,0.1395627142000983,0.0443681188157896,10.72285,97.56377,0.6329376,0.06570447,0.7485643,-0.06666002,15.9999996423721,18
0.1723225,0.8833332,-35.78637,-0.414399240935964,-0.3286069528539569,0.0517220008621848,14.29448,97.61109,0.8513895,0.08748981,0.7460023,-0.08876521,16.0199996419251,18
0.4708504,0.2833335,-35.80784,-0.5479872927605123,0.1034961521035615,0.0712925809083415,3.507282,98.38641,0.2781749,0.02183527,0.7565123,-0.02157747,16.0399996414781,18
0.5320898,0.4833334,-35.81196,-0.4801688939816069,-0.1094194344503645,0.0766822926712293,7.01347,98.41212,0.5583413,0.0436435,0.7554429,-0.04312854,16.059999641031,18
0.5933147,0.6833334,-35.81607,-0.4065225741242497,-0.3014267387363777,0.0794884891701031,10.51802,98.45548,0.8428071,0.06540258,0.7536628,-0.06462906,16.079999640584,18
0.6545222,0.8833334,-35.82019,-0.3129287146588821,-0.526886888369527,0.0785524979376006,14.0213,98.51734,1.13373,0.08709387,0.7511742,-0.0860626,16.099999640137,18
0.8614649,0.2833332,-35.83466,-0.4388864400538743,0.1202224639635752,0.0938518949097044,3.441895,98.12861,0.2924486,0.02160414,0.755052,-0.02101581,16.1199996396899,18
0.9216305,0.4833332,-35.8381,-0.3006199151565902,-0.1177826468761198,0.0937925591290778,6.882192,98.15514,0.5871767,0.04318107,0.7540234,-0.04200172,16.1399996392429,18
0.9817789,0.6833333,-35.84153,-0.1628877990184598,-0.3348795534181298,0.0929018341887939,10.32133,98.19986,0.8861279,0.06471272,0.7523108,-0.06294357,16.1599996387959,18
1.04191,0.8833334,-35.84496,-0.2257175293199211,0.1348583867216486,0.1058081984761827,13.7592,98.2636,1.191569,0.08617923,0.7499164,-0.08382247,16.1799996383488,18
1.30852,0.2833334,-35.86409,-0.2870434028566051,0.5998917653851645,0.1177815335286993,3.388692,96.10696,0.1749008,0.02089876,0.7434129,-0.02097166,16.1999996379018,18
1.367629,0.4833333,-35.86734,-0.1845643404159993,0.1552435399701746,0.1208084249819094,6.775939,96.12257,0.3510478,0.04177108,0.7424356,-0.04191568,16.2199996374547,18
1.426722,0.6833332,-35.87059,-0.0733902303656428,-0.2941090073477418,0.1230572867907398,10.16217,96.14888,0.5296732,0.06260116,0.7408084,-0.0628169,16.2399996370077,18
1.662911,0.2833334,-35.88727,-0.2247289265292082,0.1568112722299891,0.1430421806031958,3.331132,94.41251,0.0749394,0.02022566,0.7334809,-0.02088429,16.2599996365607,18
1.720955,0.4833334,-35.89043,-0.3729212110831374,0.6030270954823699,0.1612831199396751,6.660856,94.41908,0.1503371,0.04042561,0.7325512,-0.04174227,16.2799996361136,18
1.778982,0.6833334,-35.8936,-0.2918840200325991,0.1395616455287973,0.1637581651101456,9.989614,94.43015,0.226809,0.06058604,0.7310032,-0.06255864,16.2999996356666,18
1.836993,0.8833333,-35.89677,-0.2071877557039787,-0.3286082751245189,0.163230581072284,13.31741,94.4459,0.3048097,0.08068943,0.7288387,-0.0833165,16.3199996352196,18
2.132167,0.2833333,-35.91799,-0.2823531691553294,0.1034945089789688,0.173485609063114,3.275279,92.22829,359.9332,0.01939103,0.7204394,-0.02100113,16.3399996347725,18
2.189217,0.4833333,-35.92138,-0.1676678196483711,-0.1094207597700444,0.1702479540591355,6.549581,92.22253,359.8659,0.03876043,0.7195565,-0.04197889,16.3599996343255,18
2.246253,0.6833333,-35.92477,-0.0540194994843536,-0.3014279063732442,0.1642702335079633,9.822537,92.21281,359.7977,0.05808968,0.7180865,-0.06291442,16.3799996338785,18
2.303273,0.8833333,-35.92815,0.0718160608994011,-0.5268880579229824,0.1546389586467498,13.09454,92.19898,359.7281,0.07736604,0.7160312,-0.08379264,16.3999996334314,18
2.509227,0.2833333,-35.94205,-0.0238061141651586,0.1202211190424419,0.1595774710618869,3.218639,89.25053,359.816,0.01886057,0.702221,-0.02087047,16.4199996329844,18
2.565415,0.4833332,-35.94452,0.1333258751472081,-0.1177838085889897,0.1473106717442576,6.436297,89.23494,359.6309,0.03770076,0.7013876,-0.04171821,16.4399996325374,18
2.621588,0.6833331,-35.94698,0.2825656747070439,-0.3348804134428362,0.1328668651939537,9.652953,89.2087,359.4436,0.05650575,0.6999998,-0.06252681,16.4599996320903,18
2.677747,0.883333,-35.94945,0.2264014391375841,0.1348577072916753,0.1316372180375893,12.86826,89.17149,359.2531,0.07526129,0.6980598,-0.08327547,16.4799996316433,18
2.945193,0.2833334,-35.96627,0.1659613498507415,0.5998915989905943,0.1290313658273945,3.400267,89.05544,359.7962,0.01990464,0.7009821,-0.02207229,16.4999996311963,18
3.004611,0.4833334,-35.96885,0.4060495268631445,0.1552436736956515,0.1072288857641936,6.79957,89.0372,359.5911,0.03978612,0.7000532,-0.04411929,16.5199996307492,18
3.064013,0.6833334,-35.97143,0.6706512788846712,-0.2941087992238543,0.0825118000910265,10.19785,89.00643,359.383,0.05962683,0.6985067,-0.06612149,16.5399996303022,18
3.300331,0.2833334,-35.98563,0.6856055405893056,0.1568111150698815,0.0747571423499096,3.534105,90.67505,359.8383,0.02067201,0.7109516,-0.02292412,16.5599996298552,18
3.361978,0.4833334,-35.98919,0.7126848836181923,0.6030267309824332,0.0650388196070679,7.068023,90.65993,359.6748,0.04132058,0.7099351,-0.04582813,16.5799996294081,18
3.423606,0.6833335,-35.99275,0.9525112969701466,0.1395612162133858,0.0319436192628685,10.60108,90.63444,359.5089,0.06192528,0.7082424,-0.06868309,16.5999996289611,18
3.485217,0.8833334,-35.99631,1.2127279673537794,-0.3286089751142405,-0.0074148556220237,14.13306,90.59808,359.3392,0.08246546,0.7058758,-0.09146605,16.6199996285141,18
3.7797,0.2833334,-36.0125,1.3268245257738993,0.10349402347272,-0.0404491520691721,3.582207,92.41608,359.9637,0.02140182,0.7215114,-0.02278096,16.639999628067,18
3.842129,0.4833335,-36.01576,1.4595151405974365,0.5308925274897152,-0.078831448383994,7.163778,92.41266,359.9273,0.0427799,0.7204539,-0.0455347,16.65999962762,18
3.904541,0.6833333,-36.01903,1.9542245621018468,0.0486104521922464,-0.168854743623676,10.74435,92.40689,359.8903,0.06410986,0.7186931,-0.06823801,16.6799996271729,18
3.966934,0.8833332,-36.02229,2.480615628542876,-0.4383761586204453,-0.2812543711089006,14.32388,92.39867,359.8525,0.08537152,0.7162314,-0.09086782,16.6999996267259,18
4.169414,0.2833333,-36.03222,2.7969642939886965,-0.0250897143765591,-0.3947221733241406,3.552078,93.24219,0.07278648,0.02174789,0.7264648,-0.02209034,16.7199996262789,18
4.231362,0.4833331,-36.03444,3.413227895220152,-0.2568223029707803,-0.5512879113755034,7.10294,93.24904,0.1465483,0.04347024,0.7254177,-0.04414934,16.7399996258318,18
4.293293,0.6833332,-36.03667,3.995912348391801,-0.4676466694953325,-0.7238360743272523,10.65274,93.26059,0.2214369,0.06514445,0.7236745,-0.06615945,16.7599996253848,18
4.355205,0.8833331,-36.0389,4.343116132953471,0.0083634939023974,-0.8936105182121779,14.20154,93.27708,0.2980739,0.08675013,0.7212374,-0.08809995,16.7799996249378,18
4.617365,0.2833334,-36.05325,4.655208325127814,0.4796691099369159,-1.0725424218879454,3.62418,94.26146,0.1077996,0.02220221,0.7325208,-0.02253607,16.7999996244907,18
4.680583,0.4833333,-36.05608,5.413678408952298,0.0412933601594963,-1.2987841522520611,7.247334,94.27176,0.2164935,0.04437636,0.7314211,-0.04504296,16.8199996240437,18
4.743778,0.683333,-36.05891,6.109515029522111,-0.4017866215283945,-1.527866046257941,10.87009,94.28912,0.3266898,0.06650229,0.7295897,-0.06750395,16.8399996235967,18
4.977026,0.2833333,-36.07189,6.47072441922858,0.055406325955396,-1.7360082465342543,3.625197,94.88329,0.1217531,0.02217524,0.7361972,-0.02258043,16.8599996231496,18
5.040232,0.4833332,-36.07516,6.763401895153605,0.5078949455251436,-1.940190778763359,7.24933,94.89493,0.244476,0.04432202,0.7350911,-0.0451316,16.8799996227026,18
5.103421,0.6833332,-36.07843,7.330115772286394,0.0507027137993572,-2.117219494458709,10.87237,94.91457,0.3691479,0.0664179,0.7332495,-0.06763101,16.8999996222556,18
5.166591,0.8833331,-36.0817,7.819422355587307,-0.4111942715840621,-2.2724970423428346,14.49441,94.94258,0.4966809,0.08844049,0.730675,-0.09005791,16.9199996218085,18
5.457198,0.2833334,-36.09849,8.066628191767862,0.0271820462870684,-2.393869893370073,3.56732,97.10955,0.2359305,0.02214475,0.7491816,-0.02196932,16.9399996213615,18
5.519464,0.4833335,-36.10211,8.24539784331491,0.4608535207694642,-2.4941913659357766,7.133534,97.13172,0.4736568,0.04426162,0.7480882,-0.04391068,16.9599996209145,18
5.581712,0.6833334,-36.10573,8.098970007158629,-0.0151566096107034,-2.2644096477333377,10.69859,97.16915,0.7150427,0.06632902,0.7462676,-0.06580304,16.9799996204674,18
5.643945,0.8833333,-36.10934,7.94120872673926,-0.4958715952276001,-2.0528291955233016,14.2621,97.22253,0.9619282,0.08832259,0.7437226,-0.08762399,16.9999996200204,18
5.979917,0.2833333,-36.12904,7.532761586199388,-0.0763139287067046,-1.8416880859590208,5.619935,93.99444,0.06245793,0.03383382,0.730423,-0.03548061,17.0199996195734,18
6.078228,0.4833331,-36.13481,7.108784803033222,0.3385390107274195,-1.645665212368371,11.23883,94.00378,0.1260954,0.0675799,0.7277875,-0.07086958,17.0399996191263,18
6.176521,0.6833328,-36.14058,6.744158632390741,-0.1562888242962922,-1.3183799528363949,16.85667,94.01987,0.1922908,0.1011575,0.7234033,-0.1060815,17.0599996186793,18
6.274796,0.8833327,-36.14634,6.173447066487073,0.0644669883625906,-0.9716309281176478,22.47344,94.04354,0.2625386,0.1344858,0.7172819,-0.141032,17.0799996182323,18
6.552841,0.2833332,-36.17175,5.596204610433476,0.3082216270250257,-0.6202104412000864,6.328618,89.88674,359.3444,0.03503456,0.7055425,-0.04303604,17.0999996177852,18
6.663805,0.4833329,-36.18308,5.064279178722227,-0.1176094108763511,-0.0992096344913804,12.65531,89.77576,358.6725,0.06995469,0.7022799,-0.08593258,17.1199996173382,18
6.77475,0.6833328,-36.19441,4.543359946297716,-0.5481444711704309,0.4476121246913322,18.97912,89.58301,357.9664,0.1046531,0.6968548,-0.128557,17.1399996168911,18
6.88567,0.8833326,-36.20573,3.7687731153388206,-0.0784067401128338,1.027172973704353,25.29984,89.29495,357.2032,0.1390218,0.6892826,-0.1707908,17.1599996164441,18
7.31053,0.2833337,-36.26046,3.00196038850636,0.3866264174462748,1.6177411196855689,8.264056,90.04497,358.1631,0.03961485,0.7062712,-0.06226432,17.1799996159971,18
7.45541,0.4833337,-36.29298,2.257520471755861,0.6819006111295578,2.21182095771659,16.52635,89.63139,356.2416,0.0790242,0.7004794,-0.124264,17.19999961555,18
7.600245,0.6833338,-36.32549,1.3645330550183736,-0.0696801527870487,2.915865957429048,24.77042,88.89066,354.1467,0.1180038,0.6908585,-0.1855941,17.219999615103,18
8.010085,0.2833333,-36.38371,0.3443892587479933,0.1082488506575825,3.649878436150544,7.148126,92.41829,358.1363,0.03141747,0.721073,-0.05622711,17.239999614656,18
8.133446,0.4833332,-36.42167,-0.6348695187834288,0.3096649427548009,4.39395807381122,14.29628,92.05862,356.207,0.06271438,0.7165694,-0.1123046,17.2599996142089,18
8.256771,0.683333,-36.45961,-1.554980140681046,0.4822971400168711,5.13695842925096,21.42586,91.42677,354.1511,0.09374148,0.7090852,-0.1678989,17.2799996137619,18
8.380061,0.8833328,-36.49754,-2.6307869531012926,-0.2798766760117278,5.897734646849763,28.52575,90.46764,351.8842,0.1243699,0.6986541,-0.2227792,17.2999996133149,18
8.944539,0.2833331,-36.57339,-3.867677960302524,-0.1125416377583998,6.659317094052128,7.760123,100.8065,359.1099,0.03715737,0.7690952,-0.05707963,17.3199996128678,18
9.074688,0.4833331,-36.61411,-5.0315697036472535,0.0782803881782484,7.398736777745704,15.51617,100.6198,358.1863,0.07413182,0.7637353,-0.1138785,17.3399996124208,18
9.204803,0.683333,-36.65482,-6.291373089733272,-0.3999946440988198,8.133276370070234,23.26597,100.2884,357.1906,0.1107527,0.7548335,-0.1701333,17.3599996119738,18
9.334871,0.883333,-36.69551,-7.644471574410264,-0.1621984390275288,8.82668516755151,31.00801,99.7765,356.0708,0.1468543,0.7424307,-0.2255958,17.3799996115267,18
9.774295,0.2833338,-36.71618,-8.886133413601724,0.0990847194898731,9.460884487337545,7.874382,102.2765,0.2443952,0.04473872,0.7767311,-0.05213005,17.3999996110797,18
9.909519,0.4833335,-36.74103,-9.993256989882816,0.3315841819744337,10.028707741457772,15.74641,102.3287,0.4985394,0.08925556,0.7712241,-0.1039978,17.4199996106327,18
10.04471,0.6833338,-36.76587,-11.216932406348452,-0.3707226086663584,10.59053601703492,23.61582,102.4215,0.7734432,0.1333395,0.7620789,-0.1553585,17.4399996101856,18
10.17986,0.8833333,-36.7907,-12.546975228121662,-0.1435201173650456,11.087608953611635,31.48248,102.5655,1.084044,0.1767845,0.7493416,-0.2059699,17.4599996097386,18
10.061,0.2833333,-36.52519,-13.714017093343871,0.1071694984812963,11.50007519119528,7.563331,109.3367,1.110362,0.04602805,0.8136339,-0.04821306,17.4799996092916,18
10.19196,0.4833327,-36.55038,-14.692783362115604,0.3290754437331281,11.8227069347489,15.12113,109.5635,2.261202,0.09184274,0.808204,-0.09618998,17.4999996088445,18
10.32288,0.6833327,-36.57558,-15.700042979460427,-0.383825797605215,11.978756143982714,22.66987,109.9656,3.500187,0.1372526,0.7991868,-0.1437077,17.5199996083975,18
10.45376,0.8833323,-36.60078,-16.82063612034529,-0.1672174792706221,12.062171100676508,30.20526,110.5844,4.886868,0.1820562,0.7866263,-0.1905572,17.5399996079504,18
10.64207,0.2833331,-36.48919,-17.778207130752453,0.0728780796496108,12.054871571285643,7.603241,87.90341,0.272736,0.04938067,0.6924091,-0.04430727,17.5599996075034,18
10.77449,0.483333,-36.47928,-18.5508459900698,0.2841902558118068,11.95421242228489,15.20544,87.96268,0.571834,0.0986347,0.687836,-0.08831435,17.5799996070564,18
10.90686,0.6833328,-36.46938,-19.37252817905573,-0.4393040276200085,11.641334815509328,22.80506,88.06763,0.8934167,0.1474407,0.6802348,-0.1319197,17.5999996066093,18
11.07507,0.2833329,-36.30181,-20.183764033339443,-0.2332895434518827,11.239898865222075,7.933383,65.62233,359.8274,0.05732585,0.5406609,-0.03874775,17.6199996061623,18
11.20234,0.4833331,-36.24695,-20.78717800734711,-0.0037871727212952,10.73776687164082,15.86808,65.5863,359.6531,0.1144104,0.5367721,-0.07727987,17.6399996057153,18
11.32935,0.6833329,-36.19218,-21.16478485182659,0.1969312073448124,10.138292042521922,23.79099,65.52435,359.4709,0.1708905,0.5303267,-0.1153447,17.6599996052682,18
11.45597,0.8833328,-36.13753,-21.53237092050664,-0.5371558157953671,9.295606852335531,31.69122,65.43192,359.2728,0.226426,0.5213846,-0.1527079,17.6799996048212,18
11.58257,0.9766698,-36.0829,-21.99706195192648,-0.3417345873330078,8.396377154650846,39.589,65.29684,359.0415,0.2808844,0.5099735,-0.1893146,17.6999996043742,18
11.53499,0.2833333,-35.92178,-22.25175977154784,-0.122826375630327,7.428449124222386,7.57099,30.30058,358.106,0.05940781,0.2617992,-0.03317085,17.7199996039271,18
11.62982,0.4833335,-35.8239,-22.48821634169405,-0.5730159356343059,6.261494763377886,15.13174,29.91383,356.1454,0.1185288,0.259979,-0.06617139,17.7399996034801,18
11.72462,0.6833335,-35.72603,-22.800516907784072,-0.307133563091671,5.066618513893989,22.67259,29.23047,354.0408,0.1770895,0.2569565,-0.09884926,17.7599996030331,18
11.81939,0.8833334,-35.62818,-22.877449363785335,-0.0177641576516945,3.838887909315361,30.18103,28.18282,351.6921,0.2348193,0.2527472,-0.1310535,17.779999602586,18
11.69553,0.2833337,-35.50272,-22.71467744631009,0.2428214423357625,2.595240662317895,5.864461,354.3538,356.3441,0.05263565,-0.04753348,-0.02929917,17.799999602139,18
11.74819,0.4833333,-35.39403,-22.57600292976906,-0.4313987231179461,1.1440141949529623,11.70424,353.783,352.6129,0.1050749,-0.04727372,-0.05847287,17.819999601692,18
11.8008,0.6833333,-35.28535,-22.70826326670501,-0.1761095740475748,-0.2547796883478561,17.49315,352.801,348.7232,0.1571266,-0.04684063,-0.08741531,17.8399996012449,18
11.6747,0.2833337,-35.15103,-22.649583758326884,0.102666329840835,-1.6169023429250409,4.601878,335.5553,356.2179,0.04619717,-0.2101253,-0.02372982,17.8599996007979,18
11.70054,0.4833337,-35.05012,-22.4028778393846,0.3526586955534521,-2.920543326168861,9.192901,335.0955,352.3937,0.09233585,-0.2092686,-0.04731837,17.8799996003509,18
11.72637,0.6833337,-34.94925,-22.1005018782599,-0.3321549309421492,-4.228888484261205,13.7459,334.315,348.473,0.1382454,-0.2078421,-0.07074238,17.8999995999038,18
11.7522,0.8833337,-34.84842,-21.982189024235844,-0.08745985805087,-5.459576495314657,18.23778,333.192,344.4013,0.1838012,-0.2058479,-0.09394024,17.9199995994568,18
11.52128,0.2833338,-34.68485,-21.73238406219297,0.1807224575168706,-6.587394051945594,5.067688,316.3683,356.4911,0.05239084,-0.3698302,-0.01197447,17.9399995990098,18
11.50367,0.4833338,-34.57837,-21.36150716106965,0.4201204673158578,-7.591640641728048,10.14232,315.8982,352.9428,0.1047877,-0.3682094,-0.02369872,17.9599995985627,18
11.48609,0.6833342,-34.47192,-21.082936128883155,-0.2752864865832719,-8.48604194361322,15.18027,315.0951,349.2833,0.1568924,-0.3655166,-0.03532427,17.9799995981157,18
11.46853,0.8833342,-34.36551,-20.37789876763962,-0.0411839922328428,-9.545725489019734,20.15895,313.9296,345.4483,0.208554,-0.3617579,-0.04681855,17.9999995976686,18
11.22458,0.2833335,-34.32669,-19.52681898971972,0.2164060175591757,-10.443220806450103,6.622746,308.2212,357.597,0.06109424,-0.4347207,0.006382332,18.0199995972216,18
11.15903,0.4833334,-34.22227,-18.73928777636348,-0.1951012741819071,-11.148108747112603,13.2331,307.7952,355.1302,0.1219466,-0.4322561,0.01275265,18.0399995967746,18
11.0935,0.6833335,-34.11788,-17.805725675470857,-0.6108246323205251,-11.641493012284611,19.82047,307.054,352.5293,0.1823398,-0.428155,0.01911048,18.0599995963275,18
11.02801,0.8833334,-34.01353,-16.814832470293222,-0.125787835511809,-12.072144712732523,26.36894,305.945,349.7071,0.2420458,-0.4224309,0.02543015,18.0799995958805,18
10.72359,0.2833332,-34.01865,-15.72852620758489,0.3550323836063236,-12.321381806699296,6.869962,301.7982,359.0521,0.05636625,-0.4850254,0.02192445,18.0999995954335,18
10.6296,0.4833328,-33.94178,-14.705648477102237,-0.073341081686912,-12.329396205492284,13.73679,301.6237,358.0778,0.112511,-0.4823602,0.04377414,18.1199995949864,18
10.53563,0.6833333,-33.86494,-13.66904360060875,0.214357262033745,-12.31502263313148,20.59828,301.3185,357.0458,0.1682284,-0.4779294,0.06546861,18.1399995945394,18
10.44165,0.8833328,-33.78813,-12.599752937173504,0.5255423182332977,-12.156539663746432,27.45189,300.8585,355.9178,0.2233158,-0.4717503,0.08692908,18.1599995940924,18
10.1296,0.2833334,-33.8516,-11.523520950038982,0.8079436770061286,-11.852639366327054,6.163184,287.4085,359.3808,0.04652082,-0.5908546,0.02747299,18.1799995936453,18
10.02931,0.4833332,-33.80986,-10.682244870957074,0.1555387134822509,-11.2985143578331,12.3254,287.307,358.7496,0.09289094,-0.5882638,0.0548823,18.1999995931983,18
9.929056,0.6833333,-33.76815,-9.867252949369783,-0.399693667336557,-10.581608199143204,18.48728,287.1323,358.0928,0.138974,-0.5839504,0.0821699,18.2199995927513,18
9.64253,0.2833335,-33.85977,-8.899997488404487,0.0449548149010457,-9.8320544327891,5.923792,269.0194,359.1527,0.04148816,-0.7118917,0.0316715,18.2399995923042,18
9.538246,0.4833333,-33.84756,-8.158916676398924,-0.155415444378285,-8.872609354322226,11.85944,268.8886,358.3074,0.08281864,-0.7089655,0.06346035,18.2599995918572,18
9.433999,0.6833333,-33.83535,-7.4456930569074995,-0.3348775919659145,-7.825838097198165,17.79396,268.6633,357.4282,0.1239091,-0.7040967,0.09510655,18.2799995914102,18
9.329792,0.8833329,-33.82313,-6.790651345883428,-0.547792543606951,-6.702760076439802,23.72578,268.3311,356.492,0.1646481,-0.6972966,0.1265222,18.2999995909631,18
8.975485,0.2833332,-34.00662,-5.962843459303447,0.1118614595327738,-5.547760285521992,7.018743,257.0657,359.667,0.0404014,-0.7806701,0.04607593,18.3199995905161,18
8.854403,0.4833331,-34.02898,-5.466498543397988,-0.1135984180321875,-4.171039094868632,14.04121,257.0043,359.3312,0.08062294,-0.7762601,0.09204486,18.3399995900691,18
8.733361,0.6833329,-34.05132,-4.996499345750775,-0.3181501640426403,-2.7856270548712274,21.06426,256.8974,358.9777,0.120524,-0.768926,0.1376927,18.359999589622,18
8.61236,0.8833328,-34.07364,-4.368371102581156,0.1641323949316077,-1.435922331181963,28.08752,256.737,358.5927,0.1599546,-0.7586932,0.1828466,18.379999589175,18
8.371323,0.2833331,-34.17566,-3.770725595321555,0.6417098593571524,-0.0992162380044945,7.445174,250.0139,359.254,0.04256676,-0.8170942,0.04945142,18.399999588728,18
8.2445,0.483333,-34.20815,-3.3839024622947176,0.2096064331971331,1.3497422800906484,14.88745,249.8643,358.4826,0.08494008,-0.8118683,0.09868351,18.4199995882809,18
8.117707,0.683333,-34.24064,-3.060715579413785,-0.2272013525006048,2.7404000961923707,22.32536,249.6001,357.6564,0.1269395,-0.8031858,0.1474869,18.4399995878339,18
7.990942,0.8833327,-34.27313,-2.5228781338404027,0.2362635401618355,3.9848435368489135,29.75702,249.1957,356.7372,0.1683874,-0.791086,0.1956536,18.4599995873868,18
7.675299,0.2833335,-34.33784,-2.2297672383935945,0.0547105361735914,5.34378363828856,6.983717,245.4615,358.0088,0.04751639,-0.8389602,0.04185084,18.4799995869398,18
7.549755,0.4833333,-34.35695,-1.9731580626477492,-0.1059347127823067,6.575969670901923,13.95729,245.088,355.9577,0.09483006,-0.8339077,0.08352552,18.4999995864928,18
7.424239,0.6833332,-34.37606,-1.7785718650336553,-0.3000332712477845,7.666683085440532,20.91106,244.434,353.7789,0.1417512,-0.8255122,0.1248572,18.5199995860457,18
7.116519,0.2833336,-34.38286,-1.4002484532305473,0.3784383766857075,8.682099411622616,6.416147,250.1711,357.9235,0.04696586,-0.8162954,0.03538711,18.5399995855987,18
6.998761,0.4833335,-34.38669,-1.3506781990039642,0.1717957307158506,9.864298337637084,12.82419,249.8148,355.7948,0.09376495,-0.8120546,0.07065964,18.5599995851517,18
6.881052,0.6833336,-34.39052,-1.3096997196585924,-0.0139391024627055,10.846013987612588,19.21503,249.1954,353.5543,0.1402452,-0.805002,0.105692,18.5799995847046,18
6.763396,0.8833334,-34.39434,-1.2983253641107884,-0.233126704063581,11.612459250768609,25.57715,248.271,351.132,0.1862448,-0.7951612,0.1403625,18.5999995842576,18
6.518333,0.2833333,-34.35158,-1.3206019005598444,-0.2200593344742343,12.605863901453317,6.9696,260.7849,358.2265,0.05114933,-0.7595152,0.03627868,18.6199995838106,18
6.393304,0.4833335,-34.34031,-1.3036014998189194,-0.16151619655143,13.371748310369355,13.93262,260.4515,356.3922,0.1021442,-0.7550284,0.07237767,18.6399995833635,18
6.268311,0.6833335,-34.32904,-1.266682497384772,-0.1108150068738157,13.899923510783324,20.8791,259.8676,354.4441,0.1527224,-0.7475705,0.1081817,18.6599995829165,18
6.143353,0.8833332,-34.31778,-1.2292311812994767,-0.1212701673705249,14.180306923945436,27.79941,258.9852,352.307,0.2026855,-0.7371734,0.1435497,18.6799995824695,18
5.816946,0.2833331,-34.20938,-1.146689518190047,-0.139564567452764,14.667069608700029,7.584446,278.6236,358.9997,0.05582754,-0.6500522,0.03651194,18.6999995820224,18
5.688717,0.4833332,-34.17202,-1.0261446639638143,-0.1123837319255198,14.91872018184647,15.16767,278.4165,357.9519,0.1114763,-0.6457078,0.07279553,18.7199995815754,18
5.560524,0.6833332,-34.13468,-0.887961251847057,-0.0930438048952012,14.931648011904436,22.74348,278.0499,356.8256,0.1666141,-0.6384878,0.1087418,18.7399995811284,18
5.245225,0.2833332,-33.98636,-0.5288032362459787,0.585427156551793,14.862566065628066,7.863757,295.6042,0.2720138,0.05676308,-0.5317274,0.03854128,18.7599995806813,18
5.119459,0.4833331,-33.93115,-0.4575546989499821,0.3787848825739861,15.044414334688913,15.72511,295.662,0.5542315,0.1132441,-0.5279669,0.07688802,18.7799995802343,18
4.993728,0.6833333,-33.87596,-0.3394039091419746,0.1930508534906517,14.987885813265866,23.58387,295.7648,0.8589059,0.1691773,-0.5217217,0.1148601,18.7999995797873,18
4.868033,0.883333,-33.82077,-0.1971495669405667,-0.0261360428934485,14.697132577283472,31.4398,295.9237,1.202196,0.2243003,-0.5130236,0.152279,18.8199995793402,18
4.470694,0.2833332,-33.59227,-0.0256861771433439,-0.0130677580468526,14.84944113205502,7.436004,312.2179,1.951062,0.05240032,-0.4050973,0.04179254,18.8399995788932,18
4.351801,0.4833331,-33.53011,0.2264694138013889,0.0454758414248669,14.810559233867636,14.8612,312.6089,3.968673,0.1045526,-0.4023634,0.08338241,18.8599995784461,18
4.232944,0.6833329,-33.46797,0.5377005301957637,0.0961782010044033,14.59191591587279,22.26555,313.2983,6.129489,0.1562229,-0.3978231,0.1245828,18.8799995779991,18
4.114122,0.8833322,-33.40584,0.8867207143798037,0.0857239102024518,14.205683611630242,29.63621,314.3517,8.531371,0.2071795,-0.3914982,0.1652095,18.8999995775521,18
3.851848,0.2833329,-33.21408,1.0289859761943636,0.0674294568042559,14.36864925071609,7.209751,312.012,1.876845,0.05078781,-0.406723,0.0404973,18.919999577105,18
3.736531,0.4833329,-33.15413,1.2480440945244735,0.094610303046963,14.35335711063789,14.41259,312.3739,3.80243,0.1014106,-0.4041511,0.08073208,18.939999576658,18
3.621246,0.6833327,-33.0942,1.5217277115417511,0.1139503048241615,14.177498331712584,21.59674,313.0102,5.856487,0.1515911,-0.3998746,0.1206147,18.959999576211,18
3.310912,0.2833333,-32.83407,1.8282874273991336,0.072134010091465,13.85960225601087,7.696087,310.9988,1.278554,0.0564474,-0.414423,0.03795891,18.9799995757639,18
3.194895,0.4833334,-32.76279,2.0882440542241265,0.0224777199411503,13.888040115915334,15.38974,311.264,2.60047,0.1126596,-0.4115428,0.07571512,18.9999995753169,18
3.07891,0.6833334,-32.69152,2.3911998563767,0.0182974579960233,13.750406499333632,23.07281,311.734,4.023997,0.1683341,-0.4067572,0.1131099,19.0199995748699,18
2.962959,0.8833333,-32.62028,2.716913866207111,0.0062761516505531,13.46827251947164,30.73938,312.4581,5.620476,0.2232134,-0.4000902,0.1499708,19.0399995744228,18
2.56298,0.2833335,-32.24302,2.957636789454873,0.0130715682206659,13.546527406332014,8.163563,310.168,0.6328682,0.0622335,-0.4205706,0.03498308,19.0599995739758,18
2.446987,0.4833333,-32.15947,3.22334942192156,0.0653420326618847,13.43652298947088,16.32388,310.3082,1.291993,0.1241331,-0.4173495,0.06977701,19.0799995735288,18
2.331028,0.6833336,-32.07594,3.4946844541290005,0.1097712941487739,13.163548673474445,24.47969,310.5586,2.008524,0.1853832,-0.4120016,0.1042043,19.0999995730817,18
1.96244,0.283333,-31.68719,3.7525684738385583,0.0930438995915297,12.75352967313114,7.956313,307.6616,359.5247,0.0640892,-0.4396989,0.02688242,19.1199995726347,18
1.857755,0.4833329,-31.59558,3.733181217676366,0.068477028314719,12.836462625702412,15.90977,307.5591,359.0302,0.1278515,-0.436508,0.05362443,19.1399995721877,18
1.753103,0.6833321,-31.504,3.7208879914164106,0.089384996959361,12.72095252616186,23.85977,307.3765,358.4945,0.1909795,-0.4312095,0.08009726,19.1599995717406,18
1.648483,0.8833316,-31.41243,3.6992204178674655,0.1024519815761395,12.437145697189244,31.80537,307.0927,357.8881,0.2531684,-0.423831,0.1061732,19.1799995712936,18
1.358573,0.2833333,-31.04369,3.651955189419119,0.0543623166826051,12.015724225843009,7.544529,308.0231,358.8091,0.06367903,-0.4366024,0.01950607,19.1999995708466,18
1.268007,0.483333,-30.94592,3.5498223426433144,-0.0015670174603417,11.830585909268091,15.08347,307.7806,357.5755,0.1270587,-0.4336933,0.03891521,19.2199995703995,18
1.177474,0.6833328,-30.84817,3.442834075743012,-0.0120216642247101,11.473342893048455,22.61296,307.3516,356.2504,0.1898577,-0.428862,0.05814126,19.2399995699525,18
1.086974,0.8833325,-30.75044,3.316986959770418,-0.030316768304076,10.974036348950277,30.12804,306.693,354.771,0.2517985,-0.4221315,0.07709943,19.2599995695055,18
0.7194479,0.2833335,-30.2384,3.3831480019057727,0.610519174055459,10.229866736257524,6.992889,318.3345,359.1461,0.0596431,-0.3545446,0.01473709,19.2799995690584,18
0.6499614,0.4833336,-30.13706,3.0964022532957896,0.366241693948754,9.986618557450424,13.982,318.1721,358.2553,0.1190759,-0.3525396,0.02932625,19.2999995686114,18
0.5804815,0.6833335,-30.03575,2.813789577200748,0.1428723650851299,9.584450079028471,20.96398,317.8864,357.3057,0.1780375,-0.349208,0.0437724,19.3199995681643,18
0.2556093,0.2833336,-29.52432,2.5211341416042203,-0.1139501653493985,9.0542474435474,7.356528,324.686,358.7706,0.06437536,-0.3020197,0.009255749,19.3399995677173,18
0.1992147,0.4833335,-29.40695,2.262839863660887,-0.1385174907701331,8.73397106303873,14.70914,324.4388,357.4812,0.1285217,-0.3001086,0.01832412,19.3599995672703,18
0.1428357,0.6833327,-29.28962,2.0420182808739784,-0.1176092531064172,8.256985444407974,22.05206,324.0029,356.1018,0.1921059,-0.2969269,0.02731214,19.3799995668232,18
0.08647308,0.8833324,-29.17232,1.8426513076348263,-0.1045419278599175,7.655460033082178,29.38006,323.3374,354.5711,0.2548586,-0.2924891,0.03618192,19.3999995663762,18
-0.3144582,0.283333,-28.48516,1.352159823761221,-0.7929438919256674,7.514163462204237,7.789874,336.7967,359.4393,0.06752031,-0.2003139,0.008878306,19.4199995659292,18
-0.3588527,0.4833328,-28.35623,1.0749104452754947,-0.5585972472590908,7.090493947954258,15.57682,336.6785,358.8571,0.1347089,-0.1989182,0.01771083,19.4399995654821,18
-0.403231,0.6833325,-28.22734,0.8358032918771823,-0.3075243513663325,6.560615947407001,23.35993,336.4686,358.2287,0.2012544,-0.1966004,0.02645652,19.4599995650351,18
-0.4476016,0.8833323,-28.0985,0.6168009814145914,-0.091995469015132,5.960361102362949,31.13938,336.1431,357.5193,0.2668627,-0.1933744,0.03506319,19.4799995645881,18
-0.7589587,0.2833336,-27.56649,0.6343533550723972,0.6421766769695412,5.085469084597847,7.881798,342.9875,0.615764,0.06717749,-0.1479309,0.0154677,19.499999564141,18
-0.8095133,0.4833341,-27.43813,0.3433974007081244,0.3796735604253873,4.764889142896774,15.76038,343.1188,1.255419,0.134016,-0.1468745,0.03085751,19.519999563694,18
-0.860054,0.6833337,-27.3098,0.1055796317892969,0.1385663471772398,4.372233834038713,23.63472,343.3525,1.946863,0.2001988,-0.1451204,0.04609638,19.539999563247,18
-1.197934,0.2833336,-26.71549,-0.0985168737504498,-0.135506197108983,3.944235700097046,7.607852,341.1418,1.087514,0.06389166,-0.1640795,0.0202095,19.5599995627999,18
-1.25898,0.4833333,-26.59612,-0.2309588427469791,-0.1768355873556486,3.6501015878164296,15.21066,341.3653,2.214422,0.1274771,-0.1629723,0.04032421,19.5799995623529,18
-1.320005,0.6833329,-26.47678,-0.2867699154256264,-0.1722015732565406,3.2881262229243298,22.80475,341.7611,3.427088,0.190466,-0.1611322,0.06026156,19.5999995619059,18
-1.380998,0.8833326,-26.35747,-0.2849560750214843,-0.1749205779556625,2.893718474338545,30.38582,342.3711,4.786426,0.2525737,-0.1585647,0.07994524,19.6199995614588,18
-1.814943,0.2833335,-25.62037,0.0592113054750438,0.4819799432688009,2.136091060528255,7.57445,329.9736,0.6727197,0.06227834,-0.2588457,0.02276754,19.6399995610118,18
-1.891391,0.4833333,-25.51192,0.0614596386545356,0.2542541378232514,2.01432435965328,15.14493,330.1129,1.378354,0.1242395,-0.257131,0.04549923,19.6599995605648,18
-1.967816,0.683333,-25.40351,0.1302011204548705,0.0479254067952799,1.8381731531618328,22.71089,330.3594,2.136404,0.1856366,-0.2542861,0.06802427,19.6799995601177,18
-2.04422,0.8833326,-25.29513,0.2464151850299565,-0.1913678652885944,1.6440862934541445,30.27072,330.7381,2.983436,0.2462004,-0.2503244,0.09024415,19.6999995596707,18
-2.359708,0.2833333,-24.75637,0.2861627423751702,-0.1979193191938123,1.6806781232193408,7.983517,328.0152,0.8054284,0.06498542,-0.2753048,0.02591879,19.7199995592237,18
-2.445525,0.4833328,-24.64567,0.3714948538439087,-0.1585073290276431,1.654316501647518,15.96636,328.1901,1.646154,0.1296534,-0.2732771,0.05173682,19.7399995587766,18
-2.531316,0.6833329,-24.53501,0.4834016821195552,-0.12644812967301,1.6033742989317403,23.94337,328.5017,2.556856,0.1936674,-0.2699109,0.07729376,19.7599995583296,18
-2.617084,0.8833324,-24.42437,0.6030747909102994,-0.1550574896724542,1.5663761527937154,31.91205,328.9859,3.588069,0.256715,-0.2652237,0.1024651,19.7799995578825,18
-3.011837,0.2833333,-23.73413,1.0445109863116038,0.5489019097912597,1.084592786326482,8.207533,322.4294,359.8575,0.06815042,-0.3211124,0.0218704,19.7999995574355,18
-3.097175,0.4833335,-23.61905,1.1062609926189708,0.2566739081116291,1.1979684442818694,16.41267,322.3977,359.7089,0.1359321,-0.3186404,0.04362215,19.8199995569885,18
-3.182489,0.6833332,-23.504,1.1611283303407776,-0.0136702098839043,1.2958973284624182,24.61539,322.3409,359.5471,0.2029985,-0.3145365,0.0651437,19.8399995565414,18
-3.51869,0.2833332,-22.90658,1.4962105799605778,0.4037957692218212,0.926867243278748,7.822126,319.2767,358.7686,0.06767266,-0.346427,0.0136799,19.8599995560944,18
-3.591238,0.4833333,-22.78901,1.507923744454291,0.1772193727706391,1.0362823794346774,15.63821,319.0162,357.4899,0.135003,-0.343946,0.02728871,19.8799995556474,18
-3.663761,0.6833328,-22.67148,1.4922449927446797,-0.0274721592267766,1.1106570494767976,23.44401,318.5533,356.1093,0.2016708,-0.3398263,0.04076124,19.8999995552003,18
-4.014369,0.2833333,-22.03645,1.4297379504212646,-0.2646405782344399,1.18935666284888,7.29768,321.2019,358.4398,0.06453554,-0.3306239,0.0083204,19.9199995547533,18
-4.072552,0.4833333,-21.92006,1.7145009321597495,0.3717352128367103,0.6275842035022361,14.58751,320.8953,356.8277,0.1287785,-0.3285213,0.01659919,19.9399995543063,18
-4.13071,0.683333,-21.8037,1.5741317267417907,0.1239731281479712,0.7119607727073696,21.86323,320.3553,355.1047,0.1924573,-0.3250288,0.02480132,19.9599995538592,18
-4.188867,0.8833327,-21.68736,1.3986624161729209,-0.1019050431495792,0.7463465241050162,29.11445,319.5314,353.194,0.2552901,-0.320168,0.03287023,19.9799995534122,18
-4.247021,0.9766697,-21.57107,1.1672904500861143,-0.3602605856568616,0.7680716786079884,36.33128,318.3374,350.9899,0.3170258,-0.3139617,0.0407729,19.9999995529652,18
-4.606339,0.2833334,-20.89861,0.8759752834389438,-0.3853857719577952,0.8854272333116189,7.137265,328.8852,358.4929,0.06347884,-0.2668718,0.004047731,20.0199995525181,18
-4.647902,0.4833333,-20.77833,0.5773846249695254,-0.3640606061294898,0.945553701896003,14.2645,328.5937,356.9261,0.1266862,-0.2652565,0.007971347,20.0399995520711,18
-4.689453,0.6833332,-20.65809,0.2495799565129335,-0.3496000225636991,0.9858634397243868,21.37881,328.0818,355.2569,0.1893631,-0.2625687,0.01186122,20.0599995516241,18
-4.997152,0.2833333,-20.06973,0.2154400448153772,0.3249677338276918,0.4842757916025313,7.532907,332.6031,358.3604,0.06719554,-0.2353633,0.001683812,20.079999551177,18
-5.032091,0.4833333,-19.93979,-0.0847407380928046,0.1153975404963641,0.4558580994166465,15.05989,332.2689,356.6581,0.1340994,-0.233767,0.003324711,20.09999955073,18
-5.06702,0.6833334,-19.80988,-0.382673955501601,-0.0722886831658148,0.4097265814973774,22.57112,331.6783,354.8309,0.2003778,-0.2311139,0.004950085,20.119999550283,18
-5.101939,0.8833329,-19.68001,-0.7006984050491578,-0.2924518908872242,0.3839771786881591,30.05721,330.7728,352.7928,0.2657319,-0.2274168,0.006552622,20.1399995498359,18
-5.496981,0.2833331,-18.94225,-0.6134226883763549,0.3609289846269947,-0.3249640901271444,7.908391,342.2403,359.7939,0.06840926,-0.1538725,0.008872124,20.1599995493889,18
-5.535679,0.4833331,-18.8097,-0.8608546112179916,0.1301720406592758,-0.3829608388993097,15.81442,342.1962,359.5798,0.1364732,-0.1527722,0.01769979,20.1799995489419,18
-5.574368,0.6833331,-18.67719,-1.0627331649616476,-0.0787006299474326,-0.4576757814802352,23.71799,342.1178,359.3484,0.2038683,-0.1509451,0.0264412,20.1999995484948,18
-5.920147,0.2833334,-18.03432,-1.241129260700327,-0.3200503394974374,-0.5093891576871776,7.723776,343.7905,0.7802505,0.0657196,-0.1411143,0.01622086,20.2199995480478,18
-5.971063,0.4833333,-17.90878,-1.42466724222089,-0.3281693062132964,-0.4715029872539151,15.44385,343.9534,1.589794,0.1311185,-0.1401426,0.0323651,20.2399995476007,18
-6.021969,0.683333,-17.78327,-1.5368480887248852,-0.2898366240548016,-0.4470299353336973,23.15854,344.2425,2.462345,0.1958974,-0.1385286,0.04835865,20.2599995471537,18
-6.072865,0.8833327,-17.65779,-1.599609509403403,-0.2583690060061289,-0.3974217204948704,30.8656,344.6885,3.442196,0.2597601,-0.1362801,0.06412833,20.2799995467067,18
-6.123751,0.9766697,-17.53235,-1.634639695643294,-0.2870820056036478,-0.2840829219857639,38.56175,345.3462,4.594378,0.3224149,-0.1334078,0.07960221,20.2999995462596,18
-6.5154,0.2833334,-16.87705,-1.6852669578688708,-0.3226605838273907,-0.0669953757917554,7.433141,333.955,0.4828371,0.06220581,-0.2251239,0.01870275,20.3199995458126,18
-6.580209,0.4833333,-16.76439,-1.6599605453183024,-0.311788518078014,0.1282631978842836,14.86389,334.054,0.9934192,0.1241124,-0.2236908,0.03741352,20.3399995453656,18
-6.644986,0.6833329,-16.65175,-1.580203929173969,-0.3077810602908341,0.3396079665609335,22.29069,334.2296,1.543388,0.1854672,-0.2213111,0.05598287,20.3599995449185,18
-6.988203,0.2833332,-16.08161,-1.1660030665356818,0.3563335333840888,0.0259126899015154,7.755297,329.1271,0.7325132,0.06348767,-0.2659715,0.02414728,20.3799995444715,18
-7.068767,0.4833332,-15.97207,-1.021372998252838,0.1363100886506051,0.1892901599024519,15.50958,329.2821,1.499667,0.126669,-0.2641231,0.04824007,20.3999995440245,18
-7.149307,0.6833333,-15.86257,-0.8408228586033069,-0.0618290738358729,0.3533185375814387,23.25879,329.5573,2.326829,0.1892473,-0.2610553,0.07210329,20.4199995435774,18
-7.229824,0.8833328,-15.7531,-0.3116469629910021,0.4278417961376668,-0.0653620798035685,31.00095,329.9822,3.256427,0.2509345,-0.2567835,0.09562689,20.4399995431304,18
-7.659306,0.2833334,-15.02883,-0.079459857960245,0.2734698555762453,0.0162394862218899,8.185212,324.6735,0.3328148,0.06712485,-0.3028449,0.02441515,20.4599995426834,18
-7.746723,0.483333,-14.91563,0.1718719005777558,0.1409821054399063,0.0704239237122816,16.3679,324.7474,0.6796685,0.1338885,-0.300523,0.04869956,20.4799995422363,18
-7.834117,0.6833327,-14.80247,0.420932561416917,-0.0239827676210771,0.1363753469520423,24.54771,324.8797,1.057065,0.1999501,-0.296668,0.07272916,20.4999995417893,18
-8.205908,0.2833332,-14.16921,0.6463149657575045,-0.1477397240466069,0.2533542252957357,7.964261,320.4939,359.2281,0.06762866,-0.336703,0.01714524,20.5199995413423,18
-8.28382,0.4833331,-14.05333,0.78449110442787,-0.179241250695004,0.4492049449738884,15.92475,320.3274,358.4254,0.1349089,-0.3342405,0.03420089,20.5399995408952,18
-8.36171,0.683333,-13.93748,0.909321547490487,-0.1647794661263143,0.6024757482152685,23.87974,320.0308,357.5562,0.2015134,-0.3301516,0.05108405,20.5599995404482,18
-8.439575,0.8833328,-13.82166,0.9987260187130094,-0.1576704200114973,0.7536288974283618,31.82693,319.5701,356.5726,0.2671186,-0.3244575,0.06771288,20.5799995400012,18
-8.746953,0.2833333,-13.2634,1.3499836140589083,0.5090577264575475,0.3810653512550903,7.551304,319.2016,358.4471,0.06642779,-0.3469342,0.01027643,20.5999995395541,18
-8.81225,0.4833329,-13.14582,1.3857133047741588,0.2911595999210092,0.4647654263503442,15.09466,318.8851,356.8387,0.1325364,-0.3445794,0.0205004,20.6199995391071,18
-8.877524,0.6833329,-13.02828,1.3669163880394564,0.0946573871345865,0.5335834647412145,22.62354,318.3256,355.1116,0.198027,-0.3406686,0.03062607,20.63999953866,18
-8.942775,0.8833326,-12.91077,1.2715402404832368,-0.1348097855690401,0.6260478658861572,30.12953,317.4672,353.1837,0.2626047,-0.335221,0.04060774,20.659999538213,18
-9.326732,0.2833333,-12.2058,1.2373984592425025,-0.1315338445685462,0.5466755523742712,7.074804,326.3273,358.666,0.06241664,-0.2883799,0.006748744,20.679999537766,18
-9.375429,0.4833333,-12.09008,1.1668685265147598,-0.0822946580376199,0.4249258054507283,14.13947,326.072,357.2813,0.1245579,-0.2866786,0.01338183,20.6999995373189,18
-9.424129,0.6833332,-11.97439,1.03841979172336,-0.040408181734471,0.2974142623717739,21.19261,325.6231,355.805,0.186189,-0.2838517,0.0199359,20.7199995368719,18
-9.748075,0.2833335,-11.34942,0.9113097038566398,0.0207832028600053,0.1210269637657752,7.355178,329.8089,358.2253,0.06594594,-0.2589027,0.001781421,20.7399995364249,18
-9.785658,0.4833335,-11.22282,0.7864656948452335,0.1279379130459697,-0.112055368441581,14.70272,329.4558,356.3834,0.1316171,-0.2572128,0.003495808,20.7599995359778,18
-9.823229,0.6833334,-11.09625,0.6419863417107123,0.2277400320067628,-0.3648859169164939,22.03262,328.8337,354.4132,0.1966962,-0.2544029,0.005194365,20.7799995355308,18
-9.860789,0.883333,-10.96973,0.4558467723852342,0.2668736701064164,-0.6005561760217133,29.33432,327.8845,352.2278,0.2609005,-0.2504861,0.006870007,20.7999995350838,18
-10.26645,0.2833332,-10.19,-0.1710341770917356,-0.5336820972513343,-0.0919231309315069,7.814172,338.4401,359.1515,0.06831607,-0.1861021,0.005487266,20.8199995346367,18
-10.30272,0.483333,-10.05768,-0.4119085465782302,-0.3118811796419093,-0.2107811440933313,15.6244,338.2608,358.2706,0.136292,-0.1847886,0.01094673,20.8399995341897,18
-10.33899,0.6833329,-9.925389,-0.6383392802649723,-0.0733538125266995,-0.3390309912020957,23.42864,337.9422,357.3198,0.2036086,-0.1826075,0.01635301,20.8599995337427,18
-10.37525,0.8833327,-9.793153,-0.8731222381505219,0.1296299634800768,-0.4376192979327582,31.22558,337.4489,356.2475,0.269964,-0.179571,0.02167133,20.8799995332956,18
-10.69385,0.2833335,-9.234776,-1.065528475246202,0.1113353432517234,-0.5479085221856805,7.896955,343.2278,0.3879748,0.06763013,-0.1457262,0.01338413,20.8999995328486,18
-10.74023,0.4833333,-9.104834,-1.210057949735473,0.1385159570647381,-0.6655607767015197,15.79127,343.3108,0.7912315,0.1349189,-0.1446854,0.02670224,20.9199995324016,18
-10.7866,0.6833332,-8.974929,-1.328580682195609,0.1578556352001445,-0.7511772372191206,23.6825,343.4585,1.227465,0.2015468,-0.1429568,0.03989108,20.9399995319545,18
-11.1254,0.2833332,-8.382071,-1.7323136284945573,-0.5242744938035695,-0.2449215480059146,7.614722,340.9341,0.8425356,0.06426835,-0.1657266,0.0182318,20.9599995315075,18
-11.18298,0.4833331,-8.261447,-1.689465951833114,-0.2836560681749692,-0.4170480723458099,15.22548,341.1074,1.71588,0.1282299,-0.1646152,0.03638019,20.9799995310605,18
-11.24054,0.683333,-8.140859,-1.58631185826526,-0.0263106348782805,-0.5784349371063582,22.83063,341.4147,2.656466,0.1916004,-0.1627676,0.05437404,20.9999995306134,18
-11.29807,0.8833328,-8.020297,-1.7615897938225995,-0.4448228790793026,-0.1372581258885183,30.42679,341.8889,3.712069,0.2540891,-0.1601894,0.0721439,21.0199995301664,18
-11.73382,0.2833333,-7.284798,-1.5394250370635325,-0.1540244924096837,-0.2972640446567075,7.555678,329.5626,0.4311082,0.06259145,-0.2621713,0.02091805,21.0399995297194,18
-11.80731,0.4833333,-7.175079,-1.255129234562503,0.1535004659045623,-0.4699956087483495,15.10838,329.6532,0.8912981,0.1248588,-0.2604484,0.0418501,21.0599995292723,18
-11.88078,0.6833332,-7.065392,-0.9302310645542012,0.4254812637098987,-0.619011507444669,22.65794,329.8135,1.385543,0.1865644,-0.2575915,0.06259417,21.0799995288253,18
-11.95422,0.883333,-6.955736,-0.5860359403506337,0.4958179155549621,-0.7077840176680227,30.20364,330.0598,1.937495,0.2474403,-0.2536139,0.08305973,21.0999995283782,18
-12.27539,0.2833334,-6.420526,-0.3445957605050278,0.4467529052838005,-0.6641223945283421,7.975576,327.5637,0.7348292,0.06498834,-0.2790415,0.02556532,21.1199995279312,18
-12.36098,0.4833334,-6.309973,-0.0762297029063123,0.4436514755972666,-0.6221363674035076,15.95087,327.7234,1.503502,0.129658,-0.2769929,0.05104397,21.1399995274842,18
-12.44655,0.6833332,-6.199451,0.1974660267644115,0.4331971515163994,-0.5443280773822444,23.92097,328.008,2.336058,0.1936762,-0.2735925,0.0762663,21.1599995270371,18
-12.78716,0.2833332,-5.624293,0.1499904554039002,-0.2782392831445552,0.075474446675168,8.247909,323.6252,0.1445953,0.06792876,-0.3114039,0.02364204,21.1799995265901,18
-12.87457,0.4833332,-5.509876,0.4719210950037364,-0.0664393721787152,0.033070922681998,16.49344,323.6576,0.2953243,0.1354868,-0.308983,0.04715477,21.1999995261431,18
-12.96195,0.6833332,-5.39549,0.7835863465906936,0.1625749644993545,-0.0041685085623159,24.73651,323.7155,0.4595236,0.2023246,-0.3049639,0.07041687,21.219999525696,18
-13.31881,0.2833332,-4.781617,0.7388340445087938,-0.2837808797832114,0.5216171542367972,7.9068,319.4601,358.9674,0.0677871,-0.3450225,0.01545192,21.239999525249,18
-13.39463,0.4833332,-4.664961,0.9935624685345044,-0.0203378127741115,0.4471041237995596,15.80864,319.2391,357.8943,0.1352269,-0.3425168,0.03082303,21.259999524802,18
-13.47043,0.683333,-4.548336,1.2202881004419268,0.2603195316731051,0.3422071320564488,23.70248,318.8459,356.7337,0.2019939,-0.3383559,0.04603911,21.2799995243549,18
-13.5462,0.8833328,-4.431742,1.3969394332537348,0.5059204198367925,0.2449316804823931,31.58423,318.2362,355.4229,0.2677658,-0.3325616,0.0610268,21.2999995239079,18
-13.97513,0.2833333,-3.668377,1.237892695545689,-0.1895566573511309,0.6468258222609047,7.348561,320.8602,358.4088,0.06501793,-0.3333973,0.008407319,21.3199995234609,18
-14.03416,0.4833331,-3.551295,1.4460314546778186,0.0382030588720809,0.2950463359234305,14.68902,320.5452,356.7639,0.1297372,-0.331245,0.01677216,21.3399995230138,18
-14.09316,0.6833329,-3.434244,1.6063135675230562,0.2831771544609724,-0.0839304039453372,22.01479,319.99,355.0043,0.1938798,-0.3276701,0.02505873,21.3599995225668,18
-14.15215,0.8833328,-3.317221,1.697666015614093,0.4930950290709061,-0.4546130681577196,29.31634,319.1425,353.0516,0.2571639,-0.3226914,0.03322386,21.3799995221198,18
-14.45551,0.2833333,-2.760943,1.361122283462315,-0.2380646523923992,-0.1680790911708083,7.119736,326.7586,358.5698,0.06305548,-0.2847177,0.005823186,21.3999995216727,18
-14.50244,0.4833332,-2.643285,1.2917995267835352,-0.0459880227274701,-0.3834374666546516,14.2285,326.4824,357.0811,0.1258369,-0.2830107,0.01149978,21.4199995212257,18
-14.54935,0.683333,-2.525661,1.1784991819722173,0.1633030109574149,-0.6077663817621817,21.32542,325.9974,355.4958,0.188096,-0.2801698,0.01712848,21.4399995207787,18
-14.86753,0.2833333,-1.920438,0.7272283194908731,-0.3027760251563098,-0.2937202933414298,7.449341,330.7203,358.2917,0.06660557,-0.2512431,0.002024332,21.4599995203316,18
-14.90493,0.4833332,-1.792395,0.587352165836414,-0.059056225596425,-0.5317127981809131,14.89182,330.376,356.5183,0.1329269,-0.2495692,0.003992125,21.4799995198846,18
-14.94232,0.6833332,-1.664388,0.4375055973106754,0.20187805534382,-0.7813306801959463,22.31756,329.7684,354.6179,0.1986385,-0.2467865,0.005941394,21.4999995194376,18
-15.27744,0.2833333,-1.016641,-0.0457392013344239,-0.2125571364106807,-0.457280445501306,7.839511,337.4621,359.1088,0.06855562,-0.19443,0.005748283,21.5199995189905,18
-15.31547,0.4833332,-0.8842798,-0.5302436591407016,-0.6374811552489899,-0.138770706714765,15.67487,337.2731,358.1833,0.1367673,-0.1930473,0.01146762,21.5399995185435,18
-15.35348,0.6833331,-0.751955,-0.5867999623586009,-0.1679175300601556,-0.5247995333108317,23.50383,336.9373,357.1839,0.2043124,-0.1907512,0.01713084,21.5599995180964,18
-15.39149,0.8833328,-0.6196663,-0.6227515302135593,0.2911568160788853,-0.9101015790929798,31.32341,336.4175,356.0577,0.2708719,-0.1875532,0.02271167,21.5799995176494,18
-15.42948,0.9766696,-0.4874215,-0.9206266367147152,-0.1652344812237861,-0.7879979873225551,39.13007,335.6477,354.7262,0.3361399,-0.1834694,0.02818183,21.5999995172024,18
-15.82025,0.2833333,0.175841,-1.1941331365569603,-0.6321146194619608,-0.6445666829286338,7.867676,344.018,0.6867816,0.0671059,-0.139095,0.01545816,21.6199995167553,18
-15.86974,0.4833332,0.3044581,-1.16931646678308,-0.2045066888876932,-0.9510549839966248,15.7319,344.1642,1.400284,0.1338736,-0.1381038,0.03084011,21.6399995163083,18
-15.91921,0.683333,0.4330378,-1.4107448204176158,-0.4277020463049732,-0.6980524656889875,23.59133,344.4243,2.171518,0.1999867,-0.1364576,0.04607294,21.6599995158613,18
-16.25444,0.2833333,1.000694,-1.601552687831564,-0.635773797995492,-0.418188368671462,7.542348,338.9942,0.8229011,0.06336208,-0.1823506,0.01903446,21.6799995154142,18
-16.31529,0.4833332,1.118237,-1.458097256312037,-0.1627953837270214,-0.6306343093410272,15.08005,339.1627,1.679977,0.1264132,-0.1811488,0.03802068,21.6999995149672,18
-16.3761,0.6833332,1.235756,-1.5917789147518384,-0.340619528014637,-0.2542861560595044,22.61143,339.4615,2.603137,0.1888828,-0.1791513,0.05685763,21.7199995145202,18
-16.74066,0.2833332,1.839841,-1.6651205010234769,-0.5033201892370376,0.1313340408435275,7.575144,330.1123,0.6166124,0.06243786,-0.2576485,0.02222171,21.7399995140731,18
-16.81602,0.4833333,1.94897,-1.3762637536800426,0.0150295007115169,-0.0353317633302037,15.14725,330.2404,1.265479,0.1245616,-0.2559426,0.04442284,21.7599995136261,18
-16.89137,0.6833332,2.058069,-1.0466344302524817,0.5228900131022558,-0.1884078766493866,22.71522,330.4671,1.962603,0.1861204,-0.2531127,0.06642271,21.7799995131791,18
-16.96669,0.8833328,2.167136,-1.00096887810993,0.1152849851113746,0.1578067621523127,30.27765,330.8155,2.741596,0.2468444,-0.249172,0.08812475,21.799999512732,18
-17.28875,0.2833332,2.701214,-0.9308366684771024,-0.3028089921021567,0.5308216105589256,7.983927,327.6306,0.769348,0.06498918,-0.2785013,0.02583618,21.819999512285,18
-17.37479,0.483333,2.81167,-0.4334780298111234,0.1735846726206322,0.1923527785267254,15.9673,327.7978,1.573276,0.1296591,-0.2764513,0.05157791,21.839999511838,18
-17.46081,0.6833327,2.922094,-0.2412878504011359,-0.0008243509307348,0.3585059161532058,23.94515,328.0958,2.444152,0.1936758,-0.2730482,0.07705981,21.8599995113909,18
-17.54679,0.8833324,3.032486,-0.0331694070876089,-0.1601095270911855,0.5036854336785606,31.91518,328.5588,3.43029,0.2567264,-0.2683098,0.1021575,21.8799995109439,18
-17.94909,0.2833333,3.717726,0.1693762294544569,-0.3586324210673557,0.6664235733174699,8.206813,321.8648,359.8409,0.06808314,-0.3257518,0.02206722,21.8999995104969,18
-18.03532,0.4833333,3.832125,0.3036444156840048,-0.3306849053121419,0.8959081562070992,16.41124,321.8294,359.675,0.1357981,-0.3232443,0.04401474,21.9199995100498,18
-18.12154,0.6833331,3.946493,0.4363271927136516,-0.2630466350838739,1.0849731554142306,24.61319,321.7659,359.4944,0.2027982,-0.3190815,0.0657302,21.9399995096028,18
