pX,pY,pZ,aX,aY,aZ,reX,reY,reZ,rtX,rtY,rtZ,t,ID
-41.00042,0.23,-37.99971,4.3190971308874495,-0.0785214870274714,5.410264602228708,0.01618652,0.01357408,0.0236934,0.0001412785,0.000118427,0.0002067472,2.91999993473291,8
-41.00084,0.43,-37.99943,4.738237132316179,-0.1837828397543436,5.725159625550042,0.03234353,0.01358428,0.04742362,0.0002822996,0.0001184284,0.0004138157,2.93999993428588,8
-41.00126,0.63,-37.99914,5.096566583109571,-0.0775924173734917,5.976271141273891,0.04868749,0.01360133,0.07133368,0.0004249522,0.0001184295,0.0006224532,2.95999993383884,8
-41.00165,0.2833333,-37.99881,5.394605880105516,0.2157609740266107,6.164673849236635,0.02509785,3.781714,0.03638283,0.0002293769,0.03299562,0.0003101005,2.97999993339181,8
-41.00226,0.4833333,-37.99833,5.778567978733129,-0.1807166498240991,6.378911021609241,0.05027416,3.781738,0.07273362,0.0004594289,0.03299561,0.0006198988,2.99999993294477,8
-40.9939,0.2833333,-37.96809,6.088641018108504,-0.3330211750594522,6.518786818081608,0.9716547,8.260081,0.5887539,0.008827069,0.07197341,0.004513633,3.01999993249774,8
-41.00171,0.4833333,-37.94963,6.447950149598512,-0.6933630443761265,6.671160127347264,1.943136,8.275066,1.177826,0.01765264,0.07196282,0.009026688,3.0399999320507,8
-41.00952,0.6833333,-37.93119,6.722299442290897,-0.8079293163711398,6.743797263478918,2.916462,8.30012,1.768683,0.02649502,0.0719451,0.01354717,3.05999993160367,8
-40.96959,0.2833334,-37.89268,6.914391004605207,-0.7020533980212198,6.740413007018688,1.379229,13.43609,0.1202307,0.01207583,0.1169625,-0.0003660533,3.07999993115664,8
-40.96595,0.4833335,-37.86864,7.027172886588808,-0.400023219708965,6.664954934094283,2.75845,13.44044,0.240353,0.02414965,0.1169369,-0.0007341984,3.0999999307096,8
-40.96232,0.6833334,-37.84461,7.198004859436011,-0.7788332741226109,6.605782054492451,4.140191,13.44755,0.3585608,0.03623961,0.1168936,-0.001123781,3.11999993026257,8
-40.88196,0.2833335,-37.75661,7.280599795813927,-0.9044796880147326,6.470652859127831,2.735184,21.18928,0.059515,0.02355531,0.1837948,-0.003877752,3.13999992981553,8
-40.86555,0.4833335,-37.71148,7.393523383246048,-1.2291732247618037,6.341803865248657,5.472095,21.19345,0.1177158,0.04710948,0.1836372,-0.007769619,3.1599999293685,8
-40.84914,0.6833335,-37.66637,7.413597154409032,-1.299099837874395,6.136713803099035,8.211187,21.20042,0.176199,0.07065507,0.1833745,-0.0116627,3.17999992892146,8
-40.75927,0.2833338,-37.58004,7.346033667475773,-1.139593666378222,5.861683712688304,4.128026,26.89542,0.1309285,0.03529407,0.2323668,-0.007265283,3.19999992847443,8
-40.72855,0.4833338,-37.51445,7.196285141069453,-0.7749424384559918,5.523238735277971,8.259967,26.90957,0.262003,0.07057317,0.231913,-0.0145394,3.21999992802739,8
-40.69784,0.6833338,-37.44888,7.095406194425522,-1.0821416435952371,5.210619257878811,12.39368,26.93356,0.3957487,0.1057755,0.2311569,-0.02179916,3.23999992758036,8
-40.55561,0.2833331,-37.32419,6.90878293263885,-1.1271863675806275,4.837191738830569,4.207978,34.24957,0.2670292,0.03577123,0.2941727,-0.008584881,3.25999992713332,8
-40.51802,0.4833337,-37.26077,6.7487617195092895,-1.3622877318418654,4.482348637584195,8.416947,34.27903,0.5347448,0.07149737,0.2935744,-0.01717924,3.27999992668629,8
-40.48046,0.6833336,-37.19737,6.504129137884355,-1.333631901236766,4.072380148011327,12.62737,34.32899,0.8081177,0.1071397,0.2925778,-0.02575646,3.29999992623925,8
-40.36526,0.2833337,-37.11795,6.182685529962157,-1.0665529870876505,3.615841730031456,3.817281,38.94756,0.2419913,0.03210416,0.3331235,-0.009113484,3.31999992579222,8
-40.32666,0.4833337,-37.06359,5.957681113101245,-1.225652765024953,3.237843709342883,7.633315,38.97192,0.4859628,0.06416234,0.3325669,-0.01821489,3.33999992534518,8
-40.28808,0.6833335,-37.00924,5.652323260235654,-1.117022908263671,2.815792761242271,11.44687,39.01287,0.7328961,0.09612589,0.3316401,-0.02730081,3.35999992489815,8
-40.10388,0.2833333,-36.87055,5.275939475952683,-0.765997087921019,2.359523040001108,3.683585,43.69302,0.2344369,0.03059251,0.3718674,-0.01006195,3.37999992445111,8
-40.0624,0.4833333,-36.82131,4.935049177888686,-0.8371781852365785,1.9469886154910296,7.366024,43.71578,0.4706641,0.06114398,0.3712889,-0.02011123,3.39999992400408,8
-39.8982,0.2833333,-36.68687,4.53000194273902,-0.6366563948658563,1.5122242859565986,3.623851,47.23396,0.3269109,0.03011275,0.400336,-0.0100545,3.41999992355704,8
-39.85561,0.4833335,-36.63983,4.071416592778981,-0.1897661071687701,1.065953667404372,7.246475,47.26517,0.6562009,0.06018541,0.3997307,-0.02009701,3.43999992311001,8
-39.81303,0.6833335,-36.5928,3.729265773089743,-0.4012066676309836,0.7310042043099116,10.86779,47.31784,0.9906242,0.09018821,0.3987231,-0.03011719,3.45999992266297,8
-39.77046,0.8833331,-36.54578,3.338098676352601,-0.6047716076853815,0.3934315090489235,14.48684,47.39281,1.332062,0.1200811,0.3973141,-0.04010977,3.47999992221594,8
-39.59159,0.2833338,-36.41704,2.909907664098604,-0.1982809888543925,0.0648763801757965,3.540837,51.29338,0.3366904,0.02912195,0.4325303,-0.01072437,3.4999999217689,8
-39.54703,0.4833338,-36.37386,2.5518276657713272,-0.4566707946170478,-0.1795398275263195,7.080585,51.32479,0.6758297,0.05820773,0.4319054,-0.02143585,3.51999992132187,8
-39.38865,0.2833333,-36.25186,2.1643829636522938,-0.2338230511364887,-0.4323918478700932,3.495956,52.92574,0.3967366,0.02884914,0.4453132,-0.01049473,3.53999992087483,8
-39.34413,0.4833328,-36.20961,1.778405260524572,-0.0088845412477717,-0.6714058598610642,6.990781,52.96227,0.7962332,0.05766275,0.4446836,-0.02097746,3.5599999204278,8
-39.29963,0.6833326,-36.16737,1.5556639056372603,-0.47444062832702,-0.7837917401928323,10.48365,53.02365,1.20016,0.0864034,0.4436352,-0.03144642,3.57999991998076,8
-39.25514,0.8833328,-36.12513,1.2883831239484564,-0.245321259737783,-0.899875299886709,13.97502,53.11101,1.612361,0.1150515,0.4421691,-0.04188915,3.59999991953373,8
-39.08493,0.2833337,-36.004,1.1587374049932675,-0.440987402798783,-0.900935965081807,3.435187,54.20033,0.353435,0.02808675,0.4552583,-0.01090969,3.61999991908669,8
-39.03992,0.4833337,-35.96395,1.034731399107578,-0.6356078959016858,-0.8812544233794881,6.868923,54.23222,0.7084199,0.05613378,0.4546382,-0.02181199,3.63999991863966,8
-38.88779,0.2833329,-35.85181,0.8386875911635414,-0.1632563383265464,-0.907343994186121,3.393583,53.94347,0.2451163,0.02735925,0.4532946,-0.01152419,3.65999991819263,8
-38.84243,0.4833331,-35.81351,0.6514410553937893,0.2845279535905158,-0.9262593890812808,6.785721,53.96531,0.491088,0.05468021,0.4526953,-0.02303951,3.67999991774559,8
-38.79709,0.683333,-35.77523,0.6224230185708777,-0.1972321705171862,-0.8330652841534878,10.17679,54.00212,0.740508,0.08194552,0.4516976,-0.03453115,3.69999991729856,8
-38.75177,0.8833335,-35.73695,0.5226337821215736,0.0167279787674922,-0.7790438584568129,13.56662,54.05453,0.9951816,0.1091302,0.4503028,-0.04598911,3.71999991685152,8
-38.589,0.2833338,-35.62135,0.548378419599203,-0.1930518759029697,-0.651817586235488,3.349941,53.10545,0.15176,0.02673829,0.4467952,-0.01188207,3.73999991640449,8
-38.54385,0.4833341,-35.58414,0.5755833305910656,-0.4007410162615834,-0.5433835333690524,6.698574,53.11882,0.304245,0.05344244,0.4462215,-0.02375143,3.75999991595745,8
-38.39982,0.2833333,-35.47972,0.4826928129907202,0.0595882609064735,-0.5199745790762123,3.307702,52.3045,0.05624255,0.02612274,0.4405615,-0.01228039,3.77999991551042,8
-38.35475,0.4833333,-35.44367,0.3923137208603648,0.4963951714210477,-0.5116105164700357,6.614437,52.3094,0.1128319,0.05221606,0.440011,-0.02454709,3.79999991506338,8
-38.3097,0.683333,-35.40762,0.4462897931470735,0.0047035222504863,-0.4221599495960149,9.919941,52.3176,0.1697804,0.0782548,0.4390942,-0.03679176,3.81999991461635,8
-38.10986,0.2833334,-35.26253,0.4173413632670844,0.2097779884375456,-0.3685924761625152,3.263686,51.15479,359.9432,0.02547278,0.4315675,-0.01274097,3.83999991416931,8
-38.06488,0.4833333,-35.2276,0.5091151729359282,-0.0078418396969043,-0.2404444738557636,6.526416,51.14991,359.886,0.05091708,0.4310424,-0.02546868,3.85999991372228,8
-38.01992,0.6833333,-35.19267,0.6082422635401201,-0.2223248277252097,-0.120471253798513,9.787889,51.14166,359.8279,0.0763094,0.4301681,-0.0381729,3.87999991327524,8
-37.88413,0.283333,-35.09408,0.5516992021935181,0.2322554266406935,-0.1039279398110188,3.220516,49.42191,359.8731,0.02506457,0.4179037,-0.01275287,3.89999991282821,8
-37.84002,0.4833335,-35.05922,0.6757311516931352,0.0240441359415375,0.0340087849514034,6.439953,49.41116,359.7454,0.05010095,0.417408,-0.02549167,3.91999991238117,8
-37.79593,0.6833335,-35.02436,0.6496237740541417,0.2991610966881044,0.05850811153255,9.658481,49.39305,359.6162,0.07509123,0.4165826,-0.0382062,3.93999991193414,8
-37.60323,0.2833328,-34.88431,0.6140458621926825,0.5784597337336371,0.0694126707436133,3.282235,48.30373,359.8051,0.02543649,0.4090326,-0.01326892,3.9599999114871,8
-37.55819,0.4833329,-34.84875,0.6824135053311622,0.1693558252036026,0.1464365427017071,6.563428,48.2869,359.6091,0.05084446,0.4085277,-0.02652239,3.97999991104007,8
-37.51317,0.683333,-34.81319,0.7502766157421519,-0.2632695185187976,0.2136539115069311,9.843586,48.25856,359.4105,0.07620313,0.4076869,-0.0397504,3.99999991059303,8
-37.37952,0.2833338,-34.71819,0.6656273598133282,0.1855599325359406,0.1797654795013983,3.548556,49.49358,359.8001,0.02738882,0.4184566,-0.01454433,4.019999910146,8
-37.33012,0.4833339,-34.6806,0.7455359037824749,-0.0294463129230597,0.2602388328484863,7.096156,49.4749,359.5987,0.05474421,0.417853,-0.02907102,4.03999990969896,8
-37.28075,0.6833339,-34.64302,0.6802975849425437,0.2378307028469679,0.2358945145696225,10.6442,49.44329,359.3937,0.0820495,0.4168473,-0.04357543,4.05999990925193,8
-37.09283,0.2833333,-34.50897,0.6024980442263512,0.5082447156218921,0.1988902353542165,3.566015,51.49155,359.8578,0.02748675,0.434203,-0.01463275,4.07999990880489,8
-37.04259,0.4833333,-34.47218,0.6175907895973083,0.0892099372402908,0.2230390705051554,7.131093,51.47815,359.714,0.05493781,0.4335713,-0.02925168,4.09999990835786,8
-36.87044,0.2833332,-34.34777,0.6302887599320215,-0.3543919313445962,0.2401319221594562,3.592205,52.66582,359.9519,0.02790418,0.4433798,-0.01427942,4.11999990791082,8
-36.82009,0.4833333,-34.31042,0.5013886454595351,0.0824153820016483,0.1627678299333617,7.183529,52.66128,359.9036,0.05577478,0.4427264,-0.02854001,4.13999990746379,8
-36.76976,0.6833333,-34.27308,0.5310602034876268,-0.1456589331235346,0.195379754238548,10.77386,52.65363,359.8545,0.083583,0.4416384,-0.04276842,4.15999990701675,8
-36.71944,0.8833332,-34.23576,0.42684856527638,0.1075051465576888,0.1341180478143115,14.36316,52.64268,359.8042,0.1113012,0.4401174,-0.0569512,4.17999990656972,8
-36.54107,0.2833333,-34.10686,0.3139730318990104,0.3627598633645884,0.0653618080179754,3.575728,53.89533,0.07346255,0.02810186,0.4529379,-0.01356748,4.19999990612268,8
-36.49142,0.483333,-34.06905,0.2907328591971279,-0.0724789609314616,0.0576648743823291,7.150365,53.90229,0.1478471,0.05616928,0.4522764,-0.02711478,4.21999990567565,8
-36.32784,0.2833329,-33.95096,0.2703590463917038,-0.5333308269028195,0.0498097003823971,3.576602,54.57422,0.08274586,0.02806488,0.4582062,-0.01366526,4.23999990522861,8
-36.27782,0.4833328,-33.91361,0.1236928443521705,-0.1148183050580826,-0.043137504624461,7.152146,54.582,0.165813,0.05609297,0.4575365,-0.02731552,4.25999990478158,8
-36.22782,0.6833328,-33.87628,0.1355953876626543,-0.3622330995390127,-0.0254667411086728,10.72665,54.59512,0.2501685,0.0840584,0.4564214,-0.04093527,4.27999990433455,8
-36.17783,0.8833328,-33.83895,0.0323792245645151,-0.1294548812850903,-0.0881229385659096,14.30011,54.61384,0.33652,0.1119341,0.4548627,-0.05451134,4.29999990388751,8
-36.00528,0.2833332,-33.71574,0.0601421062048004,-0.3225078358776694,-0.0575202678896147,3.648824,55.29343,0.1125575,0.02865723,0.4637553,-0.01390311,4.31999990344048,8
-35.95404,0.4833331,-33.67786,0.0851368704384931,-0.51556041386097,-0.0295016090472586,7.296592,55.30426,0.2259975,0.05727718,0.4630496,-0.02778818,4.33999990299344,8
-35.79896,0.2833333,-33.56686,-0.066172193099927,-0.0426868799190862,-0.1265350203798512,3.600008,55.85543,0.1183271,0.02823607,0.4680972,-0.01379959,4.35999990254641,8
-35.74812,0.4833337,-33.52989,-0.2170178695417277,0.4045742355866275,-0.223068446522447,7.198919,55.86665,0.2375393,0.05643569,0.4674037,-0.02758155,4.37999990209937,8
-35.6973,0.6833338,-33.49294,-0.215737685479791,-0.0787541243204772,-0.2111726461122387,10.79679,55.8856,0.3585937,0.08457156,0.4662491,-0.04133268,4.39999990165234,8
-35.48418,0.2833329,-33.34055,-0.3177150540760785,0.1325936250840783,-0.2710196153790249,3.566523,57.67219,0.2072856,0.0281321,0.482022,-0.01342489,4.4199999012053,8
-35.43353,0.4833328,-33.30423,-0.2874349536469758,-0.0808446270237349,-0.2374083043815567,7.131885,57.69168,0.4160837,0.05622793,0.4813195,-0.02683284,4.43999990075827,8
-35.3829,0.683333,-33.26791,-0.249902079829777,-0.2932375173583906,-0.199531821422557,10.69607,57.72455,0.6281107,0.08426074,0.48015,-0.0402106,4.45999990031123,8
-35.23627,0.2833335,-33.16301,-0.3714046402154558,0.1613422223168753,-0.2753880565145756,3.517961,58.38723,0.2522544,0.02786933,0.4874724,-0.01305111,4.4799998998642,8
-35.18631,0.4833334,-33.12709,-0.4831379576353569,0.5913545584269413,-0.3458434113706872,7.034834,58.41061,0.506376,0.0557043,0.4867799,-0.02608587,4.49999989941716,8
-35.13636,0.6833334,-33.09118,-0.440949572847483,0.091822662853032,-0.3112775530970779,10.55053,58.45006,0.7643069,0.08347839,0.4856271,-0.03909212,4.51999989897013,8
-34.93363,0.2833337,-32.94534,-0.486406652631512,0.2880108141658078,-0.3379635395380838,3.464055,58.43282,0.2892531,0.02761127,0.4878184,-0.01255098,4.53999989852309,8
-34.88478,0.4833336,-32.9094,-0.5190011795569909,0.4873352306958484,-0.35718280053716,6.926707,58.45924,0.5808432,0.05518802,0.4871455,-0.02508323,4.55999989807606,8
-34.83595,0.6833338,-32.87346,-0.3811405868438982,-0.0027891626609213,-0.2575414200371853,10.38812,58.5038,0.8766806,0.08270574,0.4860251,-0.03758846,4.57999989762902,8
-34.69875,0.2833333,-32.77494,-0.3925777829124754,0.2028078303017231,-0.2640115901081934,3.41666,57.97609,0.2672959,0.02720666,0.4843496,-0.01240799,4.59999989718199,8
-34.65069,0.4833335,-32.73937,-0.2666120584514821,-0.0153346115516526,-0.1710942402946003,6.831878,58.00015,0.5364441,0.05437832,0.4837001,-0.02479956,4.61999989673495,8
-34.60264,0.6833335,-32.70382,-0.2844739143695349,0.248805725715332,-0.1803141285401643,10.24599,58.0407,0.8094183,0.08149394,0.4826187,-0.03716533,4.63999989628792,8
-34.40885,0.2833333,-32.56451,-0.305683576754042,0.516082083312075,-0.1914254264701185,3.377184,56.33838,0.1711975,0.02668199,0.4718325,-0.01259432,4.65999989584088,8
-34.36146,0.4833333,-32.52937,-0.3197202306029147,0.7342243555475327,-0.1970769875299503,6.753036,56.35361,0.3435565,0.05333061,0.4712165,-0.02517259,4.67999989539385,8
-34.31409,0.6833333,-32.49423,-0.1789589275330314,-0.0027904702957313,-0.0934274232049787,10.12787,56.37927,0.5182901,0.07992528,0.4701908,-0.0377254,4.69999989494681,8
-34.18523,0.2833335,-32.40196,-0.180622298251464,0.1693539380626786,-0.0915134587803052,3.333012,55.14746,0.1019925,0.02619048,0.4626707,-0.01267309,4.71999989449978,8
-34.13853,0.4833336,-32.36727,-0.1767048822285311,0.3446347957177889,-0.0868076025627431,6.664701,55.15642,0.2047042,0.05234876,0.4620834,-0.02532996,4.73999989405274,8
-34.09184,0.6833336,-32.33258,-0.1363322280871237,0.3106591624165727,-0.0576359774540478,9.995447,55.1715,0.3087746,0.07845546,0.4611054,-0.03796206,4.75999989360571,8
-33.9064,0.2833335,-32.20002,-0.1026458565864061,0.3075231186521859,-0.0344682517280432,3.28857,53.40607,359.9772,0.02554473,0.4491864,-0.01307158,4.77999989315867,8
-33.8601,0.4833336,-32.16615,-0.0650240967068924,0.2819110565269007,-0.0098294760436026,6.576176,53.40411,359.9543,0.05106074,0.4486316,-0.02612896,4.79999989271164,8
-33.69298,0.2833332,-32.04549,0.0717276112331042,-0.4598073985474453,0.0826147643520158,3.244101,51.99534,359.9218,0.0251432,0.4381762,-0.01302047,4.8199998922646,8
-33.64754,0.4833332,-32.01171,0.0766591978009358,-0.2934125375261125,0.0810089870628445,6.487221,51.98867,359.8431,0.05025847,0.4376493,-0.02602707,4.83999989181757,8
-33.60212,0.683333,-31.97794,0.0894063982776209,-0.1249268256796877,0.0836810573422539,9.72939,51.97743,359.7635,0.0753265,0.436772,-0.03900846,4.85999989137053,8
-33.55671,0.883333,-31.94419,0.1409810136099345,-0.1667428179401635,0.1129715543827991,12.97031,51.96149,359.6825,0.1003254,0.4355456,-0.05195235,4.8799998909235,8
-33.38,0.2833334,-31.81681,0.1890740098793699,-0.1787651012221274,0.1388665916430973,3.202789,49.28381,359.8073,0.02470006,0.4168249,-0.01317982,4.89999989047647,8
-33.33546,0.4833336,-31.78291,0.2441697608068231,-0.214309645658189,0.1690094121964627,6.404579,49.26757,359.6135,0.04937344,0.4163349,-0.02634512,4.91999989002943,8
-33.17312,0.2833335,-31.66557,0.2852945793844306,-0.246716928426159,0.1890596529023369,3.439991,49.4772,359.7836,0.02647055,0.4183412,-0.01427495,4.9399998895824,8
-33.12501,0.4833335,-31.62942,0.3116098979646082,-0.2493298097180079,0.1988455440366578,6.878996,49.4576,359.5657,0.05291002,0.4177737,-0.02853297,4.95999988913536,8
-33.07691,0.6833332,-31.59327,0.3337141620214794,-0.2754645900161945,0.2060918184535225,10.31703,49.42455,359.3448,0.07929502,0.4168287,-0.04276137,4.97999988868833,8
-33.02883,0.883333,-31.55714,0.3399629489092461,-0.2984636764141802,0.2031395954743153,13.75564,49.37744,359.1189,0.1056143,0.4155068,-0.05695342,4.99999988824129,8
-32.85625,0.2833333,-31.43483,0.3383705790149065,-0.291668438173746,0.1959284555757534,3.557008,51.19558,359.8264,0.02733528,0.4318848,-0.01477469,5.01999988779426,8
-32.80596,0.4833333,-31.39829,0.3396787191070203,-0.3083947253794832,0.1922458214189752,7.113087,51.17931,359.6513,0.05463679,0.4312593,-0.02953246,5.03999988734722,8
-32.75569,0.6833335,-31.36177,0.3259925044178189,-0.321985266327359,0.1786317662177872,10.66888,51.15177,359.4732,0.08188257,0.4302174,-0.04426354,5.05999988690019,8
-32.56774,0.2833333,-31.22788,0.2973079014039648,-0.3057816309109281,0.1554646416030607,3.573553,52.73068,359.8945,0.02752816,0.4439029,-0.01467116,5.07999988645315,8
-32.517,0.4833331,-31.19159,0.2646095477517107,-0.3131000037462743,0.1304962130124067,7.146235,52.72074,359.7881,0.05502226,0.4432549,-0.02932587,5.09999988600612,8
-32.34509,0.2833335,-31.06712,0.3053795451556453,-0.3172815956283091,0.1594523092389579,3.599309,53.75171,0.0366009,0.02815696,0.4518269,-0.01391202,5.11999988555908,8
-32.29483,0.4833333,-31.02946,0.331279687505674,-0.2916692021077669,0.17857986156611,7.19785,53.75526,0.07417236,0.05628284,0.4511586,-0.02780205,5.13999988511205,8
-32.24458,0.6833332,-30.99181,0.353869248729282,-0.2895783536348502,0.196055412018385,10.79535,53.76123,0.1123228,0.08434507,0.4500456,-0.04166075,5.15999988466501,8
-32.19434,0.8833334,-30.95417,0.2097143676186128,0.3559630020365982,0.0954593622777721,14.39177,53.76976,0.1513953,0.1123159,0.4484897,-0.05547426,5.17999988421798,8
-32.01563,0.2833333,-30.82614,0.2045934832706102,0.10070851983733,0.0936251801288783,3.563501,54.63264,0.08833309,0.02797874,0.4586594,-0.01358382,5.19999988377094,8
-31.96582,0.4833336,-30.78889,0.1932689563625906,-0.1493188937115483,0.087901790627793,7.125683,54.64093,0.1773002,0.05592006,0.457994,-0.02714967,5.21999988332391,8
-31.91603,0.6833335,-30.75166,0.2111507186465289,-0.1550685310410798,0.1036435009549272,10.68688,54.65493,0.2676213,0.08379968,0.4568861,-0.04068573,5.23999988287687,8
-31.71914,0.2833333,-30.61069,0.220724818242715,-0.1299790388145804,0.1133034200749776,3.636293,55.41618,0.1090164,0.02853119,0.464706,-0.01391032,5.25999988242984,8
-31.66797,0.4833331,-30.5731,0.2339393086834,-0.127365908017995,0.1253729416425919,7.271568,55.42662,0.2188707,0.0570257,0.4640037,-0.0278029,5.2799998819828,8
-31.61681,0.6833333,-30.53553,0.0961644483763599,0.5197436723889197,0.0308485164879108,10.90636,55.44423,0.3302623,0.08545826,0.4628341,-0.04166761,5.29999988153577,8
-31.48641,0.2833333,-30.44281,0.098256489837297,0.2671019844510418,0.0367462631046819,3.637212,55.72784,0.1063416,0.02848944,0.4671116,-0.01401224,5.31999988108873,8
-31.435,0.4833334,-30.40554,-0.0413700719630689,0.5009253161059124,-0.0578470023582475,7.273346,55.73804,0.2134729,0.05694165,0.4664054,-0.02800658,5.3399998806417,8
-31.38362,0.6833333,-30.36829,-0.1813518556780522,0.7420666807504683,-0.1521204592011642,10.90841,55.75526,0.3223674,0.0853285,0.4652296,-0.04196836,5.35999988019466,8
-31.19594,0.2833336,-30.23468,-0.1621154760754137,0.2979415789535763,-0.132177390536853,3.589669,57.43753,0.1860524,0.02824761,0.4802298,-0.0136267,5.37999987974763,8
-31.1449,0.4833336,-30.19824,-0.1389770915488917,-0.1665689840524732,-0.1081374959142422,7.178289,57.45513,0.3734863,0.05645932,0.4795212,-0.02723642,5.39999987930059,8
-31.09388,0.6833333,-30.16181,-0.1213954841600433,-0.1733642318758418,-0.0879902062292039,10.7658,57.48484,0.5638583,0.08460748,0.4783416,-0.04081541,5.41999987885356,8
-30.88977,0.2833333,-30.01611,-0.1027138867025243,-0.1493200988089714,-0.0679496268625037,3.527856,58.53437,0.2544507,0.02793719,0.4885904,-0.01311237,5.43999987840652,8
-30.8396,0.4833333,-29.98019,-0.2126134140026003,0.3324398676159198,-0.1400240618614674,7.054603,58.55802,0.5107461,0.05583947,0.4878924,-0.02620856,5.45999987795949,8
-30.78943,0.6833333,-29.94429,-0.3185143752579513,0.7938144113376234,-0.2101381684620697,10.58017,58.59792,0.7709039,0.08368038,0.4867303,-0.03927594,5.47999987751245,8
-30.65209,0.2833333,-29.84568,-0.2710689413514515,0.3298261829257892,-0.1741037256574849,3.471078,58.58195,0.2808605,0.02761253,0.4889544,-0.01268072,5.49999987706542,8
-30.60297,0.4833333,-29.80993,-0.2139016041699442,-0.1545473887380062,-0.1332100038726587,6.941045,58.60762,0.5637197,0.05519143,0.4882773,-0.02534593,5.51999987661839,8
-30.55387,0.6833335,-29.77419,-0.2851702103061342,0.2456707256194973,-0.1829300689668755,10.40942,58.65097,0.8509162,0.08270915,0.4871502,-0.03798069,5.53999987617135,8
-30.35975,0.2833334,-29.6347,-0.1886574397407976,-0.0148106173676266,-0.1135169800739532,3.424137,58.06543,0.2725237,0.02727613,0.4850288,-0.01242098,5.55999987572432,8
-30.31157,0.4833333,-29.59906,-0.087872980819494,-0.2700656829061841,-0.0412587531257315,6.846867,58.09002,0.5471054,0.05451804,0.4843754,-0.02482442,5.57999987527728,8
-30.2634,0.6833333,-29.56343,-0.136980069228084,0.1458334344185451,-0.0750436633161371,10.26845,58.13148,0.8255427,0.08170305,0.4832876,-0.03720229,5.59999987483025,8
-30.0535,0.2833333,-29.41246,-0.0952957815797894,-0.0989665363099521,-0.0421870954351533,3.379446,56.42694,0.1726845,0.02669576,0.4725127,-0.01261284,5.61999987438321,8
-30.00605,0.4833333,-29.37735,-0.1926807036183895,0.1416520703489688,-0.1082393973428104,6.757508,56.44231,0.346534,0.05335768,0.471895,-0.02520943,5.63999987393618,8
-29.9586,0.6833335,-29.34224,-0.2890350944313233,0.3885433739241036,-0.1735018129041883,10.13451,56.46821,0.5227858,0.07996526,0.4708665,-0.03778029,5.65999987348914,8
-29.91117,0.8833334,-29.30714,-0.227385418595805,-0.050877445695476,-0.1280919247108265,13.51049,56.50511,0.7027671,0.1064961,0.4694284,-0.05031471,5.67999987304211,8
-29.7338,0.2833333,-29.18021,-0.1617081317159794,-0.511729504893617,-0.0806967489337679,3.32805,54.7357,0.07407103,0.02608545,0.4594909,-0.0127753,5.69999987259507,8
-29.68714,0.4833333,-29.14563,-0.2352337712897174,-0.0890347627006536,-0.1321884893164515,6.654753,54.7422,0.1486467,0.05213853,0.4589096,-0.02553443,5.71999987214804,8
-29.52655,0.2833336,-29.03072,-0.1342002954901602,-0.3280853757470345,-0.0609942903016502,3.284526,53.50685,359.9726,0.02548343,0.449973,-0.01311444,5.739999871701,8
-29.4802,0.4833333,-28.99703,-0.0324778067849287,-0.5629545970204539,0.0091940056262167,6.568153,53.50448,359.945,0.05093897,0.4494187,-0.02621451,5.75999987125397,8
-29.43386,0.6833333,-28.96335,-0.0956288843422576,-0.1277150803139121,-0.0384425555293255,9.850487,53.50045,359.9168,0.07634159,0.4484956,-0.03929013,5.77999987080693,8
-29.38753,0.8833338,-28.92968,-0.1580791968329826,0.2860936584501027,-0.0864564664638116,13.13181,53.49472,359.888,0.1016738,0.447205,-0.05232943,5.7999998703599,8
-29.21836,0.2833331,-28.8083,-0.0822406988795236,-0.2265060897801086,-0.0385891831209335,3.238796,51.44742,359.8876,0.0250339,0.4338833,-0.01314895,5.81999986991286,8
-29.17296,0.4833331,-28.77461,-0.0959314436825593,-0.0402485150811416,-0.0544576059618222,6.476591,51.43784,359.7745,0.05004013,0.433363,-0.02628343,5.83999986946583,8
-29.12757,0.6833332,-28.74093,-0.104592829862554,0.1522814157300819,-0.067466577329835,9.713388,51.42171,359.66,0.07499881,0.4324966,-0.0393931,5.85999986901879,8
-28.94347,0.2833333,-28.60813,0.0475537646242401,-0.3415003709468592,0.0328424896932553,3.19458,48.90524,359.7904,0.02461741,0.4138255,-0.01320236,5.87999986857176,8
-28.89907,0.4833333,-28.57424,0.0436282902253708,-0.136425048045563,0.02201245956795,6.38818,48.88763,359.5797,0.04920851,0.4133412,-0.02639027,5.89999986812472,8
-28.72743,0.2833333,-28.45057,0.1689473670578358,-0.3519541410470626,0.103724224099551,3.547924,49.8952,359.7763,0.02724505,0.4216411,-0.01482624,5.91999986767769,8
-28.67751,0.4833333,-28.41364,0.288531345787181,-0.5622555412878577,0.182019263450595,7.094848,49.87429,359.5509,0.05445662,0.4210325,-0.02963428,5.93999986723065,8
-28.62761,0.6833333,-28.37672,0.2297383772209293,-0.1014034996003493,0.1338201579738154,10.64172,49.83899,359.322,0.08161618,0.4200191,-0.04441435,5.95999986678362,8
-28.57773,0.8833334,-28.33982,0.1672773405565735,0.3390631355878375,0.0838881619532614,14.18899,49.78859,359.0877,0.1087016,0.4186013,-0.05915389,5.97999986633658,8
-28.39795,0.2833332,-28.21228,0.2480686817664548,-0.1458332375332599,0.1375855712507707,3.577312,51.64144,359.836,0.02747357,0.4353842,-0.01488252,5.99999986588955,8
-28.34723,0.4833331,-28.17579,0.2238156452832775,0.0691733120531949,0.1176806078140089,7.153757,51.62595,359.6704,0.05491252,0.4347465,-0.02974987,6.01999986544251,8
-28.29651,0.6833332,-28.13931,0.1995922200640763,0.2914975928540531,0.0990255986404662,10.72911,51.5998,359.5022,0.08228999,0.4336848,-0.04458392,6.03999986499548,8
-28.10023,0.2833334,-27.99908,0.3414974727312376,-0.1714454537695368,0.1995808947791886,3.589786,53.14391,359.9357,0.02776233,0.4471176,-0.01451255,6.05999986454844,8
-28.04944,0.4833329,-27.96241,0.3118228830114162,0.0655144105535536,0.1787049536915823,7.17872,53.13784,359.8709,0.05549111,0.4464594,-0.02900695,6.07999986410141,8
-27.99866,0.683333,-27.92575,0.2774626309278645,0.3097922333808005,0.1550816640274561,10.76653,53.12758,359.8051,0.08315672,0.4453636,-0.0434687,6.09999986365438,8
-27.86926,0.2833333,-27.83194,0.421972324500576,-0.1311970305976549,0.2595724443743137,3.589719,54.05025,0.06296577,0.02815059,0.4541429,-0.01374247,6.11999986320734,8
-27.81921,0.4833332,-27.79427,0.3683622157254511,0.1277166312676754,0.2234227450170642,7.178438,54.05627,0.1269958,0.05626807,0.4534746,-0.02746313,6.13999986276031,8
-27.76917,0.6833332,-27.75661,0.3013651846924716,0.3939481342026698,0.1782389095089342,10.76611,54.06642,0.1920151,0.08432222,0.4523617,-0.04115302,6.15999986231327,8
-27.58169,0.2833332,-27.62262,0.2323480800276449,0.6152268010249893,0.1320054727379869,3.568228,54.87991,0.08809508,0.027985,0.460574,-0.013665,6.17999986186624,8
-27.53165,0.4833331,-27.58555,0.3120224345298439,-0.114470367131107,0.19041909653291,7.135263,54.88818,0.1766504,0.0559328,0.459904,-0.02731375,6.1999998614192,8
-27.48162,0.6833333,-27.54849,0.2391808160245929,0.0691732410523716,0.1409334561228163,10.70124,54.90213,0.2665682,0.08381821,0.4587884,-0.04093207,6.21999986097217,8
-27.27622,0.2833334,-27.40136,0.1648533114378843,0.2601347323833038,0.09024700447398,3.646644,55.53504,0.1129218,0.0286125,0.4656213,-0.01395183,6.23999986052513,8
-27.22486,0.4833331,-27.36372,0.1197770051532991,0.24602109735019,0.0608309448715509,7.292282,55.5459,0.2267222,0.05718818,0.4649135,-0.02788582,6.2599998600781,8
-27.17351,0.6833332,-27.32609,0.0614077329161055,0.2669288396633701,0.0227303955081055,10.93681,55.56424,0.3423612,0.08569749,0.4637353,-0.04178742,6.27999985963106,8
-27.12219,0.8833331,-27.28848,0.0015981283776547,0.2695418152164378,-0.0156181863049269,14.58097,55.5904,0.4607342,0.114117,0.4620875,-0.05564651,6.29999985918403,8
-26.95142,0.2833331,-27.16739,0.1243807334370075,-0.4397707015754837,0.0777954113547139,3.61852,56.39754,0.1337373,0.02837628,0.4722635,-0.01389086,6.31999985873699,8
-26.90012,0.4833332,-27.13051,0.1001866929760346,-0.2367874616902691,0.0679561432817621,7.235898,56.4103,0.2685212,0.05671552,0.4715564,-0.02776344,6.33999985828996,8
-26.84884,0.6833332,-27.09364,0.0733861033642391,-0.0275316411036845,0.0570055337200372,10.85221,56.43183,0.4054096,0.08499001,0.4703792,-0.04160469,6.35999985784292,8
-26.66126,0.2833336,-26.96025,0.0562843395817864,0.1357255585541197,0.0535278785069586,3.559243,58.22514,0.2278596,0.02809883,0.4862376,-0.01337279,6.37999985739589,8
-26.61057,0.4833339,-26.92417,0.0403370579114756,0.0672513278458671,0.0489158914770015,7.117377,58.24652,0.4574291,0.05616217,0.4855313,-0.02672863,6.39999985694885,8
-26.43892,0.2833333,-26.80156,0.0271864333655997,0.0337983494701921,0.0451817446977855,3.515002,58.61297,0.2669672,0.02788387,0.4891872,-0.01298144,6.41999985650182,8
-26.38901,0.4833336,-26.76565,-0.1239976861458096,0.4622427439769114,-0.0572316038055831,7.028842,58.6377,0.5358786,0.05573277,0.4884931,-0.02594655,6.43999985605478,8
-26.3391,0.6833333,-26.72975,-0.1145857646284334,0.2341690755254931,-0.0478239597610894,10.54094,58.67939,0.8087794,0.0835165,0.4873376,-0.03888122,6.45999985560775,8
-26.28921,0.8833334,-26.69385,-0.1090771547985021,0.0155043056117196,-0.0429059025528282,14.05173,58.73887,1.087864,0.1112127,0.4857224,-0.05177547,6.47999985516071,8
-26.11144,0.2833333,-26.56637,-0.0963935065932091,-0.2481131853324113,-0.0345858865929109,3.453376,58.51733,0.2915413,0.0275305,0.4884629,-0.0125084,6.49999985471368,8
-26.06272,0.4833336,-26.53056,-0.0476234412376435,-0.2909748840031739,-9.742357339348472e-05,6.905181,58.54387,0.5853589,0.05502518,0.4877931,-0.02499794,6.51999985426664,8
-26.01402,0.6833335,-26.49477,-0.0089372265486282,-0.2998606052582918,0.0270388126336342,10.35585,58.58863,0.883435,0.08246205,0.486678,-0.03746106,6.53999985381961,8
-25.81996,0.2833333,-26.35576,0.0307464582460248,-0.3280866378193583,0.0548623803770986,3.404753,57.35991,0.2226707,0.02699508,0.4796532,-0.01255317,6.55999985337257,8
-25.77203,0.4833335,-26.32045,-0.0922425109265248,0.291319057230802,-0.0331578552934459,6.808033,57.37988,0.4468686,0.05395515,0.4790157,-0.02508969,6.57999985292554,8
-25.72412,0.6833335,-26.28515,-0.0758090173549774,0.0141118001625142,-0.0209440583087356,10.21027,57.41353,0.674226,0.08086008,0.4779542,-0.03760042,6.5999998524785,8
-25.51469,0.2833333,-26.13461,-0.0632696532784784,-0.2536871929325515,-0.0100672547571853,3.354189,55.6464,0.1305277,0.0264146,0.466515,-0.01265309,6.61999985203147,8
-25.46767,0.4833336,-26.0997,-0.1379414029653247,0.1538488275714451,-0.0612893139727859,6.706947,55.65794,0.2620019,0.05279583,0.4659149,-0.02528922,6.63999985158443,8
-25.42066,0.6833336,-26.06481,-0.0480927349059143,-0.0951329679914847,0.0025421082913794,10.05875,55.67738,0.3952571,0.07912455,0.4649157,-0.03790025,6.6599998511374,8
-25.37366,0.8833337,-26.02992,0.0427404575871364,-0.3347060578079653,0.065700059425346,13.40951,55.70505,0.5312666,0.1053777,0.4635186,-0.05047514,6.67999985069036,8
-25.19612,0.2833333,-25.90348,-0.0190068596270727,0.1010561999833993,0.0204903412854946,3.30333,53.91544,0.01018184,0.0257314,0.4531423,-0.01298725,6.69999985024333,8
-25.14965,0.4833333,-25.8694,0.0982961021962118,-0.1196993439177633,0.1013742536312065,6.605683,53.91634,0.02042295,0.05143378,0.4525777,-0.02595991,6.7199998497963,8
-25.10319,0.6833333,-25.83533,0.211194164178579,-0.3310464072714091,0.1778730069788068,9.906716,53.91781,0.03066677,0.07708271,0.4516376,-0.03890686,6.73999984934926,8
-24.91059,0.2833333,-25.69748,0.1446348205571936,0.1329420648082845,0.1259482661099085,3.2534,52.06682,359.91,0.02516253,0.4387382,-0.01316477,6.75999984890223,8
-24.86486,0.4833331,-25.66382,0.0734946431509193,0.5807270910393909,0.0699076815161987,6.505868,52.05912,359.8194,0.0502976,0.4382075,-0.02631522,6.77999984845519,8
-24.81914,0.683333,-25.63018,0.1447793486150637,0.1073306314976602,0.1129298947555135,9.757332,52.04614,359.7277,0.07538459,0.4373239,-0.03944031,6.79999984800816,8
-24.61209,0.2833329,-25.48077,0.2159842195329631,-0.3822693764300464,0.1544785751855819,3.205732,49.36036,359.8038,0.02470186,0.4174323,-0.01323471,6.81999984756112,8
-24.56742,0.4833326,-25.44694,0.1549094151553625,0.0169042058620916,0.1023714014016796,6.410454,49.34381,359.6064,0.04937674,0.4169406,-0.02645521,6.83999984711409,8
-24.52277,0.6833326,-25.41312,0.2540084277648127,-0.240440948048533,0.1637035423857007,9.614129,49.31596,359.4066,0.07400552,0.416122,-0.03965069,6.85999984666705,8
-24.47813,0.8833321,-25.3793,0.3502408626835382,-0.4883771691843037,0.2228135927919332,12.81658,49.27643,359.2035,0.09856911,0.4149775,-0.05280752,6.87999984622002,8
-24.29699,0.2833333,-25.25008,0.2913958587893717,-0.0609783214884723,0.1721517605698785,3.451634,49.89596,359.7977,0.02656215,0.4216515,-0.01430297,6.89999984577298,8
-24.2486,0.4833333,-25.21396,0.3182961718898944,-0.290098381268555,0.1835868658165473,6.902294,49.87758,359.594,0.05309284,0.4210759,-0.0285893,6.91999984532595,8
-24.20023,0.6833333,-25.17785,0.2015319800011994,-0.02961711337678,0.0936054567072268,10.35228,49.84654,359.3871,0.07957019,0.4201173,-0.04284839,6.93999984487891,8
-24.00365,0.2833333,-25.03814,0.0818125247298944,0.2413178280889238,0.0025298856950328,3.54915,51.67958,359.842,0.02727033,0.4356852,-0.01473754,6.95999984443188,8
-23.95334,0.4833335,-25.0019,0.1157475297913777,-0.1698773791376566,0.0224337862973058,7.097994,51.66475,359.6823,0.05451041,0.4350569,-0.0294637,6.97999984398484,8
-23.90305,0.6833336,-24.96568,0.1496771858337062,-0.5983220659238428,0.0443822667054014,10.64577,51.63974,359.5202,0.08169056,0.434011,-0.04415702,6.99999984353781,8
-23.68993,0.2833333,-24.81356,0.0417374380913138,-0.1390386186987929,-0.0332603055629689,3.581736,53.17874,359.937,0.02770045,0.4473899,-0.01447895,7.01999984309077,8
-23.63924,0.4833333,-24.77699,0.1048202503163118,-0.3373185158826319,0.0113796897674944,7.162709,53.17281,359.8737,0.05536812,0.4467342,-0.02894038,7.03999984264374,8
-23.58856,0.6833332,-24.74042,0.1656653169351685,-0.527234944253693,0.0553948168633446,10.74265,53.16278,359.8093,0.08297384,0.4456425,-0.04336944,7.0599998421967,8
-23.5379,0.8833331,-24.70386,0.0617798295035392,-0.0428612496669988,-0.0166536483863986,14.32156,53.14848,359.7434,0.1104907,0.4441163,-0.05775206,7.07999984174967,8
-23.35933,0.2833336,-24.57538,-0.0395394006559328,0.4242628123816291,-0.0860891613433842,3.572894,54.30313,0.06707179,0.02800597,0.4561078,-0.01370572,7.09999984130263,8
-23.30939,0.4833333,-24.53805,0.003074823553316,-0.0308395883174077,-0.0531763939142742,7.144786,54.30949,0.1351449,0.05597886,0.4554428,-0.02739048,7.1199998408556,8
-23.25947,0.6833332,-24.50072,-0.1394814151976291,0.2170969318058841,-0.1513098388742833,10.71562,54.32024,0.2042919,0.08388922,0.4543355,-0.04104445,7.13999984040856,8
-23.06311,0.2833333,-24.36048,-0.2825177501961313,0.4754874064572863,-0.2491400449769685,3.596504,55.17417,0.09397407,0.02819216,0.4628453,-0.0138056,7.15999983996153,8
-23.01252,0.4833333,-24.32329,-0.2667613344222701,0.0517472956959961,-0.2350362321892376,7.191956,55.18308,0.1886581,0.05634834,0.4621612,-0.02759365,7.17999983951449,8
-22.96195,0.6833332,-24.28612,-0.2468713639203841,-0.3892423034237732,-0.2180788309414119,10.78662,55.19809,0.2846148,0.08444214,0.461022,-0.04135326,7.19999983906746,8
-22.74813,0.2833333,-24.13324,-0.3674101338550706,0.0574964643329708,-0.2995974296727084,3.642369,55.71392,0.1114869,0.02855188,0.4670022,-0.01399012,7.21999983862042,8
-22.6967,0.4833333,-24.09582,-0.3128203530951801,-0.1533285833639041,-0.2557880830022263,7.283682,55.72463,0.2238224,0.05706662,0.4662941,-0.0279623,7.23999983817339,8
-22.64529,0.6833335,-24.05842,-0.2563541642975231,-0.3557904455543538,-0.209618886731647,10.92389,55.74271,0.3379899,0.08551534,0.4651151,-0.04190191,7.25999983772635,8
-22.5939,0.8833336,-24.02103,-0.3609675887674761,0.1160375313838867,-0.2768903381278349,14.56347,55.76849,0.4548355,0.1138727,0.4634666,-0.05579805,7.27999983727932,8
-22.41462,0.2833335,-23.89397,-0.4581441604121572,0.5706166169803932,-0.3381150108707516,3.604149,57.00282,0.1605344,0.02830388,0.4769052,-0.01377532,7.29999983683228,8
-22.36341,0.4833337,-23.85738,-0.4041972725133256,0.1029695418658726,-0.2916341253380423,7.207205,57.01808,0.322313,0.05657143,0.4761964,-0.02753283,7.31999983638525,8
-22.31221,0.6833338,-23.8208,-0.5297194378381214,0.3383614516050972,-0.3724482129469812,10.80916,57.04382,0.4866223,0.0847747,0.4750164,-0.04125923,7.33999983593822,8
-22.11636,0.2833333,-23.68159,-0.6495522766340862,0.5842077687967094,-0.4491064350166702,3.543627,58.46205,0.241313,0.02800955,0.4880409,-0.01326193,7.35999983549118,8
-22.06587,0.4833335,-23.64567,-0.5963781390545186,0.1479237837077482,-0.4054160038370114,7.086115,58.48458,0.4844261,0.05598378,0.4873378,-0.02650697,7.37999983504415,8
-22.0154,0.6833336,-23.60975,-0.5266921020853239,-0.3056088021858303,-0.3513228803756369,10.62745,58.5226,0.7312044,0.08389603,0.4861673,-0.03972299,7.39999983459711,8
-21.88628,0.2833332,-23.51751,-0.5924207709114775,0.1285853125863525,-0.393071530488946,3.48951,58.71123,0.2735144,0.02770692,0.4899367,-0.01284654,7.41999983415008,8
-21.83674,0.4833331,-23.48181,-0.4757146341752261,-0.0947840276896718,-0.307885569312063,6.977889,58.73637,0.5490032,0.05537972,0.4892513,-0.02567712,7.43999983370304,8
-21.78721,0.683333,-23.44612,-0.3500370249603257,-0.3097902883942482,-0.2186309560008226,10.46473,58.7788,0.8286938,0.08299074,0.4881103,-0.03847743,7.45999983325601,8
-21.60105,0.2833331,-23.31274,-0.3818366127199972,0.1494936243000085,-0.2415550574266127,3.436925,58.44887,0.2910739,0.02741075,0.4879442,-0.01242543,7.47999983280897,8
-21.55262,0.483333,-23.27703,-0.4045611103565605,0.5915281411546488,-0.2586483098219396,6.872349,58.47524,0.5844384,0.0547867,0.4872815,-0.02483221,7.49999983236194,8
-21.50419,0.6833329,-23.24133,-0.2791967933670598,0.1113360723387278,-0.1703723840670399,10.30662,58.5197,0.8819942,0.08210532,0.4861781,-0.03721299,7.5199998319149,8
-21.30205,0.2833333,-23.09675,-0.3345830901209261,0.3341831349083163,-0.21034779077549,3.392866,56.9285,0.1909026,0.02681895,0.4763574,-0.01264565,7.53999983146787,8
-21.25427,0.4833334,-23.06165,-0.3871899267597563,0.5674842835535547,-0.2479921141071024,6.784329,56.94555,0.3830316,0.05360335,0.4757294,-0.02527543,7.55999983102083,8
-21.2065,0.6833333,-23.02657,-0.2817449388953186,0.1186546997316305,-0.1725269323886138,10.17477,56.97429,0.5778374,0.08033325,0.4746836,-0.03787946,7.5799998305738,8
-21.15874,0.8833332,-22.9915,-0.171575294840359,-0.347424025459465,-0.0923477489591135,13.56413,57.01523,0.7767512,0.1069849,0.4732215,-0.05044683,7.59999983012676,8
-20.98918,0.2833334,-22.8705,-0.1992167084450464,0.0742248843511964,-0.1100355352492599,3.340571,55.27312,0.1065046,0.02625324,0.4636402,-0.01269752,7.61999982967973,8
-20.94234,0.4833333,-22.83577,-0.0508574895761775,-0.1616894612999834,-0.0043783376823256,6.679794,55.28251,0.2138133,0.05247413,0.4630489,-0.02537826,7.63999982923269,8
-20.89552,0.6833335,-22.80105,0.0994435452064834,-0.3892405011353681,0.1012943929483327,10.01798,55.29831,0.3225688,0.07864251,0.4620644,-0.03803356,7.65999982878566,8
-20.71014,0.2833336,-22.66921,0.0869441855205614,0.0574985129027627,0.0911469203163299,3.290818,53.53609,359.9787,0.02555307,0.4501987,-0.01309812,7.67999982833862,8
-20.66374,0.4833336,-22.63539,0.0774415223362368,0.4869878253185885,0.0823529150508832,6.5807,53.53425,359.9572,0.05107784,0.449642,-0.02618166,7.69999982789159,8
-20.61736,0.6833335,-22.60158,0.2985294727558454,-0.0057488077090819,0.2358454760811277,9.869281,53.53111,359.9353,0.07654957,0.4487149,-0.03924021,7.71999982744455,8
-20.41719,0.2833332,-22.45811,0.3214436950485506,0.2045531719507078,0.2475256256445561,3.240988,51.49701,359.8896,0.02505315,0.4342724,-0.0131521,7.73999982699752,8
-20.37175,0.4833331,-22.42441,0.3297719958898071,0.4253091581478008,0.2479636266794713,6.48102,51.48761,359.7787,0.05007903,0.4337509,-0.02628969,7.75999982655048,8
-20.32631,0.6833329,-22.39072,0.3338382871377803,0.6042482714999658,0.2445246865170141,9.72007,51.47177,359.6662,0.07505748,0.4328826,-0.03940231,7.77999982610345,8
-20.2809,0.883333,-22.35704,0.4802078364088622,-0.1646516234362471,0.3401963281780418,12.95781,51.44928,359.5519,0.09996693,0.4316687,-0.05247654,7.79999982565641,8
-20.11193,0.2833333,-22.23591,0.4726459785742882,-0.0170745432863357,0.3266750270595864,3.195017,48.95901,359.7912,0.02461731,0.4142522,-0.01320969,7.81999982520938,8
-20.0675,0.4833333,-22.20205,0.4581999331023105,0.1409563776161354,0.3080705635034135,6.38905,48.94146,359.5811,0.04920822,0.4137673,-0.02640509,7.83999982476234,8
-20.02308,0.6833332,-22.1682,0.6014961311170524,-0.3831434956277986,0.4016847842279851,9.582084,48.91191,359.3685,0.07375376,0.4129598,-0.03957599,7.85999982431531,8
-19.83303,0.2833334,-22.03309,0.5655506527805443,-0.2042040062761774,0.3685951681202191,3.530819,50.35111,359.7983,0.02713234,0.4252397,-0.01469767,7.87999982386827,8
-19.78329,0.4833334,-21.99646,0.5160765902962616,-0.0148104407803124,0.3267405220528339,7.060674,50.33235,359.595,0.05423178,0.4246324,-0.02937753,7.89999982342124,8
-19.73357,0.6833333,-21.95984,0.6358007150695109,-0.5075478854824366,0.4067915206814341,10.59075,50.30062,359.3883,0.08128046,0.4236206,-0.04403391,7.91999982297421,8
-19.52886,0.2833333,-21.8146,0.6469072128209561,-0.2972459558281352,0.4111186245274005,3.560971,52.15933,359.8535,0.02734527,0.4394435,-0.01480649,7.93999982252717,8
-19.47822,0.4833331,-21.7785,0.6456244936374453,-0.076489697127264,0.408098005539582,7.121138,52.14555,359.7056,0.05465651,0.4388059,-0.02959866,7.95999982208014,8
-19.42759,0.6833332,-21.74242,0.6432527089293245,0.1024503473375498,0.4058027536216748,10.68022,52.1223,359.5553,0.08190695,0.4377445,-0.04435794,7.9799998216331,8
-19.37697,0.8833333,-21.70634,0.6250461287645912,0.0538388425033923,0.3921879492092905,14.23818,52.08911,359.4016,0.1090702,0.4362606,-0.05907007,7.99999982118607,8
-19.20592,0.2833335,-21.58412,0.5933934735080015,0.0444302861635852,0.3696949316829645,3.594985,53.62136,359.9787,0.0279114,0.4508271,-0.01431356,8.01999982073903,8
-19.1552,0.4833335,-21.54721,0.5597862483246328,0.0209089631786573,0.3464111304991846,7.189248,53.61937,359.9576,0.05579086,0.4501618,-0.02860795,8.039999820292,8
-19.10448,0.6833335,-21.51031,0.5064773747025875,0.0099323602588272,0.3096882671883882,10.78248,53.61602,359.9361,0.08360748,0.4490539,-0.04287013,8.05999981984496,8
-18.91782,0.2833333,-21.37643,0.4341559439531917,0.038158416602989,0.2603694743591589,3.555827,54.54424,0.07902056,0.0278925,0.4579774,-0.01360376,8.07999981939793,8
-18.86809,0.4833333,-21.33932,0.354470325148295,0.0522716294643318,0.2066619507110232,7.110342,54.55168,0.1589734,0.0557493,0.457316,-0.02718674,8.09999981895089,8
-18.81837,0.6833334,-21.30221,0.4519234254014499,-0.6413585640935063,0.2788486105708792,10.66381,54.56424,0.2401625,0.08354442,0.4562148,-0.04073955,8.11999981850386,8
-18.61302,0.2833333,-21.1557,0.3978290648705229,-0.4185120708372755,0.2443656882291982,3.624751,55.46342,0.1025595,0.02841014,0.465074,-0.01392508,8.13999981805682,8
-18.56191,0.4833332,-21.11836,0.3352187609520847,-0.1852112380803672,0.2037483469530947,7.248482,55.47322,0.205909,0.05678392,0.4643757,-0.02783242,8.15999981760979,8
-18.51083,0.6833333,-21.08104,0.2761488630364379,0.0062729219406825,0.1654853320228326,10.87173,55.48973,0.3106374,0.08509613,0.4632126,-0.04171231,8.17999981716275,8
-18.45976,0.8833329,-21.04373,0.0663502353124467,0.7101286724847395,0.0214388687350108,14.49397,55.5133,0.4179121,0.1133157,0.4615867,-0.05554679,8.19999981671572,8
-18.20505,0.2833334,-20.8624,0.0402395384937275,0.4110356496442489,0.0075072786823433,3.629708,56.22689,0.1276922,0.02845816,0.4709511,-0.01394108,8.21999981626868,8
-18.15364,0.4833333,-20.82534,0.0127028227914838,0.1270664449231696,-0.0065769849215442,7.258348,56.23911,0.2563503,0.0568794,0.4702416,-0.02786434,8.23999981582165,8
-18.10225,0.6833332,-20.78829,-0.1885390034020311,0.5241480459525543,-0.143743581603708,10.88592,56.25973,0.3870629,0.08523547,0.4690606,-0.04175571,8.25999981537461,8
-18.05087,0.883333,-20.75126,-0.2388372329987103,0.2704264245899282,-0.1734320752886518,14.51253,56.28914,0.5207772,0.1134982,0.4674092,-0.05560315,8.27999981492758,8
-17.87184,0.2833333,-20.62464,-0.2933118704589095,0.0318288101304985,-0.2050808451013033,3.574799,58.0,0.2093088,0.02816527,0.4845231,-0.01352487,8.29999981448054,8
-17.82088,0.4833333,-20.58849,-0.3393793134013805,-0.2460065088156609,-0.2300217358262664,7.148474,58.01971,0.4201833,0.05629454,0.4838136,-0.02703256,8.31999981403351,8
-17.76994,0.6833333,-20.55236,-0.341666698602177,-0.2973711907406812,-0.2247104821521333,10.72101,58.05299,0.6343071,0.08436061,0.4826324,-0.04051006,8.33999981358647,8
-17.57449,0.2833333,-20.41343,-0.341275174793882,-0.3090450093827983,-0.219074489003102,3.512638,58.76223,0.2646724,0.02783914,0.4903232,-0.01302507,8.35999981313944,8
-17.52449,0.4833333,-20.3777,-0.3260126198444908,-0.334343812213073,-0.2047052899447621,7.024165,58.78673,0.5312853,0.05564386,0.4896284,-0.02603387,8.3799998126924,8
-17.47451,0.6833335,-20.34198,-0.4585035552607834,0.2937039892877951,-0.2947487790383931,10.53411,58.82805,0.8019204,0.08338502,0.4884718,-0.03901226,8.39999981224537,8
-17.26327,0.2833333,-20.19105,-0.4480397238646798,0.0308521578149987,-0.2867615957761806,3.453122,58.64132,0.2904783,0.02751048,0.4894064,-0.01254517,8.41999981179833,8
-17.21447,0.4833334,-20.15536,-0.4286066937586454,-0.2168759204409808,-0.2742812277219961,6.904701,58.66776,0.5832735,0.05498558,0.4887355,-0.0250712,8.4399998113513,8
-17.16568,0.6833335,-20.11969,-0.5749720526743864,0.2164462891395195,-0.3796569484020935,10.35511,58.71235,0.8802693,0.08240253,0.4876184,-0.03757092,8.45999981090426,8
-17.11691,0.8833336,-20.08402,-0.565882997603909,-0.0010340297805029,-0.3744335789382305,13.80426,58.7759,1.183817,0.1097365,0.4860566,-0.0500326,8.47999981045723,8
-16.93886,0.2833333,-19.9573,-0.5548317759541881,-0.2033909274016736,-0.3671103361432699,3.404406,57.50567,0.2228222,0.02697707,0.4807683,-0.01258489,8.49999981001019,8
-16.89085,0.4833332,-19.92211,-0.5307214554835209,-0.4449857698669646,-0.3497317301291005,6.807417,57.52565,0.4471748,0.05391977,0.4801294,-0.02515339,8.51999980956316,8
-16.84286,0.6833333,-19.88693,-0.6270482648720304,0.1802041092486943,-0.4177462247513368,10.20931,57.55932,0.67465,0.08080666,0.4790657,-0.03769602,8.53999980911613,8
-16.64938,0.2833335,-19.7487,-0.5067819377316543,-0.085505057175498,-0.3320080775331426,3.35409,55.77325,0.1302842,0.02639881,0.4674934,-0.0126838,8.55999980866909,8
-16.60227,0.4833334,-19.71391,-0.3821340234135295,-0.336090603759884,-0.2425103713388914,6.706811,55.78477,0.2615193,0.05276479,0.4668921,-0.0253508,8.57999980822206,8
-16.55519,0.6833335,-19.67912,-0.4048007533857198,0.0943743498848599,-0.2576090668403523,10.05852,55.80418,0.3945453,0.07907793,0.4658909,-0.03799233,8.59999980777502,8
-16.34617,0.2833332,-19.52993,-0.2429819039301364,-0.1259636795504297,-0.1433436683733333,3.30361,54.03114,0.0100232,0.02571981,0.4540416,-0.01301556,8.61999980732799,8
-16.29963,0.4833332,-19.49594,-0.0800045998009864,-0.3311781841040674,-0.0296616091926722,6.606238,54.03201,0.02012774,0.05141069,0.4534757,-0.02601631,8.63999980688095,8
-16.25309,0.6833333,-19.46196,-0.0910815385591323,0.1446577038069808,-0.039797050887504,9.90752,54.03346,0.03021226,0.07704784,0.4525336,-0.03899134,8.65999980643392,8
-16.20658,0.8833333,-19.42798,-0.1010015559129673,0.610004908465337,-0.0497357462494996,13.20787,54.03553,0.04047619,0.1026137,0.4512164,-0.05193051,8.67999980598688,8
-16.16007,0.9766706,-19.39402,0.0380501082940263,0.159885601293989,0.0438143820746219,16.50727,54.03824,0.05103184,0.1280873,0.4495254,-0.06482286,8.69999980553985,8
-15.94986,0.2833333,-19.24461,0.1833375178877077,-0.3007222424240574,0.1406682353721109,3.248733,51.52494,359.8784,0.02506833,0.4344935,-0.01327554,8.71999980509281,8
-15.90417,0.4833334,-19.211,0.1016747482805922,0.1331577401350102,0.0759487452537861,6.496481,51.51455,359.7562,0.05010907,0.4339691,-0.02653633,8.73999980464578,8
-15.8585,0.6833335,-19.17741,0.174650902457742,-0.0837648089426783,0.1195565105660207,9.743247,51.49706,359.6323,0.07510215,0.433096,-0.03977191,8.75999980419874,8
-15.6743,0.2833333,-19.04521,0.2390198488751949,-0.2855638213778425,0.1562931123184334,3.197417,49.00174,359.788,0.02461991,0.4145919,-0.01325285,8.77999980375171,8
-15.62978,0.4833334,-19.0114,0.3057991208160935,-0.5266002908858229,0.1941269425122662,6.393833,48.98391,359.5747,0.04921321,0.4141058,-0.02649137,8.79999980330467,8
-15.58527,0.6833335,-18.9776,0.4051581706769713,-0.5411660776359374,0.2557823158372159,9.589222,48.95389,359.3589,0.07376099,0.4132964,-0.03970502,8.81999980285764,8
-15.38039,0.2833336,-18.83149,0.4900805750523549,-0.5160410636535658,0.3080004077183567,3.53143,50.3892,359.7973,0.02712875,0.4255406,-0.01471645,8.8399998024106,8
-15.3306,0.4833337,-18.79489,0.5719494038610122,-0.5045413119386573,0.359029118186509,7.061898,50.37035,359.5931,0.05422451,0.4249326,-0.02941524,8.85999980196357,8
-15.28083,0.6833338,-18.75831,0.4886308950351345,0.1603053492802659,0.2936965207063053,10.59257,50.33846,359.3853,0.08126941,0.4239196,-0.04409035,8.87999980151653,8
-15.23109,0.8833337,-18.72175,0.4060739157847131,0.674175628945112,0.2298888902521128,14.12357,50.29293,359.1727,0.1082405,0.4225026,-0.05872545,8.8999998010695,8
-15.05937,0.2833333,-18.60105,0.5061004517982539,0.1610179197366036,0.2972444623793357,3.561009,52.19448,359.8532,0.02733986,0.4397189,-0.0148174,8.91999980062246,8
-15.0087,0.4833333,-18.56499,0.4128980794123826,0.3581472907302868,0.2287773309693221,7.121186,52.18067,359.705,0.05464541,0.4390809,-0.02962051,8.93999980017543,8
-14.95805,0.6833332,-18.52894,0.3108688497233398,0.5729786006127324,0.1552069739441144,10.68032,52.15737,359.5544,0.08189057,0.4380188,-0.04439086,8.95999979972839,8
-14.77018,0.2833335,-18.39504,0.357705183676364,0.1129279999370429,0.187290913470548,3.595271,53.67557,359.9789,0.02790756,0.451249,-0.01432647,8.97999979928136,8
-14.71942,0.4833334,-18.35817,0.3994535288779079,-0.3571237892837309,0.2167470907164208,7.189834,53.6736,359.9579,0.0557833,0.4505829,-0.02863379,8.99999979883432,8
-14.66867,0.6833333,-18.32131,0.2927841906055679,0.0678009665692669,0.1426034826200499,10.78335,53.67028,359.9366,0.08359604,0.4494739,-0.0429089,9.01999979838729,8
-14.61794,0.8833332,-18.28446,0.3515791280289662,-0.1575890498436859,0.186547739568077,14.37585,53.66552,359.9148,0.1113188,0.4479233,-0.05713769,9.03999979794025,8
-14.38153,0.2833333,-18.11578,0.4026687946648497,-0.3673676763305665,0.2261615734905753,3.565357,54.88086,0.08374292,0.02794517,0.4605828,-0.01368739,9.05999979749322,8
-14.33149,0.4833333,-18.07879,0.2836038276039563,0.1043917023120428,0.146277335325097,7.129477,54.88875,0.1683327,0.05585455,0.459914,-0.02735509,9.07999979704618,8
-14.28147,0.6833332,-18.04182,0.1621619794567994,0.5661499970377752,0.0653387131417257,10.69257,54.90207,0.2542631,0.08370213,0.4588004,-0.04099217,9.09999979659915,8
-14.06772,0.2833333,-17.88947,0.181153088237032,0.1129297250392753,0.0823241836724868,3.636788,55.65632,0.1075697,0.0284999,0.4665597,-0.01398325,9.11999979615211,8
-14.01637,0.4833333,-17.85212,0.0103673138401401,0.369996842945948,-0.0348217312973062,7.27253,55.66663,0.2159685,0.05696295,0.4658544,-0.02794855,9.13999979570508,8
-13.96503,0.6833332,-17.81478,-0.1653100253103616,0.6447664116442589,-0.1550376260732289,10.90784,55.68401,0.3259082,0.08536457,0.4646799,-0.04188579,9.15999979525805,8
-13.91372,0.8833333,-17.77744,-0.3343777191513588,0.8849675399911001,-0.2701799761918693,14.54206,55.70884,0.438549,0.1136721,0.4630378,-0.05577676,9.17999979481101,8
-13.73391,0.2833332,-17.65037,-0.3024132265329005,0.1845776682804352,-0.2426245737697172,3.628466,56.29119,0.1220633,0.02841762,0.4714472,-0.01399522,9.19999979436398,8
-13.68242,0.4833331,-17.61346,-0.2638498127784565,-0.4244248869651849,-0.209324307364163,7.255865,56.30286,0.2450637,0.05679845,0.4707376,-0.02797245,9.21999979391694,8
-13.63095,0.683333,-17.57657,-0.4026797017732697,-0.0393304356578066,-0.3001003245925346,10.88215,56.32257,0.3699946,0.08511377,0.4695562,-0.04191773,9.23999979346991,8
-13.43477,0.2833334,-17.4379,-0.3736931840893227,-0.305039089830654,-0.2714001188208161,3.574779,58.0506,0.2073583,0.02815089,0.4849096,-0.0135521,9.25999979302287,8
-13.38377,0.4833332,-17.40183,-0.3413567865405049,-0.5556241291293968,-0.2390943169646178,7.148481,58.07014,0.4162954,0.05626626,0.4841996,-0.02708697,9.27999979257584,8
-13.33278,0.6833332,-17.36577,-0.4594718845390915,-0.1251585797746714,-0.3129230995662251,10.72101,58.10311,0.6284565,0.08431827,0.4830176,-0.04059143,9.2999997921288,8
-13.12025,0.2833333,-17.21509,-0.3891402192170439,-0.3454963780870316,-0.2552874531450548,3.512664,58.82572,0.2643346,0.02783067,0.4908057,-0.01304317,9.31999979168177,8
-13.07021,0.4833333,-17.17941,-0.3132076778405288,-0.5507106703351385,-0.1956100843747119,7.024206,58.85019,0.5305979,0.0556268,0.4901103,-0.02607007,9.33999979123473,8
-13.02018,0.6833332,-17.14375,-0.4119398731860659,-0.0748747233583733,-0.2602362715695285,10.53424,58.89148,0.8009205,0.08336014,0.4889526,-0.03906653,9.3599997907877,8
-12.97017,0.8833331,-17.1081,-0.509036497031575,0.3904719186946788,-0.324773468160771,14.04297,58.95034,1.077382,0.1110064,0.4873341,-0.05202232,9.37999979034066,8
-12.92017,0.9766703,-17.07246,-0.4550656430877104,-0.0596476831954271,-0.2850589785914579,17.55038,59.02797,1.362386,0.1385403,0.4852566,-0.06492529,9.39999978989363,8
-12.70988,0.2833332,-16.92263,-0.3937656223537846,-0.5202560632092694,-0.2418090661445866,3.448531,58.64403,0.2927929,0.02748515,0.4894271,-0.01250861,9.41999978944659,8
-12.66117,0.483333,-16.88695,-0.4601962236218924,-0.0863755944470121,-0.2879957991831947,6.89553,58.67066,0.5879455,0.05493525,0.4887579,-0.02499795,9.43999978899956,8
-12.61247,0.6833327,-16.85129,-0.514543207698555,0.3370158139305654,-0.3256519269464419,10.34136,58.71555,0.8873439,0.08232746,0.4876436,-0.03746094,9.45999978855252,8
-12.42638,0.2833332,-16.71914,-0.3639282621557669,-0.1550588673497883,-0.2102864338697152,3.396322,57.09368,0.1909491,0.02682736,0.4776231,-0.01269835,9.47999978810549,8
-12.37845,0.4833332,-16.68415,-0.3667812233693581,0.0626652661352481,-0.2038203409013501,6.791179,57.11075,0.3831086,0.05361959,0.4769921,-0.02538062,9.49999978765845,8
-12.33053,0.6833331,-16.64918,-0.365943213274253,0.2976039273471971,-0.1951408255538478,10.18499,57.13953,0.5779467,0.08035698,0.4759415,-0.03803694,9.51999978721142,8
-12.12912,0.2833334,-16.50545,-0.1863575096168972,-0.1428274903868124,-0.0612298562314492,3.341884,55.41843,0.1062535,0.02624624,0.4647627,-0.01273807,9.53999978676438,8
-12.08217,0.4833334,-16.47083,-0.0012538518984168,-0.5937478628318764,0.0758879197613495,6.682369,55.42779,0.2133133,0.05245975,0.4641694,-0.02545906,9.55999978631735,8
-12.03524,0.6833334,-16.43622,-0.0218941451710499,-0.150180027337732,0.0661476695247635,10.02188,55.44356,0.3218171,0.07862119,0.4631817,-0.03815478,9.57999978587031,8
-11.98832,0.8833333,-16.40162,-0.0386238236898144,0.2828987600553141,0.0575760580064166,13.3604,55.46601,0.4325445,0.1047084,0.4618008,-0.05081449,9.59999978542328,8
-11.81847,0.2833333,-16.28183,0.0843052486647568,-0.1994882102916112,0.1445129343534752,3.291005,53.68414,359.9788,0.02553804,0.4513513,-0.01313096,9.61999978497624,8
-11.77198,0.4833333,-16.24813,0.0226978361786702,0.0279236336041495,0.099248854846369,6.581045,53.6823,359.9575,0.0510475,0.4507931,-0.0262473,9.63999978452921,8
-11.72551,0.6833334,-16.21444,-0.0399675905145038,0.2725499123594874,0.0516986446317382,9.869752,53.67918,359.9356,0.07650372,0.4498636,-0.03933844,9.65999978408217,8
-11.67905,0.8833333,-16.18075,0.0413043443842688,-0.1581938734567315,0.0994667620382419,13.15754,53.67474,359.9134,0.1018899,0.448564,-0.05239354,9.67999978363514,8
-11.46123,0.2833333,-16.02572,0.1258564929649335,-0.5994267324639082,0.1475483807524487,3.234678,50.73161,359.845,0.02492378,0.4282594,-0.01331295,9.6999997831881,8
-11.41583,0.4833332,-15.9921,0.0702527890740682,-0.1461709550876408,0.0959893768896691,6.46839,50.71841,359.6891,0.04982049,0.4277465,-0.02661122,9.71999978274107,8
-11.37045,0.6833331,-15.95848,0.0215673192402352,0.2965958712365074,0.048357511371325,9.701093,50.6962,359.5312,0.0746701,0.4268926,-0.03988418,9.73999978229403,8
-11.17717,0.2833332,-15.82014,0.1566378757647015,-0.1761034941119593,0.123856372744564,3.284767,49.33155,359.7923,0.02528989,0.4171994,-0.01360727,9.759999781847,8
-11.13133,0.4833333,-15.78553,0.1246205358824017,0.0609957481393698,0.0813655854281698,6.568525,49.3136,359.5833,0.0505515,0.4166833,-0.02719932,9.77999978139997,8
-11.0855,0.6833333,-15.75092,0.0907856576639929,0.3153096582897899,0.0379771995948203,9.851274,49.28336,359.3716,0.07576442,0.415824,-0.04076502,9.79999978095293,8
-10.87298,0.2833332,-15.59965,0.2318139168631319,-0.105746702774235,0.1155422546444278,3.535161,50.90814,359.8137,0.02715242,0.4296277,-0.01472455,9.8199997805059,8
-10.823,0.4833332,-15.56326,0.1766479622374284,0.1829959978183437,0.0558066826216574,7.069314,50.89079,359.6259,0.05427142,0.4290128,-0.02943115,9.83999978005886,8
-10.77306,0.6833332,-15.52688,0.1092796944658598,0.4889530338693419,-0.0108514523304403,10.60439,50.86141,359.4348,0.08134458,0.4279882,-0.04411738,9.85999977961183,8
-10.72312,0.883333,-15.49052,0.0403024809388812,0.7598539928596189,-0.0767811798092594,14.13837,50.81949,359.2392,0.1083328,0.4265556,-0.05875738,9.87999977916479,8
-10.54329,0.2833332,-15.36365,0.0942506546930994,0.0896766480465056,-0.0529464732125788,3.56428,52.23357,359.868,0.02741698,0.4400212,-0.01472392,9.89999977871776,8
-10.49271,0.4833333,-15.32739,0.1526300151455331,-0.4896010421006777,-0.022461263163402,7.127719,52.22115,359.7347,0.05480033,0.4393818,-0.02943176,9.91999977827072,8
-10.44215,0.6833333,-15.29113,0.0343421368592151,-0.0752698512208377,-0.1144161989839034,10.69012,52.20019,359.5995,0.08212295,0.4383174,-0.04410702,9.93999977782369,8
-10.3916,0.8833332,-15.25489,-0.0775212514569752,0.3280846517124141,-0.1996119173293511,14.25145,52.17028,359.461,0.1093583,0.4368293,-0.05873547,9.95999977737665,8
-10.17031,0.2833333,-15.09045,-0.0333705101735954,-0.1845144271063479,-0.1523347945789712,3.587929,54.09761,0.03924464,0.02803693,0.4545169,-0.01393128,9.97999977692962,8
-10.12001,0.4833333,-15.05317,-0.1449110477238955,0.0121970333849628,-0.2127716805090092,7.175038,54.10136,0.07924308,0.05604175,0.4538487,-0.02784223,9.99999977648258,8
-10.06971,0.6833333,-15.01591,-0.253759649573972,0.2256350812020605,-0.2697654097858972,10.76112,54.10771,0.1198556,0.08398366,0.4527361,-0.04172201,10.0199997760355,8
-9.865538,0.2833334,-14.8705,-0.2369589824275948,-0.2367848892825107,-0.2117968958201377,3.567723,54.94227,0.08147047,0.027947,0.4610584,-0.01372947,10.0399997755885,8
-9.815398,0.4833333,-14.83358,-0.3950408746910554,0.0101061085099343,-0.2779869567501958,7.134293,54.94992,0.1634528,0.05585755,0.4603879,-0.02744197,10.0599997751415,8
-9.765272,0.6833332,-14.79667,-0.5521487549985293,0.2737236680155963,-0.3444796380026869,10.69985,54.96283,0.2466868,0.08370611,0.4592716,-0.04112415,10.0799997746944,8
-9.715161,0.8833331,-14.75977,-0.697253996514644,0.5017970299002669,-0.4038250539630112,14.26435,54.98125,0.3318768,0.1114655,0.4577109,-0.05476257,10.0999997742474,8
-9.547973,0.2833335,-14.64152,-0.8591950937082622,-0.2116960202951475,-0.4821347377784715,3.645993,55.83994,0.1153165,0.02858004,0.4679723,-0.0140068,10.1199997738004,8
-9.496445,0.4833333,-14.60412,-1.1309254691676545,-0.0024397110660814,-0.6367936986052563,7.290967,55.85102,0.2315389,0.05712326,0.4672612,-0.02799557,10.1399997733533,8
-9.444931,0.6833333,-14.56674,-1.370471913289598,0.2235431711143684,-0.7689218677249023,10.93486,55.86974,0.3496282,0.08560042,0.4660773,-0.04195205,10.1599997729063,8
-9.267105,0.2833334,-14.44467,-1.6194924477734007,-0.226332113280962,-0.975196371721017,3.618442,56.96173,0.1392502,0.02832988,0.4765935,-0.01398781,10.1799997724593,8
-9.215502,0.4833334,-14.40822,-1.8100825186348848,-0.6871841203827931,-1.132906224893066,7.235797,56.97501,0.2795458,0.05662301,0.4758798,-0.02795777,10.1999997720122,8
-9.163913,0.6833335,-14.37178,-2.1378443975519605,-0.2540354741027961,-1.381116795042793,10.85205,56.99743,0.422056,0.08485135,0.4746917,-0.04189588,10.2199997715652,8
-9.112339,0.8833334,-14.33535,-2.409429296242897,0.1681363443197877,-1.5842722197671328,14.46707,57.02935,0.5676442,0.1129845,0.4730305,-0.05579047,10.2399997711182,8
-8.904595,0.2833334,-14.19414,-2.617465950962932,-0.3256460129772726,-1.892426825586288,3.550872,59.27964,0.2530937,0.02801995,0.494248,-0.01340337,10.2599997706711,8
-8.853596,0.4833333,-14.1587,-2.921653662331964,-0.1101171608558706,-2.253188869155519,7.100635,59.30332,0.5080633,0.05600465,0.4935328,-0.02678994,10.2799997702241,8
-8.802611,0.6833333,-14.12327,-3.156929864249653,0.1221381616795335,-2.5509429954795806,10.64921,59.34328,0.7669194,0.08392708,0.492342,-0.04014679,10.2999997697771,8
-8.595781,0.2833333,-13.9808,-3.2395474067673966,-0.3214646648502138,-2.9213296232801635,3.484339,59.50666,0.2849517,0.02762743,0.4959705,-0.01292956,10.31999976933,8
-8.545931,0.4833333,-13.94567,-3.4407793120114123,-0.0557560680007298,-3.348014128722463,6.967564,59.53283,0.5719634,0.0552211,0.4952783,-0.0258431,10.339999768883,8
-8.496092,0.6833332,-13.91054,-3.581199724007877,0.2266790131144478,-3.7043268860459904,10.44914,59.57696,0.8633316,0.08275254,0.4941261,-0.03872582,10.359999768436,8
-8.446267,0.8833331,-13.87543,-3.65475586257364,0.473570259888922,-3.986230614155552,13.92945,59.63989,1.161234,0.1101993,0.4925153,-0.05156886,10.3799997679889,8
-8.289702,0.2833335,-13.76407,-3.5667419917132897,-0.2211048868606415,-4.305403598298433,3.42876,58.09221,0.2578633,0.0272464,0.4852359,-0.01255874,10.3999997675419,8
-8.241306,0.4833335,-13.72862,-3.562578633191384,0.0069691196940886,-4.643667371151564,6.856021,58.11555,0.5180015,0.05445914,0.484581,-0.02509696,10.4199997670949,8
-8.192924,0.6833334,-13.69318,-3.499017285865839,0.2517695875154718,-4.900656753261467,10.28218,58.15487,0.7818183,0.08161519,0.4834906,-0.03760925,10.4399997666478,8
-8.144555,0.8833333,-13.65776,-3.370677938515892,0.4610258650337381,-5.072792867504026,13.70713,58.21092,1.051362,0.1086902,0.481966,-0.05008407,10.4599997662008,8
-7.966023,0.2833335,-13.5115,-3.028877625066886,-0.271284261164791,-5.207976964364802,3.377536,54.38221,0.1249468,0.02671147,0.4567325,-0.01249729,10.4799997657537,8
-7.919399,0.4833333,-13.4754,-2.832009534144051,-0.0808451385781628,-5.40440751336237,6.753678,54.39339,0.2514741,0.05339184,0.456137,-0.02497277,10.4999997653067,8
-7.872789,0.6833333,-13.43931,-2.592453189109694,0.1263205535622668,-5.523438626533375,10.12879,54.41223,0.3797242,0.08001789,0.4551454,-0.03742303,10.5199997648597,8
-7.721235,0.2833333,-13.30576,-2.150702640704566,-0.3423719104189795,-5.574560805448495,3.318561,51.03705,0.005714285,0.02615258,0.430621,-0.01242929,10.5399997644126,8
-7.676293,0.4833333,-13.26926,-1.8570268200134787,-0.1017530909318188,-5.673600926576789,6.636134,51.03756,0.01149388,0.05227555,0.4300795,-0.02484423,10.5599997639656,8
-7.631359,0.6833333,-13.23278,-1.5420264044626597,0.1555923930672983,-5.70243633011412,9.952324,51.03849,0.01797433,0.07834616,0.4291782,-0.03722835,10.5799997635186,8
-7.586437,0.8833331,-13.19631,-1.2005981039697788,0.3773939038602975,-5.658831526799526,13.26758,51.03983,0.02459807,0.1043439,0.4279179,-0.04957774,10.5999997630715,8
-7.578867,0.2833333,-13.19131,-0.7083293924213159,-0.3423713173225239,-5.522655169464077,3.265983,48.95313,359.9132,0.02562262,0.4141723,-0.0124958,10.6199997626245,8
-7.534906,0.4833333,-13.15503,-0.334011192862869,-0.1393876179792137,-5.408688096422999,6.530981,48.94567,359.826,0.05121678,0.4136675,-0.02497766,10.6399997621775,8
-7.490954,0.6833333,-13.11876,0.0508375431481917,0.0803228813438862,-5.229323026737665,9.79471,48.93315,359.7377,0.07676024,0.412827,-0.03743288,10.6599997617304,8
-7.495732,0.2833334,-13.17968,0.4513399563050173,0.2644894218352643,-4.983326706584078,3.217571,47.51427,359.8358,0.02511899,0.4027383,-0.01262086,10.6799997612834,8
-7.452402,0.4833334,-13.14388,0.8908219395191894,0.2273772122199238,-4.692822382938813,6.434174,47.50038,359.6707,0.0502108,0.402261,-0.025228,10.6999997608364,8
-7.409084,0.6833335,-13.10809,1.315949071068446,0.2357403752500123,-4.348740035921644,9.649762,47.47699,359.5035,0.07525547,0.4014662,-0.03781148,10.7199997603893,8
-7.365777,0.8833334,-13.07231,1.7324605052502058,0.2362627273548603,-3.950709607494808,12.86407,47.44373,359.3332,0.1002315,0.4003549,-0.05036018,10.7399997599423,8
-7.324343,0.2833333,-13.18277,2.290505458790391,-0.4646854166052002,-3.38672373448088,3.399163,54.53681,359.9199,0.02604287,0.4579762,-0.01420949,10.7599997594953,8
-7.275156,0.4833333,-13.14953,2.6438485835584142,-0.2428843107346935,-2.903235938782064,6.797379,54.52964,359.8392,0.05205524,0.4573716,-0.02840327,10.7799997590482,8
-7.225982,0.6833333,-13.11629,2.9659374757190324,-0.0043565024560804,-2.387655265293501,10.19464,54.51752,359.7572,0.07801426,0.4563648,-0.04256891,10.7999997586012,8
-7.105606,0.2833333,-13.21475,3.4260106692925065,-0.4416867184902503,-1.703845169411906,3.525084,63.08285,359.993,0.0261816,0.522869,-0.01614124,10.8199997581542,8
-7.050649,0.4833333,-13.18707,3.657351722404553,-0.1697056264888602,-1.1289948112715358,7.049999,63.08211,359.985,0.05233251,0.5221266,-0.03227403,10.8399997577071,8
-6.995718,0.6833332,-13.15939,3.8342852107490817,0.1190019406308807,-0.5494321502129011,10.57433,63.08047,359.9743,0.07841812,0.5208892,-0.0483923,10.8599997572601,8
-6.940803,0.8833333,-13.13171,3.9636387957244,0.3721654636307945,0.0339259274158152,14.09763,63.07813,359.9633,0.1044219,0.5191597,-0.06446022,10.879999756813,8
-6.802819,0.2833334,-13.21243,4.052266200822839,0.423685357277658,0.6201391006386388,3.563189,71.43256,0.1018665,0.02576094,0.5834671,-0.01742787,10.899999756366,8
-6.744421,0.4833334,-13.191,4.136109619177082,0.3558027607557397,1.260979123149836,7.125968,71.44183,0.2012614,0.05147763,0.5826195,-0.03485979,10.919999755919,8
-6.686039,0.6833334,-13.16957,4.158049169162521,0.3338833959125585,1.8777620888760025,10.68772,71.45746,0.3021703,0.0771372,0.581209,-0.05225321,10.9399997554719,8
-6.627674,0.8833332,-13.14815,4.125769983467876,0.3046114254698108,2.4693056729279217,14.24844,71.47977,0.4054587,0.1027151,0.5792371,-0.06959119,10.9599997550249,8
-6.435077,0.2833334,-13.17493,4.183018167501986,-0.4256433815909044,3.1522993638730696,3.548553,78.11201,0.2162247,0.02523124,0.6297311,-0.01804396,10.9799997545779,8
-6.375254,0.4833334,-13.15852,4.02645445406301,-0.2326610659360478,3.662188855228406,7.096239,78.132,0.4316534,0.05041923,0.6288217,-0.03608265,10.9999997541308,8
-6.315447,0.6833334,-13.14211,3.805073863510367,-0.0224640815980428,4.1149597342621735,10.64283,78.16574,0.6503807,0.0755517,0.627308,-0.05408151,11.0199997536838,8
-6.111059,0.2833334,-13.13727,3.682535314854272,-0.4876373682131298,4.63654962130555,3.621278,79.55871,0.1511577,0.0251258,0.6394808,-0.01920312,11.0399997532368,8
-6.049376,0.4833335,-13.12325,3.3655907268594016,-0.2430115801039802,4.9660320209417,7.241494,79.57313,0.3034597,0.05021914,0.6385214,-0.03838173,11.0599997527897,8
-5.987716,0.6833335,-13.10923,2.976886918775885,0.018828676056544,5.205363349990044,10.86133,79.59728,0.4569406,0.07525301,0.6369234,-0.05752862,11.0799997523427,8
-5.926074,0.8833334,-13.09521,2.525311208375574,0.2456126409342247,5.352913943522049,14.48005,79.63179,0.6141449,0.1002045,0.6346896,-0.07661258,11.0999997518957,8
-5.752714,0.2833333,-13.06431,2.1417680006715423,-0.4686815664439464,5.511528808916671,3.637887,77.60577,0.08080068,0.02517776,0.6263097,-0.01934118,11.1199997514486,8
-5.691019,0.4833333,-13.04929,1.7416644021929186,-0.2597387599163989,5.601206743951339,7.274715,77.61352,0.1622488,0.05032296,0.6253626,-0.03865717,11.1399997510016,8
-5.629342,0.6833333,-13.03428,1.296205805691895,-0.0335815119954565,5.587469992356674,10.91047,77.6266,0.2450219,0.07541027,0.623786,-0.05792852,11.1599997505546,8
-5.567682,0.8833333,-13.01928,0.8154596366872124,0.1575195257491046,5.469223303260119,14.54535,77.6454,0.3302677,0.100418,0.6215821,-0.0771341,11.1799997501075,8
-5.346932,0.2833333,-12.93078,0.54226746925417,0.1278296820903068,5.506201621437844,3.582025,73.14309,0.08362317,0.02553507,0.5955166,-0.01803614,11.1999997496605,8
-5.287566,0.4833333,-12.91121,0.2400142672476222,0.1441029730612667,5.4349107306257896,7.16299,73.15099,0.1679615,0.05103812,0.5946435,-0.03604879,11.2199997492135,8
-5.228217,0.6833332,-12.89164,-0.0799554585237189,0.1530235480546894,5.255280239822772,10.74289,73.16434,0.2537049,0.0764843,0.5931901,-0.05402031,11.2399997487664,8
-5.03361,0.2833333,-12.76738,-0.2528692809467583,-0.5390386243614529,5.0905132880492925,3.51416,69.05562,0.09741244,0.02574254,0.5665179,-0.0166794,11.2599997483194,8
-4.976994,0.4833332,-12.7438,-0.4328775884788305,-0.3078634514766218,4.980897459134226,7.027268,69.06464,0.1956545,0.05145384,0.5657184,-0.03333731,11.2799997478724,8
-4.920392,0.6833332,-12.72022,-0.617417957892215,-0.0594739332019658,4.774362952733684,10.53912,69.07995,0.2958138,0.0771099,0.5643876,-0.04995479,11.2999997474253,8
-4.711048,0.2833333,-12.56876,-0.6297853867215717,-0.4864544627722885,4.605376670267139,3.453281,65.31249,0.1668569,0.02615331,0.539315,-0.01503323,11.3199997469783,8
-4.657548,0.4833333,-12.5409,-0.7297134711629272,-0.2036359340835972,4.48440111023176,6.905149,65.32784,0.3367223,0.05228104,0.5385794,-0.03003322,11.3399997465312,8
-4.60406,0.6833332,-12.51305,-0.8369493080231174,0.0963970467139502,4.280264802588228,10.35591,65.35384,0.509934,0.07835749,0.5373547,-0.04499488,11.3599997460842,8
-4.550587,0.883333,-12.48521,-0.9410508993127924,0.3613739475758951,3.996467983425127,13.80559,65.39091,0.6869742,0.1043554,0.5356421,-0.05991125,11.3799997456372,8
-4.497129,0.9766704,-12.45739,-1.031612452235876,0.4251947174513353,3.6365671580732055,17.25415,65.43975,0.8692911,0.130251,0.5334437,-0.07476886,11.3999997451901,8
-4.296363,0.2833333,-12.29437,-1.0353633900566246,0.3701010819129396,3.4683782192175183,3.400462,60.34134,0.1046567,0.0261097,0.5023326,-0.01412237,11.4199997447431,8
-4.245729,0.4833333,-12.2634,-1.0406176122099686,0.3614585632218634,3.239247966245472,6.799531,60.35088,0.2119131,0.05219407,0.5016692,-0.02821233,11.4399997442961,8
-4.195111,0.6833333,-12.23243,-1.0371114582244711,0.3459512045744852,2.954826923517734,10.19761,60.36697,0.320669,0.07822509,0.5005643,-0.04227345,11.459999743849,8
-4.017028,0.2833332,-12.091,-0.8758106682423288,-0.3700507848424801,2.7325856583614563,3.342019,56.86375,0.05057403,0.02585329,0.4758997,-0.01349576,11.479999743402,8
-3.968699,0.4833333,-12.05837,-0.8634748108224728,-0.1623278976614807,2.5109598353181117,6.682615,56.86831,0.1026865,0.05167864,0.475293,-0.02696505,11.499999742955,8
-3.920383,0.6833333,-12.02575,-0.8484899849618448,0.0630971863634234,2.251256618762975,10.02226,56.87599,0.1555155,0.07745284,0.4742826,-0.04040753,11.5199997425079,8
-3.726457,0.2833333,-11.87365,-0.6630606146651268,-0.3863601394406331,2.08806809807163,3.290294,53.79725,359.9404,0.02536794,0.45224,-0.01345218,11.5399997420609,8
-3.679531,0.4833332,-11.84058,-0.646565698846886,-0.1255304231999985,1.9015697716002524,6.579621,53.79208,359.8804,0.05070759,0.4516807,-0.0268892,11.5599997416139,8
-3.632614,0.6833332,-11.80751,-0.637348803961254,0.1530014883164279,1.6906390248457708,9.867649,53.78347,359.8202,0.07599767,0.4507499,-0.0402946,11.5799997411668,8
-3.585711,0.883333,-11.77446,-0.6260873824115429,0.3969650486897814,1.464054983391737,13.15473,53.77121,359.7588,0.101218,0.4494483,-0.05366298,11.5999997407198,8
-3.424504,0.2833334,-11.64351,-0.3970620625594017,-0.2996621833060728,1.3964498063426554,3.239167,50.77068,359.8623,0.0250195,0.4285631,-0.0132015,11.6199997402728,8
-3.379221,0.4833334,-11.60962,-0.3065889017421259,-0.0725643033122728,1.2903349557579649,6.477375,50.75894,359.7239,0.05001189,0.4280487,-0.02638824,11.6399997398257,8
-3.333952,0.6833334,-11.57574,-0.2259447509033184,0.1722359150043734,1.1725502520360802,9.714591,50.73919,359.5837,0.07495701,0.4271922,-0.03954989,11.6599997393787,8
-3.288691,0.8833333,-11.54187,-0.1456161826110079,0.3824678190286862,1.053133161832772,12.95056,50.71126,359.4416,0.09983589,0.4259952,-0.05266913,11.6799997389317,8
-3.080134,0.2833333,-11.37291,0.0732953081971742,-0.347891045271761,1.04642102443791,3.265832,47.44797,359.7622,0.02525331,0.4022209,-0.01336357,11.6999997384846,8
-3.035354,0.4833332,-11.33741,0.1034449042329465,-0.1545247996733738,0.9570329051843238,6.530682,47.42754,359.523,0.05047895,0.4017285,-0.02671224,11.7199997380376,8
-2.990587,0.6833333,-11.30193,0.1265631495281181,0.0565437693507536,0.868551601487189,9.794465,47.39313,359.2807,0.07565615,0.4009085,-0.04003499,11.7399997375906,8
-2.802074,0.2833333,-11.15096,0.298745063570916,-0.4072699443495342,0.910085373486595,3.529572,48.57305,359.7973,0.02734374,0.4111539,-0.01427811,11.7599997371435,8
-2.753512,0.4833333,-11.11283,0.3015801845859033,-0.1607967146222273,0.8327429064561667,7.058154,48.5542,359.5931,0.05465411,0.410567,-0.02853886,11.7799997366965,8
-2.704975,0.6833332,-11.07472,0.2921944751787249,0.1033788523825176,0.7538178554488102,10.58767,48.52236,359.3856,0.08191997,0.4095892,-0.04277752,11.7999997362494,8
-2.501052,0.2833334,-10.91186,0.2804166283941259,0.3329861179012086,0.6832375504675756,3.563053,49.91526,359.8635,0.027683,0.4217773,-0.01419727,11.8199997358024,8
-2.451946,0.4833333,-10.87365,0.2897791081610162,0.3422906236222203,0.6369606315722613,7.125323,49.90244,359.7258,0.05533284,0.4211648,-0.0283787,11.8399997353554,8
-2.402855,0.6833333,-10.83545,0.2739500539268034,0.3980462527243701,0.576957683513438,10.68653,49.88078,359.586,0.08292127,0.4201451,-0.04252863,11.8599997349083,8
-2.353778,0.8833332,-10.79726,0.2433558654095652,0.4469371689747617,0.5129484638603916,14.24667,49.84989,359.443,0.1104217,0.4187195,-0.05663337,11.8799997344613,8
-2.304714,0.9766705,-10.75908,0.2083911193572599,0.4356474432731591,0.4547079836334404,17.80569,49.80911,359.2953,0.1378075,0.4168898,-0.07067941,11.8999997340143,8
-2.103269,0.2833333,-10.59528,0.302779765733046,-0.4148447688511785,0.5104203545033599,3.587244,51.32799,0.02963171,0.02832371,0.4328733,-0.01332262,11.9199997335672,8
-2.054728,0.4833333,-10.55576,0.2209248120098547,-0.2424912997421985,0.416929980995457,7.173678,51.33086,0.06012274,0.05661567,0.4322372,-0.02662426,11.9399997331202,8
-2.006201,0.6833333,-10.51624,0.133633049264079,-0.0529233837514164,0.3245222890362207,10.75909,51.33568,0.09108786,0.08484414,0.4311782,-0.03989606,11.9599997326732,8
-1.827611,0.2833334,-10.37204,0.1920050290370817,-0.5387257470770141,0.3546903693307044,3.567615,51.97424,0.07512261,0.02826808,0.4379383,-0.01305045,11.9799997322261,8
-1.779385,0.4833334,-10.33266,0.0955181275043006,-0.3147288172746105,0.2579493690118344,7.134078,51.98131,0.1508553,0.05649988,0.4373016,-0.02608368,11.9999997317791,8
-1.731173,0.6833333,-10.2933,-0.0064387334665427,-0.0735175467867315,0.1597298431753344,10.69951,51.99324,0.2277622,0.08466894,0.4362414,-0.03908791,12.0199997313321,8
-1.535001,0.2833333,-10.13489,-0.1029540400681794,0.1326376257322045,0.0693833809329058,3.646517,52.49928,0.1067571,0.02894726,0.4420324,-0.01323675,12.039999730885,8
-1.485645,0.4833333,-10.09467,-0.1676035182949208,0.1180021357742473,0.0053986448033231,7.291971,52.50954,0.2143425,0.05785681,0.4413606,-0.02645638,12.059999730438,8
-1.436302,0.6833333,-10.05445,-0.2470899734198258,0.1493298936988988,-0.0680410541532108,10.93637,52.52687,0.3236764,0.08669971,0.4402421,-0.03964541,12.079999729991,8
-1.386977,0.8833332,-10.01426,-0.3301145594894211,0.1733049570769343,-0.1413789387990993,14.58041,52.55162,0.435692,0.1154521,0.4386782,-0.0527934,12.0999997295439,8
-1.144207,0.2833333,-9.818821,-0.2413562809066112,-0.5037025705785478,-0.0719876275576458,3.610292,53.81282,0.1632271,0.02873476,0.4522694,-0.01298547,12.1199997290969,8
-1.095049,0.4833332,-9.779335,-0.2917264544187262,-0.2574733014253096,-0.1166248664880944,7.219497,53.82835,0.3277027,0.05743249,0.4515949,-0.02595428,12.1399997286499,8
-1.045905,0.6833332,-9.739861,-0.3456935347516265,0.0059704044169726,-0.1620872769965657,10.82757,53.85457,0.4947731,0.08606467,0.4504719,-0.03889351,12.1599997282028,8
-0.9967748,0.8833331,-9.700396,-0.3914312674557798,0.2343580010521458,-0.1987275441339564,14.43434,53.89196,0.6656587,0.1146009,0.4489019,-0.0517913,12.1799997277558,8
-0.8263608,0.2833333,-9.563329,-0.4171346408312921,0.2615895569546234,-0.2168813354037562,3.54528,55.22364,0.2411026,0.02838503,0.4631984,-0.01247349,12.1999997273088,8
-0.7779592,0.4833333,-9.524596,-0.4337424817877395,0.1699068243550493,-0.232469024470741,7.089447,55.24616,0.4839875,0.05673436,0.4625305,-0.02493131,12.2199997268617,8
-0.7295715,0.6833333,-9.485874,-0.4454104406839669,0.1246753393662793,-0.2446597901819771,10.63244,55.28417,0.7305686,0.08502085,0.4614185,-0.03736154,12.2399997264147,8
-0.5438023,0.2833333,-9.335669,-0.4408107132487668,0.0725789194630481,-0.2443109208810083,3.48283,55.401,0.2805783,0.02804346,0.4645678,-0.01195928,12.2599997259676,8
-0.4965743,0.4833333,-9.297132,-0.4389268412297413,0.0402757562238763,-0.2489314872498385,6.964545,55.42674,0.5631686,0.05605259,0.4639201,-0.02390382,12.2799997255206,8
-0.4493563,0.6833332,-9.258605,-0.4378657736474514,0.0544236015448789,-0.2552520598911201,10.44464,55.47019,0.850136,0.08399912,0.462842,-0.03581921,12.2999997250736,8
-0.4021517,0.8833331,-9.220089,-0.427038982492711,0.0617067392411763,-0.2545025089822461,13.9235,55.53214,1.143533,0.1118599,0.4613348,-0.04769797,12.3199997246265,8
-0.170242,0.2833333,-9.032155,-0.4252695885958584,0.0887829078798952,-0.2608615884631309,3.424802,54.55676,0.2585385,0.02759286,0.4580484,-0.01169121,12.3399997241795,8
-0.1241847,0.4833333,-8.993826,-0.4333744246406179,0.1623101923205228,-0.2742072596779534,6.8481,54.58009,0.5191056,0.05515051,0.4574316,-0.02336488,12.3599997237325,8
-0.07814067,0.6833333,-8.955507,-0.4409341641155433,0.2289726496111346,-0.2859335205741997,10.27028,54.61944,0.783368,0.08265079,0.4564045,-0.03501423,12.3799997232854,8
-0.0321098,0.8833332,-8.9172,-0.4375306992840782,0.2354543367997982,-0.2874242739147572,13.69126,54.67551,1.053349,0.1100692,0.4549686,-0.04662882,12.3999997228384,8
0.1295054,0.2833333,-8.786757,-0.2065490332040322,-0.59726636486259,-0.1039962591675029,3.369731,52.77427,0.1556982,0.02694242,0.4442057,-0.0118507,12.4199997223914,8
0.1746716,0.4833333,-8.749027,-0.1521106278128861,-0.4071412749136919,-0.0636475161870526,6.738005,52.78808,0.3124611,0.05385025,0.4436286,-0.02368572,12.4399997219443,8
0.2198249,0.6833333,-8.711308,-0.1002768391479653,-0.1998017344240537,-0.0251524644653624,10.10528,52.81137,0.471377,0.08070388,0.4426677,-0.03549688,12.4599997214973,8
0.396639,0.2833333,-8.568564,-0.0402736963727536,-0.0275182887671244,0.0200887397085693,3.316758,51.00381,0.04167976,0.02627706,0.4303512,-0.01213177,12.4799997210503,8
0.4411521,0.4833333,-8.53159,0.0155317610990226,-0.0760257292179076,0.0597514143574988,6.632531,51.00745,0.0836171,0.05252428,0.4298105,-0.02424986,12.4999997206032,8
0.4856544,0.6833333,-8.494623,0.0688581644063135,-0.0785699330242483,0.096986153536168,9.946951,51.01357,0.1260372,0.07871661,0.4289103,-0.03634327,12.5199997201562,8
0.5301438,0.8833333,-8.457667,0.1303063678240739,-0.0884668436607818,0.1403479972576544,13.26042,51.02228,0.1693234,0.1048357,0.4276517,-0.04840278,12.5399997197092,8
0.7529829,0.2833334,-8.27777,0.0328522328144487,0.5612557106439668,0.0554614077887531,3.260421,48.66091,359.9026,0.02557185,0.4118539,-0.01249521,12.5599997192621,8
0.7968126,0.4833333,-8.241478,0.1239861372412036,0.326351690603437,0.1200462089080165,6.519877,48.65255,359.8045,0.05111554,0.4113535,-0.02497661,12.5799997188151,8
0.8406299,0.6833333,-8.205196,0.210734959489955,0.1128437626427001,0.1803827754649223,9.778337,48.63847,359.7052,0.0766101,0.4105203,-0.03743421,12.5999997183681,8
1.038137,0.2833333,-8.044271,0.3036623136855807,-0.1336294270976421,0.2450882710157946,3.207693,45.96825,359.8019,0.02509195,0.3903671,-0.0125199,12.619999717921,8
1.080767,0.4833333,-8.007854,0.3372922355672156,-0.1473591662501949,0.2607283970226408,6.414403,45.95153,359.6026,0.05015684,0.3899067,-0.02502618,12.639999717474,8
1.123385,0.6833333,-7.971447,0.3523271828958974,-0.1151256564747325,0.2613510707655289,9.620092,45.92339,359.4008,0.07517499,0.38914,-0.03750902,12.6599997170269,8
1.165994,0.8833333,-7.935051,0.3591695918274942,-0.0902448402004705,0.2555662293978979,12.82445,45.88345,359.1957,0.100126,0.3880685,-0.04995451,12.6799997165799,8
1.208591,0.9766705,-7.898665,0.3682258191572933,-0.1260326598566367,0.2519844329637584,16.02773,45.83102,358.9854,0.1249913,0.3866927,-0.06235724,12.6999997161329,8
1.413575,0.2833333,-7.734304,0.3654625875394939,-0.1691732786876236,0.2394600722760698,3.462903,46.87175,359.8027,0.02703787,0.397588,-0.01359611,12.7199997156858,8
1.460073,0.4833333,-7.695484,0.3541686786696685,-0.1663506470224763,0.2216373879047637,6.924832,46.85376,359.604,0.05404367,0.3970418,-0.02717619,12.7399997152388,8
1.506553,0.6833333,-7.656675,0.3449367835574484,-0.1708807211421088,0.2072340004249326,10.38641,46.82336,359.4021,0.08099692,0.396132,-0.04073253,12.7599997147918,8
1.686314,0.2833334,-7.512934,0.1834159428640975,0.4842085511996362,0.071119532286394,3.541143,48.7187,359.8549,0.02762457,0.4122966,-0.01389722,12.7799997143447,8
1.734431,0.4833333,-7.474073,0.1995192426948717,0.2546712507642199,0.0788581900136051,7.081851,48.70512,359.7082,0.0552179,0.411705,-0.02778309,12.7999997138977,8
1.782535,0.6833333,-7.435223,0.2092577398382546,0.0465301640247332,0.0836574005540953,10.62151,48.68219,359.5592,0.08275065,0.41072,-0.04163847,12.8199997134507,8
1.977885,0.2833334,-7.277542,0.2236605063003853,-0.1945760623555179,0.0943712010234767,3.589538,50.20829,359.979,0.02828335,0.424062,-0.0134535,12.8399997130036,8
2.026247,0.4833333,-7.237731,0.1802873819243333,-0.2029391684978295,0.0585238850288032,7.17845,50.20633,359.9581,0.05653502,0.423438,-0.02688935,12.8599997125566,8
2.074595,0.6833333,-7.197931,0.1208035591440941,-0.1653390230985965,0.010970492409025,10.76633,50.20303,359.937,0.08472319,0.422399,-0.04029499,12.8799997121096,8
2.122929,0.8833332,-7.158143,0.0562455135310306,-0.1350915824387308,-0.03952757270965,14.3532,50.19831,359.9152,0.1128204,0.4209464,-0.05365735,12.8999997116625,8
2.364465,0.2833333,-6.962766,-0.0023475590536232,-0.1655127894701668,-0.0842104255314994,3.563699,51.43132,0.08405821,0.02833265,0.4336749,-0.01283133,12.9199997112155,8
2.412162,0.4833333,-6.92285,0.0155487612741733,-0.2032866879119812,-0.0666864324800187,7.126195,51.43924,0.1689784,0.05662928,0.4330457,-0.02564411,12.9399997107685,8
2.459846,0.6833333,-6.882946,0.0218201570893485,-0.1950973348122519,-0.05752974629325,10.68766,51.45259,0.2552008,0.08486307,0.4319981,-0.03842848,12.9599997103214,8
2.507516,0.8833333,-6.843053,0.0280945614228871,-0.1942606864518909,-0.0475373351052947,14.24808,51.47166,0.3434519,0.1130069,0.4305335,-0.05117206,12.9799997098744,8
2.679812,0.2833333,-6.705027,-0.1120722972219052,0.4661954161342888,-0.1536002278966863,3.635883,52.22772,0.1079694,0.02889991,0.4399078,-0.01311779,12.9999997094274,8
2.72882,0.4833333,-6.664672,-0.1209112057606969,0.2420248274634049,-0.1557431251136662,7.270725,52.23807,0.2167698,0.0577625,0.4392431,-0.02621878,13.0199997089803,8
2.777809,0.6833332,-6.62433,-0.128541228219631,0.0392503340085458,-0.1563254355414933,10.90515,52.2555,0.3271117,0.08656298,0.4381362,-0.03929367,13.0399997085333,8
2.826785,0.8833332,-6.584,-0.123256790729151,-0.1964894314186727,-0.1459933006556557,14.5385,52.28041,0.4401548,0.1152681,0.4365886,-0.0523253,13.0599997080863,8
3.045475,0.2833333,-6.408957,-0.1663305613695191,-0.1994859832179129,-0.1739847875261846,3.622629,53.19492,0.1410869,0.02881411,0.4474606,-0.01305119,13.0799997076392,8
3.094612,0.4833333,-6.369122,-0.2151246151594366,-0.1565191772792806,-0.204846515381365,7.244172,53.20839,0.2832559,0.05759091,0.446789,-0.02608559,13.0999997071922,8
3.143735,0.6833332,-6.329298,-0.2579432455143662,-0.1209050766027259,-0.229350320677101,10.86462,53.23113,0.4276831,0.08630174,0.4456709,-0.03909017,13.1199997067451,8
3.339215,0.2833334,-6.17296,-0.4676051779216337,0.5743283710579143,-0.3879091293965562,3.560654,55.02626,0.2298914,0.02848024,0.4616727,-0.01257326,13.1399997062981,8
3.387818,0.4833333,-6.13407,-0.4726461963609747,0.3849353531831283,-0.3845006890973779,7.120203,55.04783,0.4614992,0.05692448,0.4610015,-0.02513065,13.1599997058511,8
3.436406,0.6833333,-6.095191,-0.4777526331302022,0.2169383099536436,-0.3815968782261953,10.67859,55.08422,0.6966642,0.08530526,0.459884,-0.03766003,13.179999705404,8
3.484982,0.8833332,-6.056319,-0.4712583584973124,0.015975994229094,-0.3701305082239403,14.2354,55.13612,0.9371229,0.1135916,0.4583219,-0.05014949,13.199999704957,8
3.647092,0.2833333,-5.926163,-0.2729681140977043,-0.7845805633721856,-0.2084965083250169,3.497379,55.49678,0.2747594,0.02812213,0.4653067,-0.01208673,13.21999970451,8
3.694653,0.4833333,-5.887647,-0.2522080376433475,-0.5627792074742355,-0.1889856212416205,6.993647,55.52209,0.5515066,0.05620967,0.4646527,-0.0241585,13.2399997040629,8
3.742203,0.6833333,-5.84914,-0.228997803767541,-0.3242513858666356,-0.1689612535845577,10.48832,55.56481,0.8324823,0.08423376,0.4635642,-0.03620146,13.2599997036159,8
3.78974,0.8833332,-5.810645,-0.1924614252103582,-0.121267631116547,-0.1397472762665335,13.98174,55.62572,1.119799,0.1121711,0.4620423,-0.04820713,13.2799997031689,8
3.998488,0.2833333,-5.642618,-0.2917311987221236,0.6003602266448516,-0.2186478864380521,3.434937,54.93545,0.2752725,0.02769982,0.4609765,-0.0116936,13.2999997027218,8
4.044774,0.4833333,-5.604253,-0.210590758220853,0.325312156996089,-0.1544957120705192,6.868325,54.96037,0.5527343,0.05536404,0.4603516,-0.02336919,13.3199997022748,8
4.091046,0.6833333,-5.565899,-0.124078805689507,0.07166017942712,-0.0853731097640388,10.30058,55.0024,0.8341631,0.08297046,0.4593111,-0.0350203,13.3399997018278,8
4.276251,0.2833333,-5.416934,-0.1982592418698194,0.5053308152286153,-0.1452571066139043,3.382724,53.28726,0.173458,0.02705986,0.448204,-0.01188355,13.3599997013807,8
4.321751,0.4833333,-5.379228,-0.1272926985035996,0.2944711274928511,-0.0894486947150641,6.764004,53.30271,0.348045,0.05408474,0.4476169,-0.02375188,13.3799997009337,8
4.367237,0.6833333,-5.341531,-0.0579764939376312,0.1050074112661547,-0.0339040068834957,10.14427,53.32875,0.525053,0.08105483,0.4466395,-0.03559607,13.3999997004867,8
4.412711,0.8833332,-5.303846,0.0204128920053907,-0.117421460543821,0.0298205142747249,13.52347,53.36583,0.7057903,0.1079465,0.4452727,-0.04740584,13.4199997000396,8
4.643948,0.2833333,-5.117883,0.045724354761707,-0.1071071085330593,0.0482052943115385,3.325919,51.10321,0.04800948,0.02636243,0.4311312,-0.01213921,13.4399996995926,8
4.68858,0.4833333,-5.080795,0.0579522621800956,-0.0508296148360152,0.0553224674507002,6.650431,51.10741,0.09636007,0.05269166,0.4305866,-0.02426278,13.4599996991456,8
4.7332,0.6833333,-5.043718,0.0674823133877762,-0.0019048162082902,0.0593530840514433,9.973988,51.1145,0.1453534,0.07896903,0.4296798,-0.0363625,13.4799996986985,8
4.777807,0.8833333,-5.006652,0.0847201086509663,-0.0136487761725377,0.0684829049202742,13.29659,51.12459,0.1953548,0.1051725,0.428412,-0.04842809,13.4999996982515,8
4.940066,0.2833333,-4.877429,0.1789668099439225,-0.0273176895724391,0.1373249285221196,3.268777,49.47858,359.9331,0.0256598,0.4183348,-0.01246579,13.5199996978045,8
4.984176,0.4833333,-4.841269,0.2582879575611336,0.0043253413699812,0.1935153257259756,6.536582,49.47283,359.8658,0.05129109,0.4178241,-0.02491782,13.5399996973574,8
5.028274,0.6833333,-4.805117,0.3332530086032941,0.0279909574567657,0.2455065120408184,9.803109,49.46312,359.7975,0.0768701,0.4169739,-0.03734615,13.5599996969104,8
5.204615,0.2833333,-4.663068,0.4144272254598222,-0.009610200510052,0.3017506808258656,3.217236,46.6446,359.8185,0.0251513,0.3957872,-0.012568,13.5799996964633,8
5.247595,0.4833333,-4.626833,0.4394076658216992,-0.0404050713756686,0.3108603165524188,6.433488,46.62923,359.6358,0.05027533,0.395318,-0.02512225,13.5999996960163,8
5.290563,0.6833333,-4.590608,0.4519808550392969,-0.0275493270169691,0.3098154370620993,9.648735,46.60336,359.451,0.07535236,0.3945365,-0.03765288,13.6199996955693,8
5.333522,0.8833332,-4.554393,0.4625016125439831,-0.0242601770754237,0.3070424611082756,12.86267,46.56665,359.2629,0.1003617,0.3934443,-0.05014621,13.6399996951222,8
5.559332,0.2833334,-4.373323,0.3056110818759494,0.6365329372385236,0.1710835527263174,3.39997,46.70314,359.8011,0.02654818,0.3962443,-0.01335192,13.6599996946752,8
5.604921,0.4833333,-4.335145,0.3288023563537745,0.4274419987731499,0.1782265588401941,6.798967,46.68533,359.6008,0.05306559,0.3957194,-0.02668847,13.6799996942282,8
5.650498,0.6833333,-4.296978,0.3378364323934484,0.2358184033262595,0.1758015757845288,10.19695,46.65531,359.3976,0.07952891,0.3948455,-0.03999785,13.6999996937811,8
5.853961,0.2833333,-4.134639,0.3434022174883022,0.007481720641572,0.1724950125205828,3.534115,48.5246,359.843,0.02754989,0.4107573,-0.01391905,13.7199996933341,8
5.901999,0.4833333,-4.095845,0.3764854208711981,0.0216967766494616,0.1914208536843094,7.068039,48.50994,359.6844,0.0550705,0.41017,-0.02782806,13.7399996928871,8
5.950023,0.6833332,-4.057063,0.3928575052637004,0.0768837076192375,0.1995026762536529,10.60113,48.4852,359.5234,0.08253258,0.409192,-0.04170745,13.75999969244,8
5.998032,0.8833331,-4.018292,0.4036670444639441,0.1199727807230802,0.2056283137364976,14.13313,48.44989,359.3586,0.1099083,0.4078248,-0.05554316,13.779999691993,8
6.046028,0.9766704,-3.979533,0.4200637116939463,0.0978945027065024,0.2186896610620312,17.66399,48.40332,359.1887,0.1371716,0.4060699,-0.06932203,13.799999691546,8
6.249338,0.2833333,-3.817912,0.4672483216772392,0.0818376215505567,0.2553915447182286,3.581863,50.48673,359.9689,0.02815255,0.4262634,-0.01357313,13.8199996910989,8
6.297904,0.4833333,-3.77856,0.4956837379336933,0.1056227723597916,0.2787655805444253,7.163092,50.4838,359.9377,0.05627282,0.4256387,-0.02713018,13.8399996906519,8
6.346456,0.6833332,-3.73922,0.5169635177701037,0.1162666621943886,0.2979186618059315,10.7433,50.47887,359.906,0.08433019,0.4245987,-0.04065689,13.8599996902049,8
6.525311,0.2833334,-3.595902,0.3758816586113029,0.781074006641611,0.1891574205895216,3.552333,51.43935,0.07654104,0.02821397,0.4337412,-0.01284936,13.8799996897578,8
6.572938,0.4833333,-3.556217,0.3659106147510673,0.5703796075176609,0.1830636655257869,7.103436,51.44655,0.1540437,0.05639262,0.433116,-0.02567886,13.8999996893108,8
6.620552,0.6833333,-3.516543,0.3478005138165807,0.3745809699494234,0.171870923987923,10.65351,51.4587,0.2327413,0.08450911,0.4320751,-0.03847997,13.9199996888638,8
6.817215,0.2833333,-3.359909,0.3332765469003291,0.1397194032617872,0.1647861812373801,3.623342,52.39185,0.1023551,0.02876133,0.4411959,-0.01315482,13.9399996884167,8
6.866226,0.4833332,-3.319907,0.1110480287876853,0.7634071538337202,-0.0070059745219157,7.245645,52.40162,0.2055032,0.05748574,0.4405339,-0.02629278,13.9599996879697,8
6.915217,0.6833332,-3.279918,0.0638128322416768,0.50427762027864,-0.0455409801061754,10.86752,52.41808,0.3100205,0.08614834,0.4394314,-0.03940521,13.9799996875226,8
6.964195,0.8833331,-3.23994,0.0096778182941061,0.2619426030206447,-0.091027725167075,14.48833,52.44159,0.417077,0.1147167,0.43789,-0.05247457,13.9999996870756,8
7.208545,0.2884191,-3.04607,-0.039712175729651,-0.0175703712256629,-0.1340241873223622,3.62946,53.20488,0.1284296,0.02881682,0.4475406,-0.0131791,14.0199996866286,8
7.257919,0.4884191,-3.006346,-0.0383295413987436,-0.0790073101231387,-0.1775953702222628,7.257848,53.21716,0.2578586,0.05759636,0.4468665,-0.02634114,14.0399996861815,8
7.30728,0.688419,-2.966633,-0.0450842853863857,-0.0966145671043056,-0.2257207681318287,10.88515,53.23791,0.3893442,0.08630975,0.4457442,-0.03947306,14.0599996857345,8
7.356625,0.888419,-2.92693,-0.0480695076320536,-0.12337243512815,-0.2685918132117135,14.5115,53.26748,0.5238351,0.1149287,0.4441751,-0.05256367,14.0799996852875,8
7.5285,0.3022222,-2.791757,-0.194134871949096,0.5080269214214425,-0.4235447261621192,3.574836,55.01461,0.209993,0.02851108,0.4615855,-0.01278145,14.0999996848404,8
7.577498,0.5022222,-2.752999,-0.101942897045955,0.242500631253703,-0.48526292084206,7.148576,55.03439,0.4215483,0.05698588,0.4609096,-0.02554684,14.1199996843934,8
7.626483,0.7022221,-2.714253,-0.0087896363222608,-0.001079498882536,-0.5413733885414982,10.72117,55.06778,0.6363804,0.08539671,0.4597842,-0.03828354,14.1399996839464,8
7.675454,0.902222,-2.675515,0.0971098587442345,-0.2767937502724988,-0.581864118795901,14.29226,55.11536,0.856018,0.1137126,0.458211,-0.05098001,14.1599996834993,8
7.894111,0.3179258,-2.502767,0.0080691373758181,0.3216616155603416,-0.7706536464792851,3.507162,55.91111,0.2788159,0.0281702,0.4684998,-0.01219708,14.1799996830523,8
7.94205,0.5179258,-2.464442,0.0644381473890902,0.0306639855068643,-0.9504631792329036,7.013199,55.93687,0.5596529,0.05630551,0.4678376,-0.02437904,14.1999996826053,8
7.989979,0.7179258,-2.426126,0.1285401864630166,-0.2365167281428954,-1.1141574840956645,10.51761,55.98034,0.8447781,0.08437672,0.4667353,-0.03653191,14.2199996821582,8
8.184645,0.3304593,-2.271606,0.0214693494198776,0.1862966031112377,-1.401231546057209,3.442204,55.66635,0.2928719,0.02775239,0.4666187,-0.01176388,14.2399996817112,8
8.231347,0.5304593,-2.23351,-0.081352623200841,0.6078154969096874,-1.6710990840448574,6.882831,55.69292,0.5880348,0.05546878,0.4659829,-0.02350975,14.2599996812642,8
8.278036,0.7304592,-2.195425,0.005737437206438,0.1199814157300414,-1.95392094045072,10.32229,55.73772,0.8874286,0.08312692,0.4649244,-0.03523092,14.2799996808171,8
8.324712,0.9304591,-2.157351,0.0988064944374134,-0.3682459583545779,-2.2062504212125877,13.76049,55.80158,1.193352,0.1107017,0.4634445,-0.04691686,14.2999996803701,8
8.565903,0.3469759,-1.966244,0.207998514641698,-0.7839928838011028,-2.4187309315299546,3.388786,53.73683,0.1767533,0.02707319,0.4517042,-0.01198788,14.3199996799231,8
8.611748,0.5469759,-1.928786,0.3005330375945299,-0.8627419660174477,-2.8013231244884453,6.776124,53.7526,0.354698,0.05411143,0.4511103,-0.02396007,14.339999679476,8
8.657579,0.7469759,-1.891339,0.3912210477767637,-0.8915907686734885,-3.142930521119115,10.16242,53.77919,0.5351166,0.08109454,0.4501216,-0.0359078,14.359999679029,8
8.703398,0.9469758,-1.853902,0.490095867661152,-0.9236169556069004,-3.434679744465961,13.54766,53.81705,0.7193497,0.107999,0.4487391,-0.04782072,14.379999678582,8
8.874229,0.3603269,-1.719726,0.4508416855818939,-0.2916104088953187,-3.792702603072423,3.330891,52.14273,0.07733304,0.0264026,0.4392869,-0.01216715,14.3999996781349,8
8.919283,0.5603269,-1.682998,0.6082177024617561,-0.5349605709340143,-4.232831795126634,6.660369,52.1495,0.1551201,0.05277159,0.4387302,-0.02431918,14.4199996776879,8
8.964323,0.760327,-1.64628,0.76616473846045,-0.752578224700894,-4.608537308623778,9.988871,52.16093,0.2339615,0.07908845,0.4378031,-0.03644707,14.4399996772408,8
9.009351,0.9520692,-1.609573,0.7562101859572827,-0.2782757137981227,-5.051872088399295,13.31642,52.17718,0.3144069,0.1053312,0.436507,-0.04854085,14.4599996767938,8
9.216194,0.3577335,-1.450503,0.7455460163706622,0.1966689011160653,-5.430884752158589,3.274902,52.58243,359.9784,0.02553547,0.4427577,-0.01282604,14.4799996763468,8
9.261815,0.5577335,-1.416108,0.8347900945534352,-0.2245638523917311,-5.890273668363698,6.548839,52.58057,359.9566,0.05104243,0.4422154,-0.02563811,14.4999996758997,8
9.307423,0.7577335,-1.381719,0.9304810815432614,-0.6455800978158857,-6.263338903920938,9.821465,52.57732,359.9338,0.07649511,0.4413123,-0.03842909,14.5199996754527,8
9.517589,0.3475727,-1.255365,0.8085016439045809,-0.1672086205457262,-6.727535069702222,3.221185,53.14605,359.8879,0.02469984,0.4471857,-0.01344788,14.5399996750057,8
9.563743,0.5475728,-1.223246,0.7935448298291625,-0.3188121725035235,-7.280652528587111,6.441396,53.13654,359.775,0.04937265,0.4466552,-0.02688138,14.5599996745586,8
9.609884,0.7475728,-1.191138,0.7718769786538022,-0.4456460694294929,-7.735538673233668,9.660641,53.12053,359.6607,0.0739991,0.4457718,-0.04028999,14.5799996741116,8
9.656011,0.9475727,-1.159031,0.7539846638177856,-0.6017484601971219,-8.086416163968734,12.87856,53.09756,359.5433,0.09855345,0.4445361,-0.05366918,14.5999996736646,8
9.915432,0.3371035,-1.048975,0.603291758498882,0.102444981504676,-8.442432023026452,3.398307,59.84769,359.9295,0.02539193,0.4986449,-0.0153244,14.6199996732175,8
9.96739,0.5371034,-1.020293,0.6110159930402617,-0.0620416809687356,-8.907812161961575,6.795681,59.84138,359.8585,0.05075419,0.497987,-0.03063188,14.6399996727705,8
10.01933,0.7371032,-0.9916211,0.6142707283160433,-0.2040444636783359,-9.248828893763164,10.19212,59.83072,359.7863,0.07606451,0.4968915,-0.04590901,14.6599996723235,8
10.07125,0.9371032,-0.9629464,0.6244612222203862,-0.3776086130536188,-9.46139811860842,13.58913,59.81497,359.7099,0.1013008,0.4953572,-0.06116837,14.6799996718764,8
10.25195,0.331275,-0.9381413,0.4493110097406028,0.2939186547475585,-9.702661055829765,3.524883,68.12041,359.9908,0.02543448,0.5598008,-0.01729157,14.6999996714294,8
10.30913,0.531275,-0.9154345,0.3611336435836136,0.0840007949476137,-9.973010526416262,7.049594,68.11946,359.9805,0.05083868,0.559006,-0.03457327,14.7199996709824,8
10.36629,0.7312748,-0.8927189,0.2772653758120516,-0.1034214466050334,-10.111689783547275,10.57373,68.11746,359.9675,0.07617851,0.5576816,-0.05183746,14.7399996705353,8
10.42344,0.9312748,-0.8700097,0.0332546751601512,0.3827231819866111,-10.25619545577263,14.09686,68.11463,359.9542,0.101439,0.5558303,-0.06904767,14.7599996700883,8
10.64554,0.3281527,-0.8836943,-0.2019061787315141,0.8606129211043243,-10.281235384719531,3.560477,79.11983,0.1717108,0.02490449,0.6365407,-0.01863076,14.7799996696413,8
10.70601,0.5281527,-0.8690884,-0.2917032078479895,0.4225899064703098,-10.374252836809228,7.120709,79.13557,0.3407589,0.0497614,0.6356161,-0.03726899,14.7999996691942,8
10.76646,0.7281526,-0.8544865,-0.3697096257998122,-0.018373229901806,-10.328466477156512,10.67989,79.16213,0.5124032,0.07456325,0.634077,-0.05586602,14.8199996687472,8
10.96133,0.3289419,-0.9070606,-0.6571589129167386,0.4229452169834835,-10.328083847704145,3.526994,87.81557,0.2733297,0.02382464,0.6931164,-0.01962402,14.8399996683002,8
11.02266,0.528942,-0.9000065,-0.8219660781631273,0.2099439685886243,-10.36537014045056,7.053174,87.84065,0.545179,0.04760056,0.6921253,-0.03924716,14.8599996678531,8
11.08396,0.7289419,-0.8929542,-0.9814963994353648,0.0185285342291013,-10.271119994005907,10.57822,87.88296,0.8211325,0.07132459,0.6904754,-0.05882744,14.8799996674061,8
11.14525,0.9289417,-0.885904,-1.123455740791707,-0.2057201732945495,-10.048232855522055,14.102,87.94332,1.103416,0.0949739,0.6881691,-0.07834622,14.899999666959,8
11.37997,0.3332687,-1.004759,-1.385653113499874,0.4271349679491841,-9.816160234485242,3.582864,98.97722,0.3440287,0.02258862,0.7598408,-0.02181785,14.919999666512,8
11.44268,0.5332687,-1.008707,-1.467825484335053,0.1615217563946031,-9.677411631067082,7.164607,99.00967,0.6904776,0.04514745,0.7587166,-0.04360922,14.939999666065,8
11.50535,0.7332686,-1.012647,-1.533859602191244,-0.0832148250594631,-9.41131653352152,10.74621,99.06429,1.041087,0.0676538,0.756844,-0.06536586,14.9599996656179,8
11.56802,0.9332686,-1.016568,-1.5709814535443165,-0.3517090395812683,-9.023604096790642,14.32669,99.14163,1.397218,0.09007068,0.7542245,-0.08706907,14.9799996651709,8
11.71587,0.3406684,-1.162867,-1.760700228427318,0.2463062106988202,-8.667314314811065,3.585439,107.9455,0.3391537,0.02079251,0.8082833,-0.02356028,14.9999996647239,8
11.7772,0.5406684,-1.176621,-1.8244426052038796,-0.0508141513792501,-8.346055046110823,7.169744,107.9775,0.6807119,0.04155745,0.8070861,-0.04709157,15.0199996642768,8
11.8385,0.7406683,-1.190375,-1.8577030710738835,-0.3262070629705961,-7.921678929568388,10.75278,108.0315,1.027433,0.0622744,0.8050929,-0.07057058,15.0399996638298,8
12.00022,0.3502522,-1.36205,-2.045708328619593,0.0980310082811327,-7.512909508882824,3.506528,118.183,0.5328551,0.01970355,0.8575048,-0.02386282,15.0599996633828,8
12.05849,0.5502521,-1.382902,-2.2020490036414664,0.5193492955670238,-7.028073482803279,7.01176,118.2322,1.069322,0.03938079,0.8562729,-0.04769716,15.0799996629357,8
12.11674,0.7502521,-1.403753,-2.177169479408006,0.0212212268939758,-6.659125263573616,10.5154,118.3152,1.613541,0.0590131,0.854222,-0.07148027,15.0999996624887,8
12.17497,0.9500542,-1.424591,-2.113266098897645,-0.4787961660428848,-6.214690754385302,14.01781,118.4332,2.168722,0.07857653,0.8513536,-0.09519963,15.1199996620417,8
12.37384,0.3626949,-1.643966,-2.254614557003727,-0.063381131814386,-5.798847869713256,3.423889,128.008,0.6227861,0.01797687,0.898339,-0.02447058,15.1399996615946,8
12.42753,0.5626948,-1.672333,-2.252671573714624,-0.2985488005654856,-5.489295151383514,6.846411,128.0641,1.249624,0.03593021,0.8970966,-0.04891267,15.1599996611476,8
12.4812,0.7626947,-1.700689,-2.228797254756316,-0.508033083945023,-5.128276408559792,10.26783,128.1586,1.88449,0.05384138,0.8950275,-0.07331141,15.1799996607006,8
12.53486,0.9525428,-1.729023,-2.172689336988384,-0.7464103762262363,-4.727779164698509,13.68723,128.2927,2.530186,0.07167674,0.892134,-0.09764791,15.1999996602535,8
12.66293,0.3544362,-1.89469,-2.2287131862958933,-0.1008761726463913,-4.295539559741831,3.395869,132.534,0.495482,0.01588179,0.9149689,-0.02538467,15.2199996598065,8
12.71239,0.5544363,-1.928427,-2.0988198182084954,-0.3483608484906091,-4.041926698748345,6.790885,132.578,0.9909708,0.03171951,0.913738,-0.05075397,15.2399996593595,8
12.76185,0.7544363,-1.962152,-1.9504178681687456,-0.5686425288841035,-3.7555809026940414,10.18447,132.6521,1.49294,0.04752113,0.9116889,-0.07607241,15.2599996589124,8
12.81129,0.9508911,-1.995867,-1.7741216631845678,-0.8163300435416372,-3.450049472240838,13.57632,132.7577,2.005579,0.06327582,0.9088241,-0.1013156,15.2799996584654,8
12.97821,0.3442912,-2.205853,-1.7586625187140823,-0.1818999425897838,-3.095567028087528,3.366661,134.8672,0.3085523,0.01375829,0.9230031,-0.02609335,15.2999996580184,8
13.02361,0.5442911,-2.243508,-1.6281195845592933,-0.4272817984380747,-2.8581715712690605,6.732244,134.8943,0.6165682,0.0274799,0.9217983,-0.05216502,15.3199996575713,8
13.069,0.7442912,-2.281152,-1.481591097983273,-0.6459189246383397,-2.612944144042693,10.09666,134.94,0.9287816,0.04117352,0.9197925,-0.07818388,15.3399996571243,8
13.21956,0.3359308,-2.463678,-1.4722876639827014,-0.1730667185599674,-2.293608918835017,3.32283,135.4821,0.1530161,0.01221766,0.925077,-0.02632695,15.3599996566772,8
13.26209,0.5359308,-2.503163,-1.4504854365605873,0.3003394386489296,-1.9771341845871515,6.644363,135.4954,0.3060353,0.02441256,0.9239081,-0.05262484,15.3799996562302,8
13.30461,0.7359307,-2.542634,-1.2732339786479958,-0.1309158947761709,-1.853335829541172,9.964922,135.5177,0.4605269,0.03657899,0.921962,-0.07887295,15.3999996557832,8
13.34712,0.9359305,-2.582095,-1.085436737835849,-0.5620938352992645,-1.740523274330369,13.28447,135.5495,0.6181598,0.04871129,0.9192411,-0.1050473,15.4199996553361,8
13.53424,0.3246777,-2.811177,-1.087756617892408,-0.0936499766527508,-1.502385798440125,3.272845,135.4595,359.9922,0.01075934,0.9250298,-0.02645275,15.4399996548891,8
13.57417,0.5246776,-2.851992,-0.9740325593285012,-0.2665188382176967,-1.423747753672107,6.544732,135.4588,359.9843,0.02150628,0.9238983,-0.05287639,15.4599996544421,8
13.61409,0.7246775,-2.892794,-0.8686665261228264,-0.4150350327651824,-1.3512777238604303,9.815353,135.4576,359.9756,0.03222633,0.9220144,-0.07924886,15.479999653995,8
13.65401,0.9246774,-2.933581,-0.7649229532220048,-0.5938209281683373,-1.2991521996303952,13.08502,135.4557,359.9661,0.04291183,0.9193802,-0.1055512,15.499999653548,8
13.78269,0.3154634,-3.095958,-0.7584289129353934,0.0940018279878323,-1.110840188904432,3.21979,133.7543,359.8541,0.009862354,0.9193152,-0.02633706,15.519999653101,8
13.8215,0.5154634,-3.136649,-0.5944757525711442,-0.1016534421899058,-1.139219600756233,6.438612,133.7419,359.7073,0.01971391,0.9182246,-0.05264558,15.5399996526539,8
13.86029,0.7154633,-3.177329,-0.4427722554974256,-0.2750638588384229,-1.1739918292412002,9.656445,133.7211,359.5587,0.02954687,0.9164087,-0.07890481,15.5599996522069,8
13.89908,0.9154632,-3.217998,-0.416956434248787,0.2278925903885884,-1.0395422955815414,12.87294,133.6914,359.4069,0.03934997,0.9138698,-0.1050925,15.5799996517599,8
14.06737,0.3047982,-3.429846,-0.3999393574616441,0.7255545398708547,-0.9092062351776632,3.400949,134.8344,359.8279,0.01000972,0.9229351,-0.02797559,15.5999996513128,8
14.10735,0.5047982,-3.473854,-0.2891057293806032,0.3125950520699256,-0.917193931562422,6.800943,134.819,359.6547,0.02000771,0.9217129,-0.05591895,15.6199996508658,8
14.14732,0.7047982,-3.517851,-0.1860230826789184,-0.1061209502090728,-0.9388741569181258,10.19994,134.793,359.479,0.02998511,0.9196779,-0.08380537,15.6399996504188,8
14.29718,0.2960067,-3.705849,-0.2526108092064412,0.3586490484144745,-0.7494543355788164,3.534367,137.1944,359.86,0.01011704,0.9306083,-0.02915705,15.6599996499717,8
14.3373,0.4960067,-3.752779,-0.327250551896018,0.8150028912578597,-0.564419729864202,7.068535,137.1813,359.7182,0.02021734,0.9292783,-0.05828744,15.6799996495247,8
14.3774,0.6960067,-3.799695,-0.2666276960773839,0.3575485092438006,-0.5681841325773664,10.60188,137.1592,359.5742,0.03029602,0.9270635,-0.087356,15.6999996490777,8
14.41749,0.8960066,-3.846597,-0.2174708896683519,-0.0969645002851252,-0.5779689748161152,14.13416,137.1276,359.4269,0.04034316,0.9239669,-0.1163331,15.7199996486306,8
14.60509,0.283973,-4.081498,-0.2619652331242044,0.3429725847085296,-0.4418669000238902,3.582071,139.6426,359.9824,0.01063731,0.9381645,-0.0293889,15.7399996481836,8
14.64533,0.483973,-4.129332,-0.1921063984437374,0.1337169276416375,-0.4610988932565556,7.163486,139.641,359.9645,0.02126042,0.9367896,-0.05874439,15.7599996477365,8
14.68556,0.683973,-4.177152,-0.1323161514305972,-0.0591762754451138,-0.4799079036531406,10.74389,139.6381,359.9463,0.03185972,0.9345005,-0.08803423,15.7799996472895,8
14.72578,0.8839729,-4.224958,-0.0748072523702898,-0.286184214818252,-0.5108813990018923,14.32327,139.6341,359.9276,0.04242497,0.9313002,-0.1172298,15.7999996468425,8
14.85551,0.2833332,-4.387839,-0.1528954484615283,0.3625025339015639,-0.3550528524889023,3.552039,140.8402,0.08483696,0.0110834,0.9417147,-0.02895229,15.8199996463954,8
14.89579,0.4833333,-4.434955,-0.0723109417996656,0.1218377987477026,-0.4066806226099801,7.102829,140.8482,0.1705363,0.0221542,0.9403572,-0.05786598,15.8399996459484,8
14.93607,0.6833332,-4.482058,-0.0019667663936555,-0.1024743707935568,-0.4532321962147154,10.65261,140.8616,0.2575398,0.03320058,0.9380971,-0.08671605,15.8599996455014,8
14.97633,0.8833332,-4.529147,-0.0597734594628072,0.3652107438618922,-0.3332095151538574,14.20134,140.8808,0.3465879,0.04421203,0.9349375,-0.1154745,15.8799996450543,8
15.14383,0.2833333,-4.741328,-0.1223209864562164,0.8241565456659279,-0.2107274997061354,3.623733,142.1624,0.1167518,0.01121467,0.9454953,-0.02957955,15.8999996446073,8
15.18423,0.4833332,-4.790031,-0.084132561594318,0.369111407784936,-0.2229785481661146,7.246434,142.1736,0.2343828,0.02241476,0.9440759,-0.05912129,15.9199996441603,8
15.22461,0.6833332,-4.838716,-0.0471003699077954,-0.0952224504608356,-0.2402258139809738,10.86871,142.1923,0.3534783,0.03358771,0.9417124,-0.08860189,15.9399996437132,8
15.37391,0.2833335,-5.027181,-0.1761748676314081,0.3493657546906071,-0.0470678349693001,3.625004,142.912,0.1266346,0.01110621,0.9475936,-0.02963537,15.9599996432662,8
15.41382,0.4833334,-5.076309,-0.3060930642279231,0.7856740183153639,0.1444899100445589,7.248962,142.9241,0.2542361,0.02219801,0.9461699,-0.0592327,15.9799996428192,8
15.45371,0.6833334,-5.125424,-0.2897512183459234,0.3085092950966093,0.1479509388683286,10.87183,142.9445,0.3838726,0.03326437,0.9437996,-0.08876214,15.9999996423721,8
15.49359,0.8833333,-5.174523,-0.2744074523925235,-0.1773678270439799,0.1498683888672252,14.4937,142.9736,0.5163685,0.0442922,0.9404858,-0.1181959,16.0199996419251,8
15.67976,0.2833334,-5.409939,-0.3578189766539417,0.2438652774605274,0.284045173949953,3.567195,145.226,0.2388034,0.01128854,0.9538243,-0.02907998,16.0399996414781,8
15.71867,0.4833332,-5.458683,-0.3146489161769743,0.01691601499792,0.2545070321330174,7.133297,145.2485,0.4793961,0.0225628,0.9524322,-0.05812328,16.059999641031,8
15.75757,0.6833333,-5.507414,-0.2692059494402308,-0.1924566921110506,0.2190616583377016,10.69819,145.2863,0.7236897,0.03381165,0.9501143,-0.0871013,16.079999640584,8
15.79647,0.8833332,-5.556131,-0.2127934773396873,-0.4387822497070959,0.1658023894632752,14.26158,145.3403,0.9734566,0.04502147,0.9468741,-0.1159846,16.099999640137,8
15.92533,0.2833334,-5.718856,-0.2921651069784587,0.1965972112790466,0.2883076339413399,3.499255,145.7419,0.278122,0.01131075,0.9551736,-0.02846314,16.1199996396899,8
15.96371,0.4833334,-5.766575,-0.2051274443082178,-0.0554958585178155,0.1948013719300512,6.997401,145.7675,0.5582513,0.02260759,0.9538296,-0.05689124,16.1399996392429,8
16.00208,0.6833334,-5.814284,-0.1200137558720797,-0.2891512304488854,0.0987113533391914,10.4939,145.8108,0.8425952,0.03387929,0.9515922,-0.08525375,16.1599996387959,8
16.04044,0.8833333,-5.861979,-0.1601093238525806,0.1719995607529445,0.1615332100935491,13.98915,145.8725,1.133385,0.04511625,0.9484643,-0.1135284,16.1799996383488,8
16.20687,0.2833333,-6.071444,-0.2002883069116805,0.626968658319407,0.2224619191679266,3.435486,145.2188,0.2769945,0.01126497,0.9538361,-0.02788333,16.1999996379018,8
16.24504,0.4833333,-6.117909,-0.1347652791229556,0.1707131080586582,0.1479432890744245,6.869404,145.2439,0.5561658,0.02251732,0.9525424,-0.05572863,16.2199996374547,8
16.2832,0.6833334,-6.164362,-0.0640170785365263,-0.2918562113962705,0.0654622240795186,10.30218,145.2861,0.839299,0.03374594,0.9503885,-0.08351574,16.2399996370077,8
16.43087,0.2833334,-6.350244,-0.1567566213783457,0.1586175980113889,0.189845978742527,3.382953,143.585,0.1742879,0.01066719,0.9495021,-0.02756458,16.2599996365607,8
16.46836,0.4833334,-6.395934,-0.2481353615537003,0.6043115834139723,0.3116935604457964,6.764463,143.6005,0.3496885,0.02132032,0.9482582,-0.05509367,16.2799996361136,8
16.50583,0.6833333,-6.44161,-0.1943953866087859,0.1402454790331732,0.2485168067254637,10.14495,143.6266,0.5275244,0.03195191,0.9461869,-0.08256686,16.2999996356666,8
16.54329,0.8833333,-6.487274,-0.1403294525428897,-0.3286068023147859,0.1846055351051063,13.52436,143.6639,0.7090923,0.04255245,0.9432911,-0.1099602,16.3199996352196,8
16.72786,0.2833332,-6.719479,-0.1851623610328197,0.1034966132168893,0.2473912833666993,3.326069,141.4034,0.04841378,0.00998973,0.9434092,-0.02725109,16.3399996347725,8
16.76472,0.4833332,-6.764302,-0.1083670071873896,-0.1094188443159088,0.1527726693028395,6.650714,141.4077,0.09717435,0.01996711,0.9422174,-0.05446749,16.3599996343255,8
16.80157,0.6833332,-6.809114,-0.0331105504683328,-0.3014259599923706,0.0574786196075312,9.974408,141.4148,0.1465647,0.02992467,0.940233,-0.08163036,16.3799996338785,8
16.8384,0.883333,-6.853912,0.048869518772701,-0.5268862071972058,-0.049286848553578,13.29716,141.425,0.1969686,0.03985434,0.9374583,-0.1087169,16.3999996334314,8
16.96645,0.2833333,-7.016466,-0.0069336355805269,0.1202228675793019,0.0198632811645271,3.268832,139.7744,359.9333,0.009261325,0.9386409,-0.02698286,16.4199996329844,8
17.00238,0.4833333,-7.06076,0.0991721652303745,-0.1177820487268451,-0.1187383353891764,6.536695,139.7686,359.8661,0.01851229,0.9374951,-0.05393584,16.4399996325374,8
17.03831,0.6833331,-7.105043,0.1990184375563437,-0.3348787549855502,-0.2516346158171476,9.803297,139.7589,359.798,0.02774345,0.9355875,-0.0808351,16.4599996320903,8
17.07422,0.8833331,-7.149314,0.1702568313173493,0.1348591382849741,-0.2217248600425172,13.06886,139.7451,359.7284,0.03694896,0.9329203,-0.1076603,16.4799996316433,8
17.24029,0.2833335,-7.357904,0.1375130284260421,0.5998925425610566,-0.1876266698229844,3.211646,136.3571,359.7921,0.008733049,0.9279996,-0.02668935,16.4999996311963,8
17.27634,0.4833333,-7.400948,0.3006084814112455,0.1552443218504166,-0.4077535922900654,6.422347,136.3396,359.583,0.01745712,0.926902,-0.05335002,16.5199996307492,8
17.31238,0.6833333,-7.443979,0.4804700864305964,-0.2941084684384188,-0.6543513721856993,9.631994,136.31,359.3713,0.02616487,0.9250743,-0.0799606,16.5399996303022,8
17.46176,0.2833333,-7.631824,0.5069601890028466,0.1568114661537109,-0.7100285588803938,3.452156,136.9342,359.7952,0.009393423,0.9298031,-0.02867471,16.5599996298552,8
17.50031,0.4833333,-7.678311,0.5421917039599791,0.6030269074826426,-0.7795483458952877,6.90334,136.9156,359.5889,0.0187759,0.9285333,-0.05731557,16.5799996294081,8
17.53884,0.6833332,-7.724784,0.6925003353951382,0.1395614767820547,-1.0186571322254672,10.35383,136.8841,359.3795,0.02813847,0.9264186,-0.08589978,16.5999996289611,8
17.57736,0.8833331,-7.771235,0.848010339106267,-0.3286082907185642,-1.2695332710699514,13.80484,136.8393,359.1653,0.03747715,0.9234604,-0.1144112,16.6199996285141,8
17.76335,0.2833334,-8.00699,0.906829277421778,0.1034948604983855,-1.401731869522326,3.547219,139.1998,359.858,0.009627412,0.9368451,-0.02944099,16.639999628067,8
17.80191,0.4833334,-8.055481,0.9713504879379043,0.5308935410155888,-1.544133176634407,7.094149,139.1865,359.7143,0.01924018,0.9354964,-0.05885326,16.65999962762,8
17.84047,0.6833333,-8.103957,1.2308659922528236,0.0486108144271264,-1.975527968222984,10.64004,139.164,359.5684,0.02883166,0.9332506,-0.0882009,16.6799996271729,8
17.87901,0.8833331,-8.15242,1.4806666411044702,-0.4383766101508397,-2.42594982898469,14.18485,139.1319,359.4192,0.03839292,0.930111,-0.1174556,16.6999996267259,8
18.00913,0.2833335,-8.316378,1.5747971641409748,-0.0250909847250462,-2.705945657795126,3.590883,140.677,359.9794,0.01037289,0.9412364,-0.02956487,16.7199996262789,8
18.04856,0.4833336,-8.365077,1.848929812846258,-0.2568236532932048,-3.241707990594689,7.181101,140.6751,359.959,0.02073568,0.9398502,-0.05909453,16.7399996258318,8
18.08798,0.6833335,-8.413763,2.0900053054525927,-0.4676482279416415,-3.760157070371696,10.77034,140.6718,359.9382,0.03107537,0.9375423,-0.08855812,16.7599996253848,8
18.1274,0.8833333,-8.462435,2.175693482029427,0.0083619321456201,-4.10037714940472,14.35852,140.6672,359.9169,0.04138148,0.9343156,-0.1179263,16.7799996249378,8
18.29441,0.2833335,-8.67292,2.23228681892871,0.4796677502057955,-4.418182738694105,3.564092,141.8955,0.08409748,0.01084454,0.9447564,-0.02915461,16.7999996244907,8
18.33394,0.4833335,-8.720944,2.5610144057544098,0.0412921825912273,-5.102601107783379,7.126999,141.9034,0.1690569,0.02167692,0.9433853,-0.05827073,16.8199996240437,8
18.37347,0.6833335,-8.768955,2.8460146061248466,-0.4017880621046259,-5.739975869298979,10.68888,141.9168,0.2553252,0.03248528,0.9411025,-0.08732223,16.8399996235967,8
18.52293,0.2833333,-8.957838,2.9207895901387246,0.0554046568697632,-6.114675548009275,3.636336,142.6733,0.1076011,0.01104225,0.9469283,-0.02975895,16.8599996231496,8
18.56291,0.4833333,-9.007168,2.9524526210985407,0.5078928817968932,-6.434521775034199,7.271618,142.6836,0.2160403,0.02207019,0.9454971,-0.05947941,16.8799996227026,8
18.60287,0.6833333,-9.056479,3.169231309351755,0.0507002211041646,-6.940819368672488,10.90648,142.701,0.326012,0.03307287,0.9431139,-0.08913741,16.8999996222556,8
18.64281,0.8833331,-9.105778,3.333656324640838,-0.411197082955347,-7.366311419193638,14.54029,142.7258,0.4386668,0.04403908,0.9397821,-0.1186974,16.9199996218085,8
18.82937,0.2833335,-9.341974,3.347365573216837,0.0271782640775231,-7.581700151754834,3.622832,143.6321,0.1407799,0.01103105,0.949572,-0.02964807,16.9399996213615,8
18.86882,0.4833335,-9.39142,3.319557015831609,0.4608490035489307,-7.725044518819443,7.244611,143.6456,0.2826422,0.02204785,0.9481466,-0.0592581,16.9599996209145,8
18.90827,0.6833335,-9.440852,3.5538988338360262,-0.0151604706616574,-8.150381632474739,10.86528,143.6683,0.4267472,0.0330392,0.9457736,-0.08880013,16.9799996204674,8
18.94771,0.8833333,-9.49027,3.697553215762902,-0.495874421583105,-8.4303776468456,14.48485,143.7006,0.5741271,0.04399263,0.9424559,-0.1182457,16.9999996200204,8
19.16697,0.2833334,-9.772506,3.611233715538951,-0.0763158322257318,-8.389219067593821,6.234785,142.4653,359.932,0.01693521,0.9454418,-0.05168115,17.0199996195734,8
19.2326,0.4833331,-9.859933,3.4498661351250206,0.3385384815752651,-8.224405771883612,12.46853,142.4539,359.8624,0.03381726,0.941243,-0.1032009,17.0399996191263,8
19.29823,0.6833329,-9.947346,3.624511331374766,-0.156288735697718,-8.441499584444857,18.70119,142.4343,359.7892,0.05059602,0.9342605,-0.1544067,17.0599996186793,8
19.36384,0.8833325,-10.03474,3.5768368653618943,0.0644677677164229,-8.345940868069986,24.9328,142.405,359.7105,0.06722236,0.9245163,-0.2051475,17.0799996182323,8
19.52428,0.2833333,-10.26265,3.4415318667295978,0.3082231599458855,-8.110647203434285,6.313557,138.4132,359.2761,0.0136517,0.9335527,-0.05371983,17.0999996177852,8
19.58821,0.4833332,-10.35392,3.606965085009602,-0.117606937869733,-8.205358906112378,12.62504,138.2909,358.5342,0.02725861,0.9292461,-0.1072659,17.1199996173382,8
19.65213,0.6833333,-10.44519,3.694852832271103,-0.5481414004501249,-8.160899431466158,18.93332,138.0786,357.7548,0.04077888,0.9220847,-0.1604735,17.1399996168911,8
19.71604,0.8833332,-10.53643,3.543486889667573,-0.0784034109146812,-7.773284783865384,25.23706,137.762,356.914,0.05417138,0.9120921,-0.2131798,17.1599996164441,8
19.95171,0.2833335,-10.88289,3.3247849676795056,0.3866301076596599,-7.2644570205393695,7.246957,138.256,358.0334,0.006510731,0.9327599,-0.06514546,17.1799996159971,8
20.01043,0.4833331,-11.00077,3.0533493397272977,0.6819048603764266,-6.656649906692326,14.49178,137.8709,355.9957,0.01296342,0.9267425,-0.1300842,17.19999961555,8
20.06913,0.6833331,-11.11861,3.1717285172327827,-0.0696758103243742,-6.481264017648643,21.71881,137.193,353.819,0.0193569,0.916738,-0.1944738,17.219999615103,8
20.30729,0.2833333,-11.46861,3.103131432535317,0.1082529549408052,-6.03844471866632,7.116863,140.4801,358.0768,0.005216868,0.9395229,-0.06406635,17.239999614656,8
