pX,pY,pZ,aX,aY,aZ,reX,reY,reZ,rtX,rtY,rtZ,t,ID
-43.00042,0.23,-37.99971,5.526785239513515,0.1262032046198597,3.367785157620702,0.01612689,0.01360292,0.02373028,0.0001407582,0.0001186787,0.000207069,8.01999982073903,19
-43.00084,0.43,-37.99943,5.952074644099668,0.1162486085579181,3.4806792209063677,0.03232068,0.01361294,0.04743294,0.0002821003,0.0001186786,0.000413897,8.039999820292,19
-43.00126,0.63,-37.99914,6.579242530121931,-0.3398173302994913,3.523793203799997,0.04863677,0.01362982,0.07131512,0.0004245098,0.0001186785,0.0006222912,8.05999981984496,19
-43.00164,0.2833333,-37.99876,7.176152495849919,-0.5480870193942938,3.5261276934738888,0.02507181,8.003786,0.03806194,0.0002414401,0.06978936,0.0003160738,8.07999981939793,19
-43.00224,0.4833333,-37.99823,7.672373274437156,-0.5338930674448679,3.502639549304817,0.050126,8.003812,0.07611505,0.0004827215,0.06978935,0.0006320812,8.09999981895089,19
-43.00284,0.6833333,-37.9977,8.281126038242213,-0.9618374127301592,3.439793757867712,0.0752575,8.003853,0.1142197,0.0007247074,0.06978932,0.0009484903,8.11999981850386,19
-42.97082,0.2833332,-37.97582,8.76832866675366,-1.1380119829356057,3.3511730381719644,1.086373,15.9361,0.5244049,0.01002296,0.1385702,0.003217747,8.13999981805682,19
-42.97445,0.4833332,-37.95485,9.137721797010144,-1.0877512100633249,3.2380592033782847,2.172619,15.95102,1.049166,0.02004448,0.1385472,0.006435003,8.15999981760979,19
-42.97807,0.6833332,-37.93389,9.393309797086856,-0.835343291337054,3.1018475111541197,3.260831,15.97596,1.575444,0.03008326,0.1385086,0.009655494,8.17999981716275,19
-42.9817,0.8833331,-37.91296,9.539417967495735,-0.517858613750489,2.944069340379272,4.351024,16.01104,2.103979,0.04013952,0.1384545,0.01288178,8.19999981671572,19
-42.87858,0.2833332,-37.87616,9.78623067516228,-0.983368057992637,2.729402094671116,2.119658,26.43845,0.1574662,0.0183205,0.2286135,-0.002892208,8.21999981626868,19
-42.86439,0.4833333,-37.84162,9.910198114097136,-1.185817544608769,2.491628445298481,4.240244,26.44712,0.3139007,0.0366398,0.2284951,-0.005797703,8.23999981582165,19
-42.85023,0.6833333,-37.8071,9.917310227447572,-1.1505406241453764,2.233600830769298,6.363186,26.46144,0.4688555,0.05496209,0.2282971,-0.008725722,8.25999981537461,19
-42.83607,0.8833333,-37.77261,9.992811327742466,-1.54213996388128,1.9308658093296456,8.488313,26.48161,0.6249196,0.07328396,0.2280198,-0.01165667,8.27999981492758,19
-42.69275,0.283333,-37.73498,9.943196439697282,-1.6667067440331131,1.6111902787400467,3.928512,35.15515,0.1582863,0.03309251,0.3017739,-0.009035197,8.29999981448054,19
-42.6553,0.483333,-37.67707,9.776239413054888,-1.549574623434513,1.27821550102054,7.86061,35.17132,0.315637,0.0661697,0.3012396,-0.01808935,8.31999981403351,19
-42.61787,0.6833328,-37.61918,9.698709971670176,-1.8553461514071,0.9168735157503604,11.79455,35.19865,0.4757183,0.0991839,0.3003493,-0.02712949,8.33999981358647,19
-42.43229,0.2833329,-37.57935,9.495982215836271,-1.890112296820276,0.5485497275993865,4.189102,43.86958,0.2654454,0.03476753,0.373222,-0.01150544,8.35999981313944,19
-42.3848,0.4833329,-37.52333,9.177758447373913,-1.6792068529300923,0.1773539778917126,8.379311,43.89873,0.5315311,0.06949092,0.3724698,-0.02301714,8.3799998126924,19
-42.33733,0.6833329,-37.46733,8.754068747981876,-1.2469185222422263,-0.1925472394893077,12.57101,43.94802,0.8025407,0.1041316,0.3712165,-0.03451032,8.39999981224537,19
-42.10266,0.2833333,-37.42131,8.39292428439083,-1.4702416251263457,-0.5792056532176559,3.752121,52.76151,0.3242718,0.03058491,0.4440114,-0.01201262,8.41999981179833,19
-42.05394,0.4833333,-37.3773,7.927744900590881,-1.415171597841122,-0.95649911922537,7.502972,52.79357,0.6510395,0.06112665,0.4432922,-0.02401018,8.4399998113513,19
-42.00522,0.6833333,-37.33329,7.370307577330493,-1.1070422582097654,-1.3199081867710376,11.25172,52.84762,0.9825809,0.09158447,0.4420948,-0.03598165,8.45999981090426,19
-41.95652,0.8833329,-37.28928,6.911285402422834,-1.210456833241521,-1.681180721909989,14.99816,52.92426,1.319923,0.1219176,0.4404198,-0.04792907,8.47999981045723,19
-41.73706,0.283333,-37.28711,6.362286226555035,-1.031505930616322,-2.018780928901265,3.63368,61.74508,0.3416045,0.02874112,0.5127886,-0.01371108,8.49999981001019,19
-41.68399,0.483333,-37.25195,5.736977882607761,-0.595523449263832,-2.32807450119234,7.26612,61.77777,0.6856964,0.05744355,0.5120085,-0.02740536,8.51999980956316,19
-41.63093,0.683333,-37.21679,5.049291464063494,0.0732026691951679,-2.6044031836086745,10.89722,61.83296,1.035134,0.08607859,0.5107099,-0.04106904,8.53999980911613,19
-41.32644,0.2833333,-37.22429,4.557654289600009,-0.1424191842486796,-2.860507904161622,6.84469,71.30945,358.516,0.04096626,0.5824392,-0.04529729,8.55999980866909,19
-41.20964,0.4833324,-37.20935,4.004507376262943,-0.3360876604925903,-3.0733374481709355,13.27922,70.44344,357.222,0.08054179,0.5749952,-0.08633526,8.57999980822206,19
-41.15302,0.6833325,-37.1824,3.40580055826716,0.09437764684951,-3.238356875390206,16.85203,70.47245,357.6148,0.1077803,0.5730886,-0.1013393,8.59999980777502,19
-40.89858,0.2833332,-37.16877,2.9934847030424407,-0.125960217933561,-3.3643617766250244,3.464057,77.40856,0.6479433,0.02712077,0.624872,-0.01448888,8.61999980732799,19
-40.842,0.4833332,-37.14478,2.547913638622447,-0.3311741866269928,-3.43359907967395,6.927515,77.39425,1.295718,0.05420655,0.6234884,-0.02896201,8.63999980688095,19
-40.78542,0.6833326,-37.12078,2.04731000965279,0.1446621435799887,-3.466935029438531,10.38999,77.41956,1.947828,0.0812306,0.621516,-0.04340798,8.65999980643392,19
-40.72887,0.8833321,-37.09678,1.5476751368356003,0.6100096857318331,-3.4614490963134514,13.85116,77.48515,2.606878,0.1081558,0.618956,-0.05782944,8.67999980598688,19
-40.67233,0.9766707,-37.07277,1.2348886114851894,0.1598903999042887,-3.4273058279755872,17.31042,77.59276,3.278142,0.1349564,0.615811,-0.0722115,8.69999980553985,19
-40.42318,0.2833336,-37.0834,0.9405000984601912,-0.3007174174171315,-3.3505272007047253,3.407217,83.83821,0.5155735,0.02512545,0.6676791,-0.01651497,8.71999980509281,19
-40.36501,0.4833334,-37.06819,0.5561059053693924,0.1331630250356171,-3.248446850422418,6.814094,83.81122,1.027726,0.05020765,0.6663014,-0.03302849,8.73999980464578,19
-40.30687,0.6833334,-37.05297,0.382994509867764,-0.0837603739611386,-3.1275273069881315,10.22022,83.81473,1.541128,0.07522913,0.6643218,-0.04951809,8.75999980419874,19
-40.08108,0.2833333,-37.0634,0.2272384425640652,-0.2855601604359623,-2.9779107637090405,3.376908,85.80432,0.3138467,0.02344705,0.6803913,-0.01805269,8.77999980375171,19
-40.02271,0.4833331,-37.0537,0.1073661133711425,-0.5265978093416817,-2.800351528113538,6.753112,85.75921,0.6229561,0.04685163,0.6790342,-0.03610037,8.79999980330467,19
-39.96435,0.683333,-37.04401,0.0977168661539522,-0.5411639162488862,-2.60829610216954,10.12852,85.73226,0.9320605,0.07020875,0.6770834,-0.05411077,8.81999980285764,19
-39.71982,0.2833329,-37.05191,0.0901161451689702,-0.51603924202506,-2.417901625075359,3.333665,86.67883,0.1835423,0.02225423,0.6859937,-0.01879891,8.8399998024106,19
-39.66193,0.4833329,-37.0454,0.1010754664880053,-0.504539714725025,-2.2337831416878657,6.666222,86.62224,0.3626087,0.0444724,0.6846619,-0.03758353,8.85999980196357,19
-39.60407,0.6833329,-37.0389,-0.030646264294404,0.1603069462325459,-2.039222161998495,9.99799,86.5758,0.5398167,0.06664649,0.6827502,-0.05633095,8.87999980151653,19
-39.54622,0.8833326,-37.03239,-0.1430542027963071,0.6741771995007669,-1.8564061909074996,13.32896,86.53947,0.7163739,0.08875809,0.6802606,-0.07502529,8.8999998010695,19
-39.34063,0.2833331,-37.04672,-0.0109367752737625,0.1610195742735992,-1.7009087408388766,3.287948,86.76914,0.03002766,0.0210298,0.6866036,-0.01951575,8.91999980062246,19
-39.28338,0.4833333,-37.04303,-0.078503555251487,0.3581485430454358,-1.5551559055974096,6.574892,86.69947,0.05605049,0.04203538,0.6852998,-0.03900955,8.93999980017543,19
-39.22615,0.6833335,-37.03933,-0.1327243930786892,0.572979806494214,-1.4211343143774684,9.860609,86.63063,0.07698268,0.06299102,0.6834324,-0.05847161,8.95999979972839,19
-39.00159,0.2833331,-37.05088,0.018197345718363,0.1129289585788458,-1.3104859418209784,3.24091,86.03973,359.9247,0.02022669,0.6819925,-0.01977337,8.97999979928136,19
-38.9451,0.4833331,-37.04834,0.1903093371041677,-0.3571223284962222,-1.220231288435606,6.480723,85.96127,359.8448,0.04043087,0.6807166,-0.03952496,8.99999979883432,19
-38.88861,0.683333,-37.0458,0.1943377496302432,0.0678023250807421,-1.1049154175299023,9.71947,85.87768,359.7599,0.06059687,0.6788968,-0.05923909,9.01999979838729,19
-38.83215,0.8833333,-37.04325,0.4213451040960336,-0.1575886072864016,-1.0095577476114528,12.95681,85.78817,359.6685,0.08070327,0.6765352,-0.07890154,9.03999979794025,19
-38.54737,0.2833333,-37.05669,0.6617227936332739,-0.36736801582776,-0.9312630305955024,3.27061,84.74883,359.812,0.01997667,0.6737317,-0.02044542,9.05999979749322,19
-38.49023,0.4833331,-37.05478,0.6291765211329405,0.1043908090955405,-0.8228146468878279,6.540039,84.66089,359.6186,0.03993139,0.6724456,-0.04086853,9.07999979704618,19
-38.43311,0.6833333,-37.05287,0.5297551909172569,0.5661495942061061,-0.7094411581599687,9.808127,84.5611,359.4185,0.05984683,0.6706108,-0.06125237,9.09999979659915,19
-38.17418,0.2833333,-37.06338,0.5962861080736062,0.1129298896914937,-0.6105122600405366,3.530648,86.86031,359.8266,0.02133151,0.6871766,-0.02227674,9.11999979615211,19
-38.11245,0.4833336,-37.06308,0.430109524232428,0.3699961383389967,-0.5085603384881239,7.060048,86.77257,359.6473,0.04263615,0.6857448,-0.04452658,9.13999979570508,19
-38.05075,0.6833335,-37.06279,0.2558016820824562,0.6447647216504083,-0.4175166176616542,10.59018,86.67271,359.4601,0.06390232,0.68366,-0.06674492,9.15999979525805,19
-37.98907,0.8833337,-37.06249,0.0867885325554169,0.8849661352201939,-0.3404206994685594,14.11904,86.55971,359.2641,0.08510222,0.6809257,-0.08889371,9.17999979481101,19
-37.77037,0.2833333,-37.07344,0.1567212342282928,0.1845771975841739,-0.2847735378462204,3.563137,88.84105,359.882,0.02148444,0.6996034,-0.02249481,9.19999979436398,19
-37.70817,0.4833336,-37.07429,0.2314921846984461,-0.4244262879900357,-0.2480694309495348,7.125314,88.7586,359.7583,0.04294049,0.6981457,-0.04496568,9.21999979391694,19
-37.64598,0.6833336,-37.07513,0.0945928560264164,-0.0393328982974332,-0.1922631926341367,10.68631,88.66759,359.6281,0.06434885,0.6960133,-0.06738706,9.23999979346991,19
-37.40649,0.2833331,-37.084,0.1525198758910164,-0.3050421866862326,-0.1511691614077293,3.592671,90.45576,0.02161542,0.02221107,0.7095606,-0.02212076,9.25999979302287,19
-37.3438,0.4833331,-37.08416,0.2059532056814745,-0.5556280725935739,-0.1226417359237714,7.184553,90.38672,0.0392178,0.04439704,0.7080799,-0.04421303,9.27999979257584,19
-37.28112,0.683333,-37.08431,0.0682587897438153,-0.1251634493857956,-0.0784076039545524,10.77542,90.31819,0.05262345,0.06653317,0.7059044,-0.06625531,9.2999997921288,19
-37.0211,0.2833333,-37.09261,0.1424080082119019,-0.3455014674086832,-0.0450482892562504,3.561971,91.40841,0.08361803,0.02222648,0.7153823,-0.02173528,9.31999979168177,19
-36.95894,0.4833333,-37.09272,0.2052370992096328,-0.5507153908880912,-0.0203367007021242,7.1228,91.34536,0.163433,0.0444237,0.7139155,-0.0434421,9.33999979123473,19
-36.89679,0.6833331,-37.09282,0.0481333752817931,-0.0748786020070741,0.0149894413657278,10.68273,91.2868,0.2400576,0.06657206,0.7117599,-0.06510078,9.3599997907877,19
-36.83466,0.8833333,-37.09293,-0.1157633328935183,0.3904694552709928,0.0441645860244932,14.24165,91.23241,0.3139707,0.08864939,0.708918,-0.08669005,9.37999979034066,19
-36.77255,0.9766705,-37.09304,-0.1029201724073729,-0.0596497894370539,0.0619178150374395,17.79966,91.18192,0.3856339,0.110635,0.7053933,-0.1081899,9.39999978989363,19
-36.51323,0.2833333,-37.10289,-0.0901075553432058,-0.5202577323820183,0.0708251341335142,3.634353,92.32618,0.1137795,0.0226787,0.7209293,-0.02218579,9.41999978944659,19
-36.44978,0.4833333,-37.10352,-0.2397735639818066,-0.0863776767313044,0.0944465246345203,7.267782,92.26651,0.2239251,0.04532779,0.7194167,-0.04434311,9.43999978899956,19
-36.38634,0.6833333,-37.10416,-0.379382763249378,0.3370131876841324,0.1125216095305461,10.90073,92.21336,0.3310895,0.06792612,0.7171807,-0.06645367,9.45999978855252,19
-36.15693,0.2833336,-37.11163,-0.2609671270384339,-0.1550618903296625,0.1206827927266687,3.615185,93.12483,0.1312029,0.02251893,0.7257371,-0.02211742,9.47999978810549,19
-36.09382,0.4833338,-37.11283,-0.3338162376552063,0.062662458945608,0.140719329837843,7.229461,93.06698,0.258994,0.04500901,0.7242328,-0.04420626,9.49999978765845,19
-36.03073,0.6833336,-37.11402,-0.4038585245265267,0.2976015359697453,0.156637853996429,10.84285,93.01682,0.3843209,0.06744796,0.722008,-0.06624502,9.51999978721142,19
-35.78103,0.2833333,-37.12101,-0.2517936463256021,-0.1428291843009517,0.1645699615274978,3.558551,94.84609,0.2237129,0.02244413,0.7359718,-0.02154342,9.53999978676438,19
-35.71885,0.4833333,-37.12241,-0.0891045097130991,-0.5937489751490819,0.167153616179462,7.116257,94.79694,0.4446984,0.04485962,0.7344915,-0.04305979,9.55999978631735,19
-35.65667,0.6833336,-37.1238,-0.1745182136562277,-0.1501806984915344,0.1825511162533573,10.67305,94.76132,0.6647029,0.06722511,0.7323014,-0.06452787,9.57999978587031,19
-35.59452,0.8833336,-37.12519,-0.2510237795980714,0.2828986579535163,0.1934867590155988,14.22863,94.73931,0.8852478,0.08951636,0.7294043,-0.08592632,9.59999978542328,19
-35.38705,0.2833336,-37.12994,-0.142156142557944,-0.1994881736151124,0.1938771328719468,3.496847,95.16248,0.2688322,0.02231205,0.7378406,-0.02094247,9.61999978497624,19
-35.32587,0.4833333,-37.13079,-0.2547962493989715,0.0279241524764305,0.202506503342974,6.992968,95.11742,0.5354101,0.04459747,0.7363952,-0.04185908,9.63999978452921,19
-35.2647,0.6833333,-37.13163,-0.3656232304090814,0.272550444734992,0.207325455597271,10.48779,95.08857,0.8018443,0.06683335,0.7342617,-0.06272632,9.65999978408217,19
-35.20356,0.8833336,-37.13248,-0.28236303808848,-0.1581936767452459,0.2040971134622182,13.98169,95.0761,1.069905,0.08899999,0.7314423,-0.083529,9.67999978363514,19
-34.93615,0.2833336,-37.13741,-0.1924178001964129,-0.599426662421379,0.195967649775369,3.434885,94.44637,0.2690614,0.02207693,0.7336252,-0.02040454,9.6999997831881,19
-34.87603,0.4833331,-37.1374,-0.2705760823774064,-0.1461708037644125,0.1959707250258588,6.868656,94.40121,0.5362464,0.04412809,0.7322208,-0.04077985,9.71999978274107,19
-34.81594,0.6833331,-37.13739,-0.3369960814365846,0.2965961650840888,0.1930649270026734,10.30153,94.37196,0.8029984,0.06613232,0.7301558,-0.06111221,9.73999978229403,19
-34.57862,0.2833333,-37.14106,-0.1356663623210749,-0.1761042498569275,0.1845451417301191,3.382649,92.66468,0.1676651,0.02143717,0.7230113,-0.02033995,9.759999781847,19
-34.51954,0.4833331,-37.14091,-0.1387246770839318,0.0609951202830014,0.1838199488953265,6.764092,92.61031,0.3324038,0.0428473,0.7216488,-0.04065349,9.77999978139997,19
-34.46046,0.6833331,-37.14077,-0.1444739405048984,0.3153092291486131,0.1811216997844127,10.14468,92.56539,0.4953229,0.06421391,0.7196572,-0.06092539,9.79999978095293,19
-34.20406,0.2833333,-37.1438,0.0722623214890596,-0.1057465550228249,0.1725245889516813,3.329268,90.8353,0.06873787,0.0208177,0.7119294,-0.02026923,9.8199997805059,19
-34.14597,0.4833336,-37.14348,0.050433436088646,0.1829964091004187,0.1708051493616054,6.657206,90.77225,0.1339769,0.04160955,0.7106069,-0.04051229,9.83999978005886,19
-34.08789,0.6833338,-37.14316,0.0142261171667819,0.4889538360479771,0.1668245469610099,9.984256,90.71256,0.1960404,0.06236031,0.7086855,-0.06071537,9.85999977961183,19
-34.02983,0.883334,-37.14284,-0.0232986111569921,0.759855100908065,0.1601875815798195,13.3104,90.65592,0.2553085,0.08305266,0.7061674,-0.08086124,9.87999977916479,19
-33.81293,0.2833331,-37.14614,0.1189672995613193,0.0896777506936602,0.1468752319665185,3.278346,89.0292,359.9497,0.02008962,0.700813,-0.02036785,9.89999977871776,19
-33.75573,0.4833329,-37.14609,0.2668139099035223,-0.4895998302952012,0.1303532530733804,6.555666,88.95605,359.895,0.04015668,0.6995265,-0.0407133,9.91999977827072,19
-33.69855,0.6833329,-37.14603,0.1972795097863766,-0.0752683095011027,0.1219633601059371,9.831579,88.87917,359.8356,0.06018198,0.6976684,-0.06101793,9.93999977782369,19
-33.64138,0.8833328,-37.14598,0.1319578891206667,0.3280864912000233,0.1116148375330112,13.10648,88.79799,359.771,0.08015255,0.695241,-0.08126674,9.95999977737665,19
-33.36522,0.2833333,-37.14904,0.313803170048633,-0.1845129217146408,0.0947205268334059,3.222822,85.6133,359.8016,0.01945453,0.6792924,-0.02037866,9.97999977692962,19
-33.3089,0.4833331,-37.14822,0.297453527143503,0.0121984777943665,0.0836065892408868,6.444449,85.52795,359.5981,0.03888851,0.6780469,-0.04073489,9.99999977648258,19
-33.25259,0.6833333,-37.1474,0.2733566314912288,0.2256361636379368,0.0715115422235186,9.664739,85.4304,359.3883,0.05828542,0.6762642,-0.06105253,10.0199997760355,19
-33.00458,0.2833336,-37.1493,0.4537454285194187,-0.2367842446124507,0.0556157296169672,3.374957,85.28546,359.7911,0.02042717,0.6771693,-0.02128898,10.0399997755885,19
-32.94556,0.4833338,-37.14813,0.4033150502722762,0.0101070783899038,0.0459032785987787,6.748689,85.19854,359.5768,0.04083077,0.6758485,-0.04255375,10.0599997751415,19
-32.88655,0.6833335,-37.14695,0.3354214487096989,0.2737248610907946,0.0363855614974468,10.1212,85.09814,359.3555,0.06119397,0.6739403,-0.06377561,10.0799997746944,19
-32.82757,0.8833333,-37.14578,0.2633013641010819,0.5017983190661494,0.0270564887942796,13.49363,84.98319,359.1254,0.08150655,0.671446,-0.08494347,10.0999997742474,19
-32.61649,0.2833336,-37.14948,0.3559628408832687,-0.2116954413988573,0.0162500936673382,3.537725,86.97337,359.826,0.02135064,0.6878914,-0.02234411,10.1199997738004,19
-32.55465,0.4833336,-37.1493,0.2767455138943688,-0.0024400378441082,0.0106060682777524,7.074386,86.88904,359.6463,0.0426753,0.6864769,-0.04466237,10.1399997733533,19
-32.49284,0.6833335,-37.14912,0.1952547666520345,0.223542126400402,0.0058121623264284,10.61094,86.79262,359.4592,0.06395824,0.6844068,-0.06694123,10.1599997729063,19
-32.26299,0.2833333,-37.15244,0.3032428994958813,-0.2263327975895191,-0.0006546624296035,3.568031,88.5161,359.8929,0.02164472,0.6975734,-0.02239586,10.1799997724593,19
-32.2007,0.4833336,-37.15274,0.4136644527325224,-0.6871850183907628,-0.0059224095864891,7.135104,88.43809,359.7805,0.04326254,0.6961361,-0.04476583,10.1999997720122,19
-32.13843,0.6833336,-37.15304,0.2933869309836545,-0.2540369341933629,-0.0052711098793878,10.70103,88.35228,359.6622,0.06483222,0.6940243,-0.06708644,10.2199997715652,19
-32.07618,0.883334,-37.15334,0.1771825043652413,0.1681350249241061,-0.00422345133844,14.26569,88.25777,359.5367,0.08633272,0.6912409,-0.08933511,10.2399997711182,19
-31.78609,0.2833331,-37.15592,0.3212237493101888,-0.3256472753980609,-0.0059716223049193,3.577499,90.06851,0.05864869,0.02242072,0.7071733,-0.02172366,10.2599997706711,19
-31.72367,0.4833331,-37.155,0.2535355884144827,-0.1101184633507448,-0.0028175653265591,7.154081,90.00644,0.1140062,0.04481648,0.7057246,-0.04341718,10.2799997702241,19
-31.66126,0.6833333,-37.15408,0.1784052605211741,0.1221370816829482,0.000882614309809,10.72967,89.94732,0.165892,0.0671616,0.7035891,-0.06506246,10.2999997697771,19
-31.40007,0.2833335,-37.15639,0.320429158614651,-0.3214651392054131,0.0022832732672313,3.598107,90.89797,0.08930438,0.02257953,0.7122575,-0.02182588,10.31999976933,19
-31.33727,0.4833334,-37.15585,0.2199886224581213,-0.055756378487769,0.0074930175423304,7.195301,90.83899,0.1750756,0.04513064,0.7107931,-0.043624,10.339999768883,19
-31.27449,0.6833334,-37.15532,0.1030452906986525,0.2266787182214551,0.0126902778687139,10.79175,90.78493,0.2577068,0.06763073,0.7086287,-0.06537539,10.359999768436,19
-31.21172,0.8833331,-37.15479,-0.0160506640838988,0.4735695650391403,0.0176305065000548,14.38729,90.73553,0.3380159,0.09005818,0.7057668,-0.08705623,10.3799997679889,19
-30.99151,0.2833335,-37.15768,0.046799918819719,-0.2211068661719594,0.019232363498304,3.642563,91.38555,0.1076594,0.02287187,0.715222,-0.02208742,10.3999997675419,19
-30.92792,0.4833336,-37.15738,-0.0757484009437305,0.0069668597770587,0.0248869998085865,7.284182,91.3287,0.2118809,0.04571396,0.7137301,-0.04414615,10.4199997670949,19
-30.86434,0.6833336,-37.15707,-0.1987027147447051,0.2517675828529393,0.0307981102614292,10.92484,91.27805,0.3134602,0.0685032,0.7115177,-0.06615393,10.4399997666478,19
-30.80079,0.8833337,-37.15677,-0.3074879821172196,0.4610243190452418,0.0367589648501009,14.56499,91.2334,0.4130971,0.09121905,0.7085872,-0.0880918,10.4599997662008,19
-30.5214,0.2833337,-37.16056,-0.1535672817617097,-0.2712854769776757,0.039653219794367,3.597818,93.21672,0.1927875,0.02278745,0.7262795,-0.02165635,10.4799997657537,19
-30.45854,0.4833336,-37.16076,-0.2481256479239739,-0.0808464990062244,0.0470907085781107,7.194829,93.16809,0.3828037,0.04554585,0.7248039,-0.04328559,10.4999997653067,19
-30.3957,0.6833336,-37.16096,-0.341774567578895,0.1263193586575977,0.0545388082823876,10.7909,93.13116,0.5716125,0.06825276,0.722613,-0.06486526,10.5199997648597,19
-30.14619,0.2833335,-37.16373,-0.2116338030002538,-0.3423727640841023,0.057884863685615,3.530316,94.26891,0.2541446,0.02257937,0.732556,-0.021069,10.5399997644126,19
-30.08444,0.4833336,-37.16392,-0.2998452094787289,-0.1017539216850206,0.0634555273646881,7.05981,94.22585,0.5060707,0.04513071,0.7311143,-0.04211149,10.5599997639656,19
-30.02271,0.6833335,-37.16412,-0.3910406455632014,0.155591131430568,0.0676409693209265,10.58844,94.19822,0.7576497,0.06763251,0.7289761,-0.06310779,10.5799997635186,19
-29.961,0.8833335,-37.16431,-0.4715444116560228,0.3773925403831206,0.0700713841573232,14.1157,94.18621,1.01079,0.09006056,0.7261447,-0.08403531,10.5999997630715,19
-29.75338,0.2833331,-37.16606,-0.3704172844626434,-0.3423724562105892,0.0657356818067782,3.467635,94.23905,0.2870484,0.02242315,0.7323855,-0.02046714,10.6199997626245,19
-29.69267,0.4833329,-37.16556,-0.4320736683515385,-0.1393885403801041,0.0643845056323826,6.934167,94.19888,0.5723945,0.04481895,0.7309808,-0.04090559,10.6399997621775,19
-29.63199,0.6833327,-37.16507,-0.4839696952674899,0.0803218327967453,0.0617681121955371,10.39974,94.17593,0.8577974,0.06716605,0.7289035,-0.06129995,10.6599997617304,19
-29.40431,0.2833336,-37.16681,-0.5127778484270813,0.2644882487099917,0.0577988263679074,3.415832,93.43259,0.2514883,0.02203107,0.7275978,-0.02019254,10.6799997612834,19
-29.34456,0.4833335,-37.16602,-0.4857315698286868,0.2273766071012426,0.0535465739430804,6.83055,93.38903,0.5008277,0.0440345,0.7262291,-0.04035854,10.6999997608364,19
-29.28483,0.6833333,-37.16524,-0.4588701024551511,0.2357404176762706,0.0498567177394235,10.24443,93.36021,0.7497327,0.06599241,0.7242129,-0.06048248,10.7199997603893,19
-29.22511,0.8833334,-37.16446,-0.4187993020015277,0.2362637780799388,0.0466125114936204,13.65741,93.34633,0.9999614,0.08788507,0.7215515,-0.08054665,10.7399997599423,19
-28.93809,0.2833333,-37.16644,-0.1634066021058409,-0.464684807827581,0.0407670876927923,3.362157,91.13925,0.1254042,0.02131767,0.7137715,-0.02018321,10.7599997594953,19
-28.8794,0.4833333,-37.16545,-0.1646404570412549,-0.2428831429235908,0.0385572022873361,6.723018,91.08444,0.2478873,0.04260879,0.7124482,-0.04033966,10.7799997590482,19
-28.82073,0.6833332,-37.16446,-0.1663896995539779,-0.0043550670197857,0.0359414099616941,10.08305,91.03651,0.3682064,0.0638577,0.710512,-0.06045541,10.7999997586012,19
-28.56481,0.2833335,-37.16589,0.0576326321653546,-0.4416849866799643,0.0290808747460431,3.305812,89.40166,0.00710166,0.02054604,0.7031111,-0.02024544,10.8199997581542,19
-28.50714,0.4833334,-37.1652,0.0447565325236034,-0.1697038363097974,0.025065294638999,6.610662,89.33656,0.01051111,0.04106933,0.7018279,-0.04046775,10.8399997577071,19
-28.44949,0.6833335,-37.16451,0.0196251243725456,0.1190038836141709,0.0206491653424336,9.914141,89.27117,0.01000971,0.06154912,0.6999619,-0.06064883,10.8599997572601,19
-28.39185,0.8833335,-37.16382,-0.0047856036342643,0.3721675332830383,0.0156401660968441,13.21667,89.20502,0.005601858,0.0819717,0.697515,-0.08077396,10.879999756813,19
-28.17517,0.2833333,-37.16579,-0.0155148909950249,0.4236876469888995,0.0098350428865146,3.253755,87.55032,359.9077,0.0199426,0.6915677,-0.02022286,10.899999756366,19
-28.11839,0.4833331,-37.165,0.0197267034655901,0.3558052705259753,0.0023549100497035,6.506477,87.47697,359.8111,0.03986368,0.6903203,-0.04042351,10.919999755919,19
-28.06162,0.6833332,-37.16422,0.0466363381467367,0.3338861124128015,-0.0054959864774133,9.758049,87.39753,359.7095,0.05974618,0.6885172,-0.06058544,10.9399997554719,19
-28.00487,0.8833331,-37.16343,0.0782838534662779,0.3046142019940633,-0.0138484624459138,13.00824,87.31134,359.6022,0.0795731,0.6861601,-0.08069086,10.9599997550249,19
-27.7289,0.2833331,-37.16538,0.3043652003736348,-0.425640825648353,-0.0262271817129899,3.20114,84.36287,359.7741,0.01937487,0.671258,-0.02021552,10.9799997545779,19
-27.67294,0.483333,-37.16384,0.2800638310594863,-0.2326585592149268,-0.0344246929381384,6.401002,84.27867,359.5432,0.03872856,0.6700491,-0.04040918,10.9999997541308,19
-27.61699,0.683333,-37.1623,0.2494850480223007,-0.0224620001849266,-0.0422755023475787,9.599547,84.18082,359.3059,0.05804643,0.6683156,-0.06056491,11.0199997536838,19
-27.36606,0.2833333,-37.16425,0.4249872285751479,-0.487635636751314,-0.052120886074185,3.533218,85.79488,359.7924,0.02135172,0.6804044,-0.02231052,11.0399997532368,19
-27.30425,0.4833333,-37.16339,0.3712333061062871,-0.24301012480488,-0.0578360952349896,7.065218,85.71051,359.5794,0.04267735,0.6790175,-0.04459396,11.0599997527897,19
-27.24245,0.6833332,-37.16252,0.3019079707471448,0.0188294877309929,-0.0622415264931177,10.5972,85.61199,359.3586,0.06396223,0.6769831,-0.06683911,11.0799997523427,19
-27.18069,0.8833332,-37.16166,0.230332005092233,0.2456132259287454,-0.0653683940761027,14.12916,85.49815,359.1285,0.0851883,0.6743031,-0.08902297,11.0999997518957,19
-26.97165,0.2833333,-37.16518,0.325894505854567,-0.4686817121045336,-0.0692769850887415,3.561388,87.62046,359.8509,0.0215236,0.6919664,-0.02245031,11.1199997514486,19
-26.90945,0.4833332,-37.16524,0.2509593561778054,-0.2597390757176103,-0.0691865047746418,7.121782,87.54163,359.6961,0.04301897,0.6905564,-0.04487656,11.1399997510016,19
-26.84727,0.6833331,-37.16531,0.1758615318520995,-0.0335817175929339,-0.0677410412482402,10.68093,87.45232,359.535,0.06446659,0.6884794,-0.06725303,11.1599997505546,19
-26.7851,0.883333,-37.16537,0.1141910436277413,0.1575197384031076,-0.0651583971600402,14.2388,87.35154,359.3659,0.08584576,0.6857378,-0.08955816,11.1799997501075,19
-26.51567,0.2833333,-37.16827,0.0998593835326104,0.1278296627502073,-0.0625105542783117,3.58995,89.51947,0.005340374,0.02227426,0.7037889,-0.02202262,11.1999997496605,19
-26.45303,0.4833337,-37.16768,0.0765305164269527,0.1441030175783485,-0.0586689392579202,7.179065,89.45547,0.006970641,0.04452327,0.7023553,-0.04401667,11.2199997492135,19
-26.39041,0.6833339,-37.16709,0.0582572826049911,0.1530237526938759,-0.0538996962921061,10.76716,89.391,0.004573503,0.06672249,0.7002337,-0.06596113,11.2399997487664,19
-26.15098,0.2833333,-37.16925,0.2483263929777521,-0.5390384824469223,-0.0511592561393499,3.56124,90.39943,0.07763321,0.02237546,0.7092096,-0.021571,11.2599997483194,19
-26.08883,0.4833332,-37.16836,0.1748554632414212,-0.3078633816954446,-0.0444129059302511,7.121357,90.34239,0.1520126,0.04472282,0.7077886,-0.04311284,11.2799997478724,19
-26.02671,0.683333,-37.16747,0.095539937321309,-0.0594738382438082,-0.0371577890794014,10.68055,90.28955,0.2235289,0.06702094,0.705685,-0.06460685,11.2999997474253,19
-25.76491,0.2833333,-37.16989,0.2349519198210927,-0.4864541380850855,-0.0326022542384549,3.635722,91.17812,0.1044304,0.02284994,0.713959,-0.02202307,11.3199997469783,19
-25.70143,0.4833333,-37.16941,0.1336277065363873,-0.2036356537392377,-0.0253351500092549,7.270507,91.12395,0.2055608,0.0456701,0.7124907,-0.0440179,11.3399997465312,19
-25.63798,0.6833332,-37.16893,0.0174052117328109,0.0963972226043357,-0.0178481261721117,10.90501,91.07579,0.3039893,0.06844051,0.7103055,-0.06596755,11.3599997460842,19
-25.57454,0.8833331,-37.16845,-0.0994132892524817,0.3613739460948979,-0.0103608671175194,14.53855,91.03346,0.4007246,0.09113588,0.7074063,-0.08784416,11.3799997456372,19
-25.51112,0.9766704,-37.16797,-0.2025359839037115,0.4251942394371972,-0.0031168316223357,18.1711,90.99682,0.4963944,0.1137328,0.7037965,-0.1096264,11.3999997451901,19
-25.2525,0.2833333,-37.17197,-0.255617384824145,0.3701002278122269,0.0037498018233605,3.622193,92.13579,0.1386081,0.02279791,0.7197757,-0.02192144,11.4199997447431,19
-25.18925,0.4833334,-37.17195,-0.3138859927026978,0.3614574867970988,0.0112523325890734,7.243446,92.08517,0.274178,0.04556583,0.7183113,-0.0438149,11.4399997442961,19
-25.12603,0.6833334,-37.17193,-0.3626255407716243,0.3459499533918639,0.019055000826178,10.86377,92.04281,0.4078206,0.06828162,0.7161294,-0.06565837,11.459999743849,19
-24.89736,0.2833333,-37.17511,-0.2028771537535263,-0.3700525095091237,0.0236437013280692,3.560412,93.95937,0.2278155,0.0226474,0.7307154,-0.02135656,11.479999743402,19
-24.83512,0.4833334,-37.17547,-0.2865031963331539,-0.1623300221106802,0.0318137443816439,7.119957,93.91711,0.4533653,0.04526605,0.7292765,-0.04268611,11.499999742955,19
-24.7729,0.6833332,-37.17583,-0.3644927491935235,0.0630950949317856,0.0393746700582156,10.67864,93.88873,0.6784143,0.06783462,0.7271318,-0.06396817,11.5199997425079,19
-24.52394,0.2833333,-37.17838,-0.2184220741891565,-0.3863615777518072,0.0414736809252218,3.49763,94.38937,0.2722162,0.02247913,0.7332738,-0.02077642,11.5399997420609,19
-24.46274,0.4833332,-37.17834,-0.2936957801884112,-0.1255314388166941,0.0455930529119257,6.994464,94.35102,0.5425214,0.04493071,0.731869,-0.04152731,11.5599997416139,19
-24.40155,0.683333,-37.17831,-0.3753928044263332,0.1530012006541929,0.0484810092557026,10.48999,94.32914,0.8130697,0.06733207,0.7297798,-0.06222969,11.5799997411668,19
-24.34038,0.8833331,-37.17827,-0.4503924385325106,0.3969655711338831,0.0498924272335656,13.98454,94.32403,1.085802,0.08966391,0.7270086,-0.08286747,11.5999997407198,19
-24.13299,0.2833333,-37.1801,-0.2403158796070243,-0.2996615247843197,0.0453212722113463,3.4391,94.09733,0.2887976,0.02229002,0.7315493,-0.0202468,11.6199997402728,19
-24.07278,0.4833332,-37.17938,-0.2051997867258812,-0.0725633946759601,0.0441824277039657,6.877015,94.06034,0.5760887,0.04455268,0.7301807,-0.04046506,11.6399997398257,19
-24.01259,0.6833332,-37.17867,-0.1748273242430755,0.172237269421322,0.0426993642319146,10.31406,94.04059,0.8636951,0.06676865,0.7281513,-0.06064055,11.6599997393787,19
-23.95242,0.8833331,-37.17796,-0.1356602640954207,0.3824700309439285,0.0408002446420852,13.75021,94.03836,1.153671,0.08891772,0.7254631,-0.0807557,11.6799997389317,19
-23.68534,0.2833333,-37.18055,0.0928705154151998,-0.3478886532844862,0.0363844986630113,3.387836,92.06518,0.1721837,0.02160307,0.7193887,-0.02023272,11.6999997384846,19
-23.62617,0.4833334,-37.17971,0.0883871749090801,-0.1545226367182069,0.0362204475563459,6.774397,92.01765,0.3418792,0.04317869,0.7180643,-0.04043859,11.7199997380376,19
-23.56701,0.6833333,-37.17886,0.0847869104201493,0.0565452536600083,0.0362647119965586,10.16015,91.97993,0.5102091,0.06471077,0.716112,-0.06060334,11.7399997375906,19
-23.33053,0.2833333,-37.18051,0.2849352455161238,-0.4072696309004971,0.0318482168062814,3.330812,90.35841,0.0723609,0.02093379,0.7090023,-0.02016969,11.7599997371435,19
-23.27241,0.4833333,-37.17964,0.2779284137557312,-0.1607968951298439,0.0301228532210942,6.660285,90.30205,0.1415523,0.04184113,0.7077199,-0.04031368,11.7799997366965,19
-23.21431,0.6833333,-37.17878,0.2661660339125831,0.1033783329875313,0.0275866950712995,9.988868,90.24934,0.2079603,0.06270694,0.7058405,-0.06041808,11.7999997362494,19
-22.95896,0.2833336,-37.18063,0.2628980445688249,0.3329858538478372,0.0239782328185356,3.279097,88.6676,359.9529,0.02017787,0.6985596,-0.02028909,11.8199997358024,19
-22.90175,0.4833336,-37.18016,0.2945604395702865,0.3422901835913462,0.0143094364174913,6.557203,88.60102,359.9018,0.0403334,0.6973134,-0.04055583,11.8399997353554,19
-22.84456,0.6833335,-37.17969,0.3023923444656695,0.3980457651272991,0.0046480014516063,9.833932,88.53098,359.8463,0.06044676,0.6954972,-0.0607824,11.8599997349083,19
-22.78738,0.8833336,-37.17921,0.2995679055463824,0.4469369623318722,-0.0051975129514829,13.10963,88.45692,359.7861,0.08050458,0.693113,-0.08095355,11.8799997344613,19
-22.73021,0.9766706,-37.17874,0.2992334089029356,0.4356475809189294,-0.0154207952978211,16.38433,88.37821,359.7205,0.1004911,0.6901633,-0.1010527,11.8999997340143,19
-22.47347,0.2833332,-37.18117,0.4686654807157069,-0.4148447684155893,-0.0300063072965315,3.222991,85.33121,359.8041,0.01952066,0.6774847,-0.0203155,11.9199997335672,19
-22.41715,0.4833331,-37.18002,0.4133338502405408,-0.2424911043374761,-0.0400751998753179,6.444775,85.25241,359.6035,0.03901991,0.6762809,-0.04060899,11.9399997331202,19
-22.36085,0.6833332,-37.17888,0.3547525425360049,-0.0529230331031745,-0.0499971947981237,9.665274,85.16162,359.3969,0.0584823,0.6745412,-0.060864,11.9599997326732,19
-22.13194,0.2833331,-37.18071,0.4827957946698653,-0.5387253993907692,-0.0619661739718679,3.374728,85.10172,359.7936,0.02047464,0.6759892,-0.0212387,11.9799997322261,19
-22.07293,0.4833329,-37.1793,0.4127854625253917,-0.3147284029434221,-0.0697067186655999,6.748247,85.02135,359.5822,0.04092558,0.6747099,-0.04245318,11.9999997317791,19
-22.01394,0.683333,-37.17789,0.3356065561297185,-0.0735170079645281,-0.076251321993233,10.12046,84.92771,359.3641,0.06133498,0.6728444,-0.06362453,12.0199997313321,19
-21.76365,0.2833335,-37.18059,0.2645433993719486,0.1326382555922762,-0.0816349006787433,3.538015,86.87888,359.8283,0.02138508,0.6872926,-0.02231327,12.039999730885,19
-21.70181,0.4833336,-37.18026,0.2300475226468066,0.1180023050436969,-0.0855576744326853,7.074935,86.80099,359.6514,0.04274362,0.6859179,-0.04460057,12.059999730438,19
-21.64,0.6833338,-37.17994,0.1734766098113915,0.1493297438566684,-0.0878315564092773,10.61177,86.71124,359.4675,0.06406008,0.683888,-0.0668488,12.079999729991,19
-21.57821,0.8833337,-37.17961,0.1085852802751645,0.1733047496499888,-0.0885894096231467,14.14732,86.60865,359.2754,0.08530968,0.6812059,-0.08902691,12.0999997295439,19
-21.26792,0.2833333,-37.18328,0.2546070648960707,-0.5037032533189876,-0.0972176562772801,3.575235,88.8832,359.9313,0.02185228,0.6998544,-0.02226992,12.1199997290969,19
-21.20552,0.4833335,-37.1833,0.2185852802750787,-0.2574741979522799,-0.1024293171390411,7.149646,88.81507,359.858,0.04367756,0.6984504,-0.04451472,12.1399997286499,19
-21.14314,0.6833336,-37.18332,0.1718399754768143,0.005969355521363,-0.1070775276569051,10.72294,88.74168,359.7797,0.06545406,0.6963674,-0.06670984,12.1599997282028,19
-21.08078,0.8833338,-37.18334,0.1286332994826473,0.2343568745347771,-0.1112910214723683,14.29507,88.66231,359.6956,0.08716048,0.6936079,-0.08883359,12.1799997277558,19
-20.86192,0.2833333,-37.18524,0.1032292307433664,0.2615884275623736,-0.1152180901227453,3.571136,89.99502,0.06369824,0.02242655,0.7067204,-0.02163889,12.1999997273088,19
-20.79961,0.4833332,-37.18414,-0.2052745423189002,0.1699059536148822,-0.2202259307046645,7.141322,89.93967,0.1245885,0.04482827,0.7053141,-0.04324729,12.2199997268617,19
-20.73731,0.6833332,-37.18305,-0.4882020674654903,0.1246742695624505,-0.3160627734242993,10.71052,89.88769,0.1825551,0.06717997,0.7032239,-0.06480747,12.2399997264147,19
-20.49733,0.2833331,-37.18605,-0.7324097069798547,0.0725777787455121,-0.4029751261738781,3.59586,91.12902,0.09645794,0.02256631,0.7136689,-0.02181369,12.2599997259676,19
-20.43456,0.483333,-37.18565,-1.3071067817459951,0.0402746855488729,-0.6188930666446026,7.190756,91.07694,0.1897292,0.0451033,0.7122425,-0.04359997,12.2799997255206,19
-20.37181,0.683333,-37.18524,-1.8216085476193504,0.0544228352586839,-0.8147178435801123,10.78496,91.03032,0.2802693,0.06758904,0.7101153,-0.06534054,12.2999997250736,19
-20.30908,0.8833332,-37.18483,-2.2641859210941675,0.061706366029483,-0.9907821154427054,14.37814,90.98894,0.3690448,0.0900015,0.70729,-0.08701031,12.3199997246265,19
-20.00937,0.2833332,-37.19257,-2.988099643332028,0.0887822309763324,-1.3046624280902606,3.636658,91.74017,0.1155158,0.02281673,0.7173788,-0.02207341,12.3399997241795,19
-19.94587,0.4833333,-37.19252,-3.6297050198804026,0.162309100301715,-1.5851970947871905,7.272338,91.69026,0.228052,0.04560363,0.7159259,-0.04411804,12.3599997237325,19
-19.88239,0.6833336,-37.19247,-4.178540170776811,0.2289712557299236,-1.8329462205623344,10.90704,91.64716,0.3384768,0.06833787,0.7137524,-0.06611183,12.3799997232854,19
-19.81894,0.8833337,-37.19242,-4.624176216196423,0.2354526193639114,-2.048551269548483,14.54122,91.6107,0.4474896,0.09099844,0.710861,-0.08803638,12.3999997228384,19
-19.61111,0.2833333,-37.19592,-5.06388482532957,-0.5972680956274659,-2.460055938179337,3.589506,93.3482,0.1854699,0.02266642,0.72707,-0.02167353,12.4199997223914,19
-19.54841,0.4833336,-37.19638,-5.607592096336695,-0.4071428955619503,-2.81642120997752,7.178063,93.30502,0.3684976,0.0453033,0.7256358,-0.04331932,12.4399997219443,19
-19.48572,0.6833337,-37.19685,-6.0323222322227785,-0.1998032010484394,-3.122787562033494,10.76571,93.27311,0.5505342,0.0678891,0.723489,-0.06491639,12.4599997214973,19
-19.25735,0.2833336,-37.19931,-6.328975871907975,-0.0275197703757321,-3.3805557404224373,3.527982,94.36928,0.2515277,0.02253033,0.7331523,-0.02108935,12.4799997210503,19
-19.19565,0.4833337,-37.19966,-6.824385855930679,-0.076026501602332,-3.805117756811054,7.05513,94.33213,0.5011704,0.04503264,0.7317479,-0.04215245,12.4999997206032,19
-19.13396,0.6833338,-37.2,-7.183565940155994,-0.0785696161776258,-4.166260896214848,10.58136,94.31029,0.7508135,0.0674854,0.7296476,-0.06316918,12.5199997201562,19
-19.07229,0.8833336,-37.20034,-7.399586783907228,-0.0884655202576912,-4.465829516115623,14.10628,94.30405,1.00245,0.08986579,0.7268544,-0.0841172,12.5399997197092,19
-18.78447,0.2833333,-37.20283,-7.695189541701163,0.5612575614568609,-4.700937106321547,3.46045,94.78876,0.2967109,0.02234432,0.7356397,-0.02047128,12.5599997192621,19
-18.72388,0.4833333,-37.20274,-7.858267301106869,0.3263535645896059,-5.114645710227435,6.919635,94.75555,0.5919956,0.04465962,0.7342724,-0.04091401,12.5799997188151,19
-18.66331,0.6833333,-37.20265,-7.891908946444261,0.1128452750909301,-5.448320948102047,10.37795,94.74017,0.8878825,0.06692751,0.7322318,-0.06131333,12.5999997183681,19
-18.41023,0.2833332,-37.21121,-7.790338686990735,-0.1336282227842745,-5.704790700008704,3.40492,95.09348,0.2486829,0.0216538,0.7374573,-0.02045601,12.619999717921,19
-18.35068,0.4833332,-37.2122,-7.775456260870866,-0.1473579514827212,-6.037952344927788,6.808639,95.05563,0.4948812,0.04327584,0.7361237,-0.04088885,12.639999717474,19
-18.29114,0.6833331,-37.21319,-7.657184778112319,-0.1151249797454047,-6.280912199406647,10.21154,95.03236,0.7409614,0.0648537,0.734138,-0.06127959,12.6599997170269,19
-18.23162,0.8833331,-37.21418,-7.4309882879052225,-0.0902448124099662,-6.43766923894232,13.61352,95.02387,0.9886529,0.08636774,0.7315025,-0.08161007,12.6799997165799,19
-18.17212,0.9766703,-37.21517,-7.0923429662061785,-0.126033541747856,-6.512400446374457,17.01454,95.03065,1.239808,0.1077992,0.7282202,-0.1018626,12.6999997161329,19
-18.17519,0.2833335,-37.31471,-6.739894587725647,-0.1691739745828184,-6.571203259226703,3.344782,97.6235,0.1928948,0.02048529,0.752196,-0.02085477,12.7199997156858,19
-18.11691,0.4833333,-37.31918,-6.297466150458151,-0.1663510473277348,-6.548884868880752,6.688472,97.58057,0.3819085,0.04093473,0.7508898,-0.04169326,12.7399997152388,19
-18.05864,0.6833332,-37.32364,-5.761168839080852,-0.1708808214144387,-6.450779893944411,10.03134,97.54851,0.5699526,0.06134337,0.748943,-0.06249026,12.7599997147918,19
-18.15918,0.2833334,-37.4599,-5.3404500145408775,0.4842090904574302,-6.277477841628578,3.286441,101.0913,0.0904334,0.01883144,0.7717989,-0.02164008,12.7799997143447,19
-18.10262,0.4833335,-37.46947,-4.685146200707619,0.25467211854239,-6.091413491360164,6.572007,101.0395,0.1779941,0.03764172,0.7705173,-0.04325618,12.7999997138977,19
-18.04609,0.6833337,-37.47903,-3.965613177048281,0.0465311975876499,-5.8339999424862725,9.8564,100.9923,0.2618147,0.05640444,0.7686024,-0.06483629,12.8199997134507,19
-18.10969,0.2833333,-37.63891,-3.178835943658573,-0.1945752653168189,-5.51199831164519,3.235381,105.7081,0.0314034,0.01726514,0.7967774,-0.02233693,12.8399997130036,19
-18.05523,0.4833332,-37.65375,-2.4416937137622856,-0.2029381181212209,-5.133867968070884,6.469854,105.6513,0.05955091,0.03451088,0.7955133,-0.04465006,12.8599997125566,19
-18.00078,0.6833332,-37.66859,-1.6828555660213134,-0.1653378025813617,-4.695718632865109,9.70339,105.5958,0.08457372,0.05172331,0.7936161,-0.06692149,12.8799997121096,19
-17.94635,0.8833333,-37.68342,-0.9001883394790333,-0.135090528403185,-4.205486952384497,12.93581,105.5408,0.1046196,0.06887472,0.7910869,-0.08914234,12.8999997116625,19
-17.99285,0.2833334,-37.91127,-0.0915661039374828,-0.1655120533266511,-3.6712471926198944,3.265753,110.0449,359.9351,0.01587096,0.819053,-0.02367298,12.9199997112155,19
-17.93973,0.4833333,-37.93196,0.8153333902578712,-0.2032859429695921,-3.078143027877026,6.530529,109.9801,359.8663,0.03172402,0.8177605,-0.04732063,12.9399997107685,19
-17.88663,0.6833332,-37.95265,1.7054443432021138,-0.1950968018269231,-2.4497485699486674,9.794271,109.9109,359.793,0.04754547,0.8158044,-0.07092381,12.9599997103214,19
-17.83355,0.8833331,-37.97332,2.5811629238128813,-0.1942606144056553,-1.7953352893969026,13.05746,109.8364,359.7135,0.06331625,0.8131862,-0.09447303,12.9799997098744,19
-17.90107,0.2833335,-38.19771,3.245990666230563,0.4661952291799708,-1.1218876810357443,3.524636,116.0744,359.9268,0.01573791,0.8480011,-0.0264291,12.9999997094274,19
-17.84638,0.4833336,-38.22601,4.036921343290958,0.2420244485019501,-0.3990459405659337,7.048262,116.0086,359.8493,0.0314561,0.8465264,-0.05282668,13.0199997089803,19
-17.79172,0.6833336,-38.25427,4.779324002467815,0.0392495755629315,0.323463298253074,10.57271,115.9371,359.7647,0.04713271,0.8442499,-0.07919108,13.0399997085333,19
-17.73707,0.8833337,-38.28253,5.475599578010048,-0.1964905182975467,1.0354229035756148,14.09633,115.8591,359.6738,0.06275679,0.8411747,-0.1054781,13.0599997080863,19
-17.67729,0.2833335,-38.53361,6.034823517222876,-0.199487175160582,1.7612861167854987,3.558284,122.5887,0.005748333,0.01495611,0.8766752,-0.02720711,13.0799997076392,19
-17.62496,0.4833334,-38.56704,6.500785155869538,-0.1565207711824449,2.456709961214372,7.11597,122.5303,0.005278989,0.02987546,0.8751622,-0.05439425,13.0999997071922,19
-17.57265,0.6833334,-38.60045,6.875781967366299,-0.1209072375541883,3.110942045920517,10.67265,122.4713,0.001077315,0.04476149,0.8728064,-0.08152147,13.1199997067451,19
-17.4541,0.2833334,-38.77974,6.930993697922082,0.574325835500878,3.723599027436009,3.586915,124.0792,0.08777321,0.01534999,0.8828278,-0.02728447,13.1399997062981,19
-17.40141,0.4833331,-38.81357,7.115890080277563,0.3849331669675687,4.310521773312281,7.173204,124.0289,0.1725867,0.0306822,0.8812913,-0.05453668,13.1599997058511,19
-17.34875,0.6833331,-38.84739,7.160413451309578,0.2169365978319299,4.826262769275303,10.7585,123.9836,0.2549551,0.04597933,0.8788921,-0.08172769,13.179999705404,19
-17.29609,0.8833331,-38.8812,7.067301123649868,0.0159746690836511,5.259921515792748,14.34284,123.943,0.3355332,0.06122704,0.8756331,-0.1088309,13.199999704957,19
-17.16399,0.2833335,-38.97497,7.048747092458248,-0.7845815742845337,5.626486077756944,3.567767,122.1441,0.04346908,0.01538953,0.8747987,-0.02706212,13.21999970451,19
-17.11089,0.4833335,-39.00746,6.946917719199481,-0.5627803365180173,6.006317731753882,7.134455,122.0899,0.08426679,0.03076418,0.8732821,-0.05408684,13.2399997040629,19
-17.05781,0.6833335,-39.03995,6.700682270012525,-0.3242525067213631,6.287961013159226,10.70017,122.0378,0.1219898,0.04610436,0.8709201,-0.08105165,13.2599997036159,19
-17.00473,0.8833336,-39.07242,6.314393095416639,-0.1212683784111103,6.4614323610598845,14.26488,121.9875,0.1569591,0.06139602,0.8677159,-0.1079299,13.2799997031689,19
-16.80338,0.2833333,-39.15476,5.983049707553505,0.6003599653792442,6.67503087448555,3.634051,115.8526,359.9748,0.01665058,0.8469436,-0.02698497,13.2999997027218,19
-16.74648,0.4833332,-39.18278,5.75589908823463,0.3253121218005889,6.814811364330275,7.267067,115.7921,359.9458,0.03328081,0.8453984,-0.05393471,13.3199997022748,19
-16.68959,0.6833331,-39.2108,5.40046934594576,0.0716598702468432,6.840881150735527,10.89902,115.7292,359.9127,0.04987356,0.8430043,-0.08082219,13.3399997018278,19
-16.47843,0.2833333,-39.24944,5.067548607258411,0.5053307836920532,6.925230373733726,3.597155,110.3132,359.9875,0.01784218,0.8203141,-0.02582143,13.3599997013807,19
-16.41963,0.4833333,-39.27139,4.818019965613088,0.2944713921560455,6.929892331405199,7.193242,110.2541,359.9713,0.03566234,0.8188148,-0.0516093,13.3799997009337,19
-16.36085,0.6833333,-39.29333,4.45747510615975,0.1050078844888246,6.823379543416216,10.78828,110.1934,359.9514,0.0534433,0.8165099,-0.07733823,13.3999997004867,19
-16.30209,0.8833333,-39.31528,3.994444634174137,-0.1174210931690045,6.598841440802147,14.38227,110.1309,359.9283,0.07117407,0.813403,-0.1029786,13.4199997000396,19
-16.01511,0.2833332,-39.31964,3.765666954742379,-0.1071064026193436,6.528838975374796,3.530465,103.8101,0.06088331,0.01942312,0.7866056,-0.02391496,13.4399996995926,19
-15.95502,0.4833333,-39.33325,3.448492831101566,-0.0508282721799391,6.361690655959976,7.059912,103.7581,0.1187866,0.0388228,0.7851768,-0.04779924,13.4599996991456,19
-15.89496,0.6833332,-39.34685,3.052442951062396,-0.0019025498445596,6.0928685378529295,10.5884,103.7092,0.174122,0.05818112,0.7830037,-0.07163063,13.4799996986985,19
-15.83491,0.8833333,-39.36046,2.587076098951417,-0.013645522243969,5.71797531786536,14.11576,103.6638,0.2292713,0.0774922,0.7800903,-0.09537482,13.4999996982515,19
-15.62731,0.2833335,-39.33467,2.470927296905163,-0.0327419102621677,5.507242075366676,3.466059,99.36124,0.1527269,0.02058402,0.762074,-0.02219634,13.5199996978045,19
-15.5672,0.4833335,-39.34183,2.288379735064707,-0.0058754241321554,5.215551280035392,6.931053,99.31777,0.3035143,0.04114519,0.7607039,-0.04436209,13.5399996973574,19
-15.50712,0.6833334,-39.34901,2.050784938074776,0.0136382183930704,4.841217041260137,10.39495,99.28362,0.4556464,0.06167901,0.7586387,-0.06646475,13.5599996969104,19
-15.2801,0.2833332,-39.32611,1.7695255489780024,-0.0275169410582292,4.382776646234177,3.415131,95.32288,0.1565188,0.02107857,0.7388217,-0.02110665,13.5799996964633,19
-15.22052,0.483333,-39.32891,1.6165920127186857,-0.0760244952845651,4.1276972995461705,6.829009,95.27987,0.3127115,0.0421429,0.7375011,-0.04217409,13.5999996960163,19
-15.16096,0.6833328,-39.33171,1.4253053209737363,-0.078568595769462,3.822173740340269,10.24203,95.24597,0.4676347,0.06316365,0.7355255,-0.0631983,13.6199996955693,19
-15.10141,0.8833327,-39.33451,1.208222444281699,-0.0884655322799158,3.46706253475503,13.65415,95.22117,0.6223695,0.08412195,0.7328969,-0.08416047,13.6399996951222,19
-14.81555,0.2833335,-39.30497,0.8984361872534343,0.5612567602365189,3.2385825273674484,3.359851,90.04583,0.04680588,0.02101009,0.707077,-0.02044927,13.6599996946752,19
-14.75693,0.4833334,-39.3042,0.8084051559729293,0.3263528416879634,3.010114063058545,6.718423,89.99309,0.0922481,0.04200413,0.7058157,-0.04086262,13.6799996942282,19
-14.69832,0.6833333,-39.30343,0.6925966526005567,0.1128450588651094,2.7546317017541853,10.07606,89.94265,0.1349397,0.06295604,0.7039487,-0.06123498,13.6999996937811,19
-14.44345,0.2833332,-39.27841,0.5645479730416181,-0.1336279548977302,2.4747856646455237,3.303742,86.70172,359.9576,0.02070793,0.6861866,-0.02005717,13.7199996933341,19
-14.38586,0.4833332,-39.27584,0.5434645004652943,-0.1473577534644709,2.268198016523975,6.606452,86.64119,359.9117,0.04139246,0.6849722,-0.04009171,13.7399996928871,19
-14.32829,0.683333,-39.27327,0.5032528744505367,-0.1151244589565354,2.047220095602356,9.907797,86.57765,359.8628,0.06203957,0.6831899,-0.06007947,13.75999969244,19
-14.27074,0.8833331,-39.27071,0.4579594276087881,-0.0902438014104999,1.8154053668079229,13.20811,86.51053,359.8095,0.0826291,0.6808413,-0.08001149,13.779999691993,19
-14.2132,0.9766706,-39.26815,0.4216524984510172,-0.1260320839223444,1.5764724612800407,16.50743,86.43922,359.7514,0.1031442,0.6779289,-0.09987152,13.799999691546,19
-13.95749,0.2833335,-39.23769,0.4933201205070396,-0.1691729777835178,1.4239102201281213,3.246328,82.70962,359.8375,0.0203256,0.6604844,-0.01977946,13.8199996910989,19
-13.90095,0.4833333,-39.23333,0.5450867603994851,-0.1663505939678727,1.269831418796251,6.491542,82.63918,359.6708,0.04062921,0.6593189,-0.03953718,13.8399996906519,19
-13.84443,0.6833332,-39.22896,0.5912442742032162,-0.1708808626210515,1.1184779688531137,9.735579,82.55867,359.4988,0.06089435,0.6576238,-0.05925711,13.8599996902049,19
-13.61983,0.2833334,-39.20235,0.4609082268669979,0.4842078277752894,0.9870159791224964,3.194866,79.42404,359.7627,0.02012209,0.638724,-0.01940365,13.8799996897578,19
-13.56428,0.4833332,-39.19619,0.494798984911819,0.2546705424983304,0.8800429838286377,6.38852,79.34773,359.5209,0.04022281,0.6375987,-0.03878635,13.8999996893108,19
-13.50875,0.6833331,-39.19004,0.5205938892305468,0.0465291342949871,0.7805645306186193,9.580877,79.25722,359.2729,0.06028618,0.635976,-0.05813306,13.9199996888638,19
-13.25922,0.2833335,-39.16182,0.5525807797777063,-0.1945774182534663,0.6928781294979203,3.530237,80.23611,359.7781,0.02230807,0.6441033,-0.02132769,13.9399996884167,19
-13.19779,0.4833336,-39.15521,0.3310697602755077,0.4373735640843243,0.6003070633356273,7.05926,80.15923,359.5512,0.04458892,0.6428096,-0.0426294,13.9599996879697,19
-13.13638,0.6833338,-39.14861,0.3405081132654288,0.1846980884659179,0.5430584367441682,10.58826,80.06741,359.3172,0.066829,0.6409038,-0.06389266,13.9799996875226,19
-13.075,0.8833337,-39.14201,0.3357695182627864,-0.0465811914898994,0.4951107700141648,14.11732,79.95956,359.0741,0.08900837,0.6383875,-0.085098,13.9999996870756,19
-12.76611,0.2833335,-39.10739,0.3310876280901631,-0.3108259754121789,0.4601229490513105,3.563377,81.94694,359.8608,0.02267801,0.6554205,-0.02130379,14.0199996866286,19
-12.7042,0.4833333,-39.10112,0.3621618008651399,-0.3423276709815546,0.4174280278316615,7.125853,81.8778,359.7168,0.0453285,0.6541014,-0.04258348,14.0399996861815,19
-12.64231,0.6833332,-39.09485,0.3762954313855129,-0.3278661479398275,0.3795886569600171,10.68712,81.79896,359.5671,0.06792845,0.6521499,-0.0638161,14.0599996857345,19
-12.58043,0.8833332,-39.08858,0.3880907712921182,-0.3207572435653048,0.3496281647805261,14.24712,81.70947,359.4103,0.09045584,0.6495683,-0.08498096,14.0799996852875,19
-12.36232,0.2833333,-39.06239,0.2117055060103272,0.3459713339615059,0.294495284342311,3.592471,83.01591,0.005669418,0.02350597,0.6623973,-0.02073611,14.0999996848404,19
-12.3001,0.4833334,-39.05469,0.3019447848858352,0.1280736797764603,0.27421757964661,7.184144,82.96068,0.008482022,0.04698705,0.6610583,-0.04144329,14.1199996843934,19
-12.23791,0.6833333,-39.04699,0.3776358154344628,-0.0684275237528486,0.257544268812822,10.77483,82.90512,0.007766678,0.07041533,0.6590707,-0.06210434,14.1399996839464,19
-12.17573,0.8833331,-39.03929,0.4539718723535433,-0.2978939597902559,0.2471248325332098,14.36449,82.8488,0.003483443,0.09376796,0.6564369,-0.08269835,14.1599996834993,19
-11.89813,0.2833332,-39.00677,0.2744518379245857,0.3456961085447781,0.2068438957752718,3.570225,83.90167,0.0810187,0.02364002,0.6681518,-0.02029867,14.1799996830523,19
-11.83634,0.4833332,-38.99878,0.2638637341780008,0.1046595688200318,0.1872844580670118,7.139334,83.85371,0.1593354,0.04725017,0.6668199,-0.04056986,14.1999996826053,19
-11.77457,0.6833332,-38.99078,0.2469948478715782,-0.1149808858814464,0.1703137713888765,10.70748,83.81027,0.2353316,0.07080753,0.6648417,-0.06079611,14.2199996821582,19
-11.52449,0.2833335,-38.96144,0.0032989579045121,0.3527016258750773,0.1291681578459389,3.647314,84.39837,0.1067396,0.02420062,0.6713476,-0.02068641,14.2399996817112,19
-11.46132,0.4833334,-38.95341,-0.2425287636050175,0.8161676826025622,0.0898238657023497,7.293716,84.35317,0.2107792,0.04837003,0.6699704,-0.04134623,14.2599996812642,19
-11.39816,0.6833335,-38.94537,-0.2441011042975489,0.3704400426351053,0.0802265579838632,10.93912,84.31431,0.3129305,0.07248331,0.6679152,-0.06195811,14.2799996808171,19
-11.33502,0.8833334,-38.93734,-0.2482539329181161,-0.0795041308543251,0.0735048881838906,14.58427,84.28163,0.4139718,0.09652085,0.6651839,-0.08250566,14.2999996803701,19
-11.02559,0.2833332,-38.90152,-0.2395566542970222,-0.4610255036705098,0.0718905820841016,3.610532,85.68511,0.1616368,0.02405716,0.6796153,-0.02038759,14.3199996799231,19
-10.96298,0.4833331,-38.894,-0.241064587223498,-0.5106825297029853,0.0673915342792099,7.220135,85.64526,0.3210242,0.04808332,0.6782503,-0.04074901,14.339999679476,19
-10.90039,0.683333,-38.88648,-0.2500330288817691,-0.5148640863024034,0.0644741757536806,10.82875,85.61528,0.4794092,0.07205445,0.6762117,-0.06106388,14.359999679029,19
-10.83782,0.8833327,-38.87897,-0.2508408004665075,-0.526886316529763,0.065065904462557,14.43622,85.59518,0.6378663,0.0959449,0.6735025,-0.0813124,14.379999678582,19
-10.62081,0.2833333,-38.85408,-0.4296661602186002,0.1202227246193619,0.0444052831749033,3.545371,87.06179,0.2388669,0.02386239,0.6883678,-0.01979524,14.3999996781349,19
-10.55925,0.4833331,-38.84678,-0.3212295661324909,-0.1177822166895317,0.0554190268436727,7.089872,87.02912,0.4761557,0.04769523,0.6870292,-0.03956531,14.4199996776879,19
-10.49771,0.6833332,-38.83948,-0.2069108168622104,-0.334878806994743,0.066349425127747,10.63339,87.01111,0.713591,0.07147478,0.6850313,-0.05929151,14.4399996772408,19
-10.43619,0.8833331,-38.83218,-0.3041927005881373,0.1348591158957562,0.0525335969096261,14.17556,87.00799,0.9529907,0.09517606,0.6823766,-0.07895332,14.4599996767938,19
-10.15975,0.2833334,-38.79963,-0.3986892272104798,0.599892542473939,0.0386992300715292,3.477736,87.22861,0.2875001,0.02369905,0.6894254,-0.01911583,14.4799996763468,19
-10.09939,0.4833334,-38.7917,-0.3089883715416723,0.1552439622290646,0.0437140574828376,6.954644,87.2002,0.5737621,0.04736948,0.6881226,-0.03820811,14.4999996758997,19
-10.03905,0.6833333,-38.78378,-0.2084091494319899,-0.2941089184006958,0.0493351099677781,10.43019,87.18925,0.8612096,0.07098837,0.6861831,-0.05725458,14.5199996754527,19
-9.792631,0.2833333,-38.75444,-0.3797019028178878,0.1568114074364655,0.0237829674852392,3.418901,86.40852,0.2517388,0.02324766,0.6842472,-0.01882177,14.5399996750057,19
-9.733374,0.4833333,-38.74635,-0.3573407934975376,-0.0372863775991761,0.0211531666535051,6.836515,86.37662,0.5020586,0.04646548,0.6829837,-0.03761775,14.5599996745586,19
-9.674133,0.6833333,-38.73825,-0.3394096460023172,-0.2104759646095996,0.0195716690325724,10.25326,86.35963,0.7526621,0.06963531,0.6811102,-0.05637454,14.5799996741116,19
-9.61491,0.8833333,-38.73016,-0.31200193487728,-0.4171187064087889,0.0207899037865288,13.66908,86.35783,1.005274,0.09273596,0.6786289,-0.0750761,14.5999996736646,19
-9.309866,0.2833335,-38.69378,-0.4487706403275711,0.2488079577547081,0.0026577568783991,3.363077,84.11821,0.125944,0.02252263,0.6695841,-0.0188419,14.6199996732175,19
-9.251724,0.4833336,-38.6856,-0.3182844127451298,0.0296199288421241,0.0144234123423814,6.724812,84.07503,0.2495861,0.04501661,0.6683678,-0.037659,14.6399996727705,19
-9.193599,0.6833335,-38.67743,-0.1900564948726808,-0.1686597804291053,0.0261408482281311,10.0857,84.03886,0.3717298,0.06746575,0.6665763,-0.05643829,14.6599996723235,19
-9.135489,0.8833334,-38.66927,-0.0497548058371659,-0.4003924038703566,0.0394410623632381,13.4457,84.00967,0.4931283,0.08985016,0.6642115,-0.07516384,14.6799996718764,19
-8.919817,0.2833334,-38.64448,-0.1416656279309229,0.2404442991127308,0.0261635249330822,3.305898,82.36758,0.007476986,0.02175203,0.6582011,-0.01894493,14.6999996714294,19
-8.862669,0.4833333,-38.63672,-0.0652043795709476,-0.0038334242262457,0.0297415483049405,6.610828,82.31409,0.01183451,0.04347933,0.6570258,-0.03786879,14.7199996709824,19
-8.805534,0.6833333,-38.62896,0.0186047196855323,-0.2272030141812438,0.0337888479214498,9.914397,82.26046,0.01300509,0.06516096,0.655305,-0.05675399,14.7399996705353,19
-8.748416,0.8833333,-38.6212,-0.1024667655123758,0.2362619299676848,0.0142714008846667,13.21701,82.20631,0.01101825,0.08678214,0.6530403,-0.07558655,14.7599996700883,19
-8.473731,0.2833332,-38.58917,-0.2162866351148435,0.695022650569429,-0.0046315971796246,3.249616,79.88747,359.877,0.02104997,0.6417998,-0.0190269,14.7799996696413,19
-8.417541,0.4833332,-38.58136,-0.0920523864081444,0.2441019700766165,0.0012728313551448,6.498137,79.82304,359.7502,0.04207678,0.6406658,-0.03803282,14.7999996691942,19
-8.361366,0.683333,-38.57354,0.0381490451078141,-0.2115230966118927,0.0072530347573618,9.745556,79.75088,359.6188,0.06306358,0.6390169,-0.05700259,14.8199996687472,19
-8.118333,0.2833334,-38.54393,-0.1075391645738053,0.2331251856908739,-0.0183859203893916,3.197561,77.36792,359.7866,0.02061563,0.6248203,-0.0188915,14.8399996683002,19
-8.063082,0.4833333,-38.53539,-0.0661120323276041,0.0327548347638536,-0.0234932579542999,6.39397,77.29623,359.569,0.04120952,0.6237231,-0.03776261,14.8599996678531,19
-8.007847,0.6833331,-38.52684,-0.0354401807132758,-0.1467072541065291,-0.029649116524105,9.589158,77.21175,359.3457,0.06176548,0.6221392,-0.05659846,14.8799996674061,19
-7.952625,0.883333,-38.5183,-0.0018615431625335,-0.3596221808319381,-0.0350985735202655,12.78276,77.11372,359.1155,0.08226729,0.6200705,-0.07538041,14.899999666959,19
-7.64439,0.2833333,-38.48213,-0.1371362684372892,0.3000321356697055,-0.0589852370391454,3.518167,79.30238,359.8151,0.02260588,0.6378487,-0.02082971,14.919999666512,19
-7.583401,0.4833333,-38.47394,-0.0110976004302187,0.0745722361511146,-0.052246187282769,7.035177,79.23167,359.6256,0.04518422,0.6365867,-0.04163425,14.939999666065,19
-7.522441,0.6833333,-38.46575,0.1065748244177529,-0.1299797588413683,-0.0446926230414419,10.55265,79.14843,359.4293,0.06772166,0.6347229,-0.06240709,14.9599996656179,19
-7.461505,0.8833333,-38.45756,0.2302525913154598,-0.3679847501557495,-0.0345840919657547,14.06972,79.0517,359.225,0.09019439,0.6322596,-0.08312047,14.9799996651709,19
-7.243414,0.2833333,-38.43327,0.1162713032994595,0.2665794750989469,-0.0504892348646208,3.559629,80.94394,359.8728,0.02290667,0.6487886,-0.02100366,14.9999996647239,19
-7.181718,0.4833333,-38.42572,0.1642300374462157,0.0160295761553299,-0.0480938325817987,7.118402,80.8786,359.7409,0.0457847,0.6474962,-0.04198498,15.0199996642768,19
-7.12004,0.6833333,-38.41817,0.2121121238075707,-0.2136119139385332,-0.0442074129922218,10.67601,80.80436,359.6036,0.0686119,0.6455792,-0.06292012,15.0399996638298,19
-6.881344,0.2833335,-38.38993,0.0508064343328786,0.2435815271534392,-0.0629592969097458,3.591687,82.36654,0.01540919,0.0236739,0.6581431,-0.02053414,15.0599996633828,19
-6.819258,0.4833334,-38.38136,-0.1065105307696083,0.6960706919049767,-0.0802089253534248,7.18267,82.31483,0.02806435,0.04732247,0.6568261,-0.04104096,15.0799996629357,19
-6.757189,0.6833334,-38.37279,-0.0261165964179692,0.2388777661134652,-0.070921102822254,10.77262,82.26347,0.03755163,0.0709177,0.6548648,-0.0615015,15.0999996624887,19
-6.695138,0.8833333,-38.36422,0.0576568386454083,-0.2230195145114185,-0.059995792204603,14.36155,82.21205,0.04385203,0.09443665,0.6522618,-0.08189595,15.1199996620417,19
-6.396945,0.2833333,-38.32938,-0.1356294967886815,0.2153560922189423,-0.0798228812404318,3.569809,83.51822,0.08869682,0.02374971,0.665659,-0.02016708,15.1399996615946,19
-6.335229,0.4833333,-38.32084,-0.1401017568102855,0.0087128960144774,-0.0789609225237839,7.138543,83.47356,0.1747593,0.04746878,0.6643466,-0.04030806,15.1599996611476,19
-6.27353,0.6833333,-38.3123,-0.1547441504877253,-0.1770219031011068,-0.0787839693042471,10.70631,83.43398,0.2588173,0.07113494,0.6623904,-0.06040413,15.1799996607006,19
-6.211848,0.8833331,-38.30376,-0.1649644281488695,-0.3962098862769611,-0.077714540081125,14.27313,83.39928,0.3414752,0.09472546,0.6597927,-0.08043605,15.1999996602535,19
-6.003042,0.2833332,-38.28043,-0.3453439044677799,0.2571716390472546,-0.0941634099048656,3.646819,84.15996,0.1116327,0.024269,0.6698046,-0.02060145,15.2199996598065,19
-5.939919,0.4833331,-38.27205,-0.2603554850071368,0.0254388128834033,-0.080659410336942,7.292684,84.1179,0.220805,0.04850662,0.6684465,-0.04117597,15.2399996593595,19
-5.876812,0.683333,-38.26366,-0.1798438373873261,-0.1853856983434411,-0.0667112592333225,10.93757,84.08252,0.32834,0.0726881,0.6664119,-0.06170291,15.2599996589124,19
-5.813729,0.883333,-38.25529,-0.0885607967400545,-0.429663488066011,-0.0506744555423424,14.58218,84.0537,0.434909,0.09679264,0.6637029,-0.08216674,15.2799996584654,19
-5.546279,0.2833334,-38.22561,-0.2324584161652443,0.1986283635657961,-0.0600287749188268,3.61018,85.60564,0.1659833,0.0240948,0.6791061,-0.02034099,15.2999996580184,19
-5.483696,0.4833333,-38.21793,-0.2045316881446108,-0.058194335876829,-0.0502874095773364,7.219438,85.56885,0.3299772,0.04815898,0.6777584,-0.04065558,15.3199996575713,19
-5.42113,0.6833334,-38.21025,-0.1702627788392625,-0.2941085598247547,-0.0383343380729286,10.82771,85.54224,0.4931421,0.07216769,0.6757379,-0.06092417,15.3399996571243,19
-5.183346,0.2833332,-38.18349,-0.3388561976292048,0.1568115337569494,-0.0488084319196104,3.545504,87.06979,0.2418539,0.0238798,0.6884177,-0.01977882,15.3599996566772,19
-5.121787,0.4833331,-38.17615,-0.495655548429081,0.6030274145069323,-0.0579340153895273,7.090121,87.03998,0.4822159,0.04772939,0.6870952,-0.03953303,15.3799996562302,19
-5.060246,0.683333,-38.1688,-0.3958778315368585,0.1395621588255542,-0.0419789889668109,10.63378,87.02502,0.7229598,0.07152601,0.685113,-0.05924342,15.3999996557832,19
-4.998719,0.8833332,-38.16146,-0.2772131296619498,-0.3286073102102518,-0.0252169227468996,14.176,87.02522,0.9658189,0.09524332,0.6824739,-0.07888957,15.4199996553361,19
-4.701722,0.2833333,-38.1273,-0.4287599370642008,0.1034957042321055,-0.0393434383749777,3.477733,87.30315,0.2896138,0.02369932,0.6898956,-0.01911789,15.4399996548891,19
-4.641355,0.4833331,-38.11942,-0.3845859841739374,-0.1094196883109803,-0.0338215692500156,6.954625,87.27749,0.5781268,0.04736981,0.6886083,-0.03821243,15.4599996544421,19
-4.581002,0.6833331,-38.11154,-0.3434504213857376,-0.3014269670715434,-0.0296621231782978,10.43011,87.26946,0.8679455,0.07098816,0.686684,-0.0572614,15.479999653995,19
-4.520666,0.883333,-38.10366,-0.2918966733263417,-0.5268872735163305,-0.0253343659507692,13.9046,87.27947,1.16103,0.09453424,0.6841246,-0.07625175,15.499999653548,19
-4.314515,0.2833334,-38.08031,-0.4051454358212123,0.1202221649760558,-0.0386388227114977,3.418519,86.52043,0.2530186,0.0232345,0.6849583,-0.01883406,15.519999653101,19
-4.25525,0.4833335,-38.0723,-0.2508922050659832,-0.1177827639621419,-0.0217026433051543,6.835754,86.49125,0.5047596,0.04643911,0.6837108,-0.03764253,15.5399996526539,19
-4.196001,0.6833335,-38.0643,-0.0994177853997504,-0.3348795129084565,-0.0037607524704412,10.25213,86.47709,0.7569268,0.06959572,0.6818527,-0.05641215,15.5599996522069,19
-4.13677,0.8833336,-38.0563,-0.149508916482117,0.1348583204251729,-0.008113782506733,13.66754,86.47826,1.011393,0.09268358,0.6793864,-0.07512569,15.5799996517599,19
-3.871163,0.2833333,-38.0262,-0.1999447448048046,0.5998918737594281,-0.0124836523706335,3.363017,84.26398,0.126993,0.0225044,0.6705273,-0.0188634,15.5999996513128,19
-3.813004,0.4833333,-38.01816,-0.0829993048001074,0.1552436648096601,-0.0003445674188,6.724698,84.22348,0.2518576,0.04498031,0.669327,-0.03770193,15.6199996508658,19
-3.754861,0.6833334,-38.01012,0.0402890796392414,-0.2941089175295221,0.0123506412888119,10.08548,84.1901,0.3753657,0.06741096,0.6675506,-0.05650253,15.6399996504188,19
-3.519762,0.2833333,-37.9834,-0.1000186810557781,0.1568114089174645,-0.0045536095262477,3.306144,82.54832,0.008454263,0.02172936,0.6593866,-0.01897423,15.6599996499717,19
-3.462588,0.4833334,-37.9758,-0.2392004803648145,0.6030271746722469,-0.0217222796066991,6.611303,82.49747,0.01397916,0.04343411,0.6582268,-0.03792701,15.6799996495247,19
-3.405427,0.6833333,-37.9682,-0.1439668477536136,0.1395615628542184,-0.0154159864072909,9.91513,82.44654,0.01639226,0.06509291,0.6565204,-0.05684177,15.6999996490777,19
-3.348283,0.8833332,-37.96061,-0.0478845868957763,-0.3286082777380466,-0.0097487006250958,13.218,82.39522,0.01588832,0.08669171,0.654269,-0.07570341,15.7199996486306,19
-3.054571,0.2833333,-37.927,-0.1143005529339108,0.1034948155457161,-0.021094431950992,3.249714,80.0719,359.8774,0.02102232,0.6430324,-0.01905853,15.7399996481836,19
-2.998355,0.4833334,-37.91935,0.0120132979765062,-0.1094202734797359,-0.0130846765248904,6.498327,80.01006,359.7512,0.04202123,0.6419142,-0.03809617,15.7599996477365,19
-2.942156,0.6833333,-37.91171,0.1329680749816199,-0.3014270219556161,-0.0064885170160877,9.745855,79.94049,359.6205,0.06298044,0.64028,-0.05709748,15.7799996472895,19
-2.885969,0.8833332,-37.90407,0.2618970068155475,-0.5268870084175474,0.0002107984139385,12.99193,79.86262,359.4843,0.08388096,0.6381318,-0.07604507,15.7999996468425,19
-2.68023,0.2833332,-37.88039,0.1667695080525729,0.1202221950316182,-0.0170792003140718,3.197359,77.54665,359.7867,0.02058537,0.6260366,-0.01892176,15.8199996463954,19
-2.624958,0.4833332,-37.87202,0.3298760965688603,-0.1177827508073876,-0.0066611666274667,6.393517,77.47755,359.5693,0.04114836,0.6249561,-0.03782313,15.8399996459484,19
-2.5697,0.683333,-37.86364,0.4809961695557472,-0.3348797515234966,0.0027384538883481,9.588472,77.39569,359.3463,0.06167353,0.6233878,-0.05668926,15.8599996455014,19
-2.514457,0.883333,-37.85527,0.4234490343588016,0.134858301607776,-0.0101562714909917,12.78187,77.30031,359.1168,0.08214488,0.6213338,-0.07550126,15.8799996450543,19
-2.243237,0.2833333,-37.82587,0.3581830055142981,0.5998920142800773,-0.0230714520769694,3.518145,79.54279,359.8162,0.02256802,0.6394616,-0.0208697,15.8999996446073,19
-2.182218,0.4833333,-37.81792,0.4519462938885842,0.1552443587882683,-0.0183234745113836,7.035147,79.47475,359.6279,0.0451084,0.638215,-0.04171443,15.9199996441603,19
-2.121227,0.6833331,-37.80996,0.5441393535384704,-0.2941079803186439,-0.0120207444209157,10.55266,79.39426,359.4329,0.06760807,0.6363652,-0.06252784,15.9399996437132,19
-1.882702,0.2833332,-37.7839,0.3658727460761001,0.1568124802894085,-0.0347715602769866,3.559913,81.22922,359.8739,0.02286253,0.6506793,-0.02105483,15.9599996432662,19
-1.820968,0.4833331,-37.77663,0.1823814188911834,0.603028618471827,-0.0571531718476379,7.118965,81.1665,359.7433,0.04569627,0.6494012,-0.04208733,15.9799996428192,19
-1.759253,0.6833332,-37.76937,0.2230864039088308,0.1395632987590315,-0.0575248938309229,10.67683,81.09496,359.6075,0.06847925,0.6474967,-0.06307309,15.9999996423721,19
-1.697554,0.8833333,-37.76212,0.2569400824879601,-0.3286060088479077,-0.0572654489790451,14.23349,81.0138,359.4653,0.09118943,0.644968,-0.08399222,16.0199996419251,19
-1.398915,0.2833335,-37.72819,0.1228003040092617,0.1034972468230184,-0.0734703547439323,3.586581,82.95634,0.03720958,0.02366046,0.6620026,-0.02048374,16.0399996414781,19
-1.336879,0.4833335,-37.71989,0.1749619013550901,-0.1094182899867749,-0.0721083759902754,7.172396,82.90923,0.07194981,0.04729492,0.6607007,-0.04094016,16.059999641031,19
-1.274861,0.6833334,-37.71159,0.2192916212241225,-0.3014255382561864,-0.0701951259298141,10.75724,82.86392,0.1040591,0.07087668,0.6587525,-0.06135063,16.079999640584,19
-1.212861,0.8833334,-37.7033,0.2701302701857184,-0.5268861052696397,-0.0662614102083338,14.34107,82.82009,0.1336552,0.09438206,0.6561606,-0.08169539,16.099999640137,19
-1.005676,0.2833334,-37.68074,0.0940467547574979,0.1202231550673026,-0.0853725670077452,3.567097,83.75912,0.07901841,0.02363329,0.6672275,-0.02026403,16.1199996396899,19
-0.943952,0.4833333,-37.67263,0.1716206612006723,-0.1177821625895165,-0.0818570069376747,7.133129,83.71609,0.1554766,0.04723619,0.6659315,-0.04050207,16.1399996392429,19
-0.8822459,0.6833332,-37.66453,0.2400025731158683,-0.3348796047303816,-0.078387575623644,10.69821,83.67751,0.2298756,0.07078626,0.6639911,-0.06069557,16.1599996387959,19
-0.8205572,0.883333,-37.65642,0.1014635672937502,0.1348581492391366,-0.0958680917778096,14.26233,83.64322,0.3028117,0.09426121,0.6614087,-0.08082472,16.1799996383488,19
-0.5518837,0.2833333,-37.62724,-0.0402131065361761,0.599891330494229,-0.1124194031587535,3.638304,84.58298,0.1138661,0.02415095,0.6725398,-0.02062651,16.1999996379018,19
-0.4888523,0.4833332,-37.6193,-0.0187296456534169,0.1552430159579574,-0.1145878728689524,7.275659,84.54362,0.2254198,0.04827064,0.6711996,-0.04122641,16.2199996374547,19
-0.4258385,0.6833332,-37.61136,0.0081894714714181,-0.294109632242112,-0.1141177167367288,10.91205,84.51113,0.3356005,0.07233513,0.6691833,-0.06177853,16.2399996370077,19
-0.1872075,0.2833334,-37.58553,-0.2286738217787656,0.1568106547406126,-0.1407513542265377,3.603464,85.85775,0.1597041,0.0239698,0.6807205,-0.02039416,16.2599996365607,19
-0.1246998,0.4833334,-37.57824,-0.4621979746065667,0.6030263807697808,-0.1654494656917577,7.205996,85.8228,0.3174965,0.04790904,0.6793907,-0.04076211,16.2799996361136,19
-0.06220992,0.6833333,-37.57095,-0.4634119205011959,0.1395607289647848,-0.1693557655121367,10.80756,85.79765,0.4746119,0.07179401,0.6773891,-0.06108365,16.2999996356666,19
0.0002631322,0.8833333,-37.56366,-0.4591665106884974,-0.3286091518758003,-0.1701464097814664,14.40795,85.78231,0.6319935,0.09559819,0.6747181,-0.08133954,16.3199996352196,19
0.2982472,0.2833336,-37.5313,-0.6143385905365051,0.1034940076173204,-0.1857380949316223,3.537338,87.62324,0.2610814,0.02384869,0.6919072,-0.01972357,16.3399996347725,19
0.359719,0.4833335,-37.52422,-0.5668691657653651,-0.1094215618615618,-0.1844838283482843,7.073817,87.59767,0.5209991,0.04766769,0.6906006,-0.03942266,16.3599996343255,19
0.4211732,0.6833334,-37.51713,-0.5076804708712062,-0.3014287393043852,-0.1815398902505904,10.60934,87.5882,0.7817427,0.07143407,0.6886336,-0.05907829,16.3799996338785,19
0.4826124,0.8833333,-37.51005,-0.4224334085314787,-0.5268890920086042,-0.1756239796192886,14.14346,87.5952,1.045297,0.09512241,0.6860088,-0.07866984,16.3999996334314,19
0.6881932,0.2833335,-37.48785,-0.5560310386639302,0.1202200325991569,-0.1906958864662655,3.469549,87.74558,0.2920025,0.02358831,0.6926841,-0.01914475,16.4199996329844,19
0.7484774,0.4833334,-37.4804,-0.4288300537278284,-0.1177851592598818,-0.1831970843329102,6.937951,87.7226,0.5832998,0.04714754,0.6914144,-0.03826296,16.4399996325374,19
0.8087456,0.6833333,-37.47295,-0.2995126688443355,-0.3348819883543688,-0.1745654575166639,10.40527,87.71734,0.8757561,0.07065526,0.6895075,-0.05733977,16.4599996320903,19
0.8689966,0.8833331,-37.4655,-0.3675806978013947,0.1348561866543928,-0.1851443799420522,13.87159,87.73026,1.171634,0.09409119,0.6869661,-0.07635833,16.4799996316433,19
1.132284,0.2833333,-37.43906,-0.4317589030729252,0.5998899437566578,-0.1934859749254869,3.412323,86.7179,0.2308269,0.02302981,0.6862174,-0.0189777,16.4999996311963,19
1.19149,0.4833335,-37.43166,-0.2165026743619802,0.1552422403501809,-0.1742427740166618,6.823333,86.68916,0.4602608,0.04602937,0.6849886,-0.03793036,16.5199996307492,19
1.250679,0.6833335,-37.42426,0.0077386262934484,-0.2941100276687887,-0.1502281434909775,10.23349,86.67408,0.6899497,0.06898161,0.6831509,-0.0568441,16.5399996303022,19
1.482507,0.2833334,-37.4016,-0.0309357593780288,0.1568106081327099,-0.1523026481841469,3.356424,85.1666,0.1347703,0.02235868,0.6763453,-0.0189512,16.5599996298552,19
1.54066,0.4833335,-37.39435,-0.0687280303982449,0.603026651095615,-0.1522293474560143,6.7115,85.12917,0.2674788,0.04468829,0.6751586,-0.03787824,16.5799996294081,19
1.598796,0.6833335,-37.3871,0.1288801148930973,0.139561297145614,-0.1845409513426972,10.06572,85.09937,0.3991409,0.0669737,0.673393,-0.05676714,16.5999996289611,19
1.656916,0.8833334,-37.37985,0.3622866949196015,-0.328608105332365,-0.2233497753078097,13.41906,85.07715,0.5305517,0.08919516,0.6710503,-0.07560226,16.6199996285141,19
1.945357,0.2833334,-37.35312,0.4651241710838438,0.1034950332525375,-0.2833044828802045,3.300734,83.15561,359.9848,0.02145603,0.6633641,-0.01921242,16.639999628067,19
2.002565,0.4833332,-37.34655,0.6000777954256664,0.5308937230913232,-0.3466007854360455,6.600507,83.10516,359.9666,0.04288821,0.6622196,-0.03840328,16.65999962762,19
2.059758,0.6833333,-37.33998,1.053820290909449,0.0486111606323707,-0.4816478811973752,9.898857,83.05326,359.9451,0.06427404,0.6605269,-0.05755602,16.6799996271729,19
2.116935,0.8833332,-37.33341,1.5276001371592551,-0.4383755048030415,-0.6327346381062853,13.19628,82.9995,359.9203,0.08560093,0.6582877,-0.07665569,16.6999996267259,19
2.316879,0.2833333,-37.31561,1.7817951515139132,-0.0250897898203811,-0.8202428053790314,3.24372,81.21373,359.8921,0.02087459,0.6506244,-0.0191363,16.7199996262789,19
2.373094,0.4833332,-37.30885,2.322110216652214,-0.2568220251528327,-1.068123983975198,6.486372,81.1556,359.7806,0.0417261,0.6495193,-0.03825175,16.7399996258318,19
2.429291,0.6833332,-37.30209,2.8511946027901898,-0.4676456217322514,-1.3243260235719705,9.727942,81.09066,359.665,0.062538,0.6478941,-0.05733085,16.7599996253848,19
2.485476,0.8833331,-37.29534,3.1672716750358747,0.0083651311901152,-1.6051573778843746,12.96809,81.01836,359.5446,0.08329254,0.6457509,-0.07635538,16.7799996249378,19
2.743376,0.2833333,-37.27219,3.4667954374001706,0.4796712789903136,-1.885927000682713,3.26902,78.90621,359.7863,0.02083984,0.6352279,-0.01956463,16.7999996244907,19
2.800077,0.4833333,-37.26489,4.183170894840057,0.0412960191621399,-2.213152471422518,6.536877,78.8391,359.5685,0.04165673,0.6341227,-0.03910766,16.8199996240437,19
2.856762,0.6833333,-37.2576,4.861275055274864,-0.4017835117794139,-2.523612277986736,9.803492,78.7589,359.3451,0.06243354,0.6325001,-0.05861295,16.8399996235967,19
3.089107,0.2833331,-37.23706,5.228523661829186,0.0554094763882837,-2.843645792118025,3.530598,80.54268,359.8116,0.02244212,0.6461391,-0.02116653,16.8599996231496,19
3.15047,0.483333,-37.23021,5.546704049572048,0.5078982745490604,-3.142864600105589,7.060025,80.47655,359.6189,0.04485679,0.6448949,-0.04230696,16.8799996227026,19
3.211801,0.6833329,-37.22337,6.084569461803651,0.0507050807838861,-3.37601154828986,10.59019,80.39766,359.4196,0.06723216,0.6430365,-0.06341636,16.8999996222556,19
3.273113,0.883333,-37.21652,6.567333569362444,-0.4111925698293398,-3.5739284189568465,14.11913,80.30511,359.2126,0.0895379,0.6405669,-0.08445974,16.9199996218085,19
3.561929,0.2833332,-37.19144,6.8331091130196215,0.0271826972295939,-3.753432650257494,3.56547,82.69834,359.8951,0.02274937,0.6603475,-0.02123931,16.9399996213615,19
3.623877,0.4833331,-37.18538,7.047896204459909,0.4608532913888869,-3.897754997483709,7.13007,82.64001,359.7859,0.04546939,0.6590723,-0.04245622,16.9599996209145,19
3.685807,0.6833332,-37.17933,7.603376902864052,-0.0151571389370949,-3.936805851497276,10.69352,82.57428,359.6721,0.06813899,0.6571597,-0.06362566,16.9799996204674,19
3.74772,0.883333,-37.17327,8.082053322052852,-0.4958722186409704,-3.935827163941024,14.25584,82.50037,359.5525,0.09073614,0.6546119,-0.0847279,16.9999996200204,19
4.055976,0.2833333,-37.14476,8.254566413210872,-0.0763145337382671,-3.918142470324913,4.178762,83.85688,0.04205985,0.02736948,0.6677477,-0.02408874,17.0199996195734,19
4.128518,0.4833332,-37.13623,8.352548358093273,0.33853841702114,-3.864172548538992,8.356523,83.81318,0.08101629,0.05469574,0.6661044,-0.04813959,17.0399996191263,19
4.201042,0.6833333,-37.1277,8.642166883297183,-0.1562895465881113,-3.8371115906288686,12.53325,83.77184,0.1172532,0.08194248,0.6635767,-0.07212022,17.0599996186793,19
4.27353,0.8833331,-37.11918,8.650668663109201,0.0644662376704414,-3.7653010521900185,16.71153,83.73265,0.151617,0.1090934,0.6601667,-0.09601036,17.0799996182323,19
4.555073,0.2833333,-37.14386,8.578614457682399,0.3082208285924445,-3.63624987584155,6.150634,84.01646,359.0657,0.03441365,0.6685764,-0.04195199,17.0999996177852,19
4.663916,0.4833336,-37.14912,8.664694067465298,-0.1176099557096697,-3.4803955137772817,12.29757,83.81431,358.1042,0.06871781,0.6653109,-0.08377329,17.1199996173382,19
4.772738,0.6833332,-37.15439,8.681418568586441,-0.5481451259461289,-3.2548898920802145,18.43902,83.49768,357.0911,0.1028122,0.660087,-0.1253412,17.1399996168911,19
4.88154,0.883333,-37.15965,8.368798190391534,-0.0784075077057924,-2.989344022063051,24.57259,83.04832,355.9971,0.1365959,0.6529213,-0.1665331,17.1599996164441,19
5.251711,0.2833333,-37.23118,7.989549733679304,0.3866257881089086,-2.6683732273590905,6.467519,88.30417,358.149,0.02923546,0.6960192,-0.05085838,17.1799996159971,19
5.365817,0.4833333,-37.26054,7.560175581115448,0.6818993855595042,-2.297989073697672,12.93042,87.93324,356.2331,0.05832715,0.6921151,-0.1016342,17.19999961555,19
5.47988,0.683333,-37.28989,7.2519933433436385,-0.069681163786514,-1.894216499355892,19.37772,87.32126,354.2078,0.08721406,0.6858204,-0.1520722,17.219999615103,19
5.854742,0.2833334,-37.36725,6.737720995507466,0.1082477061068735,-1.4526441577922,6.940083,92.17731,358.0704,0.02986373,0.7196979,-0.05525467,17.239999614656,19
5.974576,0.4833338,-37.40574,6.18882848639924,0.3096632364699638,-0.9688806523900696,13.87851,91.76802,356.0716,0.05962596,0.7151369,-0.110372,17.2599996142089,19
6.094377,0.6833335,-37.44421,5.62387647250214,0.4822947084782173,-0.4501637026203227,20.7961,91.08522,353.9435,0.08914389,0.7077472,-0.1650376,17.2799996137619,19
6.214143,0.8833333,-37.48267,5.22675427354994,-0.2798796393160616,0.1777842254623607,27.68113,90.07582,351.6047,0.1183007,0.6975607,-0.2190347,17.2999996133149,19
6.731725,0.2833335,-37.56908,4.582338138155194,-0.1125447285157456,0.801196106905941,7.691842,98.47626,359.0039,0.03722285,0.7560762,-0.05646415,17.3199996128678,19
6.861993,0.4833336,-37.60614,3.925788637948628,0.078277106372057,1.429921176033595,15.37839,98.22067,357.9646,0.07426576,0.7506117,-0.1126543,17.3399996124208,19
6.992229,0.6833335,-37.64319,3.397697164494144,-0.3999983288237978,2.151681517325507,23.0568,97.80202,356.8388,0.1109598,0.741715,-0.1683136,17.3599996119738,19
7.122415,0.8833336,-37.68024,2.664669210206384,-0.162201834086568,2.838332900665528,30.72494,97.17992,355.5706,0.1471545,0.7294287,-0.2231912,17.3799996115267,19
7.495228,0.2833333,-37.67785,1.9310031728189223,0.0990815468420041,3.4982920599461167,7.849684,102.7006,0.3205514,0.04492897,0.7790248,-0.05171313,17.3999996110797,19
7.630129,0.4833331,-37.7024,1.2188613515039748,0.3315811911409473,4.125530493781213,15.69715,102.7203,0.6469705,0.08963563,0.7732756,-0.1031675,17.4199996106327,19
7.764994,0.6833332,-37.72694,0.7030452340554199,-0.3707254588049629,4.871465422179206,23.54212,102.7896,0.9927772,0.13391,0.7638987,-0.154122,17.4399996101856,19
7.899823,0.8833328,-37.75148,-0.0391070187180506,-0.1435229756927012,5.548733597954694,31.38431,102.9195,1.375408,0.1775453,0.7509412,-0.2043378,17.4599996097386,19
8.390998,0.2833333,-37.71115,-0.7427174045270473,0.1071664409157442,6.170885898642709,7.531815,102.9765,0.9174696,0.04714737,0.7804385,-0.04641721,17.4799996092916,19
8.522678,0.4833328,-37.72482,-1.3846900713877694,0.3290717120517756,6.731469246640856,15.06084,103.1151,1.862249,0.09408645,0.7750513,-0.09261484,17.4999996088445,19
8.654319,0.6833327,-37.73849,-1.957564336333304,-0.3838283773308634,7.315786837247508,22.5839,103.395,2.872901,0.1406179,0.7662741,-0.1383754,17.5199996083975,19
8.785921,0.8833325,-37.75217,-2.7174936125431515,-0.1672192274590113,7.805366294574675,30.09797,103.8479,3.99672,0.186536,0.7541496,-0.1834987,17.5399996079504,19
9.153548,0.2833332,-37.82428,-3.391470942807725,0.0728762951331922,8.213725870625638,7.634895,91.5299,0.5433553,0.04983413,0.714666,-0.0444009,17.5599996075034,19
9.286988,0.4833331,-37.8182,-3.957756423618415,0.284187815822748,8.53338266222471,15.26805,91.59613,1.111011,0.09950259,0.7096018,-0.08853091,17.5799996070564,19
9.42039,0.683333,-37.81212,-4.422232813884321,-0.4393056824183574,8.879070673278179,22.89797,91.74733,1.714878,0.1487134,0.7013764,-0.1322536,17.5999996066093,19
9.762765,0.2833333,-37.83085,-4.995856188923831,-0.233289840435698,9.168128008839489,8.078304,84.34019,0.4707304,0.05495604,0.6694463,-0.04425007,17.6199996061623,19
9.901992,0.4833332,-37.80869,-5.476354911780259,-0.0037875780793727,9.37343984620135,16.14102,84.39645,0.9582638,0.1095634,0.6641523,-0.08816376,17.6399996057153,19
10.04095,0.683333,-37.78659,-5.845751518899228,0.196931584302562,9.489109553852252,24.18701,84.53155,1.482154,0.1635356,0.6555839,-0.1315379,17.6599996052682,19
10.1797,0.8833328,-37.76453,-6.153678447290407,-0.5371553393493456,9.615789790533348,32.22012,84.76366,2.068565,0.2166246,0.6437925,-0.1742024,17.6799996048212,19
10.31832,0.9766694,-37.74248,-6.643065520261928,-0.3417329222547849,9.72212282882846,40.2424,85.12801,2.760365,0.2685934,0.6288428,-0.2159661,17.6999996043742,19
10.60146,0.2833336,-37.7299,-7.022401011788087,-0.1228234167689893,9.76118399756298,8.097234,70.41341,359.1658,0.05349988,0.5754939,-0.04663692,17.7199996039271,19
10.73947,0.4833335,-37.69622,-7.350000578465329,-0.5730116409120624,9.827729794401307,16.18974,70.1835,358.2908,0.1067158,0.5708145,-0.09302451,17.7399996034801,19
10.87743,0.6833332,-37.66255,-7.860025113388248,-0.3071287004499517,9.886813587570195,24.27538,69.80646,357.3341,0.1593803,0.5632608,-0.1389287,17.7599996030331,19
11.01536,0.8833328,-37.62888,-8.262058651041386,-0.0177600152109739,9.897198002584332,32.35113,69.24069,356.2395,0.2112281,0.5528732,-0.184119,17.779999602586,19
11.30778,0.2833332,-37.51897,-8.538096744943752,0.2428251580745979,9.859907498574309,7.41469,56.07903,357.599,0.04722994,0.4701894,-0.04884223,17.799999602139,19
11.43845,0.483333,-37.48155,-8.687087829331164,-0.4313949579834445,9.790695930057169,14.81201,55.55306,355.1104,0.09422944,0.4665808,-0.09744275,17.819999601692,19
11.56909,0.683333,-37.44414,-9.165161552579594,-0.1761051248658693,9.75200367812009,22.17661,54.65897,352.4401,0.1407818,0.4608197,-0.1455771,17.8399996012449,19
11.8119,0.2833335,-37.31808,-9.543764941104891,0.102670725880819,9.692604632580348,6.811735,51.55803,357.3656,0.04350224,0.4352482,-0.04649351,17.8599996007979,19
11.93345,0.4833336,-37.28024,-9.80808043304918,0.3526623540560398,9.614811094265022,13.60315,51.0324,354.659,0.08683479,0.4322499,-0.09271248,17.8799996003509,19
12.05498,0.6833335,-37.24241,-9.999909421248264,-0.3321518971596932,9.432901381178056,20.36011,50.14766,351.7894,0.1298145,0.4275044,-0.138531,17.8999995999038,19
12.17647,0.8833333,-37.2046,-10.354960114094425,-0.0874555241257175,9.2120140363998,27.06168,48.83869,348.6521,0.1722566,0.4210306,-0.1837759,17.9199995994568,19
12.44066,0.2833335,-37.01941,-10.60548820428562,0.1807284230670962,8.982522036406593,7.112004,47.28963,357.584,0.04836571,0.4014023,-0.04414475,17.9399995990098,19
12.56047,0.4833332,-36.96626,-10.738154996982397,0.4201278318001153,8.74688571221072,14.21141,46.78284,355.0925,0.0965633,0.3984607,-0.08805744,17.9599995985627,19
12.68024,0.6833331,-36.91314,-10.827785970416834,-0.2752793076594513,8.439005875225128,21.27933,45.92604,352.434,0.1443328,0.3938105,-0.1315796,17.9799995981157,19
12.79997,0.8833327,-36.86002,-11.21896649981296,-0.0411767676594149,8.058364167163042,28.29718,44.64918,349.5014,0.1914695,0.3874728,-0.1745255,17.9999995976686,19
12.90472,0.2833334,-36.72113,-11.5150628283299,0.2164132015358155,7.666077478902768,7.658441,47.9112,358.4098,0.05540234,0.4059301,-0.03976648,18.0199995972216,19
13.02252,0.4833333,-36.65211,-11.804240874875148,-0.1950954950632953,7.244451603588892,15.30797,47.53648,356.7558,0.1105375,0.4027375,-0.07933441,18.0399995967746,19
13.14028,0.6833327,-36.58313,-11.97975256866734,-0.6108204121709266,6.808930248457571,22.94406,46.90613,354.9724,0.1651755,0.3976738,-0.1185142,18.0599995963275,19
13.25802,0.8833324,-36.51419,-12.312350642149353,-0.1257851063795164,6.436957026657932,30.55487,45.95887,352.9715,0.2190428,0.3907658,-0.1571127,18.0799995958805,19
13.34961,0.2833334,-36.33108,-12.541767603418627,0.3550339117357168,6.050902163493451,7.868697,50.65405,0.08487174,0.0623344,0.4267301,-0.02868384,18.0999995954335,19
13.45473,0.4833333,-36.2427,-12.791040304952157,-0.0733396544396687,5.566550144020972,15.7352,50.62639,0.1671146,0.1243589,0.4233604,-0.05722115,18.1199995949864,19
13.55982,0.6833332,-36.15434,-13.179601018933008,0.2143586630585954,5.118554466794915,23.5995,50.60978,0.2497518,0.1857815,0.4179987,-0.08547802,18.1399995945394,19
13.66488,0.8833333,-36.06601,-13.482014829159551,0.5255438636990889,4.668905951365591,31.46155,50.6054,0.3362163,0.2463132,0.4106718,-0.113322,18.1599995940924,19
13.70657,0.2833334,-35.87831,-13.690257406306616,0.8079453283197757,4.223818711825143,7.472486,42.93591,0.3772665,0.06184466,0.3650013,-0.02079113,18.1799995936453,19
13.79021,0.4833334,-35.77803,-14.009871205382124,0.1555394762837416,3.718405783228473,14.94337,42.96676,0.7633413,0.123418,0.3623077,-0.04147635,18.1999995931983,19
13.87382,0.6833336,-35.67781,-14.240579340595582,-0.3996933329793022,3.225438567314548,22.41372,43.05463,1.175141,0.1844761,0.3580749,-0.06195503,18.2199995927513,19
13.88576,0.2833334,-35.48769,-14.54664701875544,0.0449541297213131,2.765347398771471,7.42119,26.08839,359.7499,0.06255515,0.2253665,-0.01672864,18.2399995923042,19
13.94622,0.4833334,-35.37307,-14.964606228564213,-0.1554172999826446,2.276628575973884,14.84434,25.99657,359.5038,0.1249024,0.2235803,-0.03323875,18.2599995918572,19
14.00667,0.6833328,-35.25848,-15.291470927999846,-0.3348800357881458,1.801402662676658,22.26381,25.86739,359.2372,0.1867041,0.2208599,-0.04957811,18.2799995914102,19
14.06713,0.8833326,-35.14392,-15.519960884214637,-0.5477954048966045,1.3504361454456308,29.68029,25.69165,358.9373,0.247709,0.217219,-0.06568123,18.2999995909631,19
14.112,0.2833334,-35.01635,-15.829549828645805,0.111858367468662,0.8432266956279548,7.971886,22.03152,0.3229111,0.06876782,0.1904238,-0.01052286,18.3199995905161,19
14.15884,0.4833339,-34.88516,-16.332591617204486,-0.1136019245146056,0.3265690311107931,15.94659,22.05732,0.6591364,0.1372373,0.1886644,-0.02094387,18.3399995900691,19
14.20568,0.6833333,-34.75401,-16.711277143664738,-0.3181541597773629,-0.1702211305272598,23.9185,22.13651,1.019587,0.2050246,0.1859945,-0.03123695,18.359999589622,19
14.25252,0.8833327,-34.6229,-17.098020174694298,0.1641279433977296,-0.7395733068114652,31.88743,22.28088,1.421039,0.2717998,0.1824255,-0.0413717,18.379999589175,19
14.24669,0.2833333,-34.57516,-17.361827021090352,0.6417058141396449,-1.2737309669728702,8.092828,5.753117,359.26,0.07015091,0.05051327,-0.009974243,18.399999588728,19
14.27356,0.4833339,-34.43589,-17.680490471956887,0.2096024883390738,-1.8568655793083693,16.1814,5.545619,358.4837,0.1399297,0.04975013,-0.01989257,18.4199995882809,19
14.30041,0.6833344,-34.29665,-17.855713275156596,-0.2272051114497597,-2.389541787672794,24.26404,5.20751,357.6345,0.2089865,0.04873807,-0.02970527,18.4399995878339,19
14.32725,0.8833338,-34.15745,-18.061727785459976,0.2362598444600421,-3.032261546113148,32.33848,4.701773,356.6625,0.2769759,0.04748249,-0.03936327,18.4599995873868,19
14.27199,0.2833333,-34.08335,-18.41110033854501,0.0547069324679577,-3.727766984863514,7.202794,339.5055,357.2017,0.06612973,-0.1759831,-0.01280961,18.4799995869398,19
14.27342,0.4833338,-33.94854,-18.632305374986306,-0.1059376575305965,-4.385359386120186,14.38407,338.9188,354.3085,0.1319415,-0.1751583,-0.0255511,18.4999995864928,19
14.27483,0.6833338,-33.81376,-18.731794038376133,-0.3000353435135563,-4.988223951394751,21.52389,337.9207,351.2187,0.1971374,-0.1735378,-0.03816661,18.5199995860457,19
14.18203,0.2833329,-33.69959,-18.56204724560972,0.3443888775246504,-5.624531629763695,6.119298,323.8907,356.5693,0.05998869,-0.307824,-0.0118845,18.5399995855987,19
14.16699,0.4833328,-33.57819,-18.351008978343422,0.0684485240537953,-6.333625493724412,12.21468,323.2868,353.0575,0.1197526,-0.3064545,-0.02369632,18.5599995851517,19
14.15195,0.6833328,-33.45694,-17.760749881961743,-0.2363710791430755,-6.986193502059972,18.25894,322.2763,349.3841,0.17903,-0.3039333,-0.03535755,18.5799995847046,19
14.13691,0.8833328,-33.33573,-16.95820032512878,-0.5694610743864592,-7.574577854349485,24.2248,320.804,345.4465,0.2376215,-0.3002727,-0.04685392,18.5999995842576,19
13.99757,0.2833338,-33.29949,-16.08300730742823,-0.585627133727465,-8.349540271827422,6.255702,313.2597,356.6159,0.06176116,-0.3944272,-0.005430136,18.6199995838106,19
13.95823,0.4833344,-33.1818,-14.95902450095289,-0.583535151245067,-9.06039445094468,12.49951,312.653,353.1644,0.1233196,-0.3924837,-0.01064224,18.6399995833635,19
13.91891,0.6833344,-33.06414,-13.699662201606392,-0.5849863247188105,-9.70007190683275,18.6933,311.634,349.5413,0.1843793,-0.389028,-0.01578718,18.6599995829165,19
13.87961,0.8833342,-32.9465,-12.349404351006,-0.6393181675865802,-10.256699315415943,24.80906,310.1436,345.6427,0.2447134,-0.3840732,-0.02084641,18.6799995824695,19
13.64112,0.2833332,-32.89596,-10.986174275231114,-0.6477479128373652,-11.00445687417239,7.132921,303.7782,357.6,0.06470467,-0.4690152,0.01086786,18.6999995820224,19
13.56074,0.4833333,-32.79202,-9.466778670835458,-0.6413910593848078,-11.67785814469519,14.25992,303.2753,355.1278,0.1291582,-0.4663043,0.02179583,18.7199995815754,19
13.4804,0.6833335,-32.6881,-7.902783415258561,-0.6426633816083273,-12.270134413693349,21.35621,302.4244,352.4918,0.1930268,-0.4615801,0.03264987,18.7399995811284,19
13.2138,0.2833331,-32.62822,-6.249816295173908,0.0245002030708365,-12.868186377584948,7.713356,303.0347,359.1117,0.06280654,-0.4753402,0.02527689,18.7599995806813,19
13.10917,0.4833332,-32.54202,-4.904052744470546,-0.1376665985119172,-13.732701498582593,15.42208,302.8055,358.185,0.1253061,-0.4723962,0.05043524,18.7799995802343,19
13.00456,0.6833332,-32.45584,-3.5417079836343888,-0.276415417458944,-14.48946085544583,23.12392,302.4305,357.181,0.1872125,-0.4672865,0.07536003,18.7999995797873,19
12.89998,0.8833331,-32.3697,-2.1839875543885725,-0.4464520368091537,-15.13420469492647,30.81583,301.8727,356.0484,0.2482424,-0.4600359,0.09993701,18.8199995793402,19
12.52383,0.2833333,-32.32199,-1.2737265327084693,-0.3122188917949766,-15.813482873541991,7.407774,298.2898,0.01643421,0.05538357,-0.5118056,0.0332542,18.8399995788932,19
12.40947,0.4833331,-32.26146,-0.391685672823101,-0.1394565558591476,-16.329928580997667,14.81361,298.2494,0.02871927,0.110517,-0.5089173,0.06636798,18.8599995784461,19
12.29513,0.683333,-32.20097,0.4448940650227317,0.0185202654644502,-16.690838262722316,22.21748,298.2093,0.03695254,0.1651703,-0.5039045,0.09920302,18.8799995779991,19
12.18081,0.8833332,-32.14051,1.218133980727849,0.1083954824307739,-16.904335615219136,29.61938,298.1683,0.04086158,0.2191159,-0.4967892,0.1316224,18.8999995775521,19
11.89956,0.2833336,-32.17183,1.4299248149134982,0.1834842530623964,-17.05905154222865,6.897996,284.5941,359.5197,0.05015628,-0.6102549,0.03348157,18.919999577105,19
11.78489,0.4833335,-32.13402,1.612025410449272,0.297102094044945,-17.03060361153241,13.80387,284.4645,359.0364,0.1001042,-0.6072032,0.06699813,18.939999576658,19
11.67025,0.6833333,-32.09621,1.7480040518333242,0.3959328731200011,-16.834964769638574,20.70608,284.269,358.5216,0.1496532,-0.6019359,0.1002813,18.959999576211,19
11.31017,0.2833336,-32.14954,1.8207718800096575,0.4266620149944579,-16.488870773259233,7.426394,271.277,359.6779,0.0482621,-0.6975822,0.04327516,18.9799995757639,19
11.18059,0.4833336,-32.14153,1.5651421401601828,0.4426058724213189,-16.046413125468533,14.86057,271.1725,359.3571,0.09626564,-0.6934294,0.08652712,18.9999995753169,19
11.05104,0.6833332,-32.1335,1.2917761853603,0.4970788015058721,-15.454427803037682,22.29077,271.0194,359.0106,0.1438253,-0.6863553,0.1294134,19.0199995748699,19
11.05021,0.8514298,-32.12712,0.9840520605870484,0.5367654969968423,-14.732243112034972,30.32713,270.5218,358.6938,0.1935338,-0.6772106,0.1762911,19.0399995744228,19
10.87253,0.2145706,-32.24056,0.366293675084834,0.5883251215723617,-13.965333660300663,4.88203,255.778,-0.005468195,0.02619413,-0.7884844,0.03358351,19.0599995739758,19
11.01451,0.3598218,-32.26003,-0.2399454164878776,0.6784145887961175,-13.082839100793354,10.59659,256.8387,359.8868,0.05815254,-0.7800789,0.07173625,19.0799995735288,19
11.0429,0.5503495,-32.28736,-0.8523764489878678,0.7537181717677697,-12.104035033447987,12.17562,256.9046,0.9032875,0.05980984,-0.7792055,0.08792419,19.0999995730817,19
10.94012,0.2148282,-32.43674,-1.4891368434213854,0.7609194643312389,-11.048943847481452,5.034549,245.5838,359.687,0.0260806,-0.8397638,0.03544364,19.1199995726347,19
11.02802,0.3828531,-32.47264,-2.5155325549715464,0.7533334649968183,-9.893727255764915,9.93956,247.1382,359.7759,0.04952468,-0.8299919,0.07110471,19.1399995721877,19
11.04561,0.5769071,-32.51385,-3.501496461288796,0.7842761541769894,-8.679813106651068,11.67015,247.92,1.689247,0.04462227,-0.8258779,0.09250669,19.1599995717406,19
11.04912,0.7744679,-32.55591,-4.464477918312794,0.8004323552931392,-7.428629980279908,13.12195,248.6042,3.814248,0.03704521,-0.822356,0.1129678,19.1799995712936,19
10.9347,0.2148615,-32.75452,-5.422261467726669,0.7484861570170218,-6.162200537675602,5.678296,240.3676,359.6973,0.02718391,-0.863287,0.04148996,19.1999995708466,19
11.00614,0.3815198,-32.81936,-6.487560311502174,0.6817559339263333,-4.81553906612033,11.19762,241.8903,358.7545,0.05944228,-0.8529728,0.07810815,19.2199995703995,19
11.00601,0.5734674,-32.88799,-7.490010714595149,0.653555054997111,-3.46479238137972,14.68676,240.8232,0.6729077,0.05967744,-0.8557031,0.1131759,19.2399995699525,19
10.99131,0.7734674,-32.94664,-8.440576335037765,0.6105678958664047,-2.132670789636922,17.06768,241.2049,3.312663,0.05090911,-0.8530189,0.1422236,19.2599995695055,19
10.67379,0.2175592,-33.33052,-9.126801321403832,1.2197668668336077,-0.7895255838041777,5.590569,244.3687,356.6189,0.05090291,-0.8441975,0.02556088,19.2799995690584,19
10.64358,0.4175592,-33.40741,-10.147704423137952,0.9369061676627874,0.5675818513324487,8.837679,248.6801,0.1425645,0.04243815,-0.8233032,0.06431758,19.2999995686114,19
10.61376,0.617559,-33.4847,-11.051951547822313,0.6680076649525573,1.8729275600077744,11.84113,253.2124,3.859252,0.03458828,-0.8000895,0.1027285,19.3199995681643,19
10.17219,0.2833333,-33.68815,-11.847739937488727,0.3587104834674783,3.103259024959584,4.641571,255.0877,0.4476269,0.02158105,-0.7923272,0.03448555,19.3399995677173,19
10.09543,0.4833333,-33.71857,-12.548471107460314,0.2747238542729829,4.372408165022076,9.259986,259.0345,1.189241,0.04338094,-0.7694073,0.06884928,19.3599995672703,19
10.01868,0.6833333,-33.749,-13.057961632552704,0.2292670832336507,5.56067749597646,13.81869,263.1029,2.264746,0.06509572,-0.7443573,0.1030223,19.3799995668232,19
9.941949,0.8833331,-33.77943,-13.384963362707708,0.1690241360983364,6.646079421623476,18.29216,267.3493,3.699343,0.08666071,-0.7172483,0.1369119,19.3999995663762,19
9.356601,0.2833334,-33.97825,-13.905992503536696,-0.5996358825099841,7.741881155960186,5.675819,271.6665,0.05706661,0.03516816,-0.6959118,0.03485324,19.4199995659292,19
9.256431,0.4833334,-33.97935,-14.001221143613815,-0.4524923473310376,8.798857278775134,11.33482,275.575,0.5021104,0.07021243,-0.6689119,0.06957971,19.4399995654821,19
9.15626,0.6833332,-33.98043,-13.860153816537842,-0.2955679540613901,9.72334516681861,16.94978,279.6234,1.359067,0.1050071,-0.6395459,0.1040564,19.4599995650351,19
9.056103,0.8833331,-33.98153,-13.49451460787894,-0.1811331978947714,10.495490707182904,22.49151,283.9012,2.670402,0.1394448,-0.6079207,0.1381617,19.4799995645881,19
8.631762,0.2833334,-34.09016,-12.621317656819771,0.4449997682670245,11.204955683303783,5.687152,284.8618,1.01728,0.03391377,-0.6092922,0.03727421,19.499999564141,19
8.530018,0.4833333,-34.08496,-11.860342689183891,0.0675116568540946,11.94460487825037,11.29062,288.8992,2.438632,0.06770381,-0.580171,0.07441028,19.519999563694,19
8.428278,0.6833333,-34.07975,-10.796907925437932,-0.2955256347824502,12.529264030735844,16.77759,293.1751,4.301947,0.1012456,-0.5489573,0.1112737,19.539999563247,19
7.978347,0.2833334,-34.15903,-9.597121918437086,-0.6601745948599541,12.944135262247318,5.369566,289.0514,1.557232,0.03026523,-0.5801656,0.03823558,19.5599995627999,19
7.879796,0.4833333,-34.15717,-8.390470805161495,-0.7503575577983981,13.505246586312488,10.61801,293.1376,3.500931,0.06042526,-0.5506743,0.07633588,19.5799995623529,19
7.781256,0.6833335,-34.15531,-7.205243767176381,-0.7261064708324074,13.91357290958489,15.71216,297.4891,5.867712,0.09038664,-0.5192915,0.1141706,19.5999995619059,19
7.682738,0.8833333,-34.15346,-5.956198607167437,-0.6871476625485726,14.164484551454953,20.6124,302.1831,8.706583,0.1200617,-0.4861282,0.1516127,19.6199995614588,19
7.119518,0.2833333,-34.20548,-4.522849983537922,-0.0533284494642019,14.392662583190177,5.676095,285.1918,1.152205,0.03322968,-0.6070521,0.03805168,19.6399995610118,19
7.017718,0.483333,-34.20223,-3.5782915598780742,-0.2613397009604502,14.748700380021573,11.27434,289.2222,2.709037,0.06643397,-0.5780542,0.07604842,19.6599995605648,19
6.915956,0.6833328,-34.19899,-2.604028555401883,-0.4316196634824707,14.930327056817047,16.74809,293.5042,4.710147,0.09940333,-0.546964,0.113778,19.6799995601177,19
6.814231,0.8833324,-34.19575,-1.6232014001565398,-0.621390232813255,14.931603651635058,22.05625,298.1299,7.213555,0.1320128,-0.5138958,0.1511048,19.6999995596707,19
6.399813,0.2833333,-34.18588,-0.8930183748418108,-0.6154681404059001,15.217814211330555,6.959843,287.1715,1.163501,0.04282851,-0.5929897,0.04418581,19.7199995592237,19
6.276811,0.483333,-34.17343,-0.2571795275466353,-0.517142334176296,15.323797028259929,13.83073,291.2601,2.831297,0.08550602,-0.5627118,0.0881945,19.7399995587766,19
6.153855,0.6833331,-34.16098,0.3203721566975535,-0.4051122047370004,15.25545910963826,20.56178,295.709,5.078945,0.1277693,-0.5297096,0.1317806,19.7599995583296,19
6.030949,0.8833328,-34.14854,0.8163874928756589,-0.3407125051184011,15.003584086769749,27.09523,300.6799,8.022573,0.1694088,-0.4941452,0.1747332,19.7799995578825,19
5.515471,0.2833333,-34.08726,1.5552567041306389,0.416938409616151,14.96093336900811,7.729518,284.8379,0.2774706,0.05194164,-0.6086239,0.04302157,19.7999995574355,19
5.382677,0.4833329,-34.0616,1.8188514349112777,0.1864814598986688,15.108436039161765,15.42109,288.7742,1.090556,0.1035785,-0.5780528,0.08579046,19.8199995569885,19
5.249916,0.6833328,-34.03594,1.986252066078208,-0.0136679285359518,15.107499385835748,23.03473,293.0124,2.511746,0.1546182,-0.5442544,0.1280678,19.8399995565414,19
4.806935,0.2833336,-33.92472,2.5143207455675007,0.4037997097240015,15.121336784365491,7.38003,284.8978,359.306,0.05470634,-0.6078849,0.03443241,19.8599995560944,19
4.684058,0.4833335,-33.88354,2.6783764045075253,0.1772241365339092,15.29532287517324,14.78757,288.6171,359.089,0.1091128,-0.5777198,0.06867392,19.8799995556474,19
4.561211,0.6833334,-33.84236,2.7855108516072,-0.027467645055362,15.278277685544351,22.19124,292.4668,359.3796,0.1629333,-0.5445477,0.1025462,19.8999995552003,19
4.093832,0.2833329,-33.67434,2.8060722636002526,-0.2646369611998181,15.079347071208751,6.833334,290.9045,359.0729,0.05366542,-0.5656688,0.02714382,19.9199995547533,19
3.986434,0.4833331,-33.61964,3.3205411209575004,0.3717385482202118,14.910934196624916,13.7101,294.5654,358.5791,0.1070679,-0.5353438,0.05414942,19.9399995543063,19
3.879065,0.6833329,-33.56493,3.391222889087184,0.1239754490473035,15.056504816745171,20.60214,298.2977,358.5347,0.159957,-0.5025398,0.08089251,19.9599995538592,19
3.771734,0.8833326,-33.51026,3.430810317454851,-0.101903900166987,14.989991845809271,27.48231,302.2244,358.9883,0.2121138,-0.4674146,0.107239,19.9799995534122,19
3.66444,0.9766698,-33.45562,3.413129737434807,-0.3602609087759488,14.722256859216568,34.31631,306.5029,0.03919281,0.2632942,-0.4301346,0.1330687,19.9999995529652,19
3.214751,0.2833332,-33.2384,3.389123522841672,-0.3853856808328116,14.855260211500816,6.93972,304.4296,359.2063,0.05676675,-0.4649219,0.02209635,20.0199995525181,19
3.120336,0.4833331,-33.16117,3.355086634272101,-0.3640590843596781,14.768957986692149,13.91778,308.0926,358.8344,0.1133515,-0.4332899,0.04394212,20.0399995520711,19
3.025939,0.6833329,-33.08398,3.283523534759526,-0.3495977399960993,14.47704490215492,20.90269,311.8459,358.9229,0.1693819,-0.3996215,0.06556257,20.0599995516241,19
2.638679,0.2833332,-32.83032,3.565061280932094,0.3249706456455389,14.09522239376112,7.504561,313.3144,358.9246,0.06379437,-0.3948008,0.01733107,20.079999551177,19
2.554265,0.4833332,-32.73075,3.551956937589612,0.1154003806164474,13.968297600621703,14.95444,316.7282,358.3023,0.1263663,-0.3637393,0.03432132,20.09999955073,19
2.470577,0.6833333,-32.63205,3.5126691151718963,-0.072286214427958,13.650906336423692,22.36433,320.1009,358.1258,0.1877418,-0.3316889,0.05107667,20.119999550283,19
2.387316,0.883333,-32.53384,3.4181824618197707,-0.2924503732990572,13.161529200954032,29.7339,323.6042,358.4327,0.2478478,-0.2984833,0.06756327,20.1399995498359,19
1.90649,0.2833333,-32.17278,3.797560696199264,0.3609305165024451,12.583909375084628,7.775673,328.9079,0.3456633,0.06451604,-0.2675919,0.02107156,20.1599995493889,19
1.828024,0.4833329,-32.06179,3.791863560058939,0.1301737144492553,12.476034460242012,15.51488,332.4047,1.17091,0.1286632,-0.237638,0.04202235,20.1799995489419,19
1.74958,0.6833329,-31.95082,3.774827575003172,-0.078698696808429,12.186730756176868,23.18528,336.1878,2.545638,0.1920912,-0.2064179,0.0627397,20.1999995484948,19
1.333652,0.2833333,-31.57432,3.717251324325915,-0.3200485861691103,11.740199621226392,7.504726,336.8273,1.551854,0.06139083,-0.2012637,0.0263806,20.2199995480478,19
1.254043,0.4833333,-31.46678,3.680920198235496,-0.3281684637863408,11.70351015008234,14.89667,340.5463,3.602976,0.122439,-0.1714592,0.052614,20.2399995476007,19
1.174457,0.6833329,-31.35926,3.663923607242142,-0.289836638690555,11.495648058946792,22.13145,344.7064,6.254219,0.1828208,-0.1407745,0.07856287,20.2599995471537,19
1.094894,0.8833328,-31.25178,3.639417430823889,-0.2583701727718207,11.142291566857876,29.14689,349.4959,9.659022,0.2422162,-0.1093729,0.1040911,20.2799995467067,19
1.015355,0.9766699,-31.14432,3.581023386172716,-0.2870843964583932,10.669721885864988,35.85297,355.1643,14.03987,0.3003116,-0.0774214,0.1290655,20.2999995462596,19
0.5838102,0.2833336,-30.75463,3.552291976218396,-0.3226628475775913,10.74986488065349,7.290781,332.3488,1.463297,0.05868875,-0.2392523,0.02756684,20.3199995458126,19
0.4995177,0.4833338,-30.65659,3.553646903388176,-0.3117895415352907,10.665622185026532,14.45021,335.9728,3.394738,0.1168431,-0.2100442,0.0549079,20.3399995453656,19
0.4154333,0.6833339,-30.55879,3.561327180849017,-0.3077815104273498,10.445525667464402,21.45114,339.9706,5.878048,0.1742677,-0.1800347,0.08193105,20.3599995449185,19
0.04480281,0.2833336,-30.15865,3.924680649043333,0.3563326203047791,10.015377271385985,7.685663,328.7801,1.220643,0.0616843,-0.2691546,0.02826911,20.3799995444715,19
-0.04470972,0.4833335,-30.05885,3.983513280577871,0.136308035986289,9.936724274628473,15.18547,332.1752,2.896943,0.1221891,-0.2414958,0.05608032,20.3999995440245,19
-0.1334616,0.6833332,-29.95989,4.040028740663288,-0.0618324661942674,9.721317060944529,22.50821,335.8598,5.100203,0.1815321,-0.2133758,0.08344203,20.4199995435774,19
-0.2217418,0.883333,-29.86147,4.485925007474863,0.4278378196559278,9.247483878905305,29.63398,340.0353,7.95951,0.2396229,-0.1846569,0.1103034,20.4399995431304,19
-0.680124,0.2833332,-29.30772,4.605422216672118,0.2734658621936972,9.16327596061454,8.080291,325.1547,0.6559349,0.06551234,-0.2990535,0.02654315,20.4599995426834,19
-0.7728909,0.4833328,-29.20075,4.710899274824909,0.1409783561608026,8.930388544399854,16.11287,328.2667,1.758986,0.1306378,-0.2727388,0.05293093,20.4799995422363,19
-0.8656328,0.6833324,-29.09381,4.781505583348389,-0.0239866905255058,8.581527833206597,24.06882,331.7068,3.393445,0.1950099,-0.2449138,0.07901574,20.4999995417893,19
-1.25081,0.2833336,-28.55449,4.796704955343994,-0.1477441054508399,8.149824013797815,7.869096,323.4988,359.5767,0.06631898,-0.3121924,0.01798851,20.5199995413423,19
-1.329273,0.4833338,-28.44145,4.747706289175114,-0.1792451503390417,8.136277012994562,15.74726,326.3318,359.5411,0.132266,-0.2863444,0.0358754,20.5399995408952,19
-1.407713,0.6833335,-28.32844,4.662431827178479,-0.1647830754945896,7.968293479958501,23.615,329.2993,359.9269,0.1974894,-0.2589931,0.05356644,20.5599995404482,19
-1.486127,0.8833334,-28.21546,4.521696441021182,-0.1576737828370343,7.680905796292823,31.44947,332.5458,0.8160068,0.2616418,-0.2302859,0.07096854,20.5799995400012,19
-1.795868,0.2833335,-27.71301,4.658048404294224,0.5090543535263731,7.097445939200362,7.473902,324.8542,358.8878,0.06505555,-0.3006595,0.01044371,20.5999995395541,19
-1.857644,0.4833335,-27.59646,4.469124009831115,0.2911561859574576,6.871861476097148,14.9898,327.5325,358.1184,0.1297712,-0.2750744,0.02082995,20.6199995391071,19
-1.919396,0.6833332,-27.47994,4.217363331193973,0.0946543398489084,6.525751031919388,22.53061,330.2212,357.6933,0.1938272,-0.2481524,0.03110848,20.63999953866,19
-1.981123,0.8833329,-27.36345,3.884248870817725,-0.1348127654257136,6.092371009373316,30.07989,333.0234,357.6468,0.2569072,-0.2200283,0.04122962,20.659999538213,19
-2.362141,0.2833336,-26.68739,3.657286087489647,-0.1315363107799968,5.789906183094246,6.961724,332.0571,359.0804,0.06085112,-0.2405125,0.006884862,20.679999537766,19
-2.407271,0.4833338,-26.57348,3.3906894211221363,-0.0822963906319642,5.362287794664791,13.95761,334.7636,358.475,0.1214426,-0.2152377,0.0136503,20.6999995373189,19
-2.452404,0.6833333,-26.45961,3.0660767635744204,-0.0404094661088892,4.842347121733688,20.97088,337.4937,358.1964,0.1814848,-0.1890531,0.02033063,20.7199995368719,19
-2.764344,0.2833331,-25.83018,2.787908440631369,0.0207825348424369,4.479415188437759,7.366756,336.8988,358.657,0.06527928,-0.1990681,0.001403955,20.7399995364249,19
-2.796096,0.4833333,-25.70336,2.5095087596646923,0.1279377766198462,3.994649334345634,14.7887,339.5097,357.6299,0.1302667,-0.1737239,0.002702461,20.7599995359778,19
-2.82784,0.6833329,-25.57657,2.211533278688613,0.2277404624547031,3.422535043055742,22.24655,342.0904,356.9224,0.1946019,-0.1475583,0.003989639,20.7799995355308,19
-2.859575,0.8833326,-25.44982,1.8747022832048532,0.2668743692249596,2.797645281635805,29.72501,344.732,356.5546,0.257972,-0.1206994,0.005260442,20.7999995350838,19
-3.249133,0.2833336,-24.66373,1.1090895522170037,-0.5336810023576443,2.847608518018788,7.811791,344.6959,359.3821,0.06822668,-0.1324813,0.003738615,20.8199995346367,19
-3.277922,0.4833338,-24.52998,0.7492131481605142,-0.3118795895719168,2.490796176245947,15.64195,347.4437,359.1362,0.136075,-0.1073156,0.00745715,20.8399995341897,19
-3.306701,0.6833333,-24.39627,0.4041811619931019,-0.0733521085940369,2.0765506754330048,23.47243,350.2889,359.2859,0.2031887,-0.08160944,0.01113725,20.8599995337427,19
-3.335359,0.883333,-24.26315,0.0536015397959372,0.1296312245069846,1.643370213117457,31.25197,353.3187,359.8914,0.268952,-0.05586369,0.01478473,20.8799995332956,19
-3.641587,0.283333,-23.69943,-0.2370188288071775,0.111336840977084,1.3383992929639843,7.802071,350.8877,0.6423706,0.067373,-0.07963085,0.01097926,20.8999995328486,19
-3.67742,0.483333,-23.56755,-0.4813635752688379,0.1385178369749031,0.9919268317007272,15.56152,353.7646,1.683971,0.134376,-0.05586694,0.02190032,20.9199995324016,19
-3.713246,0.6833325,-23.43571,-0.7007623179008133,0.1578579765721072,0.6438211685354496,23.25447,356.9314,3.19703,0.2006612,-0.03183558,0.03270774,20.9399995319545,19
-4.039455,0.2833331,-22.83679,-1.2027975202836032,-0.5242721442425554,0.8562290547667608,7.512332,348.2454,1.079478,0.06420074,-0.1027876,0.01605831,20.9599995315075,19
-4.087766,0.4833333,-22.71345,-1.2319496877688207,-0.2836529241887832,0.5473638221714427,14.96005,351.1909,2.555242,0.128066,-0.07901976,0.03203695,20.9799995310605,19
-4.135995,0.6833328,-22.59042,-1.1982763796356446,-0.0263069080755127,0.2311816105348292,22.30153,354.4508,4.50506,0.1911487,-0.05504852,0.04787099,20.9999995306134,19
-4.184123,0.8833325,-22.46767,-1.4326152016665803,-0.4448183126373417,0.5033546800528725,29.50026,358.1806,7.051498,0.253146,-0.03097952,0.06349752,21.0199995301664,19
-4.606618,0.2833335,-21.72424,-1.2546705404929046,-0.1540200007146017,0.2617623972760476,7.510184,335.4327,0.6299807,0.06282438,-0.2126433,0.01929346,21.0399995297194,19
-4.673927,0.4833333,-21.61124,-1.012511564856136,0.1535041536786526,-0.0020826066182468,14.97925,338.2415,1.64756,0.1253003,-0.1889507,0.03859741,21.0599995292723,19
-4.741216,0.683333,-21.49827,-0.7266532354575679,0.4254844408007646,-0.2514124982267152,22.38532,341.3162,3.103686,0.1871516,-0.1643666,0.05771125,21.0799995288253,19
-4.808486,0.8833327,-21.38533,-0.4173246427722432,0.4958206319680874,-0.449509136011093,29.69858,344.8024,5.107279,0.2480796,-0.1390106,0.07654385,21.0999995283782,19
-5.119818,0.283333,-20.84322,-0.2062919501595788,0.4467553417881547,-0.4582020587535904,7.944133,334.6551,0.9717341,0.06572445,-0.2194156,0.02344918,21.1199995279312,19
-5.196257,0.4833333,-20.72845,0.0318452086227116,0.443653251140575,-0.4723280690998024,15.72868,337.4142,2.330064,0.1302071,-0.1966705,0.04653976,21.1399995274842,19
-5.272015,0.683333,-20.61471,0.2763620528060135,0.4331987623203732,-0.4538546216657728,23.36915,340.4236,4.138437,0.1934342,-0.173581,0.06925178,21.1599995270371,19
-5.601639,0.2833335,-20.03275,0.2035552935276188,-0.2782382217911313,0.1075414287717482,8.146173,330.1203,0.3126278,0.06792609,-0.2573403,0.02094086,21.1799995265901,19
-5.679705,0.4833333,-19.91372,0.5034300986020934,-0.0664389936528506,0.038599480439295,16.2696,332.6145,0.9850368,0.1354614,-0.2355065,0.04176218,21.1999995261431,19
-5.757749,0.683333,-19.79472,0.7965998114800588,0.1625741907210479,-0.0214891181352125,24.35257,335.3446,2.079209,0.2022364,-0.212404,0.06235108,21.219999525696,19
-6.100319,0.2833332,-19.17421,0.742400605818176,-0.283781812725329,0.4909718662584641,7.829698,325.9737,359.1362,0.06748464,-0.2914078,0.01278424,21.239999525249,19
-6.166625,0.4833332,-19.05375,0.9822760764709386,-0.0203384453348287,0.40217671104093,15.68499,328.2028,358.5715,0.1346036,-0.2697169,0.02549876,21.259999524802,19
-6.23291,0.6833329,-18.93332,1.1960930912304573,0.2603190074866522,0.286849689085443,23.55365,330.4571,358.3108,0.2010125,-0.2466611,0.03807916,21.2799995243549,19
-6.299173,0.8833326,-18.81293,1.3625275422242584,0.505920386644996,0.1833171585113717,31.4236,332.8344,358.3921,0.266371,-0.2223601,0.05046204,21.2999995239079,19
-6.712783,0.2833333,-18.04321,1.196860276479125,-0.1895560410814019,0.5843190541897592,7.282652,326.1777,358.5171,0.06451549,-0.2894906,0.006117066,21.3199995234609,19
-6.764128,0.4833332,-17.92415,1.3917300313477394,0.0382034991643074,0.2291552557239171,14.61386,328.2791,357.2917,0.1287145,-0.2681091,0.01220169,21.3399995230138,19
-6.815453,0.683333,-17.80512,1.5421803403538448,0.2831768463261078,-0.1510736718414538,21.98134,330.3002,356.3029,0.1923014,-0.245511,0.01822664,21.3599995225668,19
-6.866762,0.883333,-17.68612,1.6277427522562409,0.4930941977949994,-0.5210974810749125,29.37518,332.3021,355.5472,0.2549869,-0.2218032,0.02415835,21.3799995221198,19
-7.160266,0.2833336,-17.12511,1.28665962030977,-0.2380661827868487,-0.2292136157727213,7.111364,333.2374,358.6983,0.06295481,-0.2302843,0.00332212,21.3999995216727,19
-7.198022,0.4833336,-17.00477,1.2085192773802014,-0.0459893360249226,-0.4415248711893884,14.26215,335.3659,357.6401,0.1256154,-0.2091284,0.006512735,21.4199995212257,19
-7.235768,0.6833331,-16.88446,1.084277295246352,0.1633018464567818,-0.661143688237356,21.44417,337.4379,356.8237,0.1877078,-0.1870759,0.009675586,21.4399995207787,19
-7.542213,0.2833333,-16.27466,0.6243025236251203,-0.3027765334873638,-0.3384798941276443,7.47121,336.9741,358.4302,0.06656381,-0.1982722,-0.0003918872,21.4599995203316,19
-7.570478,0.4833335,-16.14443,0.4720827303377604,-0.0590564999296708,-0.5707677297265157,14.99606,339.0354,357.113,0.1328175,-0.1770864,-0.0008256986,21.4799995198846,19
-7.598736,0.6833333,-16.01423,0.3099908526578492,0.2018775282824892,-0.8137797702467449,22.55947,341.0018,356.0287,0.1984093,-0.155063,-0.001253502,21.4999995194376,19
-7.918657,0.2833335,-15.36086,-0.1795820691087684,-0.2125579094049283,-0.4792609458810499,7.853559,343.9372,359.2728,0.06869306,-0.1389546,0.003298943,21.5199995189905,19
-7.947069,0.4833333,-15.22614,-0.6701921404231719,-0.637481887297978,-0.1490680292370676,15.72726,346.1616,358.8463,0.1370139,-0.117963,0.006580962,21.5399995185435,19
-7.975472,0.6833329,-15.09147,-0.7371456422883043,-0.167918653528411,-0.5286912683731648,23.60905,348.4322,358.7309,0.2046118,-0.09638574,0.009830004,21.5599995180964,19
-8.003867,0.8833327,-14.95683,-0.7797348010286864,0.2911555214245944,-0.9076828728524946,31.48647,350.851,358.9718,0.2711404,-0.07433388,0.01303059,21.5799995176494,19
-8.032224,0.9766697,-14.82238,-1.0805094095657672,-0.1652355934538744,-0.7780113740644294,39.33624,353.548,359.6633,0.3361923,-0.05200348,0.01617761,21.5999995172024,19
-8.416173,0.2833332,-14.15504,-1.3516173508554488,-0.6321154075275495,-0.6266896662812611,7.80218,349.2976,0.7976066,0.06708849,-0.09351335,0.01325872,21.6199995167553,19
-8.457896,0.4833332,-14.02467,-1.3230379588663652,-0.204507209066737,-0.9290943605248784,15.56229,351.7733,1.941112,0.1338176,-0.07334651,0.02644946,21.6399995163083,19
-8.499611,0.6833332,-13.89433,-1.5572804114351584,-0.4277023666362985,-0.6717106476784407,23.26111,354.5349,3.502584,0.1998499,-0.05282786,0.03950622,21.6599995158613,19
-8.825314,0.2833332,-13.32154,-1.7399814064920562,-0.6357735719253842,-0.3878648248791592,7.471917,344.5955,0.9443265,0.06346641,-0.1342682,0.01688162,21.6799995154142,19
-8.878491,0.483333,-13.20137,-1.588886862143056,-0.1627951024243693,-0.6007618780401698,14.89586,347.0814,2.226727,0.1266105,-0.1140304,0.03372419,21.6999995149672,19
-8.931642,0.6833328,-13.08122,-1.7086875876581384,-0.3406193486395494,-0.2240409975255559,22.25137,349.8543,3.913951,0.1891311,-0.09327367,0.05042819,21.7199995145202,19
-9.284331,0.2833333,-12.46976,-1.7670717334789927,-0.5033197620995649,0.1596982229811567,7.546254,336.0801,0.7633939,0.06299847,-0.2072032,0.02013961,21.7399995140731,19
-9.352317,0.4833333,-12.35618,-1.4680611225582147,0.0150297531782514,-0.0134954271931295,15.05235,338.5267,1.866636,0.1256607,-0.1867621,0.04026329,21.7599995136261,19
-9.420282,0.6833332,-12.24264,-1.127972291379816,0.5228899080384606,-0.1746041455716893,22.50022,341.2375,3.364191,0.1877072,-0.1654525,0.06019179,21.7799995131791,19
-9.488229,0.8833328,-12.12913,-1.0723369446431068,0.1152848049522297,0.1643591509223867,29.86476,344.3466,5.362617,0.2488437,-0.1433764,0.07983129,21.799999512732,19
-9.802788,0.2833334,-11.5898,-0.9914664240109854,-0.3028089654441794,0.5294134216872077,7.96175,333.9876,0.9401293,0.06579829,-0.2250606,0.02359799,21.819999512285,19
-9.880075,0.4833333,-11.4748,-0.4896304986393094,0.1735847216678266,0.1792071664709151,15.79839,336.3953,2.221033,0.1305734,-0.2051647,0.04689548,21.839999511838,19
-9.956824,0.683333,-11.3606,-0.2903747946159694,-0.0008242643358642,0.3371397113319903,23.51875,339.0549,3.906738,0.194225,-0.1846772,0.06983725,21.8599995113909,19
-10.03321,0.8833326,-11.24693,-0.074361280937607,-0.1601094016418772,0.4756517039373644,31.11522,342.1277,6.115167,0.2565926,-0.1635618,0.09236386,21.8799995109439,19
-10.42863,0.2833333,-10.55676,0.1372533605649302,-0.3586324827465985,0.6334359738135262,8.135259,326.341,359.9239,0.06808764,-0.2887501,0.01990296,21.8999995104969,19
-10.50834,0.4833333,-10.4392,0.2840893312377197,-0.3306851682329839,0.8604670068361844,16.26576,328.4203,0.1443044,0.1357919,-0.269544,0.03969472,21.9199995100498,19
-10.58804,0.6833332,-10.32167,0.4281115714836527,-0.2630471415854595,1.048430516768399,24.38026,330.644,0.6989866,0.2027508,-0.2489142,0.05927076,21.9399995096028,19
-10.91971,0.2833333,-9.722924,0.5474660537701332,-0.2090339738510215,1.2372496432577562,7.766777,323.7719,358.8551,0.06746551,-0.3095374,0.01158136,21.9599995091558,19
-10.98566,0.4833332,-9.602829,0.9427624861312048,0.4983256401832818,0.8791706729176831,15.5648,325.6151,357.9517,0.1345747,-0.2905012,0.02310055,21.9799995087087,19
-11.05159,0.683333,-9.482766,1.2951525742419712,1.0547083011722105,0.52194927753794,23.3847,327.4136,357.2763,0.200992,-0.2700306,0.03450121,21.9999995082617,19
-11.3952,0.2833332,-8.846236,1.224721629730709,0.5840641984222504,0.7864751941453889,7.250797,326.1219,358.5306,0.06421302,-0.2899721,0.00618004,22.0199995078146,19
-11.44619,0.4833332,-8.727695,1.4432167380788812,0.8237068686107937,0.4230644304203155,14.54294,327.9042,357.2769,0.1281198,-0.2712498,0.01232792,22.0399995073676,19
-11.49716,0.6833331,-8.609186,1.61911560938365,1.0810517178712566,0.02034561720555,21.86671,329.5891,356.2135,0.191435,-0.2513326,0.01841669,22.0599995069206,19
-11.54812,0.8833328,-8.490711,1.4534073312974112,0.663514965492507,0.1089942824770182,29.21343,331.2217,355.3264,0.2538738,-0.230315,0.02439872,22.0799995064735,19
-11.84492,0.2833334,-7.931577,1.2325277295293358,0.2359772970724489,0.1748850753688253,7.089671,332.4041,358.6147,0.06291854,-0.2372994,0.003027989,22.0999995060265,19
-11.88265,0.4833333,-7.811332,0.9339364407642704,-0.1289216576908834,0.2553430376538232,14.21571,334.1965,357.4309,0.1255503,-0.2188047,0.005937484,22.1199995055795,19
-11.92037,0.6833332,-7.691122,0.6733762477466314,-0.167741268902567,0.2791829125005738,21.37185,335.9021,356.4381,0.1876276,-0.1993922,0.008822028,22.1399995051324,19
-12.23124,0.2833333,-7.083618,0.4021237078337627,-0.1668701449813018,0.2612203845574918,7.461923,335.9418,358.3835,0.06656989,-0.2070485,-0.0002066621,22.1599995046854,19
-12.26069,0.4833333,-6.953642,0.097560302791118,-0.1796244540779432,0.2384549550764458,14.97166,337.6733,356.976,0.1328364,-0.188517,-0.0004515201,22.1799995042384,19
-12.29014,0.6833332,-6.823702,0.0778479258229563,0.4609678832343462,-0.283353106174289,22.51627,339.2824,355.7501,0.1984545,-0.1691091,-0.0006927125,22.1999995037913,19
-12.61532,0.2833334,-6.17233,-0.2069911253271943,0.2106615341054315,-0.3403168064585948,7.850747,342.7946,359.2394,0.06867597,-0.1487788,0.003692139,22.2199995033443,19
-12.64548,0.4833333,-6.037994,-0.4942328069054369,-0.0245210341032776,-0.3943376085676479,15.72029,344.6912,358.7337,0.1369867,-0.1304406,0.007365453,22.2399995028973,19
-12.67564,0.6833331,-5.903694,-0.4473157550338378,0.4213461278848908,-0.9972074510766038,23.5997,346.6058,358.4861,0.2045885,-0.1114631,0.01100233,22.2599995024502,19
-12.70578,0.8833327,-5.769431,-0.6634264213612759,0.216410496186637,-1.098457733599031,31.48026,348.6212,358.5276,0.271142,-0.0919423,0.01458528,22.2799995020032,19
-13.02095,0.2833333,-5.21119,-0.8426508327513176,0.0265984720446105,-1.2057783233154389,7.851665,348.3703,0.5436336,0.06763251,-0.1013986,0.01164501,22.2999995015562,19
