pX,pY,pZ,aX,aY,aZ,reX,reY,reZ,rtX,rtY,rtZ,t,ID
-45.02235,0.2300002,-38.03078,5.612988167710263,-0.098233843523052,2.9503087795514205,359.0461,358.6086,1.046527,-0.008434694,-0.01206493,0.009030478,5.07999988645315,13
-45.04235,0.4300001,-38.06314,6.190098800061982,-0.0275872412827377,3.284963767816649,357.9312,357.2401,2.00073,-0.01846498,-0.02375925,0.01701619,5.09999988600612,13
-45.25721,0.2833334,-38.52465,6.91288411447799,-0.4080008061862112,3.590796803498307,0.4753573,3.965583,359.9258,0.00412337,0.03460171,-0.0007907788,5.11999988555908,13
-45.25546,0.4833334,-38.51667,7.541820644097051,-0.5455653870548475,3.861003942957872,0.9511459,4.696208,359.8578,0.00824239,0.04097953,-0.00158021,5.13999988511205,13
-45.25372,0.6833334,-38.50867,8.077151272720108,-0.4656149905827624,4.094510721576384,1.423696,5.425655,359.7952,0.01232524,0.04734854,-0.002373145,5.15999988466501,13
-45.25197,0.8833334,-38.50064,8.519425346355305,-0.1924375466298549,4.290385817623559,1.893379,6.154078,359.7403,0.01637658,0.05370858,-0.003150037,5.17999988421798,13
-45.23093,0.2833333,-38.47854,9.04180711473753,-0.6030288279900121,4.431370359480994,1.275094,14.33713,0.5630105,0.01165303,0.1247254,0.00348595,5.19999988377094,13
-45.23516,0.4833332,-38.4544,9.453433434351034,-0.7633834198703113,4.528729851899144,2.542597,15.08503,1.142843,0.02330222,0.1310037,0.006972198,5.21999988332391,13
-45.23938,0.6833333,-38.43027,9.905747677900408,-1.1257107168558766,4.580997687915968,3.80374,15.84605,1.741841,0.03496122,0.1372511,0.0104723,5.23999988287687,13
-45.16483,0.2833334,-38.39656,10.233983860617265,-1.2361986711958166,4.587715855589316,1.971124,24.61457,0.169751,0.01712085,0.2130979,-0.002219253,5.25999988242984,13
-45.15325,0.4833333,-38.36382,10.441715946194684,-1.1201811679681126,4.549401798471571,3.9406,25.35102,0.3639407,0.03423983,0.2191918,-0.004447512,5.2799998819828,13
-45.14169,0.6833333,-38.3311,10.532815910127944,-0.8019461354645444,4.466604139495097,5.909768,26.09541,0.5815085,0.0513622,0.2252043,-0.006700793,5.29999988153577,13
-45.04919,0.2833332,-38.30143,10.67212046794522,-1.158488918034764,4.3267054833707945,3.348905,32.57624,0.1308053,0.02836773,0.2803157,-0.007100205,5.31999988108873,13
-45.01977,0.4833332,-38.25051,10.684412017366236,-1.2558041505428656,4.138731977567858,6.698648,33.31572,0.3030457,0.05672821,0.2860173,-0.01421811,5.3399998806417,13
-44.99037,0.6833329,-38.19963,10.575262615951026,-1.1192260083425911,3.904135366790044,10.04793,34.07108,0.5204943,0.08505476,0.291456,-0.0213292,5.35999988019466,13
-44.82921,0.2833337,-38.1538,10.531261070485227,-1.4133580359867477,3.622269552249435,4.690784,43.18114,0.2768072,0.03894009,0.3675703,-0.01281436,5.37999987974763,13
-44.77684,0.4833339,-38.09024,10.35560837689694,-1.4442904799657907,3.294018934150216,9.381094,43.94494,0.614279,0.07783222,0.3724961,-0.02564168,5.39999987930059,13
-44.72449,0.6833338,-38.0267,10.214474036368095,-1.6642336788709016,2.9226104433227817,14.06813,44.74947,1.02159,0.1166035,0.3767731,-0.03843216,5.41999987885356,13
-44.52654,0.2833333,-37.988,9.937158947778215,-1.619374813437939,2.50656729747233,3.652519,54.12389,0.3537163,0.02978317,0.4546327,-0.01175137,5.43999987840652,13
-44.47873,0.483333,-37.94545,9.532573226697252,-1.3350472927344437,2.04811795547132,7.299096,54.88243,0.7562835,0.05952556,0.4595209,-0.02348805,5.45999987795949,13
-44.43093,0.6833332,-37.9029,9.00995367089228,-0.8355395828289965,1.5494880187361133,10.93798,55.67362,1.209151,0.08917818,0.4639141,-0.03521343,5.47999987751245,13
-44.26377,0.2833333,-37.89224,8.54965417809084,-0.9978452607169924,1.0168394963372904,3.641026,62.36774,0.3431808,0.02872813,0.5174412,-0.01388847,5.49999987706542,13
-44.21042,0.483333,-37.85722,7.969468155931565,-0.887961029869355,0.4461928574204421,7.276307,63.12296,0.7348525,0.05741739,0.5220009,-0.02775938,5.51999987661839,13
-44.15708,0.6833336,-37.8222,7.280465112043394,-0.5312206568841652,-0.1599499596482658,10.90485,63.91037,1.178886,0.08603602,0.5260039,-0.04159768,5.53999987617135,13
-43.91866,0.2833335,-37.80225,6.685499366674129,-0.5922262524460484,-0.7927809933680408,3.571702,72.11932,0.442026,0.02746234,0.5882399,-0.01522698,5.55999987572432,13
-43.86182,0.4833333,-37.77555,5.981016113285619,-0.3770691455684621,-1.4568856860433783,7.13641,72.88084,0.9320605,0.05488811,0.5924083,-0.03043588,5.57999987527728,13
-43.805,0.6833333,-37.74886,5.179999416330972,0.0889167637735073,-2.149753047792153,10.69311,73.68003,1.474646,0.08224872,0.5959651,-0.04561033,5.59999987483025,13
-43.54737,0.2833331,-37.72339,4.430662973480935,-0.0989662461213072,-2.825508792760715,3.482916,80.70557,0.6250513,0.0266888,0.6470571,-0.0155218,5.61999987438321,13
-43.48923,0.4833331,-37.70262,3.86091216459424,0.141652709356386,-2.967207759720516,6.956319,81.48044,1.297953,0.05334223,0.6508659,-0.03102524,5.63999987393618,13
-43.43111,0.6833329,-37.68187,3.254769016478498,0.3885441044049752,-3.0718079510306566,10.41907,82.3031,2.024264,0.07993379,0.6540249,-0.04649515,5.65999987348914,13
-43.37301,0.8833331,-37.66111,2.8130345316831797,-0.0508767876964276,-3.129865420752978,13.87055,83.18053,2.809287,0.1064344,0.6565305,-0.06192878,5.67999987304211,13
-43.15347,0.2833328,-37.65574,2.3483077411119453,-0.5117286303202739,-3.144991497308432,3.42859,86.34509,0.6161818,0.02549445,0.6837643,-0.0165481,5.69999987259507,13
-43.09451,0.4833329,-37.64098,1.8538663302950769,-0.0890333947804815,-3.1299153129886434,6.847797,87.11526,1.279096,0.05095509,0.6873279,-0.03307696,5.71999987214804,13
-42.89572,0.2833335,-37.62766,1.5734481572203407,-0.3280834352030383,-3.0759055784706604,3.389646,88.68926,0.6297891,0.02499067,0.69854,-0.01674377,5.739999871701,13
-42.83691,0.4833334,-37.61508,1.3020641899903325,-0.5629519881104159,-2.9920623430633384,6.770128,89.45827,1.303232,0.0499357,0.7020057,-0.03348592,5.75999987125397,13
-42.77811,0.6833332,-37.60248,0.9642564079516092,-0.1277124239247948,-2.8881266236376604,10.1404,90.27317,2.02566,0.07481234,0.7048047,-0.05021005,5.77999987080693,13
-42.71933,0.8833334,-37.58989,0.6441498195977502,0.286096396119918,-2.7626394621547803,13.49889,91.14085,2.805246,0.09960742,0.7069359,-0.06688621,5.7999998703599,13
-42.51003,0.2833335,-37.58971,0.5099778285952965,-0.2265032354598606,-2.5987840477103674,3.377153,90.54987,0.3862063,0.02312946,0.7101092,-0.01856525,5.81999986991286,13
-42.45108,0.483334,-37.58321,0.313460127175027,-0.0402458001490162,-2.410309755235744,6.748253,91.29414,0.8140767,0.04621445,0.7134974,-0.03712576,5.83999986946583,13
-42.39214,0.6833342,-37.57673,0.137522297761663,0.1522843231920502,-2.2224846280875425,10.11247,92.06973,1.289917,0.06925061,0.7162274,-0.05564712,5.85999986901879,13
-42.16388,0.2833335,-37.57227,0.1672804942187369,-0.3414971498616184,-2.019371986804721,3.343946,90.61429,0.2226074,0.02190092,0.7105433,-0.01937605,5.87999986857176,13
-42.10552,0.4833335,-37.56867,0.0717359222534383,-0.1364220827375249,-1.8155269567753864,6.683685,91.34175,0.4866683,0.04376647,0.7139418,-0.03873622,5.89999986812472,13
-41.89845,0.2833331,-37.56386,0.1351641730892154,-0.3519516001758512,-1.628839071171143,3.305609,90.328,0.09976652,0.02095366,0.7088149,-0.01983968,5.91999986767769,13
-41.84077,0.4833326,-37.56212,0.1974542240879557,-0.5622543805332803,-1.473228307272045,6.608792,91.04317,0.2409482,0.04188306,0.7122416,-0.03965656,5.93999986723065,13
-41.78312,0.6833324,-37.56037,0.0977344116344838,-0.1014025045434009,-1.3247610451857526,9.908707,91.77175,0.4241991,0.06276315,0.7150449,-0.05943645,5.95999986678362,13
-41.72548,0.8833321,-37.55862,0.0101025199809257,0.3390641804760402,-1.1907971083773816,13.20506,92.5191,0.6525954,0.08358295,0.7172231,-0.07915873,5.97999986633658,13
-41.50779,0.2833333,-37.55319,0.1088262562097739,-0.1458330051906841,-1.070644269302626,3.263109,90.00076,359.9837,0.02003205,0.7068276,-0.02023364,5.99999986588955,13
-41.45086,0.4833331,-37.55315,0.0848695240247678,0.0691720412691202,-0.9389580563559649,6.525252,90.70293,0.00735488,0.04004139,0.7102754,-0.04044449,6.01999986544251,13
-41.39394,0.6833329,-37.5531,0.0732397719786916,0.2914954170054832,-0.8239328271060558,9.785645,91.41148,0.07143601,0.06000777,0.7131171,-0.06061514,6.03999986499548,13
-41.1576,0.2833331,-37.54713,0.2701193859432322,-0.1714478996825899,-0.7200027354757879,3.217308,87.73911,359.856,0.01936776,0.6927706,-0.0203602,6.05999986454844,13
-41.10141,0.4833331,-37.54708,0.2615007396458182,0.0655116754972683,-0.6226461005141175,6.435131,88.42828,359.7506,0.03871327,0.6963286,-0.04069763,6.07999986410141,13
-41.04524,0.683333,-37.54704,0.2544753257065935,0.3097890961897845,-0.5403625049278276,9.653031,89.11626,359.6836,0.05802165,0.6993074,-0.06099487,6.09999986365438,13
-40.88515,0.2833336,-37.54278,0.4677578027031188,-0.1312003371452375,-0.4675918175527727,3.311985,87.69904,359.8383,0.01986321,0.6925061,-0.02103721,6.11999986320734,13
-40.82727,0.4833333,-37.54293,0.4425013198488727,0.1277128545465368,-0.4134720099780438,6.624804,88.38441,359.716,0.03970397,0.6960036,-0.04205042,6.13999986276031,13
-40.76941,0.6833333,-37.54309,0.4049256974372426,0.3939440784439364,-0.3738301067725658,9.937885,89.06772,359.6329,0.05950427,0.6988891,-0.06302091,6.15999986231327,13
-40.53793,0.2833333,-37.53817,0.3683884642564194,0.6152226963061788,-0.3495933786996801,3.543314,89.24053,359.8424,0.02103986,0.7020987,-0.0226943,6.17999986186624,13
-40.47601,0.4833333,-37.53974,0.508642316160099,-0.1144739710980913,-0.330831964119227,7.087298,89.92373,359.7268,0.04205326,0.7053872,-0.04535972,6.1999998614192,13
-40.41413,0.6833338,-37.54131,0.462313276561467,0.0691704090342232,-0.3134468678457409,10.6332,90.60548,359.6524,0.06302576,0.7079695,-0.06798892,6.21999986097217,13
-40.16552,0.2833336,-37.53443,0.4141354364850329,0.2601326126384539,-0.3078244998853705,3.567357,90.77151,359.8956,0.02121252,0.7115262,-0.02279665,6.23999986052513,13
-40.10329,0.4833336,-37.53672,0.3938915334086275,0.246019378868893,-0.3048409755613335,7.134915,91.45756,359.8336,0.04239748,0.7147183,-0.04556677,6.2599998600781,13
-40.04107,0.6833335,-37.53901,0.3562946194615435,0.2669277188957603,-0.3130493503480807,10.70192,92.14572,359.8143,0.06353387,0.7171879,-0.0682843,6.27999985963106,13
-39.97887,0.8833336,-37.5413,0.315057131723222,0.2695415702418159,-0.3328202137007707,14.26789,92.84151,359.839,0.08460094,0.7189332,-0.09092633,6.29999985918403,13
-39.77518,0.2833335,-37.52808,0.4892802258955342,-0.4397695494455454,-0.3593117624246957,3.593153,92.15029,0.0382998,0.02198927,0.7198889,-0.02234885,6.31999985873699,13
-39.71249,0.4833333,-37.52937,0.4809756123229576,-0.2367853724365697,-0.3843536224198374,7.184845,92.84714,0.1209937,0.04395528,0.7229859,-0.04466688,6.33999985828996,13
-39.64981,0.6833335,-37.53067,0.4646417464108339,-0.0275296306913928,-0.4144156762688524,10.77416,93.55547,0.2488094,0.06586954,0.7253428,-0.06693282,6.35999985784292,13
-39.42849,0.2833338,-37.51441,0.4543137226031604,0.1357276619208641,-0.4492720716572052,3.57074,93.36494,0.2608034,0.02302901,0.7271591,-0.02110693,6.37999985739589,13
-39.36504,0.4833341,-37.51244,0.4246503449154133,0.0672525646540876,-0.476334554124918,7.184014,94.38254,0.6157166,0.04650838,0.7319458,-0.04231783,6.39999985694885,13
-39.1563,0.2833336,-37.50446,0.3855934972124331,0.0337987061295467,-0.5061930926056064,3.643363,95.04036,0.3410784,0.02366205,0.7370753,-0.02143567,6.41999985650182,13
-39.09253,0.4833333,-37.50348,0.1727878756896146,0.4622426860437221,-0.5397684937384,7.27344,96.42682,0.7635357,0.04722442,0.7438323,-0.04286344,6.43999985605478,13
-39.0288,0.6833336,-37.50252,0.1441995201729966,0.2341691362464445,-0.5650578286305645,10.89352,97.85352,1.281437,0.07075328,0.7497222,-0.06423955,6.45999985560775,13
-38.96507,0.8833336,-37.50155,0.1051539106374903,0.0155045277615359,-0.5906024267311167,14.49577,99.33245,1.897077,0.0941644,0.7547406,-0.08552974,6.47999985516071,13
-38.75113,0.2833329,-37.49667,0.0701482218598172,-0.2481124496244854,-0.6157299320148297,3.63585,97.49014,0.2458591,0.02253089,0.7513581,-0.02243503,6.49999985471368,13
-38.68763,0.4833326,-37.49998,0.0675598367234258,-0.2909740664047267,-0.6381341157492315,7.26378,98.86269,0.5791582,0.04502861,0.7578837,-0.04483835,6.51999985426664,13
-38.62415,0.6833326,-37.50331,0.0512694337695762,-0.2998593897938796,-0.6572595772546279,10.88152,100.2692,1.003894,0.06746759,0.7635328,-0.06718379,6.53999985381961,13
-38.38962,0.2833333,-37.4992,0.0361134236152764,-0.3280845863746899,-0.6724602351665112,3.583773,100.0126,0.2836814,0.02199242,0.7656886,-0.02236546,6.55999985337257,13
-38.32713,0.4833335,-37.5045,-0.1784764268387704,0.2913217333084895,-0.6902364196605859,7.158734,101.3841,0.6535715,0.04395318,0.7720049,-0.04469941,6.57999985292554,13
-38.26465,0.6833333,-37.5098,-0.2155071985088597,0.014114212361065,-0.693850901737946,10.72273,102.7912,1.113885,0.0658592,0.7774503,-0.06697658,6.5999998524785,13
-38.00976,0.2833333,-37.50853,-0.2492312744963953,-0.2536848003354537,-0.6944904231487925,3.520178,102.0998,0.3412974,0.02162356,0.7772658,-0.02201492,6.61999985203147,13
-37.94839,0.4833331,-37.51488,-0.3899463181335179,0.1538507645436224,-0.6966137746664884,7.030261,103.4718,0.7674916,0.04321776,0.7834156,-0.0439991,6.63999985158443,13
-37.88703,0.6833332,-37.52124,-0.3244992394473058,-0.0951311377383388,-0.6883636182903672,10.52796,104.882,1.282739,0.0647582,0.7887072,-0.06592909,6.6599998511374,13
-37.82569,0.883333,-37.52758,-0.2494796554165006,-0.3347043193767441,-0.6780519116048609,14.01062,106.3417,1.892251,0.08621559,0.7931359,-0.08778372,6.67999985069036,13
-37.61222,0.2833333,-37.52356,-0.3590179932479458,0.1010575408100059,-0.6710861993403654,3.45944,103.3254,0.3642902,0.02121559,0.7839518,-0.02170493,6.69999985024333,13
-37.55194,0.4833333,-37.53059,-0.2501671437645427,-0.1196985751922757,-0.6551492672379666,6.908017,104.6933,0.8114071,0.04239896,0.7900025,-0.04338019,6.7199998497963,13
-37.49168,0.6833333,-37.53761,-0.1437655003786346,-0.3310465216567857,-0.635240069887054,10.34376,106.0996,1.345836,0.06353094,0.7952136,-0.06500319,6.73999984934926,13
-37.25877,0.2833333,-37.53724,-0.250130728617961,0.1329410050229775,-0.6206888822131518,3.41104,102.7322,0.3068002,0.02067242,0.7807524,-0.02157813,6.75999984890223,13
-37.19945,0.4833335,-37.54445,-0.3575568049992199,0.580724711509931,-0.6009108839310713,6.812555,104.0902,0.6947051,0.04131416,0.7868663,-0.04312613,6.77999984845519,13
-37.14015,0.6833335,-37.55166,-0.2875475182657183,0.1073279778963077,-0.561657281183706,10.20286,105.4824,1.167716,0.06190852,0.7921667,-0.06462308,6.79999984800816,13
-36.88843,0.2833336,-37.55392,-0.2121656209494915,-0.3822727683528533,-0.5162272601187041,3.364208,101.4347,0.2053818,0.01997207,0.7736638,-0.02158663,6.81999984756112,13
-36.8301,0.4833338,-37.56137,-0.2877086073748387,0.0169000735270091,-0.4826024807439921,6.721374,102.7792,0.4898157,0.03991502,0.7799,-0.04314403,6.83999984711409,13
-36.77178,0.6833336,-37.56882,-0.1644253288966624,-0.2404450272418924,-0.4365016891936335,10.06998,104.151,0.8565397,0.05981373,0.7853522,-0.0646519,6.85999984666705,13
-36.71349,0.8833336,-37.57627,-0.0388428956330173,-0.4883817633296552,-0.387093069432197,13.40784,105.5601,1.309783,0.07964741,0.7900159,-0.0860889,6.87999984622002,13
-36.50165,0.2833333,-37.57432,-0.0877060983887574,-0.0609833087083241,-0.355119577568189,3.314305,100.3642,0.09452349,0.0191514,0.7677467,-0.021684,6.89999984577298,13
-36.44438,0.4833333,-37.58245,-0.0264797529885569,-0.2901032159455333,-0.3139497453391087,6.624568,101.6933,0.2660843,0.03827849,0.7740766,-0.04334072,6.91999984532595,13
-36.38712,0.6833333,-37.59058,-0.1309333951131464,-0.0296215438282075,-0.2846014632106843,9.928643,103.0423,0.5164659,0.05735902,0.7796506,-0.06494863,6.93999984487891,13
-36.15646,0.2833332,-37.5912,-0.2341027412260707,0.2413141879681444,-0.2597179829680556,3.266316,98.51088,359.9689,0.01839635,0.7573242,-0.02176935,6.95999984443188,13
-36.10008,0.4833331,-37.59953,-0.1484641171262168,-0.1698812803498106,-0.2289004455030934,6.531495,99.82491,0.01278393,0.03676965,0.7638149,-0.04351167,6.97999984398484,13
-36.04372,0.6833329,-37.60786,-0.0582738958999797,-0.598325840554159,-0.2041809118260502,9.793599,101.1509,0.1327044,0.05510091,0.7695789,-0.0652055,6.99999984353781,13
-35.79432,0.2833335,-37.61047,-0.1306963830370264,-0.1390415184072987,-0.1904598675303646,3.218056,95.8019,359.8565,0.01789564,0.7417175,-0.02167374,7.01999984309077,13
-35.73862,0.4833337,-37.61799,0.0040302158752076,-0.3373202550979121,-0.1717533718696771,6.437596,97.10231,359.7859,0.03576982,0.7484327,-0.04332098,7.03999984264374,13
-35.68294,0.6833337,-37.62551,0.1369415284407686,-0.5272354056283737,-0.1557510318914978,9.656968,98.40777,359.789,0.05360682,0.7544528,-0.06492137,7.0599998421967,13
-35.62728,0.8833334,-37.63304,0.0761762092506401,-0.0428612976687817,-0.1511335216074059,12.87425,99.72685,359.8675,0.07139055,0.7597733,-0.08645222,7.07999984174967,13
-35.41163,0.2833336,-37.63132,0.0180564243266339,0.4242632614727316,-0.1474066665692177,3.37522,95.92397,359.8437,0.01870785,0.7424048,-0.02278556,7.09999984130263,13
-35.3532,0.4833333,-37.63946,0.1284025773015038,-0.0308386502353537,-0.1298852225780393,6.752225,97.21806,359.7636,0.03739261,0.748992,-0.045542,7.1199998408556,13
-35.29479,0.6833331,-37.64759,0.0164545237694362,0.2170982456260419,-0.1218188581512151,10.12925,98.51741,359.7601,0.05603492,0.754825,-0.0682469,7.13999984040856,13
-35.05801,0.2833333,-37.64954,-0.0985331752288871,0.4754897841572783,-0.1145667381450223,3.538961,97.30689,359.8665,0.0195246,0.7503929,-0.0239503,7.15999983996153,13
-34.99692,0.4833333,-37.65903,-0.0281912823034957,0.0517502290318852,-0.0958413641057163,7.079139,98.59921,359.8127,0.03902244,0.7567484,-0.04786924,7.17999983951449,13
-34.93585,0.6833329,-37.66851,0.042665867523052,-0.3892383740726436,-0.0771658300313689,10.61993,99.89929,359.8392,0.05847843,0.7622771,-0.07173952,7.19999983906746,13
-34.67884,0.2833329,-37.67368,-0.0549080648075346,0.0575007794407271,-0.0705820934889231,3.568895,98.88847,359.9358,0.01982088,0.7594163,-0.02402315,7.21999983862042,13
-34.61737,0.4833329,-37.68372,0.0536213208218363,-0.1533238657729484,-0.056278415559106,7.137483,100.1834,359.952,0.03961371,0.7656014,-0.04801558,7.23999983817339,13
-34.55591,0.6833327,-37.69375,0.1586250930128905,-0.3557849885965353,-0.0420122243219722,10.70378,101.4908,0.05034055,0.05935839,0.7709402,-0.07194789,7.25999983772635,13
-34.49448,0.8833327,-37.70379,0.066943549568176,0.1160440261733842,-0.036267795926598,14.26587,102.8213,0.2337878,0.07903242,0.7754275,-0.09579434,7.27999983727932,13
-34.27783,0.2833333,-37.7012,-0.022837158070569,0.570623610866483,-0.0305870853258696,3.589183,100.5715,0.1019609,0.02069401,0.7688453,-0.02352159,7.29999983683228,13
-34.21583,0.4833333,-37.71024,0.0596760184626781,0.1029760569537662,-0.0110415951414708,7.174298,101.8771,0.2864379,0.04136359,0.7748482,-0.04700895,7.31999983638525,13
-34.15384,0.6833333,-37.71927,-0.0800105150767898,0.3383671071038724,0.0018510307042234,10.75321,103.206,0.555732,0.06198218,0.7799866,-0.07043675,7.33999983593822,13
-33.91708,0.2833332,-37.72041,-0.2221833580891967,0.5842115922999869,0.0140273671314048,3.567411,100.9919,0.1204068,0.02061091,0.7711847,-0.02334848,7.35999983549118,13
-33.85547,0.4833331,-37.72952,-0.173582379236155,0.1479262479154917,0.0369823256024659,7.13002,102.2951,0.3220964,0.04119176,0.7771446,-0.04666431,7.37999983504415,13
-33.79388,0.6833332,-37.73864,-0.1232535626588529,-0.3056081912302722,0.0588611032383425,10.68606,103.6225,0.607986,0.06172195,0.782247,-0.06992198,7.39999983459711,13
-33.63552,0.2833333,-37.73689,-0.2412026755405492,0.1285856627118894,0.0688044593906198,3.64978,101.6212,0.1465454,0.02111305,0.7746418,-0.02387409,7.41999983415008,13
-33.57249,0.4833336,-37.74651,-0.1473734660629304,-0.094783946757446,0.0869893385672924,7.294258,102.9237,0.3763864,0.04219595,0.7804749,-0.04771389,7.43999983370304,13
-33.50949,0.6833333,-37.75613,-0.0545107738161867,-0.3097901648615251,0.1042724288716954,10.93175,104.2531,0.6926138,0.06322593,0.7854115,-0.0714945,7.45999983325601,13
-33.28233,0.2833331,-37.75587,-0.1560326220330594,0.1494937569800752,0.1121034103207918,3.631641,101.7595,0.1530944,0.02102871,0.7754066,-0.02374078,7.47999983280897,13
-33.21964,0.4833333,-37.76548,-0.2519845993407124,0.5915285178510482,0.1191677658162717,7.257823,103.0586,0.3887644,0.04202677,0.7812186,-0.04744799,7.49999983236194,13
-33.15697,0.6833333,-37.77507,-0.1664632354977051,0.1113366636928322,0.1404958906802065,10.87664,104.3848,0.7103594,0.0629722,0.786142,-0.07109413,7.5199998319149,13
-32.9099,0.2833333,-37.77812,-0.2992457621513793,0.3341834201312598,0.1541859472542839,3.5736,103.4816,0.2440326,0.02097892,0.7847927,-0.02316536,7.53999983146787,13
-32.84817,0.4833335,-37.78783,-0.4296962384232543,0.5674841949549805,0.1658101934694755,7.139709,104.7849,0.5697628,0.04192828,0.7904732,-0.04629828,7.55999983102083,13
-32.78646,0.6833335,-37.79754,-0.3565338704281764,0.1186535955163604,0.1859489891909049,10.69639,106.1202,0.9809386,0.06282593,0.7952785,-0.06937331,7.5799998305738,13
-32.72476,0.8833335,-37.80724,-0.2709704984901435,-0.3474262833727897,0.2027953242417695,14.24109,107.499,1.482811,0.08364642,0.7992043,-0.0923633,7.59999983012676,13
-32.51962,0.2833335,-37.80357,-0.3507926915183716,0.0742216244115172,0.2056985435845817,3.508956,104.5398,0.307625,0.02085776,0.7904783,-0.02257266,7.61999982967973,13
-32.45891,0.4833335,-37.81306,-0.2115416587396126,-0.1616931211964541,0.2133222026272605,7.009085,105.8432,0.6956294,0.04168769,0.7960808,-0.04511435,7.63999982923269,13
-32.39821,0.6833338,-37.82256,-0.0664372657487533,-0.3892443329148152,0.2164054765754599,10.49796,107.1816,1.167896,0.0624651,0.8008286,-0.06759841,7.65999982878566,13
-32.17295,0.2833335,-37.82103,-0.1156888560802187,0.0574944977408189,0.2082071638687139,3.450129,103.9291,0.3210738,0.02075403,0.7872174,-0.02198471,7.67999982833862,13
-32.11308,0.4833335,-37.82941,-0.1591524679399896,0.4869842427825272,0.1976005641896421,6.890746,105.2291,0.7213869,0.0414815,0.7928874,-0.04393476,7.69999982789159,13
-32.05323,0.6833335,-37.83778,0.0824551301064424,-0.0057525518482479,0.1951401896189537,10.32033,106.5641,1.204369,0.06216057,0.7977306,-0.06583283,7.71999982744455,13
-31.80784,0.2833332,-37.83902,0.0887002493442175,0.2045493265809194,0.1856867217295743,3.402159,102.6887,0.2562872,0.02028816,0.7805266,-0.02178503,7.73999982699752,13
-31.74886,0.4833334,-37.84704,0.0810677043086975,0.4253057131703911,0.1753720530465017,6.796329,103.9785,0.5895951,0.04054796,0.7863117,-0.04353853,7.75999982655048,13
-31.6899,0.6833335,-37.85506,0.0723816202959746,0.6042457316741666,0.1651292563632367,10.18111,105.2985,1.00327,0.06076211,0.7912994,-0.06524141,7.77999982610345,13
-31.63095,0.8833336,-37.86308,0.2431740504755417,-0.1646533751093404,0.1703421717179907,13.55443,106.6588,1.501965,0.08090983,0.7954854,-0.08687198,7.79999982565641,13
-31.42486,0.2833332,-37.85839,0.2316888613345149,-0.0170762065350895,0.161392382803946,3.352051,101.1598,0.1694601,0.01971441,0.7721522,-0.02165572,7.81999982520938,13
-31.36682,0.4833331,-37.86617,0.215778491380977,0.140955410872399,0.1514517708551963,6.698165,102.4364,0.4139217,0.03940201,0.7780682,-0.04328102,7.83999982476234,13
-31.3088,0.6833327,-37.87395,0.4001381423531001,-0.3831437149027364,0.1514691856584633,10.03704,103.7371,0.7360088,0.05904637,0.7832178,-0.06485756,7.85999982431531,13
-31.08221,0.2833332,-37.87133,0.3742685521366553,-0.204203997564421,0.140769091397388,3.303245,98.85829,0.03721358,0.01899222,0.7592806,-0.02168232,7.87999982386827,13
-31.02508,0.4833334,-37.87894,0.3378263903663452,-0.0148099226920899,0.1287294163110246,6.60385,100.1191,0.1472069,0.03796037,0.7653915,-0.04333738,7.89999982342124,13
-30.96797,0.6833333,-37.88655,0.5162096275507402,-0.5075464550118449,0.1242234949295237,9.899946,101.3958,0.3317388,0.0568859,0.7707693,-0.06494233,7.91999982297421,13
-30.72212,0.2833333,-37.88577,0.568141337825498,-0.2972441672171898,0.1058279131843917,3.254052,96.89801,359.941,0.01844786,0.7480736,-0.02158961,7.93999982252717,13
-30.6658,0.4833334,-37.89299,0.6084340354560958,-0.076488264130262,0.0866674739725112,6.507644,98.14662,359.953,0.03687334,0.7543456,-0.04315266,7.95999982208014,13
-30.6095,0.6833334,-37.90021,0.6502032975875913,0.1024516154209779,0.0677391682524444,9.75926,99.40485,0.03692691,0.05525982,0.7599137,-0.06466929,7.9799998216331,13
-30.55321,0.8833334,-37.90743,0.6762980693133365,0.0538404949495677,0.0517921130878065,13.00698,100.6812,0.1950238,0.07358913,0.7647737,-0.08611693,7.99999982118607,13
-30.34521,0.2833332,-37.901,0.6867815282992069,0.0444321663351033,0.0343827807046466,3.207369,94.39782,359.8409,0.01799653,0.7334552,-0.02147702,8.01999982073903,13
-30.28956,0.4833336,-37.90746,0.6948856843302593,0.0209107682548239,0.016589076866154,6.416411,95.63286,359.7508,0.03597129,0.7399159,-0.04292777,8.039999820292,13
-30.23392,0.6833338,-37.9139,0.6816210054543212,0.0099339602602203,0.0039785638656155,9.625726,96.87134,359.7301,0.0539089,0.7457021,-0.0643333,8.05999981984496,13
-30.00275,0.2833332,-37.91072,0.6443072584749814,0.0381600539778228,-0.0085543709338864,3.453785,94.46732,359.8282,0.01936188,0.7338254,-0.02314097,8.07999981939793,13
-29.94277,0.4833329,-37.91776,0.5963723021993133,0.0522730664687408,-0.0199037263509183,6.909551,95.69743,359.7304,0.03869918,0.7401212,-0.04625167,8.09999981895089,13
-29.88281,0.6833328,-37.9248,0.7626446369677602,-0.6413574595297639,-0.019172870873767,10.36602,96.9316,359.707,0.05799321,0.7456501,-0.06931125,8.11999981850386,13
-29.63211,0.2833332,-37.92467,0.7466582569294218,-0.418511085537496,-0.0313398682966905,3.550689,96.17504,359.8772,0.01989762,0.7438306,-0.0237704,8.13999981805682,13
-29.57064,0.4833332,-37.93281,0.7164790822115741,-0.1852104928766243,-0.0414102680097059,7.102934,97.40591,359.8301,0.03976968,0.7499152,-0.04751579,8.15999981760979,13
-29.50919,0.6833334,-37.94095,0.6860508470567872,0.0062730784038489,-0.0484111757748522,10.65432,98.64456,359.8602,0.05959361,0.7551855,-0.07120258,8.17999981716275,13
-29.44776,0.8833336,-37.94909,0.4717663175701077,0.710128715956409,-0.064610950314524,14.2032,99.90092,359.9697,0.07934809,0.7596369,-0.09480574,8.19999981671572,13
-29.13653,0.2833333,-37.94811,0.4744219313395206,0.4110360553507983,-0.0603333640985468,3.586742,98.1173,0.006813012,0.02055214,0.7550095,-0.02360079,8.21999981626868,13
-29.07446,0.4833331,-37.95616,0.4698013893636279,0.127066662542874,-0.0548831230442843,7.171795,99.35554,0.09135439,0.0410785,0.7608922,-0.04717043,8.23999981582165,13
-29.01241,0.6833334,-37.96421,0.2495234842972138,0.5241481110293844,-0.0559986374648815,10.75309,100.6102,0.2553464,0.06155349,0.7659358,-0.07068147,8.25999981537461,13
-28.95038,0.8833332,-37.97226,0.205738068824747,0.270426224916446,-0.0419655205896276,14.32896,101.8917,0.5024859,0.08195706,0.770136,-0.09410788,8.27999981492758,13
-28.73125,0.2833332,-37.9668,0.1496772903769923,0.0318277384100837,-0.0266917187612492,3.551818,99.38845,0.1203541,0.02084728,0.7622153,-0.02295437,8.29999981448054,13
-28.66968,0.4833332,-37.97417,0.0958628995989059,-0.2460086105271733,-0.0094532675025647,7.098929,100.6322,0.3184167,0.04166704,0.7679901,-0.04587369,8.31999981403351,13
-28.60814,0.6833335,-37.98154,0.083116875209356,-0.297373417988619,0.0057268567967128,10.63983,101.8993,0.596486,0.06243597,0.7729329,-0.06873685,8.33999981358647,13
-28.36684,0.2833334,-37.97936,0.0572365433958381,-0.3090474187064694,0.0210193889038592,3.623061,99.92114,0.1353357,0.02124013,0.7651947,-0.02344273,8.35999981313944,13
-28.30406,0.4833333,-37.98726,0.0331993232828473,-0.3343461811141894,0.0371538252619743,7.241346,101.1632,0.3495241,0.04245076,0.7708616,-0.04685256,8.3799998126924,13
-28.2413,0.6833334,-37.99516,-0.1763942383799381,0.2937013358606775,0.0423592572170434,10.85369,102.4302,0.6453434,0.06361072,0.7756633,-0.07020828,8.39999981224537,13
-27.97932,0.2833335,-37.99558,-0.2159175919884539,0.0308498394420755,0.0635448490154217,3.63635,100.3502,0.147862,0.02131035,0.7675916,-0.02354113,8.41999981179833,13
-27.91634,0.4833336,-38.00378,-0.2518585750581508,-0.216877697639523,0.0843041396692854,7.267653,101.5898,0.3748015,0.04259136,0.7731953,-0.04704867,8.4399998113513,13
-27.85338,0.6833335,-38.01197,-0.4957092503064544,0.2164449134658836,0.0953070110645697,10.89214,102.8555,0.6838174,0.06381905,0.7779263,-0.07049658,8.45999981090426,13
-27.79044,0.8833336,-38.02015,-0.5494396336064327,-0.0010357033091323,0.1200216313103084,14.50801,104.1582,1.079566,0.08496992,0.7817801,-0.09386009,8.47999981045723,13
-27.57119,0.2833335,-38.01557,-0.6027857499921296,-0.2033925869914903,0.1443166584649162,3.586935,102.3571,0.2305417,0.02118647,0.7786805,-0.02312278,8.49999981001019,13
-27.50911,0.4833336,-38.02438,-0.6405589899122219,-0.4449873315366243,0.1687655004109274,7.167038,103.5992,0.539276,0.04234359,0.7841256,-0.04621335,8.51999980956316,13
-27.44704,0.6833336,-38.03319,-0.829684974123019,0.1802033158689333,0.1775658826829982,10.73848,104.872,0.9297979,0.06344862,0.7887061,-0.06924608,8.53999980911613,13
-27.20772,0.2833333,-38.03046,-0.7424374539248859,-0.0855055564463241,0.198097535111664,3.525338,103.0162,0.2856185,0.02109473,0.7822756,-0.02252468,8.55999980866909,13
-27.14658,0.4833335,-38.03881,-0.6402203813194163,-0.3360910957999502,0.2150841294591572,7.042661,104.2592,0.6482356,0.04216097,0.7876849,-0.04501826,8.57999980822206,13
-27.08546,0.6833335,-38.04715,-0.7186457659871657,0.0943743780238389,0.2175934815309048,10.55019,105.5353,1.091633,0.06317674,0.7922508,-0.06745709,8.59999980777502,13
-26.82626,0.2833332,-38.0463,-0.5679214530399115,-0.1259632298495033,0.2259731730301766,3.463923,103.0022,0.3236776,0.02102384,0.7822064,-0.02189617,8.61999980732799,13
-26.76602,0.4833332,-38.05375,-0.4121289008957554,-0.3311767963210871,0.2297986103167346,6.918749,104.2443,0.723212,0.04201977,0.7876338,-0.04375947,8.63999980688095,13
-26.7058,0.6833333,-38.0612,-0.4656859724907569,0.1446596027958951,0.2212979473519496,10.36288,105.521,1.202286,0.06296635,0.7922429,-0.06556986,8.65999980643392,13
-26.6456,0.8833331,-38.06865,-0.5132864495466727,0.610007080132263,0.2102412721420066,13.79445,106.8426,1.766219,0.08384286,0.7960299,-0.08730619,8.67999980598688,13
-26.58541,0.9766704,-38.0761,-0.3719869776534139,0.1598878076337077,0.213074048213258,17.21109,108.2203,2.421998,0.1046276,0.7989917,-0.1089457,8.69999980553985,13
-26.32742,0.2833335,-38.06638,-0.217346398635172,-0.3007207334605293,0.2136419502652131,3.408695,101.7814,0.2626678,0.02053914,0.775556,-0.02163286,8.71999980509281,13
-26.26819,0.4833332,-38.07341,-0.3351539803036374,0.1331595234317834,0.2020037739496842,6.809651,103.0113,0.5990691,0.04105078,0.7810841,-0.0432342,8.73999980464578,13
-26.20897,0.6833333,-38.08044,-0.2574397799646952,-0.0837626323100507,0.2026558838502552,10.20151,104.2711,1.01231,0.06151532,0.7858262,-0.06478584,8.75999980419874,13
-25.98136,0.2833333,-38.0746,-0.1840464022942924,-0.285561504311685,0.2020409644426877,3.354916,99.5163,0.1572997,0.01995814,0.7629706,-0.02145835,8.77999980375171,13
-25.92311,0.4833332,-38.08095,-0.1012366426866364,-0.5265977922666367,0.201066824423961,6.704341,100.7327,0.3863651,0.03989058,0.7686907,-0.04288506,8.79999980330467,13
-25.86487,0.6833332,-38.08731,0.0295690903467793,-0.5411634353598701,0.1938894338740127,10.04714,101.9719,0.6893668,0.05977875,0.7736614,-0.06426397,8.81999980285764,13
-25.61834,0.2833334,-38.08384,0.151668205754877,-0.5160383813034124,0.1832702631288469,3.303858,97.66308,0.04023329,0.01924068,0.7524579,-0.02146974,8.8399998024106,13
-25.56105,0.4833333,-38.09024,0.2789367125769999,-0.5045388259515187,0.1701765089363078,6.605189,98.86523,0.1498857,0.03845762,0.7583305,-0.0429131,8.85999980196357,13
-25.50378,0.6833332,-38.09663,0.2094299548666072,0.1603079355397328,0.1440905099504092,9.902159,100.0827,0.3305688,0.05763086,0.7634849,-0.06430753,8.87999980151653,13
-25.44652,0.883333,-38.10303,0.1464210793279967,0.6741781729525557,0.1167728949508273,13.1936,101.324,0.5851108,0.07674487,0.7679172,-0.08563536,8.8999998010695,13
-25.2388,0.2833333,-38.09506,0.3110749873352461,0.1610205329154019,0.1010006847604145,3.254089,96.01001,359.9458,0.01864576,0.7429125,-0.0214184,8.91999980062246,13
-25.18237,0.4833335,-38.10136,0.2436672056448081,0.3581496186861431,0.0743919541855078,6.507611,97.19906,359.9592,0.03726892,0.7489097,-0.04281062,8.93999980017543,13
-25.12596,0.6833333,-38.10765,0.1692926837024941,0.5729808220237926,0.0464452631723517,9.759246,98.39738,0.04111119,0.05585369,0.7542166,-0.06415708,8.95999979972839,13
-24.89944,0.2833333,-38.10055,0.266285358856674,0.1129300805661028,0.0251434216810579,3.206951,92.83637,359.83,0.01821608,0.7241349,-0.02129275,8.97999979928136,13
-24.84365,0.4833334,-38.10569,0.3608532295462794,-0.3571220699312581,0.0028618297989666,6.415763,94.01195,359.7256,0.03641073,0.730368,-0.04255994,8.99999979883432,13
-24.78788,0.6833333,-38.11083,0.2790115901328036,0.0678023170659257,-0.0343556087002951,9.625125,95.18974,359.6872,0.05456827,0.7359435,-0.0637828,9.01999979838729,13
-24.73211,0.8833334,-38.11597,0.3886538069615284,-0.157588449777824,-0.0785060206792351,12.83334,96.37743,359.7165,0.07267392,0.7408575,-0.08493719,9.03999979794025,13
-24.44147,0.2833335,-38.10874,0.4918401758486297,-0.3673675433891464,-0.1208062208756004,3.464932,93.48291,359.8327,0.0196556,0.7279654,-0.02301729,9.05999979749322,13
-24.38118,0.4833335,-38.11472,0.389821548368495,0.1043919043377006,-0.1736210594379699,6.931622,94.65382,359.7361,0.03928594,0.7339808,-0.04600472,9.07999979704618,13
-24.32092,0.6833335,-38.12069,0.2859661426357824,0.566150126146023,-0.223755917444933,10.39933,95.82845,359.7105,0.05887448,0.7392394,-0.0689441,9.09999979659915,13
-24.06067,0.2833332,-38.11841,0.3265924308868939,0.1129294140295306,-0.2775263399826571,3.542425,95.4183,359.8914,0.02009762,0.7394046,-0.02350151,9.11999979615211,13
-23.99923,0.4833334,-38.12551,0.1370868231285307,0.3699957779335848,-0.3360258617070712,7.085866,96.59106,359.8548,0.04016829,0.7452109,-0.04697769,9.13999979570508,13
-23.9378,0.6833334,-38.13261,-0.0571414371160976,0.6447645306015632,-0.3892778736875257,10.62834,97.77168,359.8915,0.06019124,0.75022,-0.07039729,9.15999979525805,13
-23.87639,0.8833334,-38.13971,-0.2430107921151538,0.8849651122856199,-0.4361779254352811,14.16828,98.96961,0.003931257,0.08014508,0.7544275,-0.09373505,9.17999979481101,13
-23.65612,0.2833332,-38.13229,-0.2093873979098077,0.1845752823913911,-0.4707056262110711,3.589368,97.24738,0.02258136,0.02084906,0.7500123,-0.02337036,9.19999979436398,13
-23.59386,0.4833331,-38.13916,-0.1658216755396644,-0.42442721457257,-0.4963470816320452,7.176877,98.42793,0.1194491,0.04167316,0.7556267,-0.04671001,9.21999979391694,13
-23.53162,0.6833331,-38.14603,-0.3356252341184778,-0.0393330604232416,-0.5327339585888424,10.76058,99.62517,0.2923214,0.06244617,0.7604153,-0.06999218,9.23999979346991,13
-23.29196,0.2833335,-38.13987,-0.3093927207938201,-0.3050415801736722,-0.5540808834255415,3.553156,97.82796,0.1111442,0.02110505,0.7533414,-0.02272995,9.25999979302287,13
-23.23022,0.4833335,-38.14575,-0.280921791057672,-0.5556266916928834,-0.5660090044562125,7.10199,99.01312,0.2964968,0.04218317,0.7589136,-0.04542468,9.27999979257584,13
-23.16849,0.6833336,-38.15163,-0.4381190618383002,-0.1251613134370763,-0.5833275864608538,10.64519,100.2203,0.5581021,0.06321044,0.7636714,-0.06806443,9.2999997921288,13
-22.90675,0.2833334,-38.14865,-0.3756043171887491,-0.3454989409989896,-0.5793051850475806,3.622743,99.15382,0.1456982,0.02146364,0.7608699,-0.02323925,9.31999979168177,13
-22.84385,0.4833333,-38.15557,-0.3172466315891604,-0.5507129319945181,-0.5678227575337047,7.240713,100.3392,0.3665988,0.0428972,0.7662778,-0.0464466,9.33999979123473,13
-22.78097,0.6833333,-38.16248,-0.4744462196972705,-0.0748769908546324,-0.5602192226509146,10.85291,101.5495,0.6653831,0.06427898,0.7708338,-0.06960189,9.3599997907877,13
-22.71811,0.8833334,-38.1694,-0.6314835513208195,0.3904701396666677,-0.5455286817029972,14.45692,102.7952,1.04691,0.08558401,0.7745339,-0.09267356,9.37999979034066,13
-22.65527,0.9766704,-38.1763,-0.6037443482375728,-0.0596487964709265,-0.5041704402933576,18.05078,104.088,1.517636,0.1067897,0.777375,-0.1156356,9.39999978989363,13
-22.39719,0.2833333,-38.17215,-0.5695086742873876,-0.5202564098501009,-0.4564023315983974,3.626775,100.6822,0.1803609,0.02140696,0.7694395,-0.02335756,9.41999978944659,13
-22.33434,0.4833331,-38.18016,-0.6947052986555136,-0.0863756834811744,-0.4190623360936527,7.248083,101.8651,0.4359702,0.04278436,0.7746949,-0.04668266,9.43999978899956,13
-22.2715,0.683333,-38.18817,-0.8038517642084635,0.3370157413616252,-0.3766106384333909,10.86223,103.0752,0.7700213,0.06410836,0.7790881,-0.06994911,9.45999978855252,13
-22.05351,0.2833333,-38.18981,-0.6501000632378684,-0.1550591512659678,-0.3119526446117717,3.570963,103.2003,0.2637879,0.02115646,0.783268,-0.02298873,9.47999978810549,13
-21.99171,0.4833331,-38.19894,-0.6835556428572822,0.0626651555830462,-0.2585178512460473,7.134739,104.387,0.6020432,0.04228432,0.7883435,-0.04594581,9.49999978765845,13
-21.92993,0.6833332,-38.20808,-0.7077618449317953,0.2976038151397584,-0.2032195432435344,10.68959,105.6056,1.01841,0.06336039,0.7925642,-0.06884634,9.51999978721142,13
-21.69275,0.2833334,-38.22441,-0.5048752127753318,-0.1428273529152753,-0.1382773457550286,3.506081,105.6558,0.3359831,0.02081889,0.7963935,-0.02260527,9.53999978676438,13
-21.63217,0.4833336,-38.23467,-0.2838441152855857,-0.5937479174545963,-0.0743142104281631,7.003494,106.8449,0.7452659,0.04160978,0.8012983,-0.04518016,9.55999978631735,13
-21.5716,0.6833336,-38.24493,-0.3119274066573254,-0.150180157142918,-0.025879957191421,10.49024,108.0695,1.231535,0.06234738,0.8053606,-0.06770083,9.57999978587031,13
-21.51105,0.8833337,-38.25518,-0.3303866539266806,0.2828985508860157,0.0214465002421064,13.9647,109.3394,1.800407,0.0830126,0.8085769,-0.09014513,9.59999978542328,13
-21.32582,0.2833333,-38.2726,-0.1685896971179232,-0.1994888375381548,0.067926444905062,3.447855,106.0073,0.3438381,0.02049856,0.7982547,-0.02222213,9.61999978497624,13
-21.26624,0.483333,-38.28282,-0.2300646499437526,0.027923500836965,0.1013855005155619,6.886606,107.1919,0.7594422,0.04096825,0.8031448,-0.0444129,9.63999978452921,13
-21.20667,0.683333,-38.29304,-0.2901626049458699,0.2725499343131168,0.1325663879649354,10.3149,108.4113,1.250726,0.06139037,0.8072156,-0.06655203,9.65999978408217,13
-21.14713,0.8833331,-38.30326,-0.1828836962851845,-0.1581941432598628,0.1491126900851682,13.7309,109.6753,1.823011,0.08174469,0.8104638,-0.08861716,9.67999978363514,13
-20.90204,0.2833334,-38.30886,-0.0671086373501737,-0.5994271556810917,0.1659509580483487,3.400641,103.2707,0.2183614,0.01990966,0.7836946,-0.02208275,9.6999997831881,13
-20.84332,0.4833333,-38.31818,-0.1203659722144827,-0.1461714883343215,0.166321329709433,6.794769,104.4388,0.5068049,0.03979455,0.7888051,-0.0441323,9.71999978274107,13
-20.78462,0.6833333,-38.32749,-0.1617880272484484,0.2965953898247844,0.1660101457292597,10.18128,105.6334,0.8679004,0.05963513,0.7931349,-0.06613167,9.73999978229403,13
-20.55347,0.2833334,-38.33015,0.0307534276498842,-0.1761038962466889,0.14518471541205,3.342929,100.3182,0.1155905,0.01946116,0.7674805,-0.0217503,9.759999781847,13
-20.49565,0.4833333,-38.33803,0.0207732207629831,0.0609957585063622,0.1095443663842488,6.681412,101.4733,0.2993416,0.03889928,0.7728305,-0.04346721,9.77999978139997,13
-20.43785,0.6833334,-38.34591,0.0106406887951742,0.3153098146658394,0.0723775257727226,10.01452,102.648,0.552794,0.05829494,0.7774408,-0.0651365,9.79999978095293,13
-20.18221,0.2833334,-38.34138,0.1939321737491219,-0.1057465740144557,0.0063418371866958,3.291662,97.89929,359.9929,0.01881504,0.7538228,-0.02170038,9.8199997805059,13
-20.12527,0.4833334,-38.34882,0.1412816389341316,0.1829962844351684,-0.0701964065578266,6.581852,99.03996,0.0514103,0.03760762,0.7593613,-0.04337403,9.83999978005886,13
-20.06834,0.6833332,-38.35627,0.0769537597417873,0.4889537971935398,-0.1461085188628104,9.868914,100.1924,0.1769586,0.05635954,0.7641934,-0.06499785,9.85999977961183,13
-20.01143,0.8833332,-38.36371,0.0130125431971492,0.7598550864465464,-0.2208708534047474,13.15182,101.3646,0.371682,0.07505424,0.7683155,-0.08655527,9.87999977916479,13
-19.79447,0.2833333,-38.35318,0.0966090093596854,0.0896775796818591,-0.3106464559534672,3.241645,95.89666,359.9171,0.01840847,0.7422575,-0.0214869,9.89999977871776,13
-19.73829,0.4833333,-38.35987,0.1875449570333245,-0.4896001787655038,-0.3984464758162573,6.483333,97.02612,359.8982,0.03679539,0.7479411,-0.04294778,9.91999977827072,13
-19.68213,0.6833335,-38.36655,0.0642948616395902,-0.0752690564471959,-0.4969507280251051,9.723789,98.16251,359.9438,0.05514413,0.7529474,-0.0643634,9.93999977782369,13
-19.62598,0.8833334,-38.37323,-0.0530008258662846,0.3280854838594981,-0.5925565959165411,12.96147,99.31342,0.05622039,0.07343915,0.7572731,-0.08571094,9.95999977737665,13
-19.3517,0.2833332,-38.36417,0.0364992063672122,-0.1845141319520015,-0.707968836284337,3.269717,92.77447,359.8042,0.01844284,0.7237561,-0.02183402,9.97999977692962,13
-19.29481,0.4833332,-38.36977,-0.0547485699567182,0.0121972416830864,-0.8251987587323626,6.54166,93.88972,359.6721,0.03686422,0.7296153,-0.04364086,9.99999977648258,13
-19.23794,0.6833332,-38.37537,-0.1478465929104597,0.2256355455387374,-0.935651029626044,9.814615,95.00539,359.6034,0.05524675,0.7348021,-0.06540166,10.0199997760355,13
-18.99035,0.2833335,-38.3737,-0.0675755701327567,-0.2367846119872673,-1.062978549894062,3.532097,95.11131,359.8551,0.01986612,0.7376084,-0.02359473,10.0399997755885,13
-18.92906,0.4833332,-38.38113,-0.1966900809589464,0.0101064349394898,-1.1728826595785549,7.065447,96.22751,359.779,0.03970649,0.7431352,-0.04715866,10.0599997751415,13
-18.8678,0.6833332,-38.38855,-0.3342655030000525,0.2737238128921239,-1.2710458987492856,10.6006,97.34846,359.7714,0.05950759,0.7478765,-0.07068272,10.0799997746944,13
-18.80656,0.8833331,-38.39597,-0.467866211788726,0.5017971883671368,-1.356719822890902,14.13432,98.48308,359.835,0.07924185,0.7518287,-0.09412636,10.0999997742474,13
-18.59759,0.2833333,-38.40343,-0.4812382108060724,-0.2116963467247039,-1.4707391751891876,3.563874,98.84835,359.9482,0.01988345,0.7591876,-0.02391216,10.1199997738004,13
-18.53618,0.4833335,-38.41331,-0.6300715060980924,-0.0024397690863885,-1.56034519466521,7.127326,99.96868,359.9651,0.03973441,0.7643999,-0.04779991,10.1399997733533,13
-18.47479,0.6833334,-38.42318,-0.7676256888743271,0.2235434960629251,-1.632413008728406,10.68877,101.0999,0.05290595,0.05953781,0.7687947,-0.07163014,10.1599997729063,13
-18.26958,0.2833332,-38.44529,-0.7606024354510783,-0.2263314621642023,-1.7462369824397823,3.591629,101.2534,0.08129145,0.02042785,0.7726353,-0.02377518,10.1799997724593,13
-18.20773,0.4833332,-38.45553,-0.7333876975966227,-0.6871833050494021,-1.8360449143207944,7.180193,102.3831,0.2334998,0.04082853,0.7776348,-0.04752017,10.1999997720122,13
-18.1459,0.6833332,-38.46576,-0.8953234327035222,-0.2540350161257001,-1.9068087699356224,10.76402,103.5326,0.4590307,0.06117961,0.7817913,-0.07120718,10.2199997715652,13
-18.08409,0.8833332,-38.47599,-1.0349862876858982,0.1681364815299708,-1.954210976101038,14.34154,104.7116,0.7617744,0.08145983,0.7851014,-0.0948099,10.2399997711182,13
-17.82565,0.2833333,-38.50529,-0.964771821638248,-0.3256459619263728,-2.0511576967341654,3.566372,104.4315,0.170339,0.02023955,0.7899117,-0.02368251,10.2599997706711,13
-17.76453,0.4833335,-38.51735,-1.0768442006624994,-0.1101172158270602,-2.1243755324896725,7.127595,105.5649,0.4107151,0.04044545,0.7946649,-0.04733673,10.2799997702241,13
-17.70343,0.6833335,-38.52939,-1.1735041389484522,0.1221382198740733,-2.16863998137508,10.68235,106.7234,0.7248494,0.06060277,0.7985673,-0.07093419,10.2999997697771,13
-17.47268,0.2833335,-38.56741,-1.0801379332499206,-0.3214645010691702,-2.238545545923188,3.643226,106.4379,0.1863756,0.02033519,0.8004928,-0.02448639,10.31999976933,13
-17.41064,0.4833334,-38.5817,-1.2035354228699546,-0.0557560463084542,-2.2878721793340877,7.281086,107.5702,0.4451181,0.04064218,0.8050268,-0.04893886,10.339999768883,13
-17.34861,0.6833335,-38.59599,-1.3190484931198547,0.2266789774833591,-2.304963384466511,10.91203,108.7296,0.7794409,0.06089847,0.8086653,-0.07333011,10.359999768436,13
-17.28661,0.8833334,-38.61027,-1.4140926965777538,0.4735701577871224,-2.291010624842926,14.53519,109.9263,1.193404,0.0810807,0.8114043,-0.09764254,10.3799997679889,13
-17.09806,0.2833336,-38.64016,-1.321085816031678,-0.2211053852602911,-2.257110440676364,3.614205,108.6752,0.2049729,0.01983749,0.812028,-0.02457848,10.3999997675419,13
-17.03703,0.4833335,-38.6564,-1.3925869912478372,0.0069684533317522,-2.2114171502978053,7.222706,109.8046,0.4816158,0.03964807,0.8163884,-0.04912307,10.4199997670949,13
-16.976,0.6833334,-38.67263,-1.4445925510915565,0.2517688737611747,-2.1377249506313447,10.82395,110.9618,0.8331714,0.05940977,0.8198543,-0.07360689,10.4399997666478,13
-16.915,0.8833334,-38.68885,-1.464641049445886,0.4610250905584914,-2.038286475676749,14.41624,112.1569,1.263498,0.07909431,0.8224223,-0.09800769,10.4599997662008,13
-16.67689,0.2833333,-38.72688,-1.206979851439888,-0.2712853503087213,-1.9038981717339356,3.546189,111.46,0.3046376,0.01961871,0.8259485,-0.02407343,10.4799997657537,13
-16.61721,0.4833333,-38.744,-1.1772411257610091,-0.080846304385561,-1.7639522630367068,7.08471,112.5936,0.6799495,0.03921099,0.8301157,-0.04811438,10.4999997653067,13
-16.55754,0.6833334,-38.76112,-1.131768652301437,0.1263193484648414,-1.605997653035793,10.61396,113.7605,1.129789,0.05875612,0.8334017,-0.07209717,10.5199997648597,13
-16.34515,0.2833332,-38.80094,-0.8550206381465983,-0.3423731179556949,-1.401648430037433,3.47384,114.9343,0.3817664,0.01910777,0.8426367,-0.02376316,10.5399997644126,13
-16.28722,0.4833333,-38.81992,-0.7893244641763122,-0.1017547181138981,-1.195528638143898,6.93852,116.0707,0.8328896,0.03818942,0.8465649,-0.04749563,10.5599997639656,13
-16.22929,0.6833333,-38.83889,-0.7251814223442601,0.1555905133313688,-0.9812650342989072,10.39216,117.244,1.356641,0.05721767,0.8496248,-0.07117526,10.5799997635186,13
-16.17138,0.8833333,-38.85785,-0.6518768000599717,0.3773918298521745,-0.7622134659211781,13.83326,118.4639,1.959705,0.07618289,0.8518141,-0.09477501,10.5999997630715,13
-16.01621,0.2833333,-38.91571,-0.4003565983654074,-0.342373115864872,-0.5003844759798426,3.413417,118.3946,0.3945348,0.01820741,0.858497,-0.02381947,10.6199997626245,13
-15.96035,0.4833336,-38.93747,-0.313208827791291,-0.1393889114138589,-0.2423676553182261,6.817297,119.5268,0.8555248,0.03637876,0.8621772,-0.04761376,10.6399997621775,13
-15.9045,0.6833334,-38.95921,-0.2224717085605352,0.0803215233551161,0.0111235641013536,10.21038,120.6958,1.388702,0.05451,0.8650008,-0.07135433,10.6599997617304,13
-15.7356,0.2833333,-39.03719,-0.1176305500361749,0.264488201753619,0.2568035603378007,3.372635,118.7028,0.264357,0.01698511,0.8599005,-0.02414124,10.6799997612834,13
-15.68155,0.4833333,-39.06091,0.0591490442398185,0.227376465360949,0.5516266768122975,6.73831,119.8197,0.593682,0.03393905,0.8635778,-0.04825544,10.6999997608364,13
-15.62752,0.6833332,-39.08462,0.2245093451089914,0.2357401178175748,0.8330492284164137,10.09591,120.9648,0.9922683,0.05085595,0.8664211,-0.07231624,10.7199997603893,13
-15.5735,0.8833331,-39.10833,0.389197673270429,0.2362632033652936,1.0975924186969197,13.44387,122.1468,1.464457,0.06771982,0.8684289,-0.09630048,10.7399997599423,13
-15.35544,0.2833333,-39.2006,0.7536490329143959,-0.4646844145788453,1.37318625565117,3.322659,117.5099,0.1131751,0.01588194,0.8545823,-0.02427448,10.7599997594953,13
-15.30289,0.4833333,-39.22514,0.881543287858733,-0.2428828823549234,1.6456335277385463,6.641201,118.6087,0.2897304,0.03173874,0.8583699,-0.04851877,10.7799997590482,13
-15.25035,0.6833333,-39.24967,0.9940258251406392,-0.0043551070067545,1.893456511794362,9.954793,119.7261,0.5321692,0.04756151,0.861355,-0.07271118,10.7999997586012,13
-15.04612,0.2833334,-39.32494,1.3123632036333586,-0.4416851631801725,2.1426722880901394,3.268535,113.935,359.9406,0.01511167,0.8380283,-0.02419229,10.8199997581542,13
-14.9942,0.4833333,-39.34853,1.4078755072485123,-0.1697039591455794,2.3898453837436406,6.536637,115.0154,359.9428,0.03020596,0.8421068,-0.04835508,10.8399997577071,13
-14.94229,0.6833333,-39.37211,1.4711832744772677,0.1190037917051274,2.607151847693551,9.802851,116.1037,0.007819477,0.0452693,0.8454215,-0.07246367,10.8599997572601,13
-14.89039,0.8833332,-39.39568,1.5128830951892986,0.3721672233187038,2.7921479796732243,13.06623,117.2074,0.1371679,0.06028795,0.84797,-0.09649909,10.879999756813,13
-14.69325,0.2833332,-39.42842,1.5436172437107132,0.4236867494165156,2.942433899556434,3.212081,107.5534,359.7834,0.01503791,0.8064329,-0.02372641,10.899999756366,13
-14.64075,0.4833333,-39.44839,1.6281154116280945,0.3558039872840873,3.1136669268747355,6.42667,108.616,359.6262,0.03005814,0.8109907,-0.04742488,10.919999755919,13
-14.58828,0.6833333,-39.46836,1.680919264664169,0.333884564333484,3.2458532469761394,9.642673,109.6771,359.5283,0.04504819,0.8148324,-0.07107452,10.9399997554719,13
-14.53581,0.8833333,-39.48833,1.7132418627890669,0.3046125360446647,3.337247955803086,12.85874,110.7437,359.4914,0.06000136,0.8179563,-0.09464774,10.9599997550249,13
-14.26471,0.2833333,-39.49751,1.9119380698639823,-0.4256422357334318,3.4180073684215344,3.38621,100.7055,359.7024,0.01685282,0.7696978,-0.02440657,10.9799997545779,13
-14.20742,0.4833332,-39.513,1.8778944030503213,-0.23265956490022,3.478277067012208,6.776431,101.7563,359.4666,0.0336857,0.7746148,-0.04878242,10.9999997541308,13
-14.15014,0.6833332,-39.52849,1.813026551700764,-0.0224625708921658,3.4944444512372144,10.16943,102.8011,359.292,0.05048201,0.7787777,-0.0731038,11.0199997536838,13
-13.90185,0.2833332,-39.51434,1.9269992002666656,-0.4876357664693846,3.49621920177605,3.526762,98.96869,359.7775,0.01851572,0.7599058,-0.02465449,11.0399997532368,13
-13.84152,0.4833331,-39.52718,1.8250471828849195,-0.2430096987128168,3.476442397004732,7.05692,100.0226,359.6205,0.03701787,0.7648458,-0.04927743,11.0599997527897,13
-13.78121,0.683333,-39.54003,1.6840549398337732,0.0188308005057422,3.412181258587175,10.58864,101.0759,359.5286,0.05548211,0.7689868,-0.07384085,11.0799997523427,13
-13.72092,0.883333,-39.55287,1.51608448314599,0.2456150668102348,3.302826381658185,14.12042,102.1366,359.5024,0.07388445,0.7723252,-0.09831992,11.0999997518957,13
-13.51227,0.2833333,-39.52694,1.488695126822874,-0.468679672420735,3.17834106358319,3.57337,98.10713,359.9,0.01977383,0.7549729,-0.02412166,11.1199997514486,13
-13.45068,0.4833333,-39.53686,1.322193899336165,-0.2597371788195186,3.0511870815258604,7.147355,99.16827,359.8675,0.03953278,0.7599246,-0.04820545,11.1399997510016,13
-13.38911,0.6833332,-39.54679,1.1353221782238787,-0.0335807057222944,2.8832232980444488,10.7203,100.2367,359.9019,0.05924461,0.7640662,-0.07223107,11.1599997505546,13
-13.32756,0.8833333,-39.55671,0.9408497448383136,0.1575197729887851,2.6749093628912064,14.29094,101.3212,0.005479613,0.07888846,0.7673942,-0.09617293,11.1799997501075,13
-13.05989,0.2833333,-39.52395,0.8354828317450167,0.127829824614662,2.532856628880431,3.559828,96.52108,0.03292025,0.02089253,0.7458138,-0.02298545,11.1999997496605,13
-12.99805,0.4833333,-39.52983,0.7072439396714536,0.1441031188960896,2.358266891679285,7.117331,97.59043,0.1343115,0.04176918,0.7508608,-0.0459287,11.2199997492135,13
-12.93623,0.6833333,-39.53571,0.5698605509022148,0.1530238196001728,2.1525828096284982,10.67128,98.67555,0.3040775,0.06259607,0.7551139,-0.06881701,11.2399997487664,13
-12.69669,0.2833333,-39.51219,0.6252380749161475,-0.539038196527039,1.9471798472823776,3.625821,96.006,0.0875617,0.02173496,0.7427915,-0.02300021,11.2599997483194,13
-12.63356,0.4833332,-39.51669,0.4784085910180184,-0.3078628751938586,1.7926117762223155,7.248362,97.07751,0.2432277,0.0434407,0.7478145,-0.04596843,11.2799997478724,13
-12.57044,0.6833331,-39.52119,0.3201694985740584,-0.0594734681683472,1.6190655246302157,10.86685,98.16892,0.4699247,0.06510069,0.7520199,-0.06887989,11.2999997474253,13
-12.30993,0.2833334,-39.49844,0.3738628298977975,-0.4864543415046238,1.4599460916610525,3.637874,95.61561,0.1154422,0.02206396,0.7405009,-0.02284059,11.3199997469783,13
-12.24652,0.4833334,-39.50205,0.2364745573173117,-0.2036362695733802,1.3449365784219085,7.271926,96.68668,0.2991863,0.04409768,0.7455247,-0.04564936,11.3399997465312,13
-12.18313,0.6833333,-39.50566,0.0852136959335272,0.0963963671968616,1.2219391675562647,10.90084,97.77945,0.5538138,0.06607733,0.7497284,-0.06840135,11.3599997460842,13
-12.11976,0.8833331,-39.50927,-0.0652116747953766,0.3613729161909186,1.094136447048598,14.52331,98.90359,0.8838456,0.08798286,0.7531085,-0.09107009,11.3799997456372,13
-12.0564,0.9766703,-39.51288,-0.2000693473273962,0.4251935526022331,0.964837630279483,18.1376,100.0696,1.294528,0.1097865,0.7556619,-0.1136326,11.3999997451901,13
-11.79999,0.2833332,-39.47971,-0.2656580992288067,0.3700999091361362,0.8864695428412759,3.580417,97.04833,0.2259247,0.02216675,0.7488272,-0.02210088,11.4199997447431,13
-11.73748,0.4833332,-39.48288,-0.3319152206550786,0.3614572823321482,0.8066718298520001,7.154962,98.12412,0.5194811,0.04430337,0.7537547,-0.04417177,11.4399997442961,13
-11.67499,0.6833332,-39.48605,-0.3838831352520184,0.3459498226283832,0.7288052260260187,10.72225,99.22807,0.8840061,0.06638673,0.7578755,-0.06618889,11.459999743849,13
-11.44798,0.2833333,-39.45939,-0.2223551539579826,-0.3700525003617805,0.6857545079158811,3.513442,96.92487,0.2761109,0.02213084,0.7481182,-0.02134939,11.479999743402,13
-11.38653,0.4833334,-39.46142,-0.2962230793575315,-0.1623298329784221,0.6346449958961813,7.020103,98.0015,0.6187399,0.04423258,0.7530745,-0.04267023,11.499999742955,13
-11.32509,0.6833333,-39.46346,-0.3638008561866952,0.0630953851204295,0.5854666191755769,10.51823,99.1086,1.031668,0.06628248,0.7572515,-0.06393658,11.5199997425079,13
-11.07799,0.2833335,-39.43653,-0.2119723297108739,-0.3863619047040674,0.5717949269863354,3.451814,96.38364,0.308606,0.02208436,0.7449859,-0.02065494,11.5399997420609,13
-11.01753,0.4833334,-39.43731,-0.2793720660931056,-0.1255319160467736,0.5270060041602278,6.895865,97.45944,0.6830214,0.04414112,0.7499961,-0.04127743,11.5599997416139,13
-10.95709,0.6833335,-39.43809,-0.3523014372610484,0.1530001862571416,0.4831304742676252,10.33119,98.56683,1.126284,0.06614753,0.7542536,-0.0618527,11.5799997411668,13
-10.89667,0.8833334,-39.43887,-0.4176193737244942,0.3969641241109508,0.4434660860159169,13.75627,99.71471,1.643333,0.08808259,0.757755,-0.08236004,11.5999997407198,13
-10.6906,0.2833333,-39.41109,-0.1992493392085759,-0.2996626616686807,0.451591577141194,3.402642,95.17138,0.2487009,0.0216266,0.7379162,-0.02045595,11.6199997402728,13
-10.63108,0.4833333,-39.41158,-0.1561446195268372,-0.0725648648721659,0.4204720030417022,6.798768,96.23702,0.5611613,0.04322438,0.7430145,-0.04088322,11.6399997398257,13
-10.57157,0.6833332,-39.41206,-0.1179217039455728,0.1722353939541547,0.3913529098310988,10.18746,97.32987,0.9403718,0.06477466,0.7473884,-0.06126463,11.6599997393787,13
-10.51209,0.8833331,-39.41254,-0.0711076128520167,0.3824674621950967,0.3672698832967569,13.56729,98.45834,1.390507,0.08625638,0.7510344,-0.0815808,11.6799997389317,13
-10.24683,0.2833333,-39.37694,0.1626885511868483,-0.347891447145137,0.3815514943446203,3.350182,92.15577,0.1198998,0.02103075,0.719954,-0.02032959,11.6999997384846,13
-10.18835,0.4833333,-39.37651,0.1645130955183198,-0.1545252295986106,0.3518580872284857,6.696226,93.2054,0.3017689,0.04203558,0.7252586,-0.04062919,11.7199997380376,13
-10.12988,0.6833333,-39.37608,0.1672308798744328,0.0565431144008214,0.3220724835821258,10.03738,94.2738,0.5472846,0.06299525,0.7298785,-0.06088462,11.7399997375906,13
-9.895104,0.2833333,-39.34773,0.3730074781769668,-0.4072705826600111,0.3264665372850004,3.293876,90.14332,-0.00105979,0.02029065,0.7076983,-0.02035456,11.7599997371435,13
-9.837643,0.4833336,-39.34738,0.3716672117365664,-0.1607972285288063,0.2971074351534923,6.586226,91.17895,0.05742171,0.04055637,0.7131444,-0.04068471,11.7799997366965,13
-9.780193,0.6833333,-39.34702,0.3643271517647317,0.1033783572062168,0.2664576077334217,9.875678,92.2256,0.1767455,0.06077805,0.7179384,-0.06096934,11.7999997362494,13
-9.526785,0.2833333,-39.31777,0.363854145145507,0.332985775354901,0.2371180896329576,3.242596,88.13319,359.9167,0.01982396,0.6952302,-0.02020011,11.8199997358024,13
-9.470203,0.4833332,-39.31686,0.3965718746175151,0.3422902207905491,0.2187482685550463,6.485229,89.15854,359.8913,0.03962474,0.7008095,-0.04037661,11.8399997353554,13
-9.413638,0.6833332,-39.31596,0.4035800340495648,0.3980456823656036,0.1969930497766938,9.726817,90.1897,359.9246,0.05938496,0.7057656,-0.06051117,11.8599997349083,13
-9.357086,0.8833332,-39.31506,0.3980006952022155,0.4469364423270627,0.1745043707055487,12.96601,91.23357,0.01820647,0.07908709,0.710095,-0.08058272,11.8799997344613,13
-9.30055,0.9766705,-39.31416,0.3929624427458833,0.4356466767256109,0.1539795831417834,16.20204,92.29737,0.1745765,0.09871461,0.7137944,-0.1005772,11.8999997340143,13
-9.044149,0.2833333,-39.27768,0.553987034295103,-0.4148451264688261,0.1698757355070483,3.270152,85.75497,359.8142,0.01980672,0.680189,-0.02060303,11.9199997335672,13
-8.98701,0.4833333,-39.27617,0.4906806095481126,-0.2424913588079144,0.1449658586389333,6.54212,86.76637,359.6859,0.03959006,0.6858663,-0.04118137,11.9399997331202,13
-8.929887,0.6833333,-39.27466,0.4230563006082173,-0.0529231340724436,0.1207087537651574,9.814899,87.77766,359.6152,0.05933263,0.6909231,-0.06171666,11.9599997326732,13
-8.700126,0.2833334,-39.24559,0.5395833366765936,-0.5387251779378925,0.1334826209316233,3.531647,86.94206,359.8364,0.02138108,0.6876922,-0.02223556,11.9799997322261,13
-8.638391,0.4833333,-39.24461,0.4583774943976664,-0.3147281575332108,0.1134122647776934,7.064697,87.95204,359.735,0.04273496,0.6931388,-0.04444185,11.9999997317791,13
-8.576688,0.6833334,-39.24363,0.3694785786629744,-0.0735169191046007,0.0936090982279864,10.59997,88.96432,359.6956,0.06404939,0.6978642,-0.06660993,12.0199997313321,13
-8.328015,0.2833333,-39.21432,0.286250282700152,0.1326382310251206,0.0765966212488038,3.564328,88.56194,359.9025,0.02167123,0.6978586,-0.02232188,12.039999730885,13
-8.265797,0.4833335,-39.21391,0.2385571456484534,0.1180026072545672,0.0721535290626818,7.129014,89.575,359.8677,0.04331338,0.703167,-0.04461686,12.059999730438,13
-8.203594,0.6833332,-39.2135,0.1689104501051765,0.149330105046136,0.0658761240512859,10.69281,90.59478,359.8967,0.06490523,0.7077341,-0.06685856,12.079999729991,13
-8.14141,0.8833331,-39.2131,0.0911505086829613,0.1733046731607561,0.0601068584351054,14.25448,91.62951,359.9914,0.08642294,0.7115557,-0.08902387,12.0999997295439,13
-7.832878,0.2833333,-39.17501,0.2273337030056383,-0.5037031611485923,0.090990901457161,3.587125,90.29225,0.06944007,0.0225042,0.7085471,-0.02176053,12.1199997290969,13
-7.770288,0.4833331,-39.17356,0.1821450263738455,-0.2574737720344534,0.0888809399108581,7.171651,91.3171,0.2037604,0.04498294,0.7137083,-0.04348996,12.1399997286499,13
-7.707716,0.6833332,-39.1721,0.1263092177397684,0.0059698533983056,0.0863000555977393,10.75213,92.35962,0.4044815,0.06740753,0.7181091,-0.06516691,12.1599997282028,13
-7.645163,0.8833331,-39.17065,0.0741647480505234,0.2343575283521811,0.0856043346389512,14.32732,93.42863,0.6750609,0.08975495,0.7217455,-0.0867684,12.1799997277558,13
-7.428104,0.2833332,-39.14086,0.0400749272164659,0.2615895342169358,0.0891749617285881,3.566314,91.37621,0.1169477,0.02246706,0.7151786,-0.02155306,12.1999997273088,13
-7.365855,0.4833332,-39.13977,8.98339047745722e-05,0.1699069173095029,0.0962419220395602,7.128856,92.40128,0.2977654,0.04490239,0.7202575,-0.04307777,12.2199997268617,13
-7.303623,0.683333,-39.13868,-0.0465958153912637,0.1246756400961511,0.1011421985507894,10.68656,93.44678,0.5450392,0.0672847,0.7245772,-0.06455107,12.2399997264147,13
-7.064371,0.2833333,-39.10799,-0.0854282569310713,0.0725795067226253,0.106232626594263,3.645422,91.67519,0.1377707,0.02302175,0.7169778,-0.02198007,12.2599997259676,13
-7.00071,0.4833333,-39.10688,-0.136126857997072,0.0402762824140328,0.114029257583347,7.286776,92.69975,0.3410118,0.0460117,0.7219722,-0.0439299,12.2799997255206,13
-6.937067,0.6833331,-39.10578,-0.195373673414148,0.0544239314591378,0.1192478181570777,10.92288,93.74693,0.6124976,0.06894576,0.7261745,-0.06582537,12.2999997250736,13
-6.873446,0.883333,-39.10468,-0.2484182610605882,0.0617070562620347,0.1242465201052738,14.55306,94.82597,0.9563619,0.0918029,0.7295803,-0.08764683,12.3199997246265,13
-6.575189,0.2833332,-39.06634,-0.3173656176520452,0.0887834215251215,0.1319171180976397,3.608762,92.87769,0.1927113,0.02291672,0.7242424,-0.02165847,12.3399997241795,13
-6.512141,0.4833331,-39.06559,-0.4013699351991295,0.1623112193496237,0.1361536806471761,7.212503,93.90317,0.4503691,0.04580224,0.7291557,-0.04328759,12.3599997237325,13
-6.449112,0.6833331,-39.06485,-0.4855089077693497,0.228974148730375,0.1391893448402399,10.80992,94.95438,0.7760473,0.06863209,0.7332835,-0.06486366,12.3799997232854,13
-6.386099,0.8833331,-39.0641,-0.5548617809941594,0.2354561487582517,0.1432477693712854,14.39952,96.04043,1.173965,0.09137985,0.736622,-0.08636408,12.3999997228384,13
-6.180295,0.2833334,-39.0336,-0.3278685256369043,-0.5972645044667632,0.1938830133091258,3.542707,94.45258,0.2745244,0.02274944,0.7336384,-0.02106378,12.4199997223914,13
-6.118307,0.4833333,-39.03308,-0.3232623902945861,-0.4071393898635904,0.2017430484698223,7.078942,95.48111,0.6131637,0.04546891,0.7384628,-0.0420992,12.4399997219443,13
-6.056337,0.6833333,-39.03257,-0.3139048562795676,-0.1997999546991009,0.2064215062098924,10.60743,96.53975,1.019364,0.06813469,0.7425165,-0.0630848,12.4599997214973,13
-5.830065,0.2833333,-39.00051,-0.2852770216915012,-0.0275167310177542,0.2101657673397028,3.480619,94.21724,0.3042346,0.02261394,0.7322499,-0.02044382,12.4799997210503,13
-5.769128,0.4833333,-38.99914,-0.2624818551488697,-0.076024070412149,0.2143764298339618,6.954266,95.24481,0.6713803,0.04519842,0.7371069,-0.04086097,12.4999997206032,13
-5.708205,0.6833332,-38.99777,-0.239402772427284,-0.0785680891807603,0.2140061452904547,10.41924,96.30357,1.105444,0.06773142,0.7412189,-0.0612257,12.5199997201562,13
-5.647299,0.8833331,-38.9964,-0.202327284176897,-0.088464969326141,0.2115835884594687,13.87452,97.40215,1.610841,0.0901902,0.7445822,-0.08152261,12.5399997197092,13
-5.362089,0.2833333,-38.95565,-0.36202576589183,0.5612573552495606,0.1756195889262457,3.422785,93.12282,0.2819038,0.0223199,0.7257351,-0.01999452,12.5599997192621,13
-5.302211,0.4833331,-38.95347,-0.2775402814223384,0.3263528585887733,0.184336747778218,6.838644,94.14375,0.6255732,0.04461118,0.7306725,-0.03995898,12.5799997188151,13
-5.24235,0.683333,-38.95129,-0.1922975823107973,0.1128447796532781,0.1910156341369315,10.24677,95.19363,1.033905,0.06685265,0.7348944,-0.05987874,12.5999997183681,13
-4.987401,0.2833333,-38.91745,-0.092603466057672,-0.1336285550507092,0.1982168600553535,3.368417,91.40277,0.1840524,0.02167546,0.7153665,-0.01991396,12.619999717921,13
-4.928591,0.4833332,-38.91517,-0.0632108375985125,-0.1473583392430482,0.199541125610537,6.731693,92.41145,0.4277834,0.04332214,0.7204275,-0.03980014,12.639999717474,13
-4.869798,0.683333,-38.91289,-0.0507189552142421,-0.1151246801480627,0.1962443700433453,10.08915,93.44241,0.7335826,0.06492212,0.7248059,-0.05964293,12.6599997170269,13
-4.811022,0.883333,-38.91061,-0.0417480716504201,-0.0902439716382411,0.1906703697610865,13.43957,94.50341,1.105023,0.08645535,0.7284982,-0.07942367,12.6799997165799,13
-4.752262,0.9766705,-38.90833,-0.0229165579129095,-0.1260319283303542,0.185195143386089,16.78158,95.60291,1.546905,0.1079017,0.7315018,-0.09912363,12.6999997161329,13
-4.497906,0.2833332,-38.86843,-0.0112501999328828,-0.1691726990943922,0.1814256965652489,3.311278,89.22863,0.04027315,0.02081375,0.7020305,-0.0200419,12.7199997156858,13
-4.44017,0.4833334,-38.86646,-0.0011145761623954,-0.1663504333230627,0.1746252027828845,6.620356,90.21935,0.1378858,0.0416021,0.7072275,-0.04005957,12.7399997152388,13
-4.382447,0.6833334,-38.86448,0.0206737150611748,-0.1708806071052014,0.1673011323709232,9.925882,91.22314,0.2941416,0.0623436,0.7117771,-0.06003319,12.7599997147918,13
-4.158514,0.2833332,-38.83094,-0.1452124266234298,0.4842081525496106,0.1264362552153954,3.256333,86.97623,359.9316,0.02020342,0.6879385,-0.01998696,12.7799997143447,13
-4.101739,0.4833333,-38.82865,-0.0833135831964082,0.2546704722815645,0.1302022086214833,6.51235,87.95446,359.9188,0.04038295,0.6932802,-0.03994998,12.7999997138977,13
-4.044981,0.6833333,-38.82635,-0.0236004526612116,0.0465292447600743,0.1314569456395986,9.767176,88.93896,359.9622,0.06052185,0.6980061,-0.05987143,12.8199997134507,13
-3.80233,0.2833334,-38.79106,0.0471063148062487,-0.1945771095958945,0.1328051598164137,3.207707,84.1864,359.828,0.01976363,0.6701064,-0.01987523,12.8399997130036,13
-3.746377,0.4833336,-38.78789,0.0453581259805841,-0.2029404371039657,0.1284823334434719,6.41688,85.15288,359.7101,0.03950462,0.6756148,-0.03972691,12.8599997125566,13
-3.69044,0.6833336,-38.78472,0.0258832980813216,-0.1653402596454643,0.1202440424812749,9.626665,86.11935,359.6461,0.05920666,0.680538,-0.05953835,12.8799997121096,13
-3.634517,0.8833335,-38.78156,0.0017415127459428,-0.1350928659419732,0.1107958800522226,12.83587,87.09207,359.6374,0.07885353,0.6848726,-0.07928847,12.8999997116625,13
-3.32876,0.2833334,-38.73782,-0.0140080447839349,-0.1655143051417456,0.1028088013310224,3.464494,85.04777,359.8312,0.02128318,0.6756207,-0.02151681,12.9199997112155,13
-3.268249,0.4833334,-38.73503,0.068915928404725,-0.2032884213775009,0.1108907946508992,6.930424,86.01025,359.7204,0.04253962,0.6809226,-0.04300682,12.9399997107685,13
-3.207758,0.6833333,-38.73223,0.1367226759222452,-0.1950992855490054,0.1169983813720634,10.39746,86.97382,359.6674,0.06375144,0.6855457,-0.06445389,12.9599997103214,13
-3.147295,0.8833332,-38.72945,0.2032258134616883,-0.1942627344118596,0.123883422761537,13.86534,87.94571,359.6737,0.08490327,0.6894857,-0.08583993,12.9799997098744,13
-2.929791,0.2833335,-38.69649,0.0849723259708482,0.4661931642320758,0.0964392259247404,3.542067,87.09756,359.8882,0.0217283,0.6886643,-0.02199946,12.9999997094274,13
-2.867968,0.4833335,-38.6948,0.1246136697942511,0.2420223844252305,0.105779632624376,7.085133,88.06132,359.8354,0.04342878,0.6937782,-0.04397725,13.0199997089803,13
-2.806163,0.6833335,-38.6931,0.1626173107251739,0.0392478321660079,0.1146219271618491,10.62757,89.03012,359.8428,0.06507933,0.6981737,-0.06590275,13.0399997085333,13
-2.744374,0.8833332,-38.6914,0.2129558875462722,-0.1964918464049872,0.1256239099579374,14.16839,90.01169,359.912,0.0866577,0.7018471,-0.08775394,13.0599997080863,13
-2.467705,0.2833333,-38.6476,0.1957653465722298,-0.1994880717746708,0.1314899893359964,3.583799,88.39959,0.02791408,0.02258722,0.6968161,-0.02162534,13.0799997076392,13
-2.405226,0.4833333,-38.64483,0.1669312086005845,-0.1565211517991311,0.134231527170364,7.165937,89.37275,0.1173169,0.04514956,0.7018053,-0.0432208,13.0999997071922,13
-2.342764,0.6833332,-38.64206,0.1403665033715569,-0.1209066687635381,0.1363873125612542,10.74501,90.36026,0.2694038,0.06765842,0.7060532,-0.06476453,13.1199997067451,13
-2.095436,0.2833336,-38.60529,-0.1042348499216178,0.5743267375162532,0.1024865969775916,3.558668,89.1255,0.1041235,0.02276002,0.7013313,-0.02114055,13.1399997062981,13
-2.033405,0.4833336,-38.602,-0.1058270663757388,0.3849337075321245,0.1167608553022248,7.1139,90.10278,0.2694665,0.04549093,0.7062724,-0.04225045,13.1599997058511,13
-1.971391,0.6833335,-38.59871,-0.1198094662123485,0.2169370410861552,0.127941019675525,10.66476,91.09903,0.4979324,0.06816836,0.7104771,-0.06331057,13.179999705404,13
-1.909395,0.8833334,-38.59542,-0.1318456925665142,0.0159751585973073,0.1386209462179266,14.21009,92.12259,0.7930387,0.09076929,0.713942,-0.08429886,13.199999704957,13
-1.702087,0.2833334,-38.56097,0.0795409154147988,-0.7845811616956954,0.1909326546459482,3.633694,90.01294,0.1373111,0.02326299,0.7068037,-0.02157431,13.21999970451,13
-1.638688,0.4833332,-38.55806,0.0608856861735729,-0.5627794442598072,0.1976384777588364,7.263524,90.98997,0.3368899,0.0464945,0.7116232,-0.04311923,13.2399997040629,13
-1.575313,0.6833332,-38.55515,0.03657820689444,-0.3242513764579375,0.2019061499946204,10.88904,91.98878,0.6011599,0.06967256,0.7156712,-0.06461672,13.2599997036159,13
-1.511955,0.883333,-38.55224,0.0211913322635441,-0.1212673974672099,0.2064352794984643,14.50834,93.0182,0.9343261,0.09276972,0.7189443,-0.08603801,13.2799997031689,13
-1.246217,0.2833332,-38.50788,-0.170254625385164,0.6003610227252583,0.1760700129273118,3.621456,90.35355,0.1595239,0.02326094,0.7088992,-0.02143106,13.2999997027218,13
-1.183035,0.4833333,-38.50496,-0.136485202129696,0.3253131882939489,0.1946216483855778,7.238626,91.32876,0.3809938,0.04648999,0.7136812,-0.04283288,13.3199997022748,13
-1.119871,0.6833333,-38.50204,-0.0987799495584658,0.0716614522148999,0.2118160442861594,10.85043,92.32706,0.6672294,0.06966314,0.7176949,-0.0641823,13.3399997018278,13
-0.8833057,0.2833332,-38.46508,-0.2653451037217766,0.5053324424978103,0.1907161761821214,3.558961,91.96613,0.2522438,0.02315986,0.7187384,-0.02080224,13.3599997013807,13
-0.8211243,0.4833333,-38.4623,-0.2401730122117829,0.2944727425655861,0.2069441768163926,7.112064,92.94666,0.5658203,0.04628855,0.7234382,-0.04157664,13.3799997009337,13
-0.7589603,0.6833332,-38.45951,-0.2091707519376249,0.1050090732952621,0.2197002894211195,10.65819,93.95554,0.9441274,0.06936304,0.7273822,-0.06230149,13.3999997004867,13
-0.6968111,0.883333,-38.45673,-0.157886028483706,-0.11741981297623,0.2315554320586841,14.19567,95.00136,1.391677,0.09235664,0.7305675,-0.08295354,13.4199997000396,13
-0.4016728,0.2833333,-38.40933,-0.1728661109753855,-0.1071054039905731,0.2361273101568173,3.488448,92.30784,0.3080014,0.02302243,0.7208099,-0.02009067,13.4399996995926,13
-0.3406761,0.4833332,-38.40589,-0.200754400169191,-0.0508278752722647,0.2342088853122561,6.970152,93.28897,0.6763002,0.04601533,0.7255043,-0.04015484,13.4599996991456,13
-0.2796938,0.6833333,-38.40246,-0.2282031688755634,-0.0019029435288833,0.2284841803359967,10.44343,94.30106,1.108648,0.06895413,0.7294675,-0.06016804,13.4799996986985,13
-0.2187286,0.8833332,-38.39903,-0.2418430115674019,-0.0136466584313897,0.2216820661665934,13.90748,95.35243,1.60964,0.09181811,0.7326958,-0.08011486,13.4999996982515,13
-0.01427904,0.2833332,-38.362,-0.1561467013888067,-0.032743303794906,0.2332010917738785,3.427102,91.92745,0.3029504,0.0226854,0.7185209,-0.01966006,13.5199996978045,13
0.04562563,0.4833332,-38.35823,-0.0839348345027692,-0.0058767242748544,0.2402299381454824,6.847162,92.90363,0.6648837,0.04534022,0.7232508,-0.03929166,13.5399996973574,13
0.1055132,0.6833332,-38.35446,-0.0116308058115146,0.013637122802439,0.2457141463426353,10.25951,93.90956,1.089054,0.06794495,0.7272753,-0.05887939,13.5599996969104,13
0.3297939,0.2833335,-38.31573,0.0743484965944532,-0.0275173597452978,0.2526261331983832,3.379936,89.84079,0.1933569,0.02207334,0.7057803,-0.01963015,13.5799996964633,13
0.3887218,0.4833332,-38.31171,0.0920149128648333,-0.076024762038583,0.253668721496318,6.754832,90.80387,0.4440722,0.04411872,0.7106474,-0.0392324,13.5999996960163,13
0.4476323,0.6833333,-38.30768,0.0998121815981121,-0.0785690082711831,0.2509863190723109,10.12399,91.78942,0.7544187,0.0661163,0.7148417,-0.05879168,13.6199996955693,13
0.5065263,0.8833331,-38.30365,0.1109902962604816,-0.0884659223924199,0.2473327996094241,13.48634,92.80491,1.127948,0.0880459,0.7183599,-0.07829018,13.6399996951222,13
0.7890916,0.2833332,-38.25447,-0.0831459492421302,0.5612561866544004,0.2046602414714158,3.325022,87.35435,0.06771975,0.02139081,0.6902912,-0.01960844,13.6599996946752,13
0.8469505,0.4833332,-38.25014,-0.0444738297673907,0.3263520240023987,0.2128007168199417,6.64705,88.30222,0.1907941,0.04275434,0.6953114,-0.03918923,13.6799996942282,13
0.9047932,0.6833332,-38.2458,-0.0146225258699703,0.1128440149351997,0.2164832812824499,9.965639,89.26442,0.3705844,0.06407328,0.6996946,-0.05872867,13.6999996937811,13
1.15672,0.2833333,-38.20441,0.0196922845969838,-0.1336291949293024,0.2185277217001626,3.269211,85.73964,359.9579,0.0206561,0.6800658,-0.01967632,13.7199996933341,13
1.21362,0.4833333,-38.20044,0.0932553349752862,-0.1473589999427424,0.2276542721751511,6.537709,86.67493,359.9691,0.04128801,0.6851887,-0.03932942,13.7399996928871,13
1.270505,0.6833333,-38.19648,0.1526073701550614,-0.1151254683878867,0.2315798336915548,9.80431,87.61761,0.03426549,0.06187474,0.6897035,-0.05894116,13.75999969244,13
1.327376,0.8833332,-38.19252,0.2110658056366072,-0.090244862328335,0.2332716134512935,13.06841,88.57409,0.1552898,0.0824012,0.6936066,-0.07849482,13.779999691993,13
1.384229,0.9766705,-38.18855,0.2819447638758801,-0.1260327645719617,0.2357320402925751,16.3291,89.5512,0.3348202,0.10285,0.6968955,-0.09797321,13.799999691546,13
1.636978,0.2833333,-38.13966,0.393777367846305,-0.1691734450821935,0.2481036594772021,3.212764,82.30689,359.8174,0.02005926,0.6578521,-0.01964711,13.8199996910989,13
1.692911,0.4833333,-38.13485,0.4849608606250823,-0.1663509742360898,0.2541394438926332,6.427102,83.22552,359.6862,0.04009551,0.6631609,-0.03927165,13.8399996906519,13
1.748828,0.6833333,-38.13004,0.5691499534435853,-0.1708810953992144,0.2570027546741258,9.642168,84.14309,359.6062,0.0600919,0.6678978,-0.05885652,13.8599996902049,13
1.975905,0.2833335,-38.08873,0.4518134909659386,0.4842083503936257,0.2190125832789888,3.45406,82.46317,359.816,0.02160742,0.6588402,-0.02107081,13.8799996897578,13
2.036084,0.4833335,-38.08352,0.4908355419139925,0.2546710981342279,0.2171146223528737,6.909704,83.37843,359.687,0.04318777,0.6640015,-0.04211573,13.8999996893108,13
2.096244,0.6833335,-38.0783,0.5199324216673,0.0465298280993599,0.2126003812428933,10.36638,84.29327,359.6128,0.06472276,0.6685089,-0.06311564,13.9199996888638,13
2.342773,0.2833334,-38.03581,0.5529021970868602,-0.1945767735834061,0.208679881257602,3.550675,84.13982,359.866,0.02221479,0.6697417,-0.02162545,13.9399996884167,13
2.404623,0.4833333,-38.03131,0.3238212573930701,0.4373736521601948,0.1549875073559832,7.102806,85.05676,359.7884,0.04440323,0.6747404,-0.04322957,13.9599996879697,13
2.466455,0.6833333,-38.02682,0.3119358732567878,0.184698430489519,0.1587107905734939,10.65469,85.97681,359.7677,0.06653975,0.6790413,-0.06478304,13.9799996875226,13
2.528269,0.8833332,-38.02234,0.2860711210365521,-0.0465809444244559,0.1598162254905872,14.20545,86.90727,359.8056,0.08860247,0.6826408,-0.08626352,13.9999996870756,13
2.834354,0.2833333,-37.96829,0.2601732959703362,-0.310825492432341,0.1613469248529568,3.586759,85.96781,359.9941,0.02285875,0.6814601,-0.0213746,14.0199996866286,13
2.896759,0.4833333,-37.96349,0.2639616624721865,-0.3423267135593983,0.1733858333045717,7.172429,86.89319,0.04634412,0.04569013,0.6863132,-0.04272148,14.0399996861815,13
2.959146,0.6833333,-37.95869,0.2533350500129208,-0.3278647956137026,0.1812966841470711,10.75574,87.83013,0.1579541,0.06846748,0.6904446,-0.06401736,14.0599996857345,13
3.021516,0.8833333,-37.95389,0.2426748075123965,-0.3207556810244694,0.188166340572792,14.33573,88.78648,0.3314399,0.09116712,0.6938509,-0.08524023,14.0799996852875,13
3.236044,0.2833332,-37.91137,0.0489874169102391,0.3459725490774499,0.1551254754604087,3.552544,87.04313,0.1063539,0.02311508,0.6882755,-0.0206726,14.0999996848404,13
3.297807,0.4833331,-37.90582,0.111176588805371,0.1280746413802603,0.1769444991512685,7.10167,87.9752,0.2710374,0.04620035,0.6930621,-0.04131477,14.1199996843934,13
3.359551,0.683333,-37.90027,0.1631725408871691,-0.0684272968986828,0.1948184469887621,10.64658,88.92579,0.4959454,0.06923192,0.6971332,-0.06190807,14.1399996839464,13
3.421278,0.883333,-37.89472,0.2199675124606486,-0.2978941788909587,0.2119569830997818,14.18624,89.9028,0.7844139,0.09218635,0.7004851,-0.08243167,14.1599996834993,13
3.696683,0.2833334,-37.84085,0.0280180613013296,0.3456962237142114,0.1773898703330587,3.623908,87.50741,0.1283188,0.02361322,0.6911879,-0.02105817,14.1799996830523,13
3.759732,0.4833334,-37.83536,0.000287824271778,0.1046598262524682,0.1783903721302522,7.244235,88.43831,0.3158045,0.04719463,0.6958842,-0.04208776,14.1999996826053,13
3.822758,0.6833334,-37.82987,-0.0285997975404228,-0.1149806776704398,0.1771447127634431,10.86063,89.38974,0.5648444,0.07072295,0.6998344,-0.06307069,14.2199996821582,13
4.069379,0.2833335,-37.78381,-0.2767966893596014,0.3527015795285276,0.1323287399301165,3.624484,87.91868,0.1443916,0.02363841,0.6937713,-0.02104535,14.2399996817112,13
4.13245,0.4833334,-37.77849,-0.5222238616799713,0.8161673882322745,0.0868943716981647,7.245133,88.84837,0.3479713,0.04724536,0.6984261,-0.04206175,14.2599996812642,13
4.195502,0.6833332,-37.77318,-0.5389370174793431,0.3704394785488036,0.1152018949977815,10.86095,89.79963,0.6132544,0.07079558,0.7023324,-0.06302719,14.2799996808171,13
4.258536,0.8833331,-37.76786,-0.5516301432057364,-0.0795048811980037,0.1430161237371479,14.47086,90.78077,0.9440086,0.09426388,0.7054867,-0.08392026,14.2999996803701,13
4.563486,0.2833332,-37.71016,-0.5451407367029768,-0.4610259977142809,0.1734118901713586,3.565077,90.41912,0.2676107,0.02357127,0.7092918,-0.02043112,14.3199996799231,13
4.625679,0.4833332,-37.70546,-0.5666052554568317,-0.5106828707682923,0.2184617040012213,7.124316,91.3563,0.5939822,0.04711106,0.7138095,-0.04083518,14.339999679476,13
4.687855,0.6833333,-37.70076,-0.5809089656201829,-0.5148643771879872,0.2587404715313397,10.67661,92.3223,0.982513,0.07059501,0.7175834,-0.06119086,14.359999679029,13
4.750015,0.8833333,-37.69605,-0.5734921951384662,-0.5268865799733118,0.2972069060006745,14.22045,93.32541,1.437653,0.0939961,0.7206104,-0.0814766,14.379999678582,13
4.961081,0.2833334,-37.65625,-0.7352766017894075,0.1202224525511728,0.2930279368803141,3.496931,90.82963,0.3041302,0.02330756,0.7118166,-0.01986843,14.3999996781349,13
5.02212,0.4833332,-37.65134,-0.6743341987034119,-0.1177827735450742,0.3480582276614044,6.987505,91.76582,0.6659243,0.04658531,0.7163258,-0.03971116,14.4199996776879,13
5.083144,0.6833329,-37.64643,-0.6004072938341087,-0.3348799391747554,0.396529732373601,10.47016,92.73227,1.08896,0.06980777,0.7201143,-0.05950485,14.4399996772408,13
5.14415,0.8833327,-37.64153,-0.7233471696393439,0.134857942770482,0.3968946940330582,13.94409,93.73702,1.57788,0.09295432,0.7231789,-0.07923278,14.4599996767938,13
5.408162,0.2833335,-37.58287,-0.8333761519144582,0.5998915698062071,0.3928322011113678,3.434205,89.40645,0.2874718,0.02306146,0.7030632,-0.01929582,14.4799996763468,13
5.467973,0.4833334,-37.57675,-0.8105325854603374,0.1552434596477698,0.4267097259964529,6.861876,90.33686,0.6317769,0.04609475,0.7076679,-0.03856061,14.4999996758997,13
5.527768,0.6833334,-37.57063,-0.7614523588850055,-0.2941088920911888,0.4582552179233161,10.28242,91.29568,1.035542,0.06907703,0.7115847,-0.05778228,14.5199996754527,13
5.763753,0.2833334,-37.52013,-0.9662518577847532,0.1568116639106069,0.4312923108446824,3.381548,87.76469,0.1958626,0.02245062,0.6928406,-0.01922103,14.5399996750057,13
5.822524,0.4833333,-37.51395,-1.0083304570038658,-0.0372863220181621,0.4465446643259838,6.758176,88.68363,0.4463065,0.04487146,0.6975529,-0.03841586,14.5599996745586,13
5.881279,0.6833332,-37.50777,-1.0387973540675404,-0.2104759951007506,0.4574414787847516,10.12934,89.62471,0.7537808,0.06724416,0.7016084,-0.05756907,14.5799996741116,13
5.940016,0.8833332,-37.50159,-1.0450548875599406,-0.4171189487698847,0.4671885241921671,13.494,90.59509,1.121823,0.08954816,0.7050042,-0.07666244,14.5999996736646,13
6.231888,0.2833334,-37.44403,-1.197191094147115,0.2488077368245366,0.4337487477008963,3.325271,85.97657,0.07959956,0.02169726,0.6815469,-0.01927551,14.6199996732175,13
6.289617,0.4833334,-37.43812,-1.098126945120347,0.0296200960207519,0.4639563227482952,6.647493,86.88128,0.2117488,0.04336531,0.6863671,-0.03852617,14.6399996727705,13
6.34733,0.6833335,-37.43222,-0.9833847608736884,-0.1686589769437058,0.4885589097918412,9.966249,87.80054,0.3981872,0.06498843,0.6905628,-0.05773611,14.6599996723235,13
6.405026,0.8833334,-37.42632,-0.8401772468086044,-0.4003914068968212,0.5108866478537308,13.28063,88.741,0.641449,0.08654733,0.6941307,-0.07688796,14.6799996718764,13
6.611905,0.2833333,-37.38627,-0.9122381176010794,0.2404451406685115,0.4763198399984887,3.268922,83.52182,359.9462,0.02096344,0.6657627,-0.01934703,14.6999996714294,13
6.66863,0.4833331,-37.38033,-0.8631242366351142,-0.0038325544443703,0.4790007962706823,6.537332,84.4112,359.9431,0.04190238,0.670721,-0.0386716,14.7199996709824,13
6.725341,0.6833331,-37.37439,-0.7910056844247322,-0.2272020659064328,0.4752399305309893,9.804118,85.30681,359.9914,0.06279713,0.6750882,-0.05795424,14.7399996705353,13
6.782037,0.8833331,-37.36845,-0.9043601318641272,0.2362633410110588,0.4200498748280594,13.06873,86.21475,0.0926811,0.08363089,0.6788611,-0.07717997,14.7599996700883,13
7.037349,0.2833332,-37.29568,-0.9963456607636728,0.6950243510173886,0.3604667062922004,3.209348,77.91521,359.7773,0.0205541,0.6285397,-0.01911749,14.7799996696413,13
7.092845,0.4833331,-37.2873,-0.8910886438785734,0.2441037352529349,0.3083622070178009,6.420783,78.78667,359.6032,0.04108492,0.6337907,-0.03821298,14.7999996691942,13
7.148324,0.6833331,-37.27892,-0.7628496341963977,-0.2115209968169669,0.251612224005683,9.633515,79.65428,359.4774,0.06157542,0.6384991,-0.05726967,14.8199996687472,13
7.365795,0.2833333,-37.21161,-0.8901994609195718,0.2331269716882917,0.1317197706528077,3.452743,78.08472,359.7992,0.02229501,0.6296489,-0.02033699,14.8399996683002,13
7.425442,0.4833333,-37.20212,-0.8409023385873926,0.0327564311934277,-0.0234514763656505,6.907203,78.95475,359.6505,0.04456249,0.6347577,-0.04064851,14.8599996678531,13
7.485072,0.6833332,-37.19264,-0.7874729029524818,-0.1467059902918607,-0.177554322148282,10.36294,79.82285,359.5542,0.06678516,0.6392455,-0.06091481,14.8799996674061,13
7.544674,0.8833331,-37.18317,-0.7182526061255476,-0.3596215537596286,-0.3260706401414808,13.82039,80.69538,359.5105,0.08894794,0.6431073,-0.08112529,14.899999666959,13
7.792315,0.2833334,-37.11696,-0.8003490557359108,0.3000319798163627,-0.5066048712504099,3.548103,80.32623,359.8785,0.02297518,0.6446815,-0.02077657,14.919999666512,13
7.85365,0.4833333,-37.10818,-0.6275462019384168,0.0745717621443858,-0.7456900408770721,7.097408,81.19987,359.8106,0.04592332,0.6496024,-0.04153304,14.939999666065,13
7.914967,0.6833333,-37.09941,-0.4537108254075779,-0.1299799800328939,-0.9683291371541358,10.64629,82.07685,359.7971,0.06881799,0.6538563,-0.06224108,14.9599996656179,13
7.976266,0.8833333,-37.09063,-0.2664564464426693,-0.3679845723487778,-1.1700488642323634,14.19396,82.96412,359.8393,0.09163662,0.6574397,-0.08287966,14.9799996651709,13
8.138045,0.2833333,-37.04511,-0.2971379489421331,0.2665793870230763,-1.4109918945648945,3.591124,82.18366,0.01231404,0.02368519,0.6569425,-0.02051345,14.9999996647239,13
8.200031,0.4833333,-37.0359,-0.1696849715247985,0.0160292237647365,-1.6766769871795617,7.180949,83.06647,0.0802535,0.0473424,0.66172,-0.04100027,15.0199996642768,13
8.261999,0.6833333,-37.02669,-0.0385155713990332,-0.2136126363174695,-1.9158752789781983,10.76828,83.96151,0.2050288,0.07094377,0.665804,-0.06143863,15.0399996638298,13
8.459608,0.2833333,-36.97521,-0.1027792309993564,0.2435803280671275,-2.1779184823262554,3.554218,82.79311,0.1021914,0.02385267,0.6609277,-0.01983817,15.0599996633828,13
8.52083,0.4833334,-36.96518,-0.1617954235431788,0.696068934482123,-2.4119061064035066,7.105124,83.68158,0.2600789,0.04767434,0.6656747,-0.03964629,15.0799996629357,13
8.582035,0.6833333,-36.95516,0.0110621017600855,0.2388762603732879,-2.665616017073205,10.65215,84.58777,0.4754491,0.07144138,0.6697376,-0.05940783,15.0999996624887,13
8.643222,0.8833332,-36.94514,0.1850871567747827,-0.2230208907077604,-2.8800626200975152,14.19428,85.51923,0.7515013,0.09512925,0.6731128,-0.07910252,15.1199996620417,13
8.912595,0.2833333,-36.87477,0.0931888264702038,0.2153548445210239,-3.113623742659705,3.624273,83.4935,0.1303899,0.02435062,0.6654791,-0.02020694,15.1399996615946,13
8.97511,0.4833335,-36.86486,0.1824950011896859,0.0087117901439727,-3.3498937078301374,7.245052,84.38153,0.317241,0.04866842,0.6701271,-0.04038646,15.1599996611476,13
9.037603,0.6833333,-36.85497,0.2555247283199566,-0.1770231862558763,-3.540754655982884,10.86213,85.28965,0.5628571,0.07293177,0.6740603,-0.06052195,15.1799996607006,13
9.10008,0.8833331,-36.84507,0.3250432477741487,-0.3962112261452746,-3.683452992211549,14.4738,86.22585,0.8710006,0.09711139,0.6772755,-0.08058728,15.1999996602535,13
9.254674,0.2833334,-36.79829,0.2247291270604847,0.2571704697551521,-3.816349634177485,3.620375,86.96156,0.2001992,0.0241223,0.6877268,-0.0204693,15.2199996598065,13
9.317522,0.4833334,-36.791,0.3754159811925301,0.0254378290646208,-3.9541847624232735,7.236182,87.85272,0.4570976,0.04821207,0.6921638,-0.04091091,15.2399996593595,13
9.380352,0.6833335,-36.78372,0.5099979928070173,-0.1853865741364294,-4.0347276965780665,10.84648,88.76846,0.7735499,0.07224356,0.6958638,-0.06130385,15.2599996589124,13
9.443163,0.8833334,-36.77643,0.6418906334626442,-0.4296641059909734,-4.056117762038195,14.45042,89.71663,1.152651,0.09618632,0.698823,-0.08163448,15.2799996584654,13
9.660464,0.2833333,-36.76136,0.5460487779976244,0.1986277942524398,-4.096828275561457,3.546683,95.46902,0.3917933,0.02334193,0.7396064,-0.02060238,15.2999996580184,13
9.722704,0.4833334,-36.76005,0.6111111515681955,-0.0581946256298848,-4.121564074089882,7.085819,96.37395,0.8401408,0.04665236,0.743578,-0.04117825,15.3199996575713,13
9.784926,0.6833332,-36.75874,0.6712818985316851,-0.2941086981674664,-4.093326314544832,10.61632,97.31486,1.349355,0.0699082,0.7467825,-0.06170624,15.3399996571243,13
9.999378,0.2833332,-36.78823,0.5448905332772558,0.1568118594024475,-4.081994495895764,3.467777,101.1295,0.4835666,0.02247724,0.7719015,-0.02068965,15.3599996566772,13
10.06039,0.4833332,-36.79125,0.411776863135703,0.6030280652752212,-4.025586449368028,6.926591,102.0392,1.022821,0.04492491,0.7755713,-0.04135334,15.3799996562302,13
10.12138,0.6833332,-36.79427,0.5023652491431907,0.1395628773713169,-3.9702129850330543,10.37519,102.9892,1.621409,0.06731385,0.7784696,-0.06197572,15.3999996557832,13
10.18236,0.8833328,-36.79726,0.5840196807270921,-0.3286065539425773,-3.866146258197169,13.81261,103.9871,2.283871,0.08961599,0.7805933,-0.08254571,15.4199996553361,13
10.46362,0.2833333,-36.86397,0.4433420392785834,0.1034964686888322,-3.781618313492455,3.411018,105.3767,0.4374551,0.02107522,0.7949235,-0.02135837,15.4399996548891,13
10.52308,0.4833332,-36.87198,0.4769744606070158,-0.1094189313463658,-3.693618472046417,6.813889,106.2777,0.9268289,0.04210771,0.7983632,-0.04270253,15.4599996544421,13
10.58253,0.6833332,-36.87999,0.4878190045203379,-0.3014261127094795,-3.5602901886286134,10.20752,107.2153,1.474649,0.06309406,0.8010359,-0.06399952,15.479999653995,13
10.64196,0.883333,-36.888,0.4878137243240523,-0.5268862291508327,-3.382583898565347,13.59066,108.1971,2.086167,0.08401467,0.8029398,-0.08522909,15.499999653548,13
10.83884,0.2833333,-36.93862,0.3682365625449204,0.1202230533139738,-3.205688254966944,3.370767,106.1999,0.28072,0.01961725,0.7992924,-0.0220494,15.519999653101,13
10.89676,0.4833334,-36.94992,0.4949666984308649,-0.1177821242577829,-3.0443653397339787,6.735676,107.083,0.6121932,0.03919815,0.8027005,-0.04407884,15.5399996526539,13
10.95467,0.6833333,-36.96121,0.6011160153418729,-0.3348793083563897,-2.841592718348714,10.09407,107.9927,0.9990655,0.05873773,0.8053614,-0.0660609,15.5599996522069,13
11.01256,0.8833332,-36.9725,0.5363579826657947,0.134858275211152,-2.6501900643988634,13.44488,108.9359,1.44524,0.07821759,0.8072734,-0.0879755,15.5799996517599,13
11.27194,0.2833335,-37.03185,0.4581542651845804,0.59989164307209,-2.428459517317925,3.321798,105.5146,0.1219478,0.01838777,0.7957256,-0.02242985,15.5999996513128,13
11.32845,0.4833334,-37.0449,0.5335232028902333,0.1552434052864034,-2.20864588794742,6.640078,106.38,0.2937213,0.03674807,0.7991915,-0.0448335,15.6199996508658,13
11.38494,0.6833335,-37.05795,0.6017773239870738,-0.2941090497740008,-1.9617513420303536,9.954425,107.2619,0.5173345,0.05506798,0.8019376,-0.06719232,15.6399996504188,13
11.61529,0.2833333,-37.11006,0.4255032442535675,0.1568114266894488,-1.7631937128829236,3.268538,104.8146,359.9871,0.01730891,0.7920468,-0.02266663,15.6599996499717,13
11.67047,0.4833333,-37.12447,0.2367014663580331,0.6030274319304463,-1.5518742300824826,6.535942,105.6655,0.02273627,0.03459761,0.7955729,-0.04530696,15.6799996495247,13
11.72562,0.6833333,-37.13887,0.2623239127240548,0.1395620295430705,-1.3733396609572497,9.8012,106.5247,0.1074764,0.05184741,0.7984048,-0.067901,15.6999996490777,13
11.78077,0.8833333,-37.15327,0.2717810334532924,-0.3286073910553613,-1.184605583872191,13.06382,107.3978,0.2429617,0.06904466,0.8005406,-0.090431,15.7199996486306,13
12.06876,0.2833333,-37.21779,0.1668227967478053,0.1034957474424231,-1.0340066853867498,3.214181,102.3523,359.8401,0.01649595,0.7787944,-0.02272374,15.7399996481836,13
12.12305,0.4833333,-37.23211,0.2415724966277324,-0.10941977786785,-0.9205863448267236,6.4294,103.1873,359.727,0.0329732,0.7824724,-0.04542151,15.7599996477365,13
12.17732,0.6833333,-37.24643,0.3001573003604836,-0.3014268992940716,-0.806948541374453,9.644982,104.0217,359.6604,0.04941812,0.7854872,-0.06807424,15.7799996472895,13
12.23157,0.8833332,-37.26075,0.355372157565986,-0.5268874370360214,-0.6976242514263475,12.85993,104.8607,359.6411,0.06581511,0.7878371,-0.09066082,15.7999996468425,13
12.43844,0.2833333,-37.3073,0.2345462254514529,0.1202217683297324,-0.6066131822671039,3.454472,103.6449,359.8392,0.01752755,0.7857674,-0.02456124,15.8199996463954,13
12.49652,0.4833334,-37.32385,0.3629692492328136,-0.1177837157216556,-0.5740082535030737,6.909959,104.4761,359.7283,0.03503354,0.7892101,-0.04909184,15.8399996459484,13
12.55458,0.6833333,-37.34039,0.4742033184772847,-0.334880969862792,-0.5462636752654575,10.36611,105.3072,359.6669,0.05250045,0.7918879,-0.07357298,15.8599996455014,13
12.61262,0.8833333,-37.35692,0.3988303942712736,0.1348565666612574,-0.4910075408812844,13.82344,106.1445,359.6562,0.06991998,0.7937976,-0.09798791,15.8799996450543,13
12.87585,0.2833335,-37.41679,0.3132769885838069,0.5998898170877032,-0.4404691978227504,3.548116,106.0015,359.891,0.01787153,0.7982781,-0.02529667,15.8999996446073,13
12.93498,0.4833335,-37.43527,0.3844098045548687,0.1552417244398976,-0.4252839422981722,7.097188,106.834,359.8328,0.03571922,0.8015075,-0.05056924,15.9199996441603,13
12.9941,0.6833333,-37.45375,0.4512549373830055,-0.294110215668516,-0.4192613823308377,10.64574,107.67,359.8264,0.05352583,0.8039215,-0.07578351,15.9399996437132,13
13.22815,0.2833333,-37.50766,0.2628816751607843,0.1568102405836567,-0.3503393577879308,3.591306,107.6486,0.01104187,0.0185736,0.8068125,-0.02523703,15.9599996432662,13
13.28806,0.4833333,-37.52604,0.0685261884086916,0.6030265969956021,-0.2846494649948852,7.181393,108.4899,0.07507451,0.03712574,0.8099055,-0.05044235,15.9799996428192,13
13.34796,0.6833335,-37.54441,0.0985063256014076,0.1395612512346514,-0.2670344305921048,10.76909,109.3429,0.1933232,0.05563443,0.8121568,-0.07558777,15.9999996423721,13
13.40784,0.8833333,-37.56277,0.120572249213195,-0.3286080743185075,-0.2542376253678569,14.35365,110.2146,0.3682232,0.07408084,0.8135649,-0.100648,16.0199996419251,13
13.70018,0.2833334,-37.62988,-0.0166002191937018,0.1034953038397283,-0.1990539553831354,3.563323,109.1091,0.1160464,0.01885504,0.8142556,-0.02474171,16.0399996414781,13
13.75973,0.4833332,-37.64788,0.0336690525207963,-0.1094199705719275,-0.1857757297241775,7.123385,109.9569,0.2851895,0.03768564,0.8172631,-0.0494493,16.059999641031,13
13.81925,0.683333,-37.66588,0.0760102415362293,-0.3014269232514046,-0.1738514680020628,10.67951,110.8228,0.5094446,0.0564727,0.8194335,-0.07409921,16.079999640584,13
13.87876,0.8833332,-37.68387,0.1246343849526372,-0.5268871214961626,-0.166903414470056,14.23076,111.7141,0.7920792,0.07519709,0.8207657,-0.0986659,16.099999640137,13
14.08359,0.2833332,-37.72956,-0.0481765071836406,0.1202218871581068,-0.1108787985278283,3.634861,110.2251,0.1418917,0.01915498,0.8198415,-0.02530706,16.1199996396899,13
14.14411,0.4833332,-37.74874,0.0360096055778296,-0.1177831185306743,-0.1097089053165945,7.266207,111.0724,0.3378314,0.03828418,0.8227177,-0.05058,16.1399996392429,13
14.20461,0.6833332,-37.76791,0.1110247727477133,-0.3348801657675705,-0.1090279682101282,10.89384,111.9401,0.5899501,0.05736834,0.8247185,-0.07579827,16.1599996387959,13
14.26509,0.8833333,-37.78707,-0.0172282410848989,0.134858172760881,-0.0654408933222185,14.51619,112.8358,0.9022526,0.07638676,0.825843,-0.1009289,16.1799996383488,13
14.52766,0.2833334,-37.84557,-0.1479131681762169,0.5998921292752781,-0.0223345593517763,3.62168,110.8948,0.1639349,0.0190999,0.823168,-0.02521482,16.1999996379018,13
14.58785,0.4833335,-37.865,-0.1111216213688841,0.1552439023792899,-0.0115306819226788,7.23952,111.7408,0.3816786,0.0381742,0.8259966,-0.0503957,16.2199996374547,13
14.64804,0.6833334,-37.88443,-0.0683221677703862,-0.2941088666528563,-0.0032645220480702,10.85268,112.6085,0.6558855,0.05720345,0.8279528,-0.075516,16.2399996370077,13
14.88104,0.2833333,-37.93865,-0.2843258319356465,0.1568114357496786,0.0592056793852862,3.559017,112.6837,0.2538089,0.01905353,0.8319175,-0.02462044,16.2599996365607,13
14.94018,0.4833336,-37.95808,-0.4961184502893054,0.6030276453685086,0.1191328752274074,7.112842,113.5351,0.5609835,0.03808204,0.834667,-0.04920806,16.2799996361136,13
14.99929,0.6833333,-37.97751,-0.4683148673176767,0.1395622522155951,0.1254253254439845,10.66067,114.4134,0.9246805,0.05706665,0.8365616,-0.07373863,16.2999996356666,13
15.0584,0.8833333,-37.99694,-0.4312029369141932,-0.3286074753851747,0.1264279180630509,14.20106,115.326,1.348991,0.07598445,0.8376005,-0.09818499,16.3199996352196,13
15.34968,0.2833333,-38.06391,-0.5538463019526034,0.1034956241710531,0.1576533661523385,3.488526,113.2156,0.3091244,0.01900352,0.8344874,-0.02392965,16.3399996347725,13
15.40787,0.4833331,-38.08252,-0.480148866519805,-0.1094194734790396,0.1431884248782822,6.971131,114.0681,0.6706979,0.03798305,0.8372342,-0.04782861,16.3599996343255,13
15.46605,0.6833329,-38.10112,-0.4027064991520177,-0.3014263804217896,0.1250408233122684,10.4464,114.9501,1.088262,0.05691871,0.8391538,-0.07166923,16.3799996338785,13
15.52422,0.8833329,-38.11972,-0.307851732862396,-0.5268862370785323,0.1003866975110199,13.91374,115.869,1.566175,0.07579309,0.8402451,-0.09543212,16.3999996334314,13
15.72685,0.2833332,-38.16322,-0.4282588071580413,0.1202231571581229,0.1184146605105027,3.427253,112.9325,0.3023489,0.01871809,0.8331413,-0.02346975,16.4199996329844,13
15.7841,0.4833332,-38.18125,-0.2842926227162365,-0.1177823906633301,0.0818400626016355,6.848265,113.7805,0.6560203,0.03741161,0.83593,-0.04690632,16.4399996325374,13
15.84134,0.6833331,-38.19928,-0.1417399470741926,-0.3348793892014999,0.0457639514605503,10.26263,114.6567,1.064056,0.05606404,0.8379201,-0.07029182,16.4599996320903,13
15.89856,0.8833332,-38.21729,-0.1970543805398819,0.1348586823115813,0.0500155940624367,13.66929,115.5682,1.530793,0.07465827,0.8391107,-0.09360326,16.4799996316433,13
16.15983,0.2833332,-38.27398,-0.2518752929397436,0.5998923885371811,0.0541548375683049,3.376261,110.6174,0.1791689,0.01805184,0.8218464,-0.02333269,16.4999996311963,13
16.21619,0.4833333,-38.29139,-0.0297746007035719,0.1552439003755852,0.0043754976755749,6.748138,111.4506,0.4078467,0.03608037,0.8247915,-0.04663311,16.5199996307492,13
16.27253,0.6833333,-38.3088,0.1908114479393425,-0.2941087150682748,-0.0423112554001363,10.11537,112.304,0.6881554,0.05407081,0.8269746,-0.06988417,16.5399996303022,13
16.50242,0.2833333,-38.36275,0.1440898391216301,0.156811583239733,-0.0304252208701285,3.318732,108.7489,0.06346808,0.01731724,0.8124909,-0.02321524,16.5599996298552,13
16.55772,0.4833333,-38.37992,0.0906147364535492,0.6030279784189996,-0.0152161299769204,6.635248,109.5692,0.1745585,0.0346139,0.8155688,-0.0464031,16.5799996294081,13
16.61301,0.6833331,-38.39709,0.2871701423603845,0.1395627752695188,-0.0710085950035264,9.948445,110.4021,0.3346303,0.0518726,0.8179188,-0.06954014,16.5999996289611,13
16.66828,0.883333,-38.41425,0.5108708447022714,-0.3286064494886058,-0.1441032116600098,13.258,111.2536,0.545994,0.06908087,0.8195396,-0.0926084,16.6199996285141,13
16.95652,0.2833334,-38.4795,0.5960098756411263,0.1034968686456213,-0.2015950095402416,3.261743,106.5812,359.9281,0.0165095,0.8013632,-0.02319082,16.639999628067,13
17.01082,0.4833333,-38.49656,0.7046387931006812,0.5308954079452348,-0.2719289573428582,6.523228,107.3863,359.902,0.03300014,0.8045806,-0.0463549,16.65999962762,13
17.0651,0.6833335,-38.51361,1.146562183646985,0.0486129117827591,-0.4468423014905269,9.783733,108.1957,359.9221,0.04945746,0.8071028,-0.06947173,16.6799996271729,13
17.11938,0.8833335,-38.53067,1.5894409142393613,-0.4383742964822665,-0.6459368885269896,13.04236,109.0148,359.9897,0.06586581,0.8089286,-0.09252003,16.6999996267259,13
17.31982,0.2833331,-38.57458,1.8012064303151298,-0.0250881876410454,-0.8202759361925374,3.209392,104.2719,359.8316,0.01602858,0.7891844,-0.02300958,16.7199996262789,13
17.37348,0.4833329,-38.59085,2.329960100142926,-0.2568214503510694,-1.0921695673749952,6.419862,105.0656,359.7075,0.03203895,0.7925411,-0.04599316,16.7399996258318,13
17.42712,0.6833329,-38.60712,2.833383968964725,-0.4676467117473585,-1.3747866751759688,9.630761,105.8578,359.6275,0.04801818,0.7952321,-0.06893105,16.7599996253848,13
17.48075,0.8833331,-38.62338,3.114646546564657,0.008362933126564,-1.6246131718123422,12.84119,106.6535,359.5925,0.06395335,0.7972564,-0.09180075,16.7799996249378,13
17.74216,0.2833332,-38.68452,3.369379234995588,0.4796677251159337,-1.8770890620233371,3.464213,105.0283,359.8266,0.01719475,0.7931678,-0.02490497,16.7999996244907,13
17.79993,0.4833331,-38.70274,4.080965323712547,0.0412921632511248,-2.250188975428508,6.929569,105.8178,359.7008,0.03436844,0.7963121,-0.04977923,16.8199996240437,13
17.85768,0.683333,-38.72094,4.7429089429599465,-0.4017879909295659,-2.610553710582224,10.39604,106.6061,359.6221,0.0515062,0.7986842,-0.07460455,16.8399996235967,13
18.08824,0.2833334,-38.77769,5.088133244581851,0.0554044503139911,-2.9005600875887865,3.542023,106.6717,359.8759,0.01758599,0.8017856,-0.02543671,16.8599996231496,13
18.14697,0.4833333,-38.7971,5.3762338636393,0.5078925084109653,-3.171364984293483,7.085046,107.4632,359.8002,0.03514973,0.8047767,-0.05084712,16.8799996227026,13
18.20568,0.6833335,-38.8165,5.9401487532524975,0.0507005782862262,-3.444532588054855,10.62774,108.2569,359.7736,0.05267347,0.8069557,-0.07619876,16.8999996222556,13
18.26437,0.8833334,-38.8359,6.422357976564477,-0.4111961612513956,-3.6816441264292976,14.16945,109.0589,359.7971,0.07013982,0.8083212,-0.1014665,16.9199996218085,13
18.55672,0.2833331,-38.90285,6.663836823545882,0.0271795740645079,-3.854922988046511,3.584032,108.3227,0.02658344,0.01849757,0.810268,-0.02521504,16.9399996213615,13
18.61637,0.4833332,-38.92165,6.8337786725641045,0.4608516087129133,-3.9938082228370817,7.166614,109.1253,0.1039061,0.03697545,0.8131238,-0.05039692,16.9599996209145,13
18.67601,0.6833333,-38.94045,7.385065677932264,-0.015158243936422,-4.136229089587232,10.74673,109.94,0.2329728,0.0554104,0.815142,-0.07551973,16.9799996204674,13
18.73563,0.8833333,-38.95924,7.776573421813499,-0.4958726996171052,-4.223894957095268,14.32364,110.7735,0.4162263,0.07378353,0.8163215,-0.1005579,16.9999996200204,13
19.04251,0.2833331,-39.02606,7.788131206030165,-0.0763139415129874,-4.21590171916155,3.781485,106.0477,0.06024367,0.02026489,0.7984405,-0.02604215,17.0199996195734,13
19.10638,0.4833331,-39.04283,7.662228275917531,0.3385401900380385,-4.159661705013498,7.560693,106.8511,0.1737484,0.04050143,0.8012756,-0.05204704,17.0399996191263,13
19.17023,0.6833331,-39.05959,7.974874027977382,-0.1562872392791212,-4.194581539420518,11.33688,107.6703,0.3424455,0.06068673,0.803197,-0.07798533,17.0599996186793,13
19.23406,0.8833333,-39.07635,7.925551062216261,0.064468916623011,-4.133305345343487,15.10981,108.5131,0.5703788,0.08080661,0.804203,-0.1038277,17.0799996182323,13
19.52707,0.2833332,-39.1601,7.725868849708515,0.3082239464433585,-4.021271489711118,6.066691,103.1204,359.1059,0.02679417,0.7823974,-0.04629079,17.0999996177852,13
19.62729,0.4833337,-39.19891,7.8712135042611315,-0.1176067282648457,-4.029893908199533,12.14267,103.7786,358.2768,0.0535045,0.7832994,-0.09243869,17.1199996173382,13
19.7275,0.6833333,-39.23772,7.881911498988735,-0.548141622599943,-3.982657521627488,18.22614,104.3627,357.4968,0.08005463,0.7819197,-0.1383102,17.1399996168911,13
19.82768,0.8833329,-39.27653,7.503225049082168,-0.0784040530583306,-3.8288508059077415,24.31548,104.88,356.7518,0.1063675,0.7782635,-0.1837714,17.1599996164441,13
20.21037,0.2833335,-39.40105,7.008713351805209,0.3866288438449909,-3.626783131232642,6.177637,103.6784,358.003,0.01960639,0.7855985,-0.05311283,17.1799996159971,13
20.30756,0.4833333,-39.46017,6.422425074520305,0.6819025587300785,-3.383437764058108,12.37958,104.1472,356.036,0.03911111,0.7860254,-0.1061334,17.19999961555,13
20.40472,0.6833337,-39.51927,6.223354732305001,-0.0696787286760388,-3.306935743801624,18.59464,104.4048,354.0614,0.05848724,0.7838824,-0.1588187,17.219999615103,13
20.80396,0.2833331,-39.65552,5.740341588005094,0.1082502934988687,-3.141355784677124,6.825658,106.1932,358.0384,0.02207716,0.7987258,-0.05785606,17.239999614656,13
20.90937,0.4833328,-39.72108,5.157107408992346,0.3096666290025929,-2.925102441540126,13.68091,106.634,356.1122,0.04410156,0.7981995,-0.1155814,17.2599996142089,13
21.01475,0.6833326,-39.78662,4.500807693169804,0.482299604834438,-2.6671823823697665,20.54493,106.8449,354.1703,0.06594873,0.7945607,-0.1728397,17.2799996137619,13
21.12009,0.8833324,-39.85214,4.311093342988379,-0.2798747987150897,-2.637628276257132,27.40984,106.8055,352.1508,0.08753346,0.7878264,-0.2294086,17.2999996133149,13
21.66862,0.2833333,-40.02954,3.839689608780585,-0.1125392196358513,-2.522990798624491,7.668849,113.1239,359.0551,0.02998247,0.8328894,-0.06033649,17.3199996128678,13
21.78577,0.4833331,-40.09651,3.3262871621704946,0.0782826665642027,-2.376256958499092,15.34606,113.7309,358.1837,0.05982011,0.8309441,-0.1203798,17.3399996124208,13
21.90289,0.6833327,-40.16347,3.202895718510224,-0.3999933440432383,-2.384882731014322,23.02918,114.2399,357.3592,0.08937724,0.8251855,-0.1798541,17.3599996119738,13
22.01997,0.8833324,-40.23041,2.821927241133711,-0.1621977174326486,-2.307375469764324,30.71787,114.6564,356.5575,0.118535,0.8156416,-0.2384923,17.3799996115267,13
22.43852,0.2833337,-40.31771,2.3914148504008814,0.0990848884979689,-2.191965172118429,6.963341,115.0809,359.8076,0.03117946,0.8422669,-0.05214095,17.3999996110797,13
22.54744,0.4833333,-40.37138,1.936265731246536,0.3315833702128639,-2.0472044753867635,13.92647,115.8406,359.7068,0.06223421,0.8412225,-0.10407,17.4199996106327,13
22.65632,0.6833331,-40.42503,2.0720702010750465,-0.3707242717408766,-2.1173571140910425,20.88808,116.616,359.7008,0.09304819,0.8370332,-0.1555926,17.4399996101856,13
22.76517,0.8833337,-40.47867,1.885011098769368,-0.1435217974274913,-2.109661060342873,27.84682,117.4337,359.8007,0.1235059,0.8297178,-0.2065167,17.4599996097386,13
23.28493,0.2833335,-40.56555,1.6501909094454206,0.1071672366476795,-2.0832221306345677,3.346264,113.0309,359.2777,0.0108536,0.833764,-0.02782722,17.4799996092916,13
23.33322,0.4833334,-40.5993,1.39461419109465,0.3290718736548805,-2.046020338451747,6.697362,113.7453,358.5954,0.02167284,0.8363564,-0.05560113,17.4999996088445,13
23.3815,0.6833336,-40.63303,1.583382775451323,-0.3838295272828617,-2.096539228155798,10.05107,114.4243,357.9482,0.03243583,0.838165,-0.08329036,17.5199996083975,13
23.42979,0.8833335,-40.66674,1.4643144979225724,-0.1672207544558777,-2.0847141846404327,13.4069,115.0717,357.3321,0.04313316,0.8391908,-0.1108726,17.5399996079504,13
23.99554,0.2833337,-40.82583,1.3238323718354366,0.072875167657529,-2.073220179200717,3.471671,113.2493,359.3101,0.01163851,0.8347864,-0.02860581,17.5599996075034,13
24.04627,0.4833336,-40.86018,1.1893075982104122,0.2841874567241016,-2.071600053646854,6.944763,113.9616,358.6638,0.02324347,0.8372768,-0.05712358,17.5799996070564,13
24.09699,0.6833335,-40.89453,1.7113364184466917,-0.4393073375651759,-2.195318510550728,10.42124,114.6402,358.0561,0.03481082,0.8389329,-0.08555088,17.5999996066093,13
24.58821,0.2833333,-41.08362,1.955588209148445,-0.2332917496173675,-2.2495930999219738,4.565879,115.9398,359.8716,0.02017704,0.84712,-0.03436435,17.6199996061623,13
24.65913,0.4833333,-41.1199,2.1516205959781978,-0.0037894430924327,-2.290720645279606,9.130787,116.7007,359.8045,0.04031846,0.8486418,-0.06865096,17.6399996057153,13
24.73004,0.6833332,-41.15618,2.323372600118013,0.1969288258116469,-2.327184229261718,13.69421,117.4683,359.8015,0.06040624,0.8487779,-0.1027983,17.6599996052682,13
24.80091,0.8833328,-41.19246,3.174252095602558,-0.5371590481187759,-2.4382273228417475,18.25592,118.2529,359.8639,0.08039868,0.8475288,-0.1367626,17.6799996048212,13
24.87177,0.97667,-41.22873,3.636924592758074,-0.34173827841757,-2.4332742443678512,22.81505,119.0658,-0.004225514,0.100255,0.844897,-0.1704942,17.6999996043742,13
25.36886,0.2833336,-41.45339,4.041572027929512,-0.1228301873727309,-2.390273906351709,3.927682,119.2187,0.1346499,0.01834931,0.8620688,-0.02896601,17.7199996039271,13
25.42992,0.4833338,-41.48432,4.93572323267836,-0.573019782833561,-2.3657125781918964,7.851851,120.0031,0.3234237,0.03667019,0.8639067,-0.05788678,17.7399996034801,13
25.49096,0.683334,-41.51524,5.397037410018296,-0.307137493401096,-2.204486755497136,11.77171,120.8092,0.5691542,0.05494047,0.8646883,-0.08672699,17.7599996030331,13
25.55199,0.8833343,-41.54617,5.76511870639736,-0.0177677385325247,-1.9909675364888173,15.68408,121.6455,0.8760774,0.07312818,0.8644167,-0.1154344,17.779999602586,13
26.09321,0.2833337,-41.82162,6.06614349657476,0.2428184182233589,-1.733948316609208,6.751076,115.2663,359.7999,0.03004812,0.8432263,-0.05066572,17.799999602139,13
26.19911,0.4833341,-41.87461,6.975233867120512,-0.4314004607651105,-1.4856246591345936,13.50303,116.0088,359.6863,0.05998603,0.8423752,-0.1011443,17.819999601692,13
26.30499,0.6833335,-41.9276,7.265751432637174,-0.1761111577579824,-1.0466383331091222,20.25479,116.7634,359.6617,0.08970898,0.8385602,-0.151259,17.8399996012449,13
26.79444,0.2833333,-42.14932,7.423178118841285,0.1026659818932393,-0.5454674293339252,6.456474,110.0315,359.1587,0.02628126,0.8182247,-0.05033951,17.8599996007979,13
26.89604,0.4833337,-42.20129,7.472753664589259,0.3526599634626465,0.0075365937557023,12.92118,110.661,358.3836,0.05247249,0.8180457,-0.100505,17.8799996003509,13
26.99763,0.6833337,-42.25326,7.827487659783781,-0.3321527002966226,0.5904852362026318,19.39235,111.2182,357.6579,0.07848813,0.8151891,-0.1503333,17.8999995999038,13
27.09921,0.8833335,-42.30522,7.725527017761983,-0.0874570468538221,1.2438504661842558,25.86851,111.7105,356.9671,0.1042433,0.8096658,-0.1996613,17.9199995994568,13
27.75406,0.2833337,-42.57789,7.522741128369873,0.1807266430807904,1.919066927224634,6.824183,106.7349,357.8496,0.02047514,0.8015812,-0.05892922,17.9399995990098,13
27.85811,0.4833338,-42.64787,7.244938007121238,0.4201257462924701,2.6037394783930097,13.67342,107.1132,355.7238,0.04086488,0.8008062,-0.1176991,17.9599995985627,13
27.96213,0.6833336,-42.71783,7.396394334209312,-0.2752816048628035,3.272776445865176,20.53272,107.2338,353.5656,0.06109433,0.7968642,-0.1760143,17.9799995981157,13
28.06611,0.883333,-42.78776,6.976924000357151,-0.0411790139861011,3.9724355635035664,27.39237,107.0698,351.305,0.08108671,0.78977,-0.2336424,17.9999995976686,13
28.58033,0.2833333,-42.9422,6.524272498537272,0.2164099976998539,4.631547948660831,7.218204,106.5687,357.9291,0.02317012,0.8005722,-0.06123491,18.0199995972216,13
28.69132,0.4833335,-43.01218,6.441971244218273,-0.1950982858748295,5.240191388620261,14.46357,106.9383,355.8873,0.04628095,0.7993196,-0.1222764,18.0399995967746,13
28.80227,0.6833337,-43.08215,6.348287146486118,-0.6108229159300507,5.773684089038639,21.71523,107.0455,353.8099,0.06918508,0.794593,-0.1827691,18.0599995963275,13
28.91319,0.8833337,-43.1521,5.66046979022569,-0.1257868647606631,6.3693815436373455,28.96361,106.8592,351.6202,0.09178366,0.7864157,-0.242451,18.0799995958805,13
29.60783,0.2833333,-43.32103,4.964057257142741,0.355032823462963,6.881942896190104,7.764112,110.4604,358.9219,0.03089755,0.819892,-0.06096483,18.0999995954335,13
29.72869,0.4833338,-43.3852,4.529082695474749,-0.0733406814687673,7.323991265610566,15.53708,111.0068,357.9089,0.06164223,0.8178568,-0.1216238,18.1199995949864,13
29.84951,0.6833342,-43.44935,3.59221627982264,0.2143576459609004,7.837057952372397,23.31601,111.4302,356.9271,0.09208952,0.8119633,-0.1816916,18.1399995945394,13
29.97029,0.8833335,-43.51349,2.636612842511475,0.5255428687292574,8.248131981403404,31.10019,111.7291,355.943,0.1221138,0.8022413,-0.2408907,18.1599995940924,13
30.72759,0.2833333,-43.6438,1.6971680166855947,0.8079440305292495,8.547458553832115,7.844668,115.218,0.5938536,0.04100901,0.8422329,-0.05499089,18.1799995936453,13
30.85626,0.4833329,-43.69168,1.136053268899566,0.155539425842665,8.78401714824222,15.67756,116.1141,1.316844,0.0818138,0.8397615,-0.1097033,18.1999995931983,13
30.98489,0.683333,-43.73955,0.6243114052454501,-0.3996929458287961,8.878531851075607,23.49502,117.1616,2.209028,0.1222209,0.8333007,-0.1638763,18.2199995927513,13
31.60245,0.2833335,-43.83273,-0.3125455494378144,0.0449559428994149,9.048702270477024,7.507133,110.4576,0.7382573,0.04261482,0.8194164,-0.05010813,18.2399995923042,13
31.72997,0.4833331,-43.86525,-0.921730538382768,-0.1554151778856197,9.154562617518655,15.00037,111.374,1.608662,0.08506955,0.81779,-0.09995721,18.2599995918572,13
31.85746,0.6833332,-43.89777,-1.4405478040410102,-0.334878271483006,9.106045097302925,22.47455,112.4547,2.650522,0.1271571,0.8125903,-0.1493341,18.2799995914102,13
31.98491,0.8833329,-43.9303,-1.8312221202116987,-0.5477948580595817,8.895513305486183,29.92386,113.7638,3.9262,0.1686948,0.8038442,-0.1980266,18.2999995909631,13
32.72028,0.2833338,-44.00367,-2.632074034272016,0.1118588814623579,8.809000108044764,7.605989,98.24714,0.4927272,0.0466494,0.7542641,-0.04734243,18.3199995905161,13
32.85297,0.4833333,-44.0131,-3.048182344069261,-0.1136013166952791,8.729238034855449,15.203,99.11427,1.118282,0.09316773,0.7534918,-0.0943944,18.3399995900691,13
32.98562,0.6833339,-44.02252,-3.383088344205248,-0.3181527209434858,8.527852194597664,22.78684,100.1107,1.897063,0.1392571,0.7493546,-0.1410108,18.359999589622,13
33.11823,0.8833339,-44.03194,-4.065715348562925,0.1641316584396253,8.403785093156309,30.35325,101.2935,2.881063,0.1847131,0.7418738,-0.1869848,18.379999589175,13
33.61406,0.2833333,-44.05244,-4.651869856810542,0.6417104576806606,8.173340549591337,8.06712,93.7573,0.6030157,0.05191193,0.7278366,-0.04775345,18.399999588728,13
33.75489,0.4833333,-44.05012,-5.024660903563145,0.2096074489009478,7.949938616975082,16.10385,94.64564,1.341186,0.1034623,0.7267757,-0.09511522,18.4199995882809,13
33.89532,0.6833339,-44.04781,-5.254821226037564,-0.2271986845248515,7.614056246610524,24.10441,95.68558,2.252203,0.1543622,0.7220718,-0.1418572,18.4399995878339,13
34.03545,0.8833328,-44.0455,-5.974675879074567,0.2362677857497647,7.428134995671719,32.07019,96.94887,3.401561,0.2044002,0.7137796,-0.1877975,18.4599995873868,13
34.62344,0.2833333,-44.05537,-6.46726489145756,0.0547129479365544,7.308783063316845,8.118975,83.90864,359.4091,0.04920727,0.6671232,-0.05115168,18.4799995869398,13
34.7654,0.4833333,-44.0497,-6.824345912545432,-0.1059330286253344,7.1260491221351785,16.2417,84.51733,358.8994,0.09815134,0.6667088,-0.1020279,18.4999995864928,13
34.90731,0.6833327,-44.04403,-7.015228248063096,-0.3000314753189632,6.880921599428035,24.36682,85.07913,358.4568,0.1465841,0.6629055,-0.152371,18.5199995860457,13
35.3944,0.2833333,-44.03427,-7.501644039343432,0.3784398325075129,6.676439426297414,7.680625,77.31237,358.2462,0.04275792,0.6239705,-0.05375538,18.5399995855987,13
35.53183,0.4833333,-44.03395,-7.692998299480109,0.1717965141642085,6.624895702857529,15.37346,77.68229,356.527,0.08529953,0.6243993,-0.1072392,18.5599995851517,13
35.66921,0.6833333,-44.03364,-7.716122126659876,-0.0139390061106662,6.540391166645158,23.07146,77.81918,354.7795,0.1274233,0.6218541,-0.1601968,18.5799995847046,13
35.80656,0.8833333,-44.03332,-7.541610072200946,-0.2331278595911023,6.423298828984379,30.76744,77.69279,352.9302,0.1689291,0.6163496,-0.2123772,18.5999995842576,13
36.16282,0.2833338,-44.00988,-7.746231197864731,-0.2200600852535016,6.579145428872607,7.078999,76.21632,357.9829,0.03772793,0.6167303,-0.05191779,18.6199995838106,13
36.29106,0.4833338,-44.01399,-7.807037967597353,-0.1615175126366441,6.716128660481459,14.16957,76.55984,355.9923,0.07526387,0.6177834,-0.1036005,18.6399995833635,13
36.41929,0.6833338,-44.0181,-7.69739842527833,-0.1108155136367535,6.834226291406317,21.26279,76.65281,353.9669,0.1124554,0.6162674,-0.1548262,18.6599995829165,13
36.54748,0.8833333,-44.0222,-7.390720784701166,-0.1212686326201973,6.934190851976439,28.35253,76.46663,351.8356,0.1491707,0.6121912,-0.2053941,18.6799995824695,13
36.98198,0.2833334,-43.97141,-7.646860622349017,-0.1395634292616387,7.21474430993446,7.177804,78.37724,358.0131,0.03757578,0.6313826,-0.0529597,18.6999995820224,13
37.11168,0.4833334,-43.97947,-7.759670120604156,-0.1123824661942646,7.46347591288049,14.36967,78.71838,356.0521,0.07497278,0.6321578,-0.1056933,18.7199995815754,13
37.24133,0.6833339,-43.98752,-7.705814314130613,-0.0930421244842854,7.681408159799496,21.56673,78.80906,354.056,0.1120402,0.630239,-0.1579619,18.7399995811284,13
37.60601,0.2833328,-43.92545,-8.049095946086801,0.5854296897566581,7.924714742229192,7.635689,81.5723,358.4494,0.04159071,0.6524104,-0.05371403,18.7599995806813,13
37.74184,0.4833328,-43.93192,-8.275108792444641,0.3787869388101228,8.32175977504646,15.28541,81.97817,356.9402,0.08299696,0.6525371,-0.1071765,18.7799995802343,13
37.87764,0.6833328,-43.93839,-8.349818725764884,0.1930517031483666,8.665224867905053,22.94077,82.18449,355.4185,0.1240054,0.6496217,-0.1601244,18.7999995797873,13
38.01339,0.8833328,-43.94485,-8.250715174329898,-0.0261361998793182,8.957291993739297,30.5964,82.16917,353.8227,0.1644258,0.6436805,-0.2123113,18.8199995793402,13
38.43049,0.2833338,-43.83576,-8.722783572081049,-0.0130690326641015,9.435562640169252,7.916219,88.47543,0.04261841,0.04971342,0.6959544,-0.04789003,18.8399995788932,13
38.56855,0.4833338,-43.83035,-9.076195845553649,0.0454748270278159,9.822387535584546,15.82908,89.20902,0.1878505,0.09917548,0.6953586,-0.09553514,18.8599995784461,13
38.70657,0.6833344,-43.82495,-9.29156672249664,0.0961773318323521,10.12018610929566,23.73704,90.0012,0.4508805,0.1481483,0.69142,-0.1427059,18.8799995779991,13
38.84455,0.8833338,-43.81954,-9.349845836754852,0.085723592658888,10.331981593817332,31.63833,90.89479,0.8617401,0.1963982,0.6841605,-0.1891766,18.8999995775521,13
39.06345,0.2833338,-43.70574,-9.748484633347609,0.0674285273468429,10.773576890862117,7.663574,89.80175,0.8632888,0.0526404,0.7039278,-0.04184669,18.919999577105,13
39.19699,0.4833348,-43.68909,-10.02890464460333,0.0946098518650383,11.111898004503672,15.31164,90.70055,1.855331,0.1050275,0.7034668,-0.08348735,18.939999576658,13
39.3305,0.6833348,-43.67243,-10.172991643699092,0.1139498128712118,11.348763592538411,22.93962,91.78445,3.024161,0.1569234,0.6997953,-0.1247327,18.959999576211,13
39.558,0.2833325,-43.53252,-10.163202006509046,0.0721344154495416,11.486594269076036,7.404964,79.86561,0.4289668,0.05191388,0.6403592,-0.03858555,18.9799995757639,13
39.68359,0.4833328,-43.50129,-10.666302625566525,0.0224776345659263,11.706155614659409,14.80095,80.67047,0.9796841,0.1036673,0.6410042,-0.07690381,18.9999995753169,13
39.80916,0.6833327,-43.4701,-11.05461681336081,0.0182966296821142,11.82542619662221,22.18525,81.58752,1.669199,0.1549795,0.6389425,-0.1148647,19.0199995748699,13
39.9347,0.883333,-43.43892,-11.31259057180467,0.0062762229127318,11.84743326359984,29.55473,82.66554,2.540184,0.2056315,0.6341849,-0.1523174,19.0399995744228,13
40.18435,0.2833331,-43.22047,-11.989702659019926,0.0130710546625574,11.96946476705738,7.75454,64.58687,0.3016191,0.05856312,0.5328804,-0.03390606,19.0599995739758,13
40.30386,0.4833329,-43.15664,-12.55097580398187,0.0653411978141566,11.98363890986409,15.50619,65.36864,0.7266983,0.1169344,0.5343428,-0.06755963,19.0799995735288,13
40.42334,0.6833327,-43.09284,-12.982341380691636,0.1097708161346354,11.896801399823744,23.24873,66.25036,1.287563,0.1747508,0.5333319,-0.1008869,19.0999995730817,13
40.63139,0.2833333,-42.85515,-13.27044395989462,0.0930434197479262,11.71643933917936,8.143785,51.296,359.8979,0.06362703,0.4318053,-0.0315363,19.1199995726347,13
40.74277,0.4833333,-42.76674,-13.89092896086165,0.068476136230744,11.713292277742283,16.28599,51.98916,359.8944,0.126915,0.4339843,-0.0629003,19.1399995721877,13
40.85412,0.6833338,-42.67833,-14.362728505062536,0.0893836018585043,11.590472734830676,24.42536,52.71884,-0.001028653,0.1895425,0.4339542,-0.09393226,19.1599995717406,13
40.96544,0.8833345,-42.58995,-14.672321683407972,0.1024504584995652,11.360754359817385,32.56043,53.52414,0.2347827,0.251192,0.4317173,-0.1244749,19.1799995712936,13
41.0559,0.2833334,-42.39129,-14.806956242601744,0.0543609211461619,11.03756940223483,7.732721,35.08214,358.3551,0.0599712,0.3015953,-0.03397587,19.1999995708466,13
41.1562,0.4833333,-42.29654,-15.332798660846343,-0.0015689087829086,10.727369023099063,15.47668,35.44874,356.7459,0.1196406,0.3051859,-0.06777542,19.2199995703995,13
41.25647,0.6833333,-42.2018,-15.705676755480477,-0.012022155045128,10.325574801782032,23.2256,35.5968,355.1131,0.1787229,0.3073108,-0.1012363,19.2399995699525,13
41.35671,0.8833337,-42.10707,-15.914867398355897,-0.0303170096197609,9.849329447326724,30.97319,35.49856,353.3874,0.2369362,0.3079616,-0.134198,19.2599995695055,13
41.4296,0.2833333,-41.83208,-16.232767864783497,0.6105206883331574,9.232236282048866,6.777042,14.81837,356.8609,0.05506498,0.1302862,-0.03473305,19.2799995690584,13
41.51187,0.4833327,-41.73103,-16.71373622890706,0.3662436518291471,8.826982883156752,13.56981,14.95013,353.7171,0.1098828,0.1354089,-0.06930188,19.2999995686114,13
41.5941,0.6833327,-41.63,-17.048965600771957,0.1428741651084774,8.34963482056424,20.35765,14.69,350.4756,0.1642192,0.1399481,-0.1035576,19.3199995681643,13
41.64122,0.2833332,-41.35498,-17.23027559646839,-0.1139486177927853,7.821775090315064,6.129214,7.680819,356.7449,0.05142083,0.06836986,-0.03187704,19.3399995677173,13
