pX,pY,pZ,aX,aY,aZ,reX,reY,reZ,rtX,rtY,rtZ,t,ID
-45.00042,0.23,-36.99971,3.795345159854023,0.5314543989147114,6.215748758154888,0.01619143,0.0136036,0.02373075,0.0001413215,0.0001186846,0.0002070731,6.37999985739589,16
-45.00084,0.43,-36.99943,4.180828191963805,0.0691153265949181,6.594055811019615,0.03241837,0.01361364,0.04746645,0.0002829528,0.0001186843,0.0004141893,6.39999985694885,16
-45.00145,0.2833333,-36.99896,4.511176636131026,-0.1475170016048751,6.893425707018594,0.02520712,3.018341,0.03631252,0.0002282431,0.02633688,0.0003109832,6.41999985650182,16
-45.00206,0.4833333,-36.99848,4.786880023436609,-0.1437766287068071,7.115603768373738,0.05045985,3.018365,0.07258984,0.0004568761,0.02633687,0.0006216485,6.43999985605478,16
-45.00267,0.6833333,-36.99801,5.148706722185814,-0.5842664471886345,7.390758271394105,0.07576901,3.018405,0.1089799,0.0006860273,0.02633686,0.0009332841,6.45999985560775,16
-45.00328,0.8833333,-36.99754,5.44159528835246,-0.775077089297444,7.575522261170029,0.1010403,3.018461,0.1453255,0.0009148382,0.02633685,0.00124454,6.47999985516071,16
-44.99168,0.2833334,-36.95691,5.667206818886243,-0.7415426909227123,7.673312959452204,1.147062,8.084029,0.5629696,0.01033109,0.07043453,0.004194788,6.49999985471368,16
-44.99867,0.4833334,-36.93548,5.980708178791602,-1.1482659049688606,7.834059478669495,2.293965,8.100953,1.126439,0.02066052,0.07042144,0.008389497,6.51999985426664,16
-45.00565,0.6833335,-36.91406,6.213067688633217,-1.301337150767622,7.896072861671364,3.442727,8.129245,1.691662,0.031006,0.07039953,0.01258925,6.53999985381961,16
-44.95439,0.2833333,-36.84335,6.36722641162892,-1.2260910172198658,7.864484534032627,1.879057,14.15027,0.0898836,0.01636887,0.1231415,-0.001241342,6.55999985337257,16
-44.94779,0.4833333,-36.81094,6.446354687032027,-0.9468150965177664,7.74464632879404,3.758815,14.15465,0.1789487,0.03273835,0.1230915,-0.002491855,6.57999985292554,16
-44.9412,0.6833332,-36.77854,6.578934839557498,-1.3405057164812897,7.6557567991070385,5.641005,14.16188,0.2671051,0.04911873,0.1230078,-0.003755468,6.5999998524785,16
-44.85466,0.2833333,-36.6504,6.628737701195632,-1.4731572052335442,7.474906191810305,3.433499,20.60395,0.07755414,0.02959645,0.1787359,-0.004692073,6.61999985203147,16
-44.83469,0.4833332,-36.59349,6.600114367972552,-1.3701030337826725,7.208927904994859,6.870347,20.61087,0.1545011,0.05919327,0.1784945,-0.009395121,6.63999985158443,16
-44.81472,0.6833332,-36.5366,6.636348066096204,-1.6959463352251722,6.995664132141698,10.30924,20.62251,0.2323718,0.08875412,0.178092,-0.01409459,6.6599998511374,16
-44.79477,0.8833331,-36.47974,6.586856353591067,-1.7567780624879237,6.694639847246371,13.75008,20.63912,0.3119829,0.1182518,0.1775287,-0.01878427,6.67999985069036,16
-44.68439,0.2833333,-36.34991,6.457291261952179,-1.57793188668814,6.314192219719224,4.470833,26.8467,0.1921168,0.03832875,0.2319038,-0.007425396,6.69999985024333,16
-44.65199,0.4833333,-36.27852,6.40631314066006,-1.8240103689083211,6.0095190761511645,8.944161,26.86924,0.3848817,0.07661717,0.2313723,-0.01485901,6.7199998497963,16
-44.61961,0.6833335,-36.20717,6.268874989782802,-1.8011045959750558,5.623842512347046,13.41904,26.90756,0.5822951,0.1148022,0.230487,-0.02227458,6.73999984934926,16
-44.48126,0.2833333,-36.05431,6.052009236224492,-1.5345483590535802,5.1670652266866846,3.714892,32.80869,0.228947,0.03165731,0.2822031,-0.007238234,6.75999984890223,16
-44.44946,0.4833332,-35.99773,5.76293364081927,-1.0486300384016587,4.64930121251793,7.42862,32.8311,0.459637,0.06327153,0.2817567,-0.01446774,6.77999984845519,16
-44.41767,0.6833329,-35.94115,5.53372303059556,-1.220344524312136,4.197595589775244,11.14003,32.8687,0.692586,0.09479666,0.2810129,-0.02169034,6.79999984800816,16
-44.2394,0.2833339,-35.74907,5.232439989077058,-1.1156872237721829,3.690621845270172,3.656188,36.94639,0.216865,0.03085636,0.3166419,-0.008314044,6.81999984756112,16
-44.20404,0.4833339,-35.69585,4.867557702345103,-0.7599923532550302,3.139886416120298,7.31132,36.9673,0.4353763,0.06167255,0.3161569,-0.01661791,6.83999984711409,16
-44.16869,0.6833341,-35.64264,4.585615520537843,-0.8178616740167189,2.6902755964657707,10.96525,37.00256,0.6573325,0.09241627,0.3153493,-0.02490312,6.85999984666705,16
-44.13335,0.8833343,-35.58944,4.240168415716155,-0.5953865252634574,2.204359677122664,14.61777,37.05258,0.8830996,0.1230508,0.3142191,-0.03317345,6.87999984622002,16
-43.97593,0.2833333,-35.43599,3.841085110405473,-0.1179011367974715,1.6949716171089833,3.588177,41.39898,0.2685547,0.03011453,0.3532237,-0.008874949,6.89999984577298,16
-43.93802,0.4833336,-35.38596,3.4801976523744003,-0.2901035345345064,1.250817459074355,7.175193,41.42436,0.5390172,0.0601899,0.3527014,-0.01773953,6.91999984532595,16
-43.90012,0.6833337,-35.33595,3.078181464186549,-0.0296218200780384,0.8012405020214644,10.761,41.4672,0.813725,0.09019729,0.3518319,-0.02658387,6.93999984487891,16
-43.73097,0.2833335,-35.16587,2.6458650862565207,0.2413136825119701,0.3598248675527742,3.519761,44.47699,0.3446329,0.02956405,0.378197,-0.008840405,6.95999984443188,16
-43.69221,0.4833337,-35.11787,2.3301528303816994,-0.169881499537631,0.068033686639243,7.038361,44.50894,0.6917174,0.05909108,0.3776569,-0.01767031,6.97999984398484,16
-43.65346,0.6833336,-35.06989,1.9942484105585048,-0.5983259095512794,-0.2009034440911854,10.55569,44.56284,1.043967,0.08855329,0.3767575,-0.02648122,6.99999984353781,16
-43.47107,0.2833334,-34.88488,1.635118131451172,-0.1390419723769829,-0.4805836964534258,3.461789,45.96672,0.3414869,0.02897041,0.390201,-0.00905177,7.01999984309077,16
-43.43178,0.4833338,-34.83863,1.431300534746292,-0.337321710745483,-0.5990008136631424,6.922078,45.99783,0.6850846,0.05790175,0.3896618,-0.01809368,7.03999984264374,16
-43.39251,0.6833335,-34.79238,1.233125229791213,-0.5272382570737405,-0.7009545037024161,10.3812,46.05022,1.033287,0.08677083,0.388764,-0.02711956,7.0599998421967,16
-43.35324,0.8833339,-34.74615,0.9844555935767828,-0.0428645175343772,-0.8327820649155129,13.83883,46.12491,1.38911,0.1155507,0.3875089,-0.03611809,7.07999984174967,16
-43.19674,0.2833333,-34.59349,0.7448762582142194,0.4242600858628645,-0.942391220624355,3.412168,46.28534,0.2882098,0.02836454,0.3927777,-0.009389479,7.09999984130263,16
-43.15718,0.4833333,-34.54872,0.639666644615474,-0.0308419286439601,-0.908334224821683,6.822931,46.31118,0.5778611,0.0566911,0.3922517,-0.01877095,7.1199998408556,16
-43.11763,0.6833336,-34.50396,0.4581966662029657,0.2170948235605552,-0.9565194524687186,10.23249,46.35475,0.8715389,0.08495839,0.391376,-0.0281332,7.13999984040856,16
-42.9481,0.2833334,-34.33667,0.2824284372858656,0.4754860564833348,-1.0028811350227151,3.365623,45.28778,0.1776306,0.02769919,0.384794,-0.009876099,7.15999983996153,16
-42.90855,0.4833333,-34.29316,0.2521649763136935,0.0517461650840997,-0.9156878193801496,6.729863,45.30349,0.3560803,0.05536219,0.3842948,-0.01974244,7.17999983951449,16
-42.86901,0.6833333,-34.24966,0.2339484908806355,-0.3892433278393444,-0.8257963068970646,10.09308,45.32997,0.5369707,0.08296949,0.3834639,-0.02958891,7.19999983906746,16
-42.6863,0.2833333,-34.06877,0.1311969432368656,0.0574947766912974,-0.8122976040777665,3.315395,44.11885,0.05783806,0.02700002,0.3753973,-0.01039693,7.21999983862042,16
-42.64676,0.4833333,-34.02655,0.1835518881176057,-0.1533291097282949,-0.6661065848544503,6.629799,44.1239,0.1160337,0.05396936,0.374926,-0.02078219,7.23999983817339,16
-42.60722,0.6833333,-33.98434,0.2384860882126886,-0.355789919712668,-0.5379884377407613,9.942874,44.13235,0.1745877,0.0808815,0.3741411,-0.03114916,7.25999983772635,16
-42.5677,0.8833333,-33.94215,0.1794361576453127,0.1160392271274952,-0.5193309631399714,13.25498,44.14436,0.2343241,0.1077183,0.3730438,-0.04148711,7.27999983727932,16
-42.4114,0.2833336,-33.79062,0.1303528958935231,0.570619387406416,-0.4995042835566927,3.265626,42.88807,359.9423,0.02633761,0.3654571,-0.01088565,7.29999983683228,16
-42.37189,0.4833336,-33.74957,0.2146285480992418,0.1029732116937456,-0.3632642606969902,6.530333,42.88311,359.8843,0.05264654,0.3650119,-0.02175917,7.31999983638525,16
-42.33238,0.6833332,-33.70853,0.1404717068431438,0.3383642571395027,-0.3862563399670264,9.79384,42.87472,359.8252,0.07890212,0.3642705,-0.0326137,7.33999983593822,16
-42.16369,0.2833335,-33.54272,0.0701112491621529,0.5842096710960901,-0.4122836391306421,3.216559,40.32712,359.8252,0.02582038,0.3446053,-0.01110567,7.35999983549118,16
-42.12505,0.4833336,-33.50191,0.1417340143785566,0.1479252013720571,-0.3101743048309906,6.432132,40.31233,359.6494,0.05161272,0.3441969,-0.0221992,7.37999983504415,16
-42.08642,0.6833333,-33.46111,0.2210872447853447,-0.3056089245860248,-0.2108928941534102,9.646779,40.28743,359.4714,0.07735761,0.343517,-0.03327163,7.39999983459711,16
-41.97166,0.2833335,-33.34911,0.1721591133004523,0.1285859723277523,-0.2261949656352264,3.310464,39.97197,359.8097,0.02657835,0.3416922,-0.01143241,7.41999983415008,16
-41.932,0.4833336,-33.30696,0.2759291089620035,-0.0947833973940138,-0.0978189853447659,6.61996,39.95539,359.6183,0.05312712,0.3412633,-0.02285165,7.43999983370304,16
-41.89235,0.6833333,-33.26483,0.3801028945866989,-0.3097897147250126,0.0259530140210486,9.928513,39.92746,359.4243,0.07962441,0.3405489,-0.03424896,7.45999983325601,16
-41.7254,0.2833332,-33.10312,0.3376305587726023,0.1494946584727473,0.0101086966133188,3.542398,41.70921,359.8217,0.0283299,0.3558722,-0.0124562,7.47999983280897,16
-41.68191,0.4833332,-33.05902,0.2974084350900128,0.5915296860977366,-0.0063234466358998,7.083775,41.69258,359.6422,0.05662478,0.3553609,-0.02489699,7.49999983236194,16
-41.63844,0.6833335,-33.01495,0.3818002324476524,0.1113376585755456,0.0949162887357673,10.62589,41.66439,359.4591,0.08486979,0.3545088,-0.03732216,7.5199998319149,16
-41.45813,0.2833333,-32.84003,0.3008793386909332,0.3341849983532597,0.0351538583644206,3.566821,43.49713,359.8789,0.02851463,0.370385,-0.0125128,7.53999983146787,16
-41.41375,0.4833333,-32.79634,0.2170765781090153,0.5674860327002382,-0.0287782718171563,7.132788,43.48571,359.7565,0.0569937,0.3698462,-0.02501355,7.55999983102083,16
-41.36938,0.6833333,-32.75266,0.2692481579167065,0.1186562744689292,0.036168708426274,10.6977,43.46643,359.6321,0.08540925,0.3689491,-0.03748686,7.5799998305738,16
-41.32503,0.8833334,-32.709,0.3218125247372754,-0.3474232609156231,0.0988899043066808,14.26151,43.43892,359.5048,0.1137336,0.3676949,-0.04992037,7.59999983012676,16
-41.17468,0.2833333,-32.56214,0.2445223256387976,0.0742259456175028,0.0409998745647151,3.59338,44.97687,0.01984411,0.02903504,0.3823039,-0.01183251,7.61999982967973,16
-41.13061,0.4833333,-32.51753,0.3165859319231003,-0.1616884098779621,0.1265140076489999,7.185957,44.97879,0.04024024,0.05803637,0.3817402,-0.02364755,7.63999982923269,16
-41.08655,0.6833335,-32.47294,0.385116598180744,-0.3892397137667205,0.2072356983570813,10.77748,44.98203,0.06097982,0.08697229,0.3808016,-0.03543571,7.65999982878566,16
-40.92185,0.283333,-32.31244,0.304755521965113,0.057499540280331,0.145783944941531,3.562183,45.90944,0.08427792,0.0289064,0.3897939,-0.01144476,7.67999982833862,16
-40.87823,0.4833325,-32.26813,0.2242491423451156,0.4869897973991492,0.0834920470503632,7.123147,45.91735,0.1692567,0.05777529,0.3892289,-0.02287398,7.69999982789159,16
-40.83463,0.6833321,-32.22384,0.344475639329886,-0.0057467694191667,0.2136151006259403,10.68306,45.93071,0.2555193,0.08657992,0.388288,-0.03427797,7.71999982744455,16
-40.65382,0.2833333,-32.04783,0.2894535985832434,0.2045554522532504,0.1733596022000973,3.635889,46.73885,0.1086887,0.0294974,0.3964306,-0.01171325,7.73999982699752,16
-40.60891,0.4833333,-32.00296,0.2222510920363376,0.4253117377863326,0.1203951304898147,7.27073,46.74926,0.2182188,0.05895668,0.3958316,-0.02341144,7.75999982655048,16
-40.56401,0.683333,-31.95811,0.1531772041356447,0.6042517568128134,0.0644087504514274,10.90521,46.76682,0.3292885,0.08835308,0.3948341,-0.03508688,7.77999982610345,16
-40.51912,0.8833331,-31.91327,0.2152558643369531,-0.1646480482180611,0.1335837644337942,14.53854,46.79189,0.4430502,0.1176515,0.3934394,-0.04672362,7.79999982565641,16
-40.36829,0.283333,-31.76778,0.1401893239326455,-0.0170717457667465,0.0732631717554745,3.628094,47.41374,0.1231843,0.02941648,0.4018247,-0.01174367,7.81999982520938,16
-40.32313,0.4833325,-31.72336,0.0630400288010122,0.1409586743838986,0.0111999226531871,7.255137,47.42552,0.2472982,0.05879497,0.40122,-0.02347244,7.83999982476234,16
-40.27799,0.6833327,-31.67896,0.1318624692430248,-0.3831407172740773,0.0907701890761281,10.88098,47.44539,0.3733236,0.08810487,0.4002132,-0.03517446,7.85999982431531,16
-40.11255,0.2833336,-31.51914,0.0468481296900407,-0.2042016155085518,0.0225207731994601,3.574517,49.20315,0.2084051,0.02911405,0.416051,-0.01133114,7.87999982386827,16
-40.06771,0.4833336,-31.47564,-0.0425391462654332,-0.0148091882909263,-0.0502527629204294,7.14796,49.22278,0.4183536,0.05819122,0.4154419,-0.02264821,7.89999982342124,16
-40.02289,0.6833335,-31.43216,0.0324428291080565,-0.5075461261429965,0.033928105362964,10.72028,49.25591,0.6315699,0.08720332,0.4144278,-0.03393979,7.91999982297421,16
-39.84332,0.2833331,-31.25803,0.0192872040134091,-0.2972446035020071,0.0335074842844029,3.512512,49.99388,0.2649703,0.02875347,0.422306,-0.01085601,7.93999982252717,16
-39.79936,0.483333,-31.21509,0.0084401772490139,-0.0764891341734903,0.0326312731322211,7.023886,50.0184,0.5318894,0.05747118,0.4217077,-0.02169829,7.95999982208014,16
-39.75541,0.6833334,-31.17217,0.0102267583546549,0.1024500950450501,0.0409369582509846,10.53365,50.05977,0.8027881,0.08612281,0.4207116,-0.03251538,7.9799998216331,16
-39.71147,0.8833336,-31.12926,0.0051478646781717,0.0538383323428706,0.0408751831780378,14.04215,50.11878,1.079926,0.1146851,0.4193192,-0.04329811,7.99999982118607,16
-39.56205,0.2833332,-30.98374,-0.0024645997560881,0.0444293808377392,0.0360243894498033,3.45271,49.89653,0.2909791,0.02838542,0.4215375,-0.01040582,8.01999982073903,16
-39.51926,0.4833335,-30.94105,-0.0029080107925238,0.0209072570680566,0.0357819412367099,6.903852,49.92301,0.5842569,0.05673384,0.4209598,-0.02079533,8.039999820292,16
-39.47647,0.6833336,-30.89837,-0.0139324176526258,0.0099305784430536,0.0255823810062345,10.35385,49.96767,0.8817433,0.08502246,0.4199979,-0.03116313,8.05999981984496,16
-39.31271,0.2833332,-30.73921,-0.034870856888908,0.0381571779652988,0.0059991340645026,3.404553,48.73881,0.2224957,0.02786003,0.4123827,-0.01048932,8.07999981939793,16
-39.27062,0.4833332,-30.69712,-0.0561902612836107,0.0522701959446243,-0.0136638951530621,6.80768,48.75876,0.4465177,0.05568427,0.4118346,-0.02096483,8.09999981895089,16
-39.22854,0.6833332,-30.65504,0.0833925500702292,-0.6413600362934159,0.1236440933543647,10.20972,48.79238,0.6736649,0.08345112,0.4109221,-0.03141885,8.11999981850386,16
-39.05101,0.2833331,-30.4819,0.0952041339200491,-0.4185131171193589,0.137928823211471,3.354146,47.02508,0.1304479,0.02729031,0.3987481,-0.01063235,8.13999981805682,16
-39.00975,0.4833332,-30.44034,0.1025495045790592,-0.1852119632470669,0.1476542721718523,6.706841,47.0366,0.261825,0.05454585,0.3982351,-0.02125036,8.15999981760979,16
-38.96851,0.6833335,-30.3988,0.1153353155651828,0.0062721905015165,0.1621766326399836,10.05853,47.05602,0.3949286,0.08174656,0.3973811,-0.03184753,8.17999981716275,16
-38.92727,0.8833337,-30.35727,-0.0013697670483523,0.7101279305914662,0.0517048561209385,13.4092,47.08367,0.5308332,0.1088696,0.396187,-0.04241402,8.19999981671572,16
-38.70722,0.2833336,-30.14332,0.0449130740997745,0.4110355764654867,0.094981217463669,3.299921,44.83678,359.9812,0.02655467,0.3812134,-0.01113229,8.21999981626868,16
-38.66639,0.4833336,-30.10273,0.0926193467392977,0.1270677653642631,0.1377988786355608,6.598889,44.83515,359.9623,0.05307959,0.3807393,-0.02225237,8.23999981582165,16
-38.62558,0.6833336,-30.06215,-0.0130698491131227,0.5241485987135722,0.031466772498355,9.896524,44.83237,359.9429,0.07954928,0.37995,-0.03335083,8.25999981537461,16
-38.58477,0.8833338,-30.02158,0.0110967318877825,0.2704267675718236,0.0481474012084497,13.19319,44.82843,359.9232,0.1059455,0.3788465,-0.04441827,8.27999981492758,16
-38.429,0.2833333,-29.86999,0.0298226199207505,0.031828688078776,0.0578444237039512,3.243333,42.80862,359.8905,0.02599914,0.3648257,-0.01121721,8.29999981448054,16
-38.38915,0.4833329,-29.82977,0.052725804416589,-0.246006991534146,0.0698900924793548,6.485768,42.79927,359.7803,0.0519703,0.3643869,-0.02242249,8.31999981403351,16
-38.34932,0.6833329,-29.78957,0.1066394134014458,-0.2973716763340467,0.1116279835719815,9.727149,42.78354,359.6687,0.07789167,0.3636564,-0.03360601,8.33999981358647,16
-38.18055,0.2833332,-29.62428,0.1513181063591702,-0.3090449517980799,0.1433559955313157,3.195981,40.2856,359.7916,0.02555475,0.3442743,-0.01131018,8.35999981313944,16
-38.14172,0.4833332,-29.5841,0.1965664698554761,-0.3343435421485883,0.1747232187631446,6.390959,40.26807,359.5818,0.05108183,0.343871,-0.02260821,8.3799998126924,16
-38.10291,0.6833326,-29.54392,0.1077275380562241,0.2937038492898511,0.0768058776612043,9.584992,40.23856,359.3696,0.0765622,0.3431995,-0.03388556,8.39999981224537,16
-37.91602,0.2833334,-29.36171,0.1346368329788063,0.0308517173485382,0.0914743081684505,3.531516,41.67337,359.7982,0.02817218,0.3555867,-0.01260508,8.41999981179833,16
-37.87236,0.4833333,-29.31798,0.1602256258253618,-0.2168768863135407,0.1057612333883568,7.06208,41.65459,359.595,0.05631017,0.3550785,-0.02519523,8.4399998113513,16
-37.82872,0.6833333,-29.27427,0.0325645497837925,0.2164452911205737,-0.0274296220539227,10.59284,41.62284,359.3882,0.08439562,0.354232,-0.03776545,8.45999981090426,16
-37.78511,0.8833332,-29.23058,0.0336609331847412,-0.0010352203292918,-0.0343869797430471,14.12392,41.57752,359.1765,0.1124044,0.3530479,-0.05030133,8.47999981045723,16
-37.62629,0.2833332,-29.07786,0.0281614707002688,-0.2033922851290889,-0.0456666585231815,3.560945,43.47351,359.8535,0.02838763,0.3702005,-0.01269349,8.49999981001019,16
-37.58168,0.4833331,-29.03453,0.02611198617479,-0.4449878573783112,-0.0514965318368858,7.121073,43.45972,359.7055,0.05674012,0.3696634,-0.02537533,8.51999980956316,16
-37.53708,0.6833333,-28.99122,-0.0890833837002844,0.1802016060122769,-0.1652739760512425,10.68008,43.43647,359.5552,0.08502924,0.3687692,-0.03802883,8.53999980911613,16
-37.36427,0.2833336,-28.82316,-0.0188865763852632,-0.0855070110484839,-0.0989949245177044,3.595307,44.95154,359.9792,0.02891765,0.3821098,-0.01216012,8.55999980866909,16
-37.31969,0.483334,-28.77902,0.0493707584790499,-0.3360923754700182,-0.033249119664557,7.189843,44.9496,359.9585,0.05780149,0.3815458,-0.02430362,8.57999980822206,16
-37.27513,0.6833336,-28.73488,-0.0189445357084281,0.094372873329072,-0.0977132855922811,10.78345,44.94631,359.9375,0.08662106,0.3806066,-0.03641999,8.59999980777502,16
-37.08841,0.2833337,-28.55231,0.0678676840997596,-0.1259646273896518,-0.0108751308818639,3.555771,45.87541,0.07918821,0.02884099,0.3895226,-0.01145526,8.61999980732799,16
-37.04484,0.4833339,-28.50812,0.1489037821384045,-0.3311784881444053,0.071698435554854,7.110238,45.88287,0.159318,0.05764489,0.3889601,-0.02289248,8.63999980688095,16
-37.00129,0.6833341,-28.46394,0.0724761777148259,0.1446582674576949,0.0031070831938606,10.66368,45.89544,0.240642,0.08638507,0.3880235,-0.03430469,8.65999980643392,16
-36.95775,0.8833339,-28.41978,-0.0056966618128768,0.6100061933624608,-0.0664117054537563,14.21614,45.91338,0.3238663,0.1150343,0.386714,-0.04568082,8.67999980598688,16
-36.91422,0.9766706,-28.37562,0.0480707987271245,0.1598868900242834,-0.0097967633957409,17.76753,45.93705,0.4097555,0.1435648,0.3850332,-0.0570095,8.69999980553985,16
-36.72645,0.2833333,-28.19469,0.1056393733267384,-0.3007215877354748,0.0504515478301073,3.625187,46.95813,0.1108183,0.02939672,0.3981864,-0.01171545,8.71999980509281,16
-36.68153,0.4833336,-28.1501,-0.0367012145775191,0.1331584670440608,-0.0821213913601823,7.249293,46.96873,0.2225429,0.0587555,0.3975883,-0.02341535,8.73999980464578,16
-36.63662,0.6833332,-28.10552,-0.0403817753359518,-0.0837646103146062,-0.0798707262174218,10.87306,46.98656,0.3357043,0.08805166,0.3965921,-0.03509369,8.75999980419874,16
-36.47065,0.2833336,-27.94519,-0.0499698050325534,-0.2855640733218718,-0.082145732010904,3.625257,47.57364,0.1225844,0.02937531,0.4031018,-0.01177951,8.77999980375171,16
-36.4254,0.4833334,-27.90094,-0.0546180591093232,-0.5266011039541558,-0.0785221809940068,7.249496,47.58536,0.2461258,0.0587131,0.4024962,-0.02354395,8.79999980330467,16
-36.38016,0.6833336,-27.8567,-0.0296701989783159,-0.5411670837568177,-0.0441538095525686,10.87259,47.60514,0.3716616,0.08798325,0.4014878,-0.03528102,8.81999980285764,16
-36.19962,0.2833336,-27.68236,-0.0121196054464505,-0.5160417876006194,-0.0156677039347101,3.573788,49.33359,0.2076482,0.02909259,0.4170855,-0.01136762,8.8399998024106,16
-36.15469,0.4833336,-27.63898,0.0093086436470386,-0.5045417027481001,0.0175567004859438,7.146503,49.35314,0.4168454,0.05814842,0.4164751,-0.02272103,8.85999980196357,16
-36.10976,0.6833336,-27.59562,-0.1089148547507719,0.1603047716036229,-0.084036575431071,10.71807,49.38614,0.6292621,0.08713891,0.4154589,-0.03404909,8.87999980151653,16
-36.06485,0.8833336,-27.55227,-0.2174259805364151,0.6741755449637691,-0.1769696412554431,14.28818,49.4332,0.8465071,0.1160333,0.4140383,-0.04534112,8.8999998010695,16
-35.91505,0.2833333,-27.40718,-0.1436224968788195,0.1610188263692141,-0.0988211162431795,3.511987,50.10825,0.2644299,0.02873648,0.4232102,-0.01088704,8.91999980062246,16
-35.871,0.4833331,-27.36434,-0.2306487122997005,0.3581486496773487,-0.1774279842443284,7.022901,50.13272,0.530822,0.05743779,0.4226108,-0.0217604,8.93999980017543,16
-35.82697,0.683333,-27.32151,-0.3162019263284996,0.572980583234521,-0.2559253541647948,10.53224,50.17401,0.8012458,0.08607364,0.4216129,-0.03260818,8.95999979972839,16
-35.66298,0.2833332,-27.16196,-0.2602142482383733,0.1129302609866009,-0.200828723350007,3.452927,49.96615,0.2900394,0.02837735,0.4220883,-0.0104313,8.97999979928136,16
-35.62012,0.4833334,-27.11933,-0.1983563439738027,-0.3571209793934461,-0.1424036000351414,6.904293,49.99255,0.5824022,0.05671787,0.4215097,-0.02084603,8.99999979883432,16
-35.57727,0.6833329,-27.07672,-0.2589530732314316,0.0678043454244389,-0.2018489921251784,10.35459,50.03707,0.8789906,0.0849993,0.4205464,-0.03123903,9.01999979838729,16
-35.53443,0.8833324,-27.03411,-0.1664012949003712,-0.1575856523453532,-0.1122709112556776,13.80362,50.10053,1.182099,0.1131951,0.4191996,-0.04160055,9.03999979794025,16
-35.32751,0.2833336,-26.83315,-0.0735445789194741,-0.3673641163579573,-0.0211855743633364,3.40202,48.34284,0.1983597,0.02778976,0.4092401,-0.01057602,9.05999979749322,16
-35.28547,0.4833334,-26.79111,-0.1242935635640378,0.1043953162104322,-0.0686104659455715,6.80266,48.36061,0.398135,0.05554433,0.4086975,-0.02113784,9.07999979704618,16
-35.24344,0.6833332,-26.74909,-0.1724777022414549,0.5661529565960549,-0.113335923617825,10.20225,48.39058,0.6006696,0.08324187,0.407794,-0.03167828,9.09999979659915,16
-35.05917,0.2833335,-26.56939,-0.0959235856746048,0.1129323598232319,-0.0384916027255428,3.343553,46.67641,0.1084162,0.02716157,0.3959637,-0.01068912,9.11999979615211,16
-35.01804,0.4833335,-26.52799,-0.1827931898297556,0.3699987077847717,-0.1223128496567298,6.685679,46.68597,0.2176864,0.05428905,0.3954578,-0.02136336,9.13999979570508,16
-34.97691,0.6833336,-26.4866,-0.2709891764973697,0.6447669248538965,-0.2083194409725521,10.02681,46.70206,0.3283616,0.08136219,0.3946154,-0.03201684,9.15999979525805,16
-34.9358,0.8833338,-26.44522,-0.3511438450411823,0.8849664609528087,-0.2877070131277186,13.36694,46.72497,0.4413126,0.1083584,0.3934377,-0.04264005,9.17999979481101,16
-34.77911,0.2833333,-26.29401,-0.2524622650072352,0.1845759634765965,-0.1976924383573965,3.291431,44.94394,359.9792,0.0264693,0.3820785,-0.01114458,9.19999979436398,16
-34.73829,0.4833333,-26.25363,-0.1449979527221039,-0.4244261597529635,-0.1011997483931708,6.581894,44.94214,359.9584,0.05290896,0.3816058,-0.02227677,9.21999979391694,16
-34.69748,0.6833333,-26.21325,-0.1919268578109729,-0.0393315494560105,-0.1529484159298775,9.871032,44.93908,359.937,0.07929362,0.3808188,-0.03338797,9.23999979346991,16
-34.52808,0.2833333,-26.04835,-0.0948074614313796,-0.3050407424510659,-0.0678009781448487,3.241116,42.89813,359.8897,0.02596976,0.3655529,-0.0112371,9.25999979302287,16
-34.48818,0.4833333,-26.00823,0.0022644384462218,-0.5556262591541197,0.0156746298050869,6.481266,42.88873,359.7787,0.05191126,0.3651139,-0.02246148,9.27999979257584,16
-34.4483,0.6833337,-25.96813,-0.0363497474314087,-0.1251618871934293,-0.0320382724821968,9.720376,42.87289,359.6664,0.07780308,0.3643829,-0.0336644,9.2999997921288,16
-34.26618,0.2833334,-25.78964,0.0795190935738361,-0.3454998067734558,0.0683944579394015,3.195308,40.35525,359.791,0.02554074,0.3448447,-0.01132806,9.31999979168177,16
-34.22731,0.4833334,-25.74951,0.1878886184519324,-0.5507143246560844,0.1608177378463615,6.389641,40.33768,359.5808,0.05105418,0.344441,-0.0226438,9.33999979123473,16
-34.18845,0.6833333,-25.7094,0.1361646574596626,-0.0748782679982909,0.098738650768908,9.582966,40.30811,359.368,0.07652049,0.3437687,-0.03393841,9.3599997907877,16
-34.14959,0.883333,-25.6693,0.0782221480901697,0.3904688067677607,0.0310587921780616,12.77504,40.26614,359.1516,0.1019192,0.3428288,-0.04519993,9.37999979034066,16
-34.11075,0.9766708,-25.62921,0.143136406972193,-0.0596507971260517,0.0833309927853811,15.96594,40.21106,358.9298,0.1272307,0.3416223,-0.05642275,9.39999978989363,16
-33.92024,0.2833333,-25.44627,0.2047746094229126,-0.5202593465835758,0.1339179126041259,3.517665,42.26742,359.8172,0.02805332,0.360421,-0.01255336,9.41999978944659,16
-33.87654,0.4833336,-25.40296,0.1470981658410899,-0.0863790017896305,0.070437286681777,7.034327,42.25048,359.6331,0.05607241,0.3599103,-0.02509148,9.43999978899956,16
-33.83286,0.6833333,-25.35966,0.0924040704961477,0.3370125543393573,0.011298078022822,10.55172,42.22181,359.4455,0.08404341,0.3590594,-0.03761272,9.45999978855252,16
-33.66683,0.2833334,-25.19982,0.216778296238651,-0.1550614935091063,0.127448962179141,3.559777,43.93182,359.875,0.02839745,0.3739056,-0.01262897,9.47999978810549,16
-33.62216,0.4833334,-25.1566,0.1977492477541282,0.0626634015577765,0.1067920782354292,7.118842,43.92007,359.7488,0.05676084,0.3733637,-0.02524593,9.49999978765845,16
-33.5775,0.6833336,-25.1134,0.174519084861636,0.2976023820556382,0.0836303461985288,10.67683,43.90024,359.6206,0.08506113,0.3724616,-0.03783473,9.51999978721142,16
-33.39748,0.2833334,-24.93811,0.3014356715252795,-0.1428282372457877,0.2066021619204221,3.591696,45.31784,0.01679951,0.02897591,0.3850511,-0.0119377,9.53999978676438,16
-33.35313,0.4833336,-24.89383,0.4259921820830925,-0.5937471689403866,0.328724459315417,7.182602,45.31948,0.03420485,0.0579186,0.3844839,-0.02385725,9.55999978631735,16
-33.30879,0.6833336,-24.84955,0.3619575842090192,-0.1501791120804821,0.2702018862804181,10.77252,45.32224,0.05187249,0.08679643,0.3835395,-0.03575018,9.57999978587031,16
-33.26447,0.8833334,-24.80529,0.2952788459503246,0.2829001980180171,0.2101780683351499,14.36145,45.32619,0.06999709,0.1155813,0.3822192,-0.0476045,9.59999978542328,16
-33.11445,0.2833332,-24.65994,0.3507969777313349,-0.1994864803107942,0.2678442581782576,3.561373,46.17851,0.0821365,0.02886562,0.3919547,-0.01152702,9.61999978497624,16
-33.07061,0.4833332,-24.61588,0.2383774700153083,0.0279256522054956,0.1640174967044672,7.121506,46.18623,0.1650131,0.05769382,0.3913867,-0.02303788,9.63999978452921,16
-33.02679,0.683333,-24.57183,0.1207965247198963,0.272551763172382,0.0558183825159162,10.68063,46.19926,0.2491426,0.0864582,0.3904412,-0.03452346,9.65999978408217,16
-32.98298,0.8833328,-24.5278,0.13863375249921,-0.158192408313344,0.0774238636052757,14.23871,46.21784,0.3351973,0.1151308,0.3891192,-0.04597282,9.67999978363514,16
-32.78791,0.2833335,-24.33952,0.1553541852295161,-0.5994257800945729,0.097873947847944,3.634345,47.08695,0.1147667,0.02947051,0.3992146,-0.01174882,9.6999997831881,16
-32.74282,0.4833338,-24.29486,0.0429014857171914,-0.1461699521029923,-0.0044417854120339,7.267632,47.09794,0.2304121,0.05890285,0.3986118,-0.02348259,9.71999978274107,16
-32.69774,0.6833335,-24.25022,-0.0649175170654814,0.2965971408880554,-0.1014420485071632,10.90039,47.11647,0.3477044,0.0882711,0.397608,-0.03519288,9.73999978229403,16
-32.52435,0.2833332,-24.08291,0.0177195145252042,-0.1761027550064469,-0.0131265103905811,3.615235,47.91973,0.1336567,0.02929893,0.4058607,-0.01174442,9.759999781847,16
-32.47909,0.4833328,-24.03891,-0.0513182282933541,0.0609965702679319,-0.0698783054482916,7.229445,47.93247,0.2683938,0.0585607,0.4052541,-0.0234735,9.77999978139997,16
-32.43385,0.6833327,-23.99492,-0.1232283246977203,0.3153102827485744,-0.1285006542427424,10.8425,47.95397,0.4052431,0.0877551,0.4042442,-0.03517579,9.79999978095293,16
-32.2459,0.2833332,-23.81359,-0.0329753439699125,-0.1057463853177884,-0.0290382045313606,3.558387,49.74063,0.2276716,0.02900361,0.4203063,-0.01125593,9.8199997805059,16
-32.20109,0.4833332,-23.77044,-0.1120551732892352,0.1829964432505103,-0.0929865821408206,7.115659,49.76197,0.4570261,0.05797046,0.419696,-0.02249774,9.83999978005886,16
-32.15629,0.6833334,-23.72731,-0.1970595204562073,0.4889539350135459,-0.1629423525476134,10.67174,49.79799,0.6899146,0.08687256,0.4186801,-0.03371426,9.85999977961183,16
-32.11151,0.8833334,-23.68418,-0.2774182619208503,0.7598553183535335,-0.2291322043955332,14.22631,49.84937,0.9280661,0.1156793,0.4172598,-0.04489526,9.87999977916479,16
-31.95438,0.2833331,-23.53199,-0.2234393321777545,0.0896778606360411,-0.1629035155325091,3.496636,50.20258,0.274108,0.02864206,0.423955,-0.01077743,9.89999977871776,16
-31.91058,0.4833331,-23.48927,-0.154950351679961,-0.4896008947848586,-0.0862036164147248,6.992126,50.22782,0.5501348,0.05724839,0.4233595,-0.02154189,9.91999977827072,16
-31.86679,0.6833332,-23.44656,-0.2432014402140865,-0.075270353889249,-0.1602985083628247,10.48601,50.27044,0.8304421,0.08579016,0.4223682,-0.03227995,9.93999977782369,16
-31.82301,0.8833331,-23.40386,-0.3221155631927495,0.3280832160147685,-0.2271206857098491,13.97867,50.33119,1.117065,0.1142438,0.4209823,-0.04298495,9.95999977737665,16
-31.62311,0.2833336,-23.2097,-0.2135932689340833,-0.1845165782135237,-0.1162498410004886,3.434563,49.62921,0.2746588,0.02820621,0.4194286,-0.01040235,9.97999977692962,16
-31.58056,0.4833336,-23.16723,-0.2432001334505997,0.0121945126379124,-0.1390430047100892,6.867617,49.65408,0.551505,0.05637636,0.4188601,-0.02078848,9.99999977648258,16
-31.53803,0.6833335,-23.12477,-0.2720283236526271,0.2256324395358137,-0.1618066355616179,10.29954,49.69602,0.8323366,0.08448777,0.4179137,-0.03115263,10.0199997760355,16
-31.36021,0.2833336,-22.95199,-0.1467197009293563,-0.236787899281866,-0.0350235914295353,3.382448,47.97204,0.1729943,0.02757792,0.4062955,-0.01061879,10.0399997755885,16
-31.3184,0.4833336,-22.91024,-0.1824379330698207,0.0101031727347521,-0.0643049237012469,6.763498,47.98745,0.3471223,0.0551206,0.4057633,-0.02122409,10.0599997751415,16
-31.2766,0.6833335,-22.8685,-0.2248872001496948,0.2737201669344673,-0.1008030149552396,10.14351,48.01341,0.5236565,0.08260728,0.4048774,-0.03180783,10.0799997746944,16
-31.23481,0.8833335,-22.82677,-0.2645353409734881,0.5017934397849753,-0.1355035657125896,13.52247,48.05038,0.7039084,0.1100141,0.4036386,-0.04236081,10.0999997742474,16
-31.08542,0.2833336,-22.68233,-0.1771265312958547,-0.2116993724923395,-0.0515468422395457,3.32894,46.26707,0.07398962,0.02696439,0.3926923,-0.0108181,10.1199997738004,16
-31.04435,0.4833336,-22.64125,-0.2077192792803579,-0.0024427128763861,-0.0820224693553868,6.656531,46.27356,0.1485105,0.05389534,0.3921952,-0.02162223,10.1399997733533,16
-31.00329,0.6833332,-22.60018,-0.2335130946295365,0.2235404315279675,-0.1097712989307098,9.983207,46.28448,0.2239832,0.08077338,0.3913675,-0.03240557,10.1599997729063,16
-30.8399,0.2833333,-22.44233,-0.1150296635212697,-0.2263339862217213,-0.0017396421461626,3.278662,44.56203,359.9544,0.026321,0.3790049,-0.01121476,10.1799997724593,16
-30.79919,0.4833333,-22.40213,0.0126137276523046,-0.6871846407360714,0.1127090778351735,6.556357,44.5581,359.9085,0.05261275,0.3785396,-0.0224169,10.1999997720122,16
-30.7585,0.6833335,-22.36195,-0.0221246408446234,-0.2540355661860741,0.0700518349670638,9.832705,44.55145,359.8619,0.07885012,0.3777648,-0.0335976,10.2199997715652,16
-30.71781,0.8833337,-22.32178,-0.0500971535072629,0.1681362492745134,0.0323488205247066,13.10812,44.54198,359.8143,0.1050155,0.3766815,-0.04474796,10.2399997711182,16
-30.51252,0.2833331,-22.12214,0.1128731899277717,-0.3256464242593471,0.175933891708425,3.223257,41.21702,359.8057,0.02572807,0.3518856,-0.0114859,10.2599997706711,16
-30.47293,0.4833331,-22.08207,0.1256712235097445,-0.110117457839685,0.1738164641858439,6.445496,41.20055,359.6102,0.05142796,0.3514667,-0.022959,10.2799997702241,16
-30.43334,0.683333,-22.04201,0.134318792842226,0.1221380482524492,0.1667767716760124,9.666708,41.17281,359.4123,0.07707958,0.350769,-0.03441022,10.2999997697771,16
-30.24906,0.2833333,-21.8615,0.3000470870626195,-0.3214635927813274,0.3103770448766951,3.374126,40.52455,359.7878,0.02697759,0.3462185,-0.01193227,10.31999976933,16
-30.20797,0.4833333,-21.81913,0.2898522311812108,-0.0557544727036852,0.2841684453265429,6.74727,40.5057,359.5742,0.05392425,0.3457666,-0.02385078,10.339999768883,16
-30.1669,0.6833335,-21.77677,0.2659172609666171,0.2266812164050531,0.2450020298488411,10.11935,40.47393,359.3576,0.08081634,0.3450142,-0.03574506,10.359999768436,16
-30.12584,0.8833334,-21.73443,0.2376784734342081,0.4735726895981068,0.2023114209492007,13.49167,40.42871,359.1367,0.1076419,0.343962,-0.0476075,10.3799997679889,16
-29.97317,0.2833331,-21.58072,0.334611272678682,-0.2211026266822588,0.2819383660668428,3.537889,42.37238,359.8293,0.02824427,0.3612701,-0.01254482,10.3999997675419,16
-29.92934,0.4833328,-21.53711,0.2956210873447062,0.0069717455049341,0.2316892010888409,7.074876,42.35645,359.6571,0.05645423,0.3607525,-0.02507566,10.4199997670949,16
-29.88552,0.6833326,-21.49351,0.2513548089901363,0.2517727005749197,0.1778653580536975,10.61199,42.32951,359.4819,0.08461063,0.3598901,-0.03758616,10.4399997666478,16
-29.84172,0.8833327,-21.44993,0.2115246447037684,0.4610295741516376,0.1299786474914057,14.14794,42.29107,359.3026,0.1126778,0.3586845,-0.05005693,10.4599997662008,16
-29.63989,0.2833331,-21.25518,0.3532095770220635,-0.2712801929482447,0.2586449993731925,3.575274,44.47472,359.9346,0.028659,0.3782767,-0.01233373,10.4799997657537,16
-29.59537,0.4833328,-21.21146,0.3102667888763086,-0.0808411883188152,0.2105513322981487,7.149814,44.46855,359.8685,0.05728371,0.3777243,-0.02465426,10.4999997653067,16
-29.55085,0.683333,-21.16776,0.2605996477092347,0.1263242268748416,0.1571654990098103,10.72326,44.45812,359.8014,0.08584391,0.3768045,-0.03694736,10.5199997648597,16
-29.37144,0.2833331,-20.99266,0.3586889153466224,-0.3423683288412098,0.2472250874315307,3.571434,45.64859,0.06716278,0.02894884,0.3877012,-0.01154783,10.5399997644126,16
-29.3277,0.483333,-20.94826,0.2894052918825345,-0.1017497509310872,0.1773923009061668,7.141804,45.65496,0.1353596,0.05786277,0.3871364,-0.02307681,10.5599997639656,16
-29.28398,0.6833326,-20.90386,0.2080930921114756,0.1555952328389119,0.0972479035245221,10.71118,45.66571,0.2045548,0.08671239,0.386196,-0.03458066,10.5799997635186,16
-29.24027,0.8833328,-20.85948,0.1249363867588257,0.3773965285386165,0.0165626976569015,14.27945,45.68105,0.2754042,0.1154691,0.3848813,-0.04604726,10.5999997630715,16
-29.08908,0.2833332,-20.71409,0.1657935975676139,-0.3423691043618661,0.0545384859402382,3.595673,46.55616,0.09465878,0.02914546,0.3949757,-0.01163999,10.6199997626245,16
-29.04465,0.4833331,-20.66975,0.0817199100374352,-0.139385548588323,-0.025865025246528,7.190277,46.56513,0.190008,0.05825353,0.3943921,-0.02326535,10.6399997621775,16
-29.00024,0.683333,-20.62542,-0.001353162442669,0.0803247279751376,-0.1043725966350912,10.7841,46.58024,0.2866254,0.08729733,0.3934204,-0.0348672,10.6599997617304,16
-28.83407,0.2833333,-20.46493,-0.0730796062858267,0.2644915262474216,-0.1710257310383305,3.64218,47.11207,0.1119731,0.02952084,0.3994153,-0.01180493,10.6799997612834,16
-28.78883,0.4833336,-20.42025,-0.1085337240723625,0.2273792966821567,-0.2010913044375861,7.283266,47.12282,0.2248064,0.05900303,0.3988096,-0.02359457,10.6999997608364,16
-28.7436,0.6833336,-20.37557,-0.1486672840275993,0.235742403172937,-0.2336266785291272,10.92331,47.14098,0.3394879,0.08841756,0.3978014,-0.03535687,10.7199997603893,16
-28.69838,0.8833336,-20.33091,-0.1828129219634959,0.2362645431464879,-0.2583109121646352,14.56273,47.16687,0.4567992,0.1177373,0.3963915,-0.04708312,10.7399997599423,16
-28.48912,0.2833331,-20.1293,-0.0630548039122906,-0.4646843281582093,-0.1318717907976712,3.597684,48.9829,0.1960932,0.02927515,0.4143037,-0.01145667,10.7599997594953,16
-28.44401,0.4833331,-20.08553,-0.131356394505012,-0.2428831992015458,-0.1843347353369431,7.19424,49.00149,0.3936608,0.05851246,0.4136895,-0.02289874,10.7799997590482,16
-28.3989,0.6833326,-20.04177,-0.2001478210901801,-0.0043554957253753,-0.2352818689073821,10.78973,49.03288,0.5943478,0.08768404,0.412667,-0.03431496,10.7999997586012,16
-28.21143,0.2833333,-19.86087,-0.1006010851243282,-0.4416859295534852,-0.1235139745216962,3.530178,50.08916,0.2574897,0.02885641,0.4230587,-0.01100427,10.8199997581542,16
-28.16708,0.4833333,-19.81791,-0.1676022455304959,-0.1697053940591664,-0.1729208083729112,7.059236,50.11312,0.5168688,0.05767674,0.4224535,-0.0219948,10.8399997577071,16
-28.12274,0.6833333,-19.77497,-0.2384305855748607,0.1190017041937804,-0.2267187949115339,10.5871,50.15353,0.7801608,0.08643357,0.4214458,-0.03296111,10.8599997572601,16
-28.07841,0.8833333,-19.73203,-0.3031132685174569,0.3721646859321975,-0.2755474991072759,14.11331,50.21115,1.04943,0.1150962,0.4200372,-0.04389193,10.879999756813,16
-27.92162,0.2833333,-19.57999,-0.3516716642995625,0.4236839259358903,-0.3099907045462551,3.467423,50.12707,0.2905707,0.02847916,0.4233583,-0.01052051,10.899999756366,16
-27.87845,0.4833333,-19.53731,-0.3544435451855179,0.3558014037252652,-0.3092279466129106,6.933409,50.15364,0.5834386,0.05692202,0.4227731,-0.02102512,10.919999755919,16
-27.83529,0.6833333,-19.49465,-0.3571716146425245,0.3338824579176236,-0.3100411020637708,10.39811,50.19842,0.8805336,0.08530332,0.4217988,-0.03150722,10.9399997554719,16
-27.79214,0.8833333,-19.45199,-0.3501953698631865,0.3046111630716698,-0.3030129787681161,13.86154,50.26227,1.184239,0.1135981,0.4204366,-0.04195714,10.9599997550249,16
-27.59217,0.2833333,-19.25837,-0.1953117153854577,-0.4256435992977252,-0.1535964138838217,3.411795,48.87217,0.2272633,0.02792252,0.41344,-0.01051002,10.9799997545779,16
-27.54995,0.4833333,-19.21623,-0.2168081339819494,-0.2326616266247657,-0.1728712036255615,6.822104,48.8926,0.4562306,0.05580911,0.4128882,-0.02100485,10.9999997541308,16
-27.50774,0.6833332,-19.1741,-0.2373759227810765,-0.0224646915953078,-0.190593784675439,10.23134,48.92705,0.6884092,0.08363815,0.4119693,-0.03147813,11.0199997536838,16
-27.33016,0.2833333,-19.0016,-0.1032157710571546,-0.4876381986178605,-0.0586462277136661,3.356314,47.15508,0.1318207,0.02730035,0.3997871,-0.01065989,11.0399997532368,16
-27.2888,0.4833333,-18.96009,-0.1290466549347186,-0.243012707579643,-0.0815797465494014,6.711188,47.16674,0.2645682,0.05456597,0.3992722,-0.02130554,11.0599997527897,16
-27.24744,0.6833332,-18.9186,-0.1604828404395206,0.0188276155742956,-0.1108952811812749,10.06508,47.18637,0.3991345,0.08177709,0.3984148,-0.0319298,11.0799997523427,16
-27.2061,0.8833334,-18.87712,-0.1878981229530048,0.2456124671346617,-0.1375870260940424,13.41793,47.21434,0.536476,0.10891,0.397216,-0.04252365,11.0999997518957,16
-27.05639,0.2833333,-18.73311,-0.0864915661358907,-0.4686817222101717,-0.0439207439063658,3.303964,45.42252,0.01056989,0.02662883,0.3859245,-0.01104528,11.1199997514486,16
-27.01546,0.4833333,-18.69253,-0.1032964680676329,-0.2597390977583562,-0.0631810982658365,6.60695,45.42345,0.02122425,0.0532277,0.3854434,-0.02207798,11.1399997510016,16
-26.97454,0.6833335,-18.65195,-0.1150268844723179,-0.0335821114514947,-0.0785949154618563,9.908583,45.42497,0.03183439,0.07977089,0.3846424,-0.03308928,11.1599997505546,16
-26.93363,0.8833336,-18.61139,-0.1123116212988541,0.1575191587227587,-0.081202004741737,13.20928,45.42715,0.04266886,0.1062404,0.3835226,-0.04406993,11.1799997501075,16
-26.74145,0.2833334,-18.42563,-0.0725585996257223,0.1278292299500891,-0.0495621557687471,3.249078,42.91842,359.8786,0.02599717,0.3657195,-0.01135673,11.1999997496605,16
-26.70131,0.4833334,-18.38557,-0.0363863716634433,0.1441021988473715,-0.022410325515624,6.497191,42.90805,359.7565,0.05196581,0.365278,-0.02270106,11.2199997492135,16
-26.66117,0.6833333,-18.34551,0.005596616016362,0.1530223210036377,0.0093435255167317,9.744328,42.89057,359.6328,0.07788506,0.3645429,-0.0340239,11.2399997487664,16
-26.4924,0.2833333,-18.18086,0.1989692074331088,-0.5390404227295685,0.1851597039474484,3.197522,40.39586,359.7881,0.025546,0.3451778,-0.01136784,11.2599997483194,16
-26.45344,0.4833333,-18.14077,0.2032053082594451,-0.3078653542987095,0.1787447838429798,6.394057,40.37804,359.5749,0.05106461,0.344773,-0.02272315,11.2799997478724,16
-26.41449,0.6833333,-18.10068,0.2027510859317658,-0.0594757932493231,0.1677007493931697,9.589564,40.34803,359.3592,0.07653587,0.344099,-0.03405724,11.2999997474253,16
-26.22741,0.2833332,-17.91904,0.3586385788100052,-0.4864557582977561,0.3078155355107803,3.531412,41.77964,359.7973,0.02815666,0.3564531,-0.01263866,11.3199997469783,16
-26.18366,0.4833332,-17.87541,0.3382115110307424,-0.2036372873680162,0.2789452152490685,7.061836,41.76078,359.5931,0.05627891,0.3559437,-0.02526212,11.3399997465312,16
-26.13994,0.6833332,-17.83179,0.3036989774251033,0.0963955336558982,0.237611654248445,10.59247,41.72889,359.3853,0.08434875,0.3550952,-0.03786566,11.3599997460842,16
-26.09623,0.8833333,-17.7882,0.2645938491618587,0.3613723856448829,0.1931416950020086,14.12337,41.68335,359.1727,0.1123414,0.3539083,-0.05043474,11.3799997456372,16
-26.05253,0.9766707,-17.74461,0.2304116741147019,0.4251930975000163,0.1548633822254981,17.65308,41.62329,358.9534,0.1402192,0.3523847,-0.06295226,11.3999997451901,16
-25.86485,0.2833336,-17.56504,0.226720171388802,0.3700994214519476,0.1470798537196938,3.563506,44.0241,359.8771,0.02842418,0.3746511,-0.0126473,11.4199997447431,16
-25.82008,0.4833336,-17.52183,0.2133379273445506,0.3614569998098502,0.1315482535614478,7.12625,44.01252,359.7528,0.05681336,0.374107,-0.02528352,11.4399997442961,16
-25.77533,0.6833337,-17.47863,0.2002323338734939,0.3459495428067304,0.1178194645131522,10.68791,43.99297,359.6266,0.08513918,0.3732012,-0.03789177,11.459999743849,16
-25.61017,0.2833332,-17.3182,0.3266179389137065,-0.3700527408934054,0.2390249278304868,3.592779,45.4127,0.01734381,0.02897657,0.3858142,-0.01196095,11.479999743402,16
-25.56574,0.4833331,-17.27397,0.2686861624294785,-0.1623297852379912,0.1843095757970942,7.184771,45.41438,0.03526024,0.05791979,0.3852455,-0.02390401,11.499999742955,16
-25.52132,0.6833332,-17.22976,0.2047664377906457,0.0630957166899222,0.1248225850646314,10.77573,45.41723,0.05344698,0.08679774,0.3842987,-0.03582024,11.5199997425079,16
-25.34163,0.2833332,-17.0553,0.2896041290355065,-0.3863611870294791,0.2091649431979743,3.561946,46.26968,0.08223995,0.0288614,0.3926859,-0.01155111,11.5399997420609,16
-25.29772,0.4833331,-17.0113,0.2077782230562874,-0.1255312563924911,0.1338933280206546,7.122653,46.27741,0.1651837,0.05768524,0.3921168,-0.02308634,11.5599997416139,16
-25.25382,0.6833333,-16.96731,0.11485892180891,0.1530012226078209,0.0484619304978846,10.68229,46.29045,0.2494133,0.08644488,0.3911692,-0.03459575,11.5799997411668,16
-25.20993,0.8833334,-16.92334,0.0210212183675047,0.3969654788763709,-0.0374542066391594,14.24088,46.30906,0.3356185,0.1151129,0.3898444,-0.0460685,11.5999997407198,16
-25.05812,0.2833334,-16.77753,0.1272897722331727,-0.2996614997815744,0.0689512524965785,3.635499,47.04759,0.1071011,0.02945709,0.3989017,-0.01180402,11.6199997402728,16
-25.01295,0.4833334,-16.73293,0.0995881603837034,-0.0725633682793342,0.0482664473698566,7.269965,47.05786,0.2150203,0.05887618,0.3982991,-0.023593,11.6399997398257,16
-24.96779,0.6833332,-16.68835,0.0646623235757672,0.1722372069580202,0.021132127749345,10.90405,47.07516,0.3245281,0.08823254,0.3972956,-0.03535835,11.6599997393787,16
-24.92265,0.8833334,-16.64378,0.0331930682394663,0.3824692142166591,-0.0022140409067947,14.53699,47.09988,0.4367136,0.1174913,0.3958926,-0.04708461,11.6799997389317,16
-24.72816,0.2833333,-16.45685,0.1386532668326552,-0.347889920583859,0.1070014130541618,3.622461,47.99597,0.1405633,0.02937319,0.4064656,-0.01173451,11.6999997384846,16
-24.68283,0.4833333,-16.41273,0.0713642873801241,-0.1545237338769535,0.0519555195152747,7.243843,48.00939,0.282187,0.05870833,0.4058556,-0.02345409,11.7199997380376,16
-24.63751,0.6833332,-16.36863,0.0043132434501735,0.0565447739035207,-0.001719552835901,10.86414,48.03205,0.4260927,0.08797641,0.4048401,-0.03514664,11.7399997375906,16
-24.46459,0.2833332,-16.20241,0.0890771373967282,-0.4072690039153046,0.0910449404795397,3.560498,49.81378,0.2296265,0.02902031,0.4208843,-0.01126673,11.7599997371435,16
-24.41972,0.4833332,-16.15927,0.0262432549321687,-0.1607957216561002,0.0419088854769231,7.119876,49.83532,0.4609505,0.05800375,0.4202725,-0.02251932,11.7799997366965,16
-24.37486,0.6833332,-16.11614,-0.0350111074804075,0.1033800012019863,-0.0063209725040334,10.6781,49.87167,0.6958117,0.08692253,0.4192539,-0.03374696,11.7999997362494,16
-24.1878,0.2833333,-15.93563,-0.0840136722218929,0.3329873930411623,-0.0437433725235383,3.497561,50.26926,0.2745316,0.02864466,0.4244814,-0.01079418,11.8199997358024,16
-24.14394,0.4833333,-15.89294,-0.1007085446556743,0.3422922361685458,-0.0527715324087605,6.994007,50.29456,0.5510415,0.05725402,0.4238848,-0.02157504,11.8399997353554,16
-24.10009,0.6833332,-15.85026,-0.1293598687557597,0.3980483086120374,-0.0752245019855699,10.48885,50.33725,0.8317994,0.08579873,0.4228918,-0.03232982,11.8599997349083,16
-24.05626,0.8833333,-15.8076,-0.1601282283492473,0.446939429414495,-0.1016570546873634,13.98241,50.39812,1.118904,0.1142548,0.4215033,-0.04305109,11.8799997344613,16
-24.01243,0.9766705,-15.76494,-0.1831783714834252,0.4356494304250605,-0.1225988827974973,17.47466,50.47837,1.414769,0.142596,0.4197212,-0.05372928,11.8999997340143,16
-23.82704,0.2833332,-15.58552,-0.0745125248836373,-0.4148432003863467,-0.019342288432627,3.434617,49.73403,0.2755364,0.02820033,0.4202581,-0.0104214,11.9199997335672,16
-23.78443,0.4833333,-15.54312,-0.1244221752459573,-0.2424902836027961,-0.0674751409931371,6.867671,49.75898,0.5532411,0.05636409,0.4196885,-0.02082656,11.9399997331202,16
-23.74183,0.6833331,-15.50073,-0.1709629976707454,-0.0529229356186054,-0.112234661637423,10.29962,49.80104,0.8349161,0.0844692,0.4187402,-0.03120998,11.9599997326732,16
-23.57813,0.2833332,-15.34253,-0.0764656138115604,-0.5387258980517721,-0.0198653249332672,3.382581,48.0622,0.1730236,0.02757072,0.4070139,-0.01064072,11.9799997322261,16
-23.53625,0.4833333,-15.30084,-0.120451809160599,-0.3147293471237059,-0.0604971625740198,6.763689,48.0776,0.3471835,0.05510561,0.4064808,-0.02126764,11.9999997317791,16
-23.49438,0.6833335,-15.25917,-0.1645033514030593,-0.0735181830063862,-0.1011026907069094,10.14375,48.10358,0.5237548,0.08258447,0.4055932,-0.03187288,12.0199997313321,16
-23.31688,0.2833334,-15.08718,-0.1990439455797776,0.1326368221596875,-0.1326246434648208,3.329315,46.34826,0.07395064,0.02695959,0.3933435,-0.0108388,12.039999730885,16
-23.27575,0.4833333,-15.04615,-0.2002130024624158,0.1180012100628891,-0.134081728475941,6.65725,46.35475,0.1484061,0.05388541,0.3928455,-0.02166372,12.059999730438,16
-23.23462,0.6833335,-15.00513,-0.2110961655970804,0.1493289972590448,-0.1462165620901121,9.9842,46.36567,0.2238562,0.08075789,0.3920162,-0.03246719,12.079999729991,16
-23.19351,0.8833334,-14.96413,-0.2219933285261319,0.1733038811748759,-0.1598333527831634,13.31021,46.38122,0.300828,0.1075548,0.3908568,-0.04324044,12.0999997295439,16
-22.97361,0.2833334,-14.75154,-0.0697246387571084,-0.5037038622708409,-0.0188305597937326,3.274703,44.18266,359.9332,0.02625634,0.3759459,-0.01128614,12.1199997290969,16
-22.93295,0.4833333,-14.71139,-0.0453606231943553,-0.2574742993571379,-0.0006978901801986,6.548436,44.1769,359.8659,0.0524835,0.3754853,-0.02255974,12.1399997286499,16
-22.89231,0.6833334,-14.67124,-0.0254624287933005,0.0059696644402841,0.0118579216945633,9.820832,44.16718,359.7977,0.07865674,0.3747185,-0.03381145,12.1599997282028,16
-22.85168,0.8833333,-14.63111,-0.0003701451454922,0.2343577248894314,0.0281783714999939,13.0923,44.15336,359.7281,0.1047585,0.3736463,-0.04503245,12.1799997277558,16
-22.696,0.2833333,-14.47995,0.0395810254532627,0.2615891660580619,0.0575729130611062,3.21856,41.3264,359.8179,0.02571633,0.3527761,-0.01139637,12.1999997273088,16
-22.65654,0.4833333,-14.43988,0.0756257394201505,0.1699064204779681,0.0819356305719516,6.436139,41.31099,359.6347,0.05140486,0.3523575,-0.02278007,12.2199997268617,16
-22.61709,0.6833333,-14.39982,0.1066349355513835,0.124674904736693,0.1006041342578356,9.652703,41.28502,359.4492,0.07704517,0.3516604,-0.03414245,12.2399997264147,16
-22.44567,0.2833333,-14.23334,0.1422376062276953,0.0725784501606679,0.1230529134791957,3.372806,41.04366,359.7981,0.02694398,0.3504604,-0.01196615,12.2599997259676,16
-22.40434,0.4833333,-14.19124,0.166645677148395,0.0402752755090938,0.1351555310138472,6.744632,41.02573,359.5948,0.05385706,0.3500035,-0.02391858,12.2799997255206,16
-22.36303,0.6833334,-14.14916,0.1814883950773449,0.0544231332007928,0.1387701176322018,10.11543,40.99551,359.3888,0.08071579,0.3492428,-0.03584696,12.2999997250736,16
-22.32174,0.8833333,-14.10709,0.1965290876968808,0.0617061875255702,0.1435278088073435,13.48646,40.95247,359.1784,0.1075076,0.3481787,-0.04774485,12.3199997246265,16
-22.10505,0.2833335,-13.89861,0.1946245755291116,0.088782510536633,0.1332451645449417,3.532993,43.2715,359.8477,0.02816458,0.3685672,-0.01260082,12.3399997241795,16
-22.06083,0.4833336,-13.85553,0.1754246284965788,0.1623099480428415,0.1079349562816496,7.065506,43.25727,359.6937,0.05629699,0.3680406,-0.02519237,12.3599997237325,16
-22.01663,0.6833335,-13.81247,0.1489355800469667,0.2289726648567089,0.0772661023830121,10.59772,43.23325,359.5373,0.0843737,0.3671637,-0.03775942,12.3799997232854,16
-21.97244,0.8833333,-13.76943,0.1251740435019641,0.2354545862174165,0.0509437708379021,14.12886,43.19896,359.3772,0.1123622,0.3659377,-0.05028706,12.3999997228384,16
-21.82129,0.2833333,-13.62402,0.3045403763920831,-0.5972662385421046,0.2217806484045539,3.57675,44.7575,359.938,0.02865187,0.3805576,-0.01238139,12.4199997223914,16
-21.77658,0.4833332,-13.58046,0.3129943356245732,-0.4071410287194238,0.2295564931400857,7.152826,44.75167,359.8756,0.05727055,0.3800014,-0.02474821,12.4399997219443,16
-21.73188,0.6833332,-13.53692,0.3133506203735479,-0.1998014711547397,0.2304589353941661,10.72788,44.74182,359.8123,0.08582528,0.3790753,-0.03708756,12.4599997214973,16
-21.56705,0.2833333,-13.37674,0.3160509690180078,-0.0275178706027621,0.2344598100546004,3.571953,45.88303,0.06733689,0.02892992,0.389585,-0.0116074,12.4799997210503,16
-21.52313,0.4833331,-13.3325,0.3082139416090967,-0.0760248972450596,0.2289964490933407,7.142878,45.88941,0.1356763,0.05782511,0.3890173,-0.02319624,12.4999997206032,16
-21.47922,0.6833331,-13.28828,0.2921192657126177,-0.0785687863827182,0.2167273934303928,10.71275,45.90019,0.2050737,0.08665574,0.388072,-0.03475918,12.5199997201562,16
-21.43533,0.8833331,-13.24407,0.2783950851840195,-0.0884656266282493,0.207772595255685,14.28159,45.91557,0.2761146,0.1153941,0.3867505,-0.04628505,12.5399997197092,16
-21.2259,0.2833332,-13.04216,0.1148359401907015,0.5612571811886435,0.0557831695869541,3.608353,46.99659,0.1082933,0.02924935,0.3984967,-0.01168696,12.5599997192621,16
-21.18114,0.4833332,-12.99783,0.1259249708682581,0.3263530657543693,0.0708341072333844,7.215634,47.00688,0.2174101,0.05846107,0.3979036,-0.02335897,12.5799997188151,16
-21.13639,0.6833332,-12.95352,0.1319775515521755,0.1128448268710033,0.0813353991869902,10.82223,47.02423,0.3280222,0.08760864,0.396916,-0.03500756,12.5999997183681,16
-20.94784,0.2833335,-12.77159,0.1439195765479191,-0.1336285702091662,0.0977139738388821,3.633145,47.41395,0.1122358,0.02941841,0.4018285,-0.01184888,12.619999717921,16
-20.90248,0.4833336,-12.72724,0.1026244082628622,-0.1473586270795203,0.0639189492978076,7.26522,47.42469,0.2253058,0.05879853,0.4012222,-0.02368272,12.639999717474,16
-20.85714,0.6833336,-12.68292,0.0463139595550252,-0.1151251996301654,0.0171353127662445,10.89624,47.44283,0.3402099,0.08811135,0.4002129,-0.03548924,12.6599997170269,16
-20.81181,0.8833336,-12.6386,-0.0141269424952383,-0.0902445904343813,-0.0322878904773258,14.52646,47.4687,0.4577298,0.1173289,0.3988015,-0.04725922,12.6799997165799,16
-20.7665,0.9766706,-12.5943,-0.0678262335324397,-0.1260326357250658,-0.0739994720620877,18.15558,47.50289,0.5791546,0.1464202,0.3969902,-0.05897826,12.6999997161329,16
-20.57983,0.2833334,-12.41556,-0.1239565840761756,-0.1691732591732864,-0.1186243089345016,3.57976,49.57151,0.2148549,0.02914258,0.418968,-0.01139277,12.7199997156858,16
-20.53472,0.4833335,-12.37221,-0.1798759358517472,-0.1663506240234369,-0.1625170184130908,7.158401,49.59179,0.4313349,0.05824793,0.4183527,-0.02277098,12.7399997152388,16
-20.48962,0.6833333,-12.32887,-0.2246266489091013,-0.1708807927527566,-0.1954885118000593,10.73593,49.626,0.6511664,0.08728805,0.4173283,-0.03412382,12.7599997147918,16
-20.3248,0.2833334,-12.17026,-0.4057069155586497,0.4842083002139014,-0.3591172898715395,3.514171,50.31133,0.2658437,0.02873962,0.4248136,-0.01093488,12.7799997143447,16
-20.28059,0.4833333,-12.12754,-0.4070836781650158,0.2546709618823389,-0.3545387472789194,7.02723,50.33595,0.5336291,0.05744363,0.4242111,-0.02185614,12.7999997138977,16
-20.23639,0.6833333,-12.08483,-0.4017560202513976,0.0465296185815906,-0.3458879284608471,10.53876,50.37747,0.805459,0.0860824,0.4232082,-0.03275196,12.8199997134507,16
-20.05744,0.2833335,-11.91177,-0.3794126707200647,-0.1945768706323846,-0.3233889346688645,3.453608,50.17133,0.2904737,0.02836561,0.4237098,-0.01048118,12.8399997130036,16
-20.01442,0.4833335,-11.86928,-0.4021511507274766,-0.2029401402072687,-0.3455649531169573,6.905684,50.19778,0.5832638,0.0566946,0.4231288,-0.02094592,12.8599997125566,16
-19.97141,0.6833335,-11.82681,-0.4307031172324826,-0.1653401927391648,-0.3743099791389959,10.3566,50.24237,0.8802684,0.08496377,0.4221614,-0.03138866,12.8799997121096,16
-19.92841,0.8833336,-11.78434,-0.4554361976926167,-0.1350927715936388,-0.4001913938239028,13.80625,50.30593,1.183797,0.1131472,0.4208088,-0.04179978,12.8999997116625,16
-19.707,0.2833333,-11.57027,-0.466722732625918,-0.1655137124808806,-0.4137719157279047,3.402315,48.55525,0.1988109,0.02777407,0.4109296,-0.01062499,12.9199997112155,16
-19.6648,0.4833334,-11.52838,-0.4006948497747054,-0.2032878173913497,-0.3514873252589439,6.803172,48.57307,0.3990267,0.0555123,0.4103847,-0.02123554,12.9399997107685,16
-19.62261,0.6833334,-11.4865,-0.3400349428511653,-0.195098529804036,-0.2930104636870769,10.20299,48.6031,0.6020384,0.08319366,0.4094774,-0.03182439,12.9599997103214,16
-19.58044,0.8833333,-11.44463,-0.2747629530683717,-0.1942620189152106,-0.2287677358267377,13.60171,48.64588,0.8093846,0.1107937,0.4082088,-0.04238208,12.9799997098744,16
-19.42391,0.2833335,-11.2936,-0.3391022011043354,0.4661937675212879,-0.2892273306952155,3.343438,46.8864,0.1086338,0.02714176,0.3976449,-0.01073673,12.9999997094274,16
-19.38263,0.4833335,-11.25235,-0.280216565572907,0.2420233632783111,-0.2342779773689827,6.685456,46.89597,0.2180538,0.05424929,0.3971369,-0.0214591,13.0199997089803,16
-19.34136,0.6833335,-11.21111,-0.2160807457878846,0.0392491023402606,-0.1754412792645716,10.0265,46.9121,0.3289506,0.08130293,0.396291,-0.03216014,13.0399997085333,16
-19.3001,0.8833336,-11.16988,-0.1367275240928016,-0.1964903814358348,-0.1033190864106678,13.36653,46.93505,0.4421393,0.1082796,0.3951083,-0.04283065,13.0599997080863,16
-19.10054,0.2833333,-10.97797,-0.1009599485575378,-0.1994863879661695,-0.0741992091419039,3.286217,44.63654,359.9577,0.02638553,0.3796048,-0.0112304,13.0799997076392,16
-19.05974,0.4833333,-10.93769,-0.0687950942268926,-0.1565190244750539,-0.0493965809789447,6.571458,44.63288,359.9151,0.05274162,0.3791366,-0.0224481,13.0999997071922,16
-19.01894,0.6833333,-10.89743,-0.0307092154632577,-0.1209042584815722,-0.0197841566188028,9.855343,44.62669,359.8718,0.07904285,0.3783571,-0.03364439,13.1199997067451,16
-18.84264,0.2833333,-10.72644,-0.1498133505861325,0.5743294846818829,-0.1414660276255794,3.231083,42.20076,359.8545,0.02584538,0.359893,-0.01133402,13.1399997062981,16
-18.8029,0.4833334,-10.68639,-0.089480648564816,0.3849361667741668,-0.0923299255795786,6.461168,42.18839,359.708,0.0516624,0.3594631,-0.02265551,13.1599997058511,16
-18.76317,0.6833334,-10.64634,-0.0372646126584861,0.2169389200380249,-0.0517732120379026,9.690281,42.16755,359.5598,0.0774309,0.3587473,-0.03395562,13.179999705404,16
-18.72345,0.8833333,-10.60631,0.0164158435588159,0.0159764829586931,-0.0104771542824249,12.91807,42.13799,359.409,0.1031287,0.3577467,-0.04522206,13.199999704957,16
-18.57309,0.2833334,-10.46104,0.2331881460937097,-0.7845802077582419,0.1866940073607157,3.283226,40.7804,359.7948,0.02622896,0.3483163,-0.01165889,13.21999970451,16
-18.53296,0.4833334,-10.41998,0.2818515359779461,-0.5627789706015481,0.2235692863546878,6.565485,40.76267,359.5883,0.05242898,0.3478858,-0.02330473,13.2399997040629,16
-18.49283,0.6833333,-10.37894,0.3231716024660187,-0.3242510537744367,0.2541858644808616,9.846732,40.73281,359.3792,0.07857843,0.3471692,-0.03492815,13.2599997036159,16
-18.45272,0.8833331,-10.33792,0.366875249381895,-0.1212670026503561,0.2881035261753775,13.12745,40.69035,359.166,0.1046606,0.346167,-0.04651978,13.2799997031689,16
-18.25595,0.2833333,-10.14993,0.2789326877418752,0.6003608206124835,0.1964928493937261,3.525947,42.89616,359.8333,0.02810246,0.3655261,-0.01260319,13.2999997027218,16
-18.21189,0.4833333,-10.10682,0.3478008649110968,0.3253127457366669,0.2574540027955816,7.050902,42.88066,359.6653,0.05617054,0.365006,-0.02519116,13.3199997022748,16
-18.16786,0.6833333,-10.06372,0.4126979790542311,0.0716607922121469,0.3169602273463257,10.57675,42.85442,359.494,0.08419106,0.3641392,-0.03776332,13.3399997018278,16
-17.9944,0.2833334,-9.897431,0.3219631074568312,0.5053314680006092,0.2282989326397331,3.564736,44.42728,359.896,0.0284517,0.3779043,-0.01259881,13.3599997013807,16
-17.94956,0.4833335,-9.854283,0.3592459712554081,0.294471596098291,0.2631976000892502,7.128726,44.41749,359.791,0.05686925,0.3773553,-0.02518468,13.3799997009337,16
-17.90473,0.6833336,-9.811147,0.3887733061371179,0.1050076972731555,0.2920854998064488,10.69168,44.40097,359.6843,0.08522373,0.3764414,-0.03774257,13.3999997004867,16
-17.85991,0.8833337,-9.768023,0.4208348738700849,-0.1174215967085898,0.3247711430042113,14.25358,44.37739,359.5752,0.1134877,0.3751636,-0.05026036,13.4199997000396,16
-17.64395,0.2833333,-9.559018,0.3960608917082471,-0.1071073216226491,0.3037094376253542,3.576616,45.98732,0.06083814,0.02893464,0.3904237,-0.01170179,13.4399996995926,16
-17.59981,0.4833333,-9.514885,0.3524164673201753,-0.0508299870022972,0.2658062609700113,7.152313,45.9931,0.1226806,0.05783554,0.3898533,-0.02338487,13.4599996991456,16
-17.55569,0.6833332,-9.470764,0.3001905871276999,-0.001905430648549,0.2208032702236328,10.72699,46.00287,0.1854895,0.08667195,0.3889036,-0.03504181,13.4799996986985,16
-17.51157,0.8833331,-9.426656,0.2496725250407117,-0.0136492641180783,0.1784432838487699,14.30063,46.01681,0.2497668,0.1154158,0.3875757,-0.04666148,13.4999996982515,16
-17.36031,0.2833333,-9.281807,0.2649760339624194,-0.0327457856003996,0.2000793484342349,3.597065,46.83924,0.09180371,0.02911786,0.3972432,-0.01173963,13.5199996978045,16
-17.31562,0.4833333,-9.237704,0.2643953517620563,-0.0058789597989628,0.2065458264622677,7.193086,46.84794,0.1842841,0.05819856,0.3966558,-0.02346451,13.5399996973574,16
-17.27094,0.6833333,-9.193614,0.2587399313935652,0.0136349229965375,0.2081118659404248,10.78829,46.86261,0.2780561,0.08721492,0.3956778,-0.03516499,13.5599996969104,16
-17.10448,0.2833335,-9.033682,0.2587979604106909,-0.0275199750149178,0.2150425177366619,3.64262,47.35636,0.1104732,0.02949387,0.4013679,-0.01188136,13.5799996964633,16
-17.05903,0.4833336,-8.989202,0.208103215168542,-0.0760270193420832,0.1742485812941359,7.28418,47.36697,0.221809,0.05894943,0.4007592,-0.02374733,13.5999996960163,16
-17.01359,0.6833337,-8.944734,0.1475891866253391,-0.0785707067154382,0.1251328691166309,10.92467,47.38488,0.3349108,0.0883369,0.3997458,-0.03558613,13.6199996955693,16
-16.96816,0.8833336,-8.90028,0.0880033435797855,-0.0884672191375314,0.0779260938085188,14.56454,47.41043,0.4506879,0.1176301,0.3983287,-0.04738803,13.6399996951222,16
-16.75864,0.2833334,-8.699444,-0.122574550858113,0.5612555094894836,-0.1140999299537508,3.597902,49.18858,0.1948297,0.02925168,0.415936,-0.01152002,13.6599996946752,16
-16.71335,0.4833334,-8.655849,-0.157995633659949,0.3263515599270745,-0.1385043027333043,7.194715,49.20705,0.3911514,0.05846595,0.4153193,-0.02302527,13.6799996942282,16
-16.66807,0.6833335,-8.612266,-0.1987260535492439,0.1128437047966305,-0.167563073992218,10.79038,49.23824,0.5905562,0.08761382,0.4142927,-0.03450436,13.6999996937811,16
-16.48034,0.2833333,-8.432079,-0.2337391821679073,-0.1336293035649183,-0.1910031388425954,3.530363,50.27766,0.2567447,0.02883697,0.4245479,-0.0110583,13.7199996933341,16
-16.43583,0.4833333,-8.389274,-0.2346943392671328,-0.1473590862762613,-0.1827796125670762,7.059603,50.30154,0.5153683,0.05763784,0.4239405,-0.0221028,13.7399996928871,16
-16.39134,0.6833335,-8.34648,-0.2375219405544246,-0.1151256192755265,-0.1785090166654903,10.58764,50.34184,0.7779048,0.0863752,0.4229292,-0.03312284,13.75999969244,16
-16.34685,0.8833334,-8.303698,-0.2316125985882795,-0.0902447393183185,-0.1682412956438908,14.11404,50.3993,1.04644,0.1150187,0.4215155,-0.044107,13.779999691993,16
-16.30238,0.9766704,-8.260926,-0.2063104922596021,-0.1260323760275749,-0.1419991558271824,17.63912,50.47509,1.323341,0.1435445,0.419701,-0.05504609,13.799999691546,16
-16.11685,0.2833333,-8.081923,-0.1464621291117662,-0.1691727993667224,-0.0830055006002519,3.46141,50.23103,0.29111,0.02842411,0.4241802,-0.01051982,13.8199996910989,16
-16.07369,0.4833333,-8.039383,-0.0943673086001464,-0.1663499596648044,-0.03312465217964,6.921227,50.2576,0.5845785,0.05681108,0.4235959,-0.02102268,13.8399996906519,16
-16.03054,0.6833333,-7.996855,-0.0398288139570404,-0.1708799199217672,0.0175134640247307,10.37988,50.3024,0.8823067,0.08513787,0.4226231,-0.03150322,13.8599996902049,16
-15.86649,0.2833334,-7.838834,-0.1280647004742423,0.4842093715858468,-0.0691146632784889,3.407179,49.05517,0.2224649,0.02785169,0.4148946,-0.01057595,13.8799996897578,16
-15.82413,0.4833333,-7.796946,-0.0919981374194325,0.2546721946831511,-0.0351974153924334,6.81289,49.07514,0.4464759,0.0556673,0.4143423,-0.02113768,13.8999996893108,16
-15.78179,0.6833333,-7.755069,-0.0577355615618788,0.0465309618474897,-0.0013784474569371,10.21752,49.10879,0.6736264,0.08342558,0.4134229,-0.03167767,13.9199996888638,16
-15.60404,0.2833332,-7.583282,-0.0152122358310204,-0.1945758152029561,0.0419834084609869,3.355016,47.32581,0.1303469,0.02726891,0.4011521,-0.01070779,13.9399996884167,16
-15.56255,0.4833331,-7.541933,-0.1598142827456072,0.4373751414351477,-0.0946109651375399,6.708618,47.33733,0.2616538,0.05450348,0.4006358,-0.02140102,13.9599996879697,16
-15.52107,0.683333,-7.500596,-0.1306444261236912,0.1846996516165765,-0.0671964797497919,10.06121,47.35675,0.3947182,0.08168335,0.3997762,-0.03207301,13.9799996875226,16
-15.47961,0.8833331,-7.45927,-0.1065344889703734,-0.0465796182336009,-0.0459070612248115,13.41279,47.38439,0.5305506,0.1087854,0.3985742,-0.04271434,13.9999996870756,16
-15.25907,0.2833333,-7.246789,-0.0774495371377543,-0.3108240214520775,-0.0212601505011758,3.300313,45.12352,359.9813,0.02653002,0.3835243,-0.0111997,14.0199996866286,16
-15.21804,0.4833334,-7.2064,-0.0158286013904227,-0.3423252981601469,0.0343413040138429,6.599636,45.12189,359.9624,0.05303004,0.3830473,-0.02238691,14.0399996861815,16
-15.17701,0.6833332,-7.16602,0.0388450561712119,-0.3278633170542069,0.0820636254532365,9.897642,45.11913,359.9431,0.07947506,0.382253,-0.03355229,14.0599996857345,16
-15.136,0.8833332,-7.125651,0.0965920911244584,-0.3207541411342003,0.1314976635096467,13.19469,45.11519,359.9234,0.1058466,0.3811425,-0.04468675,14.0799996852875,16
-14.97995,0.2833334,-6.975146,0.0212224338276261,0.345974054556273,0.0531534157960367,3.243539,43.09094,359.8905,0.02597317,0.3671174,-0.01128173,14.0999996848404,16
-14.9399,0.4833335,-6.935126,0.1426022716843373,0.1280758822830083,0.161565535941607,6.4861,43.0816,359.7804,0.05191781,0.3666759,-0.02255097,14.1199996843934,16
-14.89986,0.6833334,-6.895117,0.2555569252438019,-0.068426366047386,0.2604887417986479,9.727709,43.06586,359.6688,0.07781343,0.3659407,-0.03379891,14.1399996839464,16
-14.85983,0.8833332,-6.855118,0.3703171950991883,-0.2978937257053297,0.3598685631030438,12.968,43.04353,359.5554,0.1036372,0.3649129,-0.04501358,14.1599996834993,16
-14.66029,0.2833333,-6.662253,0.3001183492327879,0.3456964958695188,0.2819045670546609,3.26877,40.68257,359.7852,0.02609155,0.3475195,-0.01167117,14.1799996830523,16
-14.62027,0.4833333,-6.621437,0.3496367894100096,0.1046598928102953,0.3182530939835422,6.536557,40.66409,359.5691,0.05215431,0.3470936,-0.02332945,14.1999996826053,16
-14.58026,0.6833333,-6.580631,0.3930946689332781,-0.1149807489326173,0.3489620890474167,9.803309,40.63297,359.3502,0.07816707,0.3463845,-0.03496516,14.2199996821582,16
-14.39957,0.2833333,-6.406657,0.2695734984912157,0.3527016644681622,0.2199271235372331,3.530587,42.29506,359.812,0.02813907,0.360646,-0.01264302,14.2399996817112,16
-14.35564,0.4833333,-6.363268,0.141338962296464,0.816167497564833,0.0870359246773855,7.060187,42.27757,359.6226,0.05624381,0.3601312,-0.02527063,14.2599996812642,16
-14.31173,0.6833333,-6.3199,0.1843221120149412,0.3704393609400769,0.1199443458106817,10.59071,42.24798,359.4298,0.08430169,0.3592733,-0.03788111,14.2799996808171,16
-14.26784,0.8833332,-6.276544,0.220128141248086,-0.0795050507288065,0.1481178692113056,14.12022,42.20577,359.2326,0.1122722,0.3580737,-0.05045225,14.2999996803701,16
-14.04353,0.2833333,-6.061495,0.259204320340924,-0.461026030296254,0.1816577568644302,3.565465,44.41816,359.8957,0.02845752,0.3778306,-0.01260159,14.3199996799231,16
-13.99868,0.4833333,-6.018336,0.2870329496154458,-0.5106830028385378,0.2051843068167627,7.130167,44.40832,359.7902,0.05688025,0.3772815,-0.02519131,14.339999679476,16
-13.95384,0.6833332,-5.97519,0.3028508094153608,-0.5148647246128795,0.2184361088437927,10.69383,44.39172,359.683,0.08523982,0.3763673,-0.03775312,14.359999679029,16
-13.90902,0.8833331,-5.932056,0.3173187823810295,-0.5268869251331454,0.2315958023292825,14.25643,44.36802,359.5733,0.1135087,0.3750892,-0.05027494,14.379999678582,16
-13.75137,0.2833334,-5.779129,0.1959689565290077,0.1202223149925193,0.1161841700420516,3.58948,45.75312,0.05463194,0.02904083,0.3885425,-0.01173613,14.3999996781349,16
-13.70717,0.4833334,-5.734734,0.2696314316786665,-0.1177830296707479,0.1887149190615109,7.178162,45.75834,0.1103157,0.05804887,0.3879708,-0.0234531,14.4199996776879,16
-13.66299,0.6833333,-5.690352,0.3337753272630372,-0.3348801593208679,0.2534076867345951,10.76581,45.76717,0.1668708,0.08699172,0.3870189,-0.03514372,14.4399996772408,16
-13.61882,0.8833331,-5.645982,0.2370157526057923,0.134857794147898,0.1649226317546523,14.35245,45.77977,0.22478,0.1158412,0.3856879,-0.04679658,14.4599996767938,16
-13.41698,0.2833333,-5.452287,0.1353543246093167,0.5998914225775052,0.0724662097082839,3.586926,46.84744,0.09904292,0.02906098,0.3973081,-0.01164862,14.4799996763468,16
-13.3725,0.4833333,-5.408222,0.1624907350515378,0.1552434843020445,0.1019113387032653,7.172842,46.85678,0.1986484,0.0580847,0.3967239,-0.02328409,14.4999996758997,16
-13.32804,0.6833333,-5.36417,0.190771321596733,-0.2941087641154704,0.1324427881480083,10.7577,46.87256,0.2998103,0.08704315,0.3957512,-0.03489337,14.5199996754527,16
-13.14666,0.2833333,-5.189822,0.0164577906690688,0.1568116937919356,-0.0306965686106828,3.639695,47.38361,0.1128985,0.02947618,0.4015852,-0.01185875,14.5399996750057,16
-13.10125,0.4833333,-5.145367,-0.0209643305742126,-0.0372863787317059,-0.0620744454508677,7.278317,47.39443,0.2266727,0.05891401,0.4009772,-0.02370214,14.5599996745586,16
-13.05585,0.6833332,-5.100923,-0.0661677152662782,-0.2104760073843287,-0.0996789787010592,10.91589,47.41272,0.342291,0.08828419,0.3999647,-0.03551821,14.5799996741116,16
-13.01047,0.883333,-5.056494,-0.1079702737353063,-0.4171188789887057,-0.1328821185927551,14.55288,47.43881,0.460575,0.1175604,0.3985491,-0.04729814,14.5999996736646,16
-12.78571,0.2833334,-4.841161,-0.2733073577706904,0.248807459442176,-0.2832834335454621,3.597049,49.2333,0.1957706,0.02924384,0.4162904,-0.01152087,14.6199996732175,16
-12.7404,0.4833334,-4.797598,-0.2431246635028916,0.0296194537028653,-0.2457932046527897,7.192995,49.25185,0.3930351,0.05845016,0.4156735,-0.02302697,14.6399996727705,16
-12.69511,0.6833335,-4.754049,-0.2134500650714041,-0.1686602441559597,-0.2077375600437512,10.7878,49.28318,0.5933815,0.08759013,0.4146464,-0.03450704,14.6599996723235,16
-12.64984,0.8833334,-4.710509,-0.1726855647865086,-0.4003928684683879,-0.1582603874621351,14.38122,49.32783,0.7982232,0.1166327,0.4132105,-0.04595131,14.6799996718764,16
-12.49212,0.2833333,-4.559571,-0.3007416144923844,0.2404439275562707,-0.2700254923430116,3.529735,50.33781,0.2572365,0.02882803,0.4250228,-0.01106722,14.6999996714294,16
-12.44759,0.4833333,-4.516813,-0.2949078644466603,-0.0038337288764063,-0.2579358509712639,7.058357,50.36173,0.5163627,0.05762008,0.4244149,-0.02212061,14.7199996709824,16
-12.40306,0.6833333,-4.474067,-0.2765043724258458,-0.2272031713413486,-0.2356531396284062,10.58578,50.40209,0.7793915,0.08634865,0.4234028,-0.03314968,14.7399996705353,16
-12.35855,0.8833332,-4.431331,-0.4035838166854422,0.2362623482191661,-0.3528830411681496,14.11156,50.45965,1.048413,0.1149833,0.421988,-0.04414294,14.7599996700883,16
-12.15806,0.2833333,-4.238335,-0.5205889496529856,0.6950235145144272,-0.4611248272875552,3.461614,50.26451,0.2907937,0.02842148,0.4244446,-0.01053137,14.7799996696413,16
-12.11487,0.4833334,-4.195822,-0.4563228542453554,0.2441030586978423,-0.3990149885770961,6.921628,50.29105,0.5839552,0.05680579,0.4238599,-0.02104566,14.7999996691942,16
-12.07169,0.6833333,-4.153322,-0.3810060598933891,-0.2115216431422593,-0.3280403842215953,10.38049,50.33581,0.8813545,0.08512998,0.4228864,-0.03153779,14.8199996687472,16
-11.89321,0.2833334,-3.981456,-0.5009351331192633,0.2331264521190704,-0.4443943220231672,3.407196,49.10952,0.2227993,0.02784802,0.4153257,-0.01058657,14.8399996683002,16
-11.85082,0.4833333,-3.939603,-0.4789724499327921,0.0327560148585333,-0.4233628629954586,6.812927,49.12951,0.4471322,0.05565994,0.4147729,-0.02115903,14.8599996678531,16
-11.80845,0.6833334,-3.897762,-0.4592904491208891,-0.1467060868181338,-0.4026150065234415,10.21758,49.16322,0.6746274,0.08341456,0.4138524,-0.03170956,14.8799996674061,16
-11.76608,0.8833334,-3.855933,-0.4318886349845474,-0.3596212062476196,-0.3725988131085218,13.62109,49.21123,0.9069794,0.1110873,0.4125656,-0.04222905,14.899999666959,16
-11.5449,0.2833333,-3.642703,-0.522238199483807,0.3000328705064569,-0.4555715548903305,3.351718,46.92747,0.1054543,0.02719313,0.3979734,-0.01080066,14.919999666512,16
-11.50344,0.4833333,-3.601423,-0.415624537182925,0.0745725902840603,-0.3520005932691321,6.702006,46.93678,0.2117017,0.05435186,0.3974624,-0.02158662,14.939999666065,16
-11.462,0.6833333,-3.560155,-0.3084712877844815,-0.1299794872087685,-0.2492389530542917,10.05131,46.95248,0.3193916,0.08145636,0.3966118,-0.03235101,14.9599996656179,16
-11.42057,0.8833332,-3.518899,-0.1904310682134244,-0.3679844757353849,-0.1375615084915946,13.39963,46.97483,0.429313,0.1084836,0.3954223,-0.04308466,14.9799996651709,16
-11.2638,0.2833332,-3.369096,-0.2404421765755255,0.2665798519695775,-0.1865191249199203,3.293879,45.20721,359.9789,0.02646198,0.3841995,-0.01121685,14.9999996647239,16
-11.22276,0.4833333,-3.328877,-0.16655916589667,0.0160298365497637,-0.1199498185326681,6.586766,45.20538,359.9576,0.05289408,0.3837235,-0.02242116,15.0199996642768,16
-11.18173,0.6833332,-3.288667,-0.0865101317692857,-0.2136119750950709,-0.0488105671862928,9.878292,45.20226,359.9358,0.07927094,0.3829309,-0.03360399,15.0399996638298,16
-11.01182,0.2833333,-3.124926,-0.1547434857785301,0.2435811656154985,-0.1200735716624177,3.241885,43.17162,359.8898,0.02594951,0.3677722,-0.0113005,15.0599996633828,16
-10.97173,0.4833333,-3.084991,-0.2170728285461471,0.6960698371944427,-0.1864051786158282,6.48281,43.16222,359.7789,0.05187069,0.3673303,-0.02258853,15.0799996629357,16
-10.93165,0.6833332,-3.045067,-0.1050972624126291,0.2388769041721707,-0.0885196005820569,9.722757,43.14639,359.6667,0.07774278,0.3665946,-0.03385507,15.0999996624887,16
-10.89157,0.883333,-3.005153,0.0118158700391415,-0.2230201239859762,0.0128119967883709,12.96142,43.12393,359.5525,0.1035433,0.365566,-0.04508851,15.1199996620417,16
-10.67854,0.2833333,-2.799304,-0.0717925129367156,0.2153554362235972,-0.0780118065211014,3.26813,40.75257,359.7849,0.0260781,0.348092,-0.01168808,15.1399996615946,16
-10.63847,0.4833333,-2.758548,-0.0192319479269738,0.0087125614829891,-0.0389835980243811,6.535268,40.73406,359.5684,0.05212738,0.3476657,-0.02336319,15.1599996611476,16
-10.59841,0.6833333,-2.717804,0.0251223792900727,-0.1770223469651541,-0.007601155787715,9.801376,40.7029,359.3491,0.07812668,0.3469557,-0.03501579,15.1799996607006,16
-10.55837,0.8833332,-2.677074,0.0710184610899311,-0.3962102038205244,0.0256671377705933,13.06677,40.65862,359.1258,0.1040585,0.3459631,-0.04663561,15.1999996602535,16
-10.40429,0.2833333,-2.53058,-0.0068108172106775,0.2571715639519037,-0.0585861613720249,3.530251,42.35544,359.8117,0.02812884,0.3611373,-0.01265894,15.2199996598065,16
-10.36031,0.4833333,-2.487245,0.1041057764224149,0.0254388706423573,0.0393631585010283,7.059512,42.33793,359.6221,0.0562233,0.3606219,-0.02530254,15.2399996593595,16
-10.31636,0.6833333,-2.44393,0.2072889559350992,-0.1853856168013903,0.1321255940993289,10.58969,42.3083,359.429,0.08427085,0.3597629,-0.03792897,15.2599996589124,16
-10.27243,0.8833333,-2.400629,0.3130598454229396,-0.4296631449969969,0.2296612581181799,14.11886,42.26603,359.2315,0.1122312,0.3585619,-0.05051611,15.2799996584654,16
-10.07713,0.2833334,-2.214729,0.2444611873820319,0.1986287400879595,0.1615356507779642,3.565377,44.50252,359.896,0.02844856,0.3785117,-0.0126197,15.2999996580184,16
-10.03222,0.4833334,-2.171634,0.292913568915174,-0.0581940605852886,0.2052706889441413,7.129989,44.49271,359.7908,0.0568623,0.3779616,-0.0252276,15.3199996575713,16
-9.987319,0.6833333,-2.128551,0.339712332542498,-0.2941085342993054,0.2487492831974868,10.69358,44.47616,359.684,0.08521302,0.3770458,-0.03780759,15.3399996571243,16
-9.814624,0.2833333,-1.96158,0.232741362732197,0.1568118402365808,0.1464758002629032,3.589712,45.84351,0.05478669,0.02903395,0.3892688,-0.01175858,15.3599996566772,16
-9.770358,0.4833333,-1.91725,0.1269392311393549,0.603027867256972,0.0464122585588171,7.178604,45.84875,0.1106081,0.05803489,0.388696,-0.02349804,15.3799996562302,16
-9.726105,0.6833333,-1.872933,0.1926815913634971,0.1395621706735446,0.1105127490742936,10.76646,45.8576,0.1673144,0.08697067,0.3877421,-0.03521102,15.3999996557832,16
-9.681864,0.8833332,-1.828629,0.2588015635903913,-0.3286078877997779,0.1764106969587856,14.3533,45.87024,0.2253612,0.115813,0.3864086,-0.04688628,15.4199996553361,16
-9.465059,0.2833334,-1.620454,0.1212564636926218,0.1034950802089109,0.0483764972208034,3.586966,46.9355,0.09907211,0.02905244,0.3980128,-0.01167085,15.4399996548891,16
-9.420512,0.4833333,-1.576457,0.1196494928926474,-0.1094203621654288,0.0494722194777393,7.172925,46.94485,0.1986887,0.0580676,0.3974275,-0.02332868,15.4599996544421,16
-9.375978,0.6833333,-1.532472,0.1088260880589855,-0.3014275869130957,0.0418493043929577,10.75784,46.96062,0.2998644,0.08701764,0.3964531,-0.03496031,15.479999653995,16
-9.331456,0.8833332,-1.4885,0.0993278609016297,-0.5268878411744526,0.0355076923780088,14.3417,46.98314,0.4034415,0.1158743,0.3950908,-0.04655446,15.499999653548,16
-9.179624,0.2833334,-1.343802,-0.0367790750513377,0.1202214486082301,-0.0898821080443771,3.639331,47.47302,0.1129105,0.02946406,0.4022994,-0.01188037,15.519999653101,16
-9.134148,0.4833334,-1.299421,0.0174533903586118,-0.1177837098847767,-0.0322176506126603,7.277606,47.48385,0.2267002,0.05888993,0.4016903,-0.0237454,15.5399996526539,16
-9.088684,0.6833334,-1.255053,0.0654309959145589,-0.334880649705702,0.0211416978785117,10.91481,47.50214,0.3423167,0.08824798,0.4006763,-0.03558311,15.5599996522069,16
-9.043237,0.8833333,-1.210699,-0.0365508548809332,0.1348572710068561,-0.0676629764411811,14.55145,47.52823,0.4606087,0.1175123,0.3992583,-0.0473846,15.5799996517599,16
-8.848531,0.2833333,-1.02528,-0.139482953700166,0.599890736962185,-0.1566782135229824,3.597004,49.30531,0.1954207,0.02923496,0.4168614,-0.01154185,15.5999996513128,16
-8.80317,0.4833333,-0.9817798,-0.1148314945679107,0.1552427188870253,-0.1242921210337688,7.19291,49.32383,0.3923256,0.05843244,0.4162437,-0.02306898,15.6199996508658,16
-8.757822,0.6833333,-0.938292,-0.0840180098126746,-0.2941093938013072,-0.0847085445175641,10.78767,49.3551,0.5923076,0.0875636,0.4152153,-0.03457004,15.6399996504188,16
-8.584837,0.2833334,-0.773084,-0.2436618775194325,0.1568110957297799,-0.2268829048655178,3.530103,50.3929,0.2568507,0.02882418,0.4254577,-0.01108549,15.6599996499717,16
-8.540249,0.4833333,-0.7303695,-0.3990783065003542,0.6030272515970663,-0.3653596886676054,7.059106,50.41679,0.5155796,0.05761245,0.424849,-0.02215724,15.6799996495247,16
-8.495674,0.6833334,-0.6876673,-0.3727123517004598,0.1395618044312564,-0.3348947802804811,10.58691,50.45709,0.7782248,0.08633727,0.4238357,-0.03320447,15.6999996490777,16
-8.45111,0.8833333,-0.6449751,-0.3377374380775686,-0.3286078702020277,-0.2986144784094025,14.11306,50.51457,1.046853,0.1149681,0.4224192,-0.04421583,15.7199996486306,16
-8.235603,0.2833334,-0.4381103,-0.4206414580310351,0.1034953770184912,-0.3737142531146775,3.461695,50.34016,0.2910579,0.02841614,0.4250419,-0.01054835,15.7399996481836,16
-8.192357,0.4833334,-0.3956504,-0.3561755488807669,-0.1094199035785107,-0.3104612304048966,6.921793,50.36672,0.5844602,0.05679505,0.4244563,-0.0210798,15.7599996477365,16
-8.149123,0.6833334,-0.3532026,-0.2891025940094556,-0.301426963935312,-0.2463087980212333,10.38072,50.41152,0.8821281,0.08511376,0.4234814,-0.03158879,15.7799996472895,16
-8.105902,0.8833333,-0.3107668,-0.2094866405163085,-0.5268871712402965,-0.1717126026635911,13.8384,50.47538,1.186363,0.1133465,0.4221183,-0.04206597,15.7999996468425,16
-7.955963,0.2833333,-0.167392,-0.2891238289185684,0.1202220342125736,-0.2483316809509592,3.406941,49.19891,0.2231293,0.02783893,0.4160348,-0.01060475,15.8199996463954,16
-7.913515,0.4833333,-0.1256041,-0.1752973392516104,-0.117783114174794,-0.138702753812653,6.812416,49.21893,0.4477854,0.05564173,0.4154811,-0.02119542,15.8399996459484,16
-7.871079,0.6833333,-0.08382809,-0.0648761057364772,-0.3348800566963648,-0.0303073741020156,10.21681,49.25267,0.6755922,0.08338729,0.4145591,-0.0317643,15.8599996455014,16
-7.828655,0.8833332,-0.04206408,-0.101282915194691,0.1348579680345801,-0.0623260990927714,13.62009,49.30075,0.9082648,0.111051,0.4132702,-0.04230206,15.8799996450543,16
-7.635712,0.2833333,0.1427975,-0.1380543134492438,0.5998915380082933,-0.095140481115572,3.351631,46.99236,0.1051764,0.02718534,0.3984925,-0.01081797,15.8999996446073,16
-7.594207,0.4833333,0.1840258,-0.0513937461744555,0.1552435039034989,-0.0133173158291695,6.701838,47.00165,0.2111499,0.05433638,0.397981,-0.0216212,15.9199996441603,16
-7.552713,0.6833332,0.2252424,0.0406724980299983,-0.2941087587141803,0.0724270019356381,10.05107,47.0173,0.3185614,0.08143325,0.3971293,-0.03240287,15.9399996437132,16
-7.38191,0.2833333,0.3885897,-0.0591223104594629,0.1568116727094826,-0.0253702066517464,3.294162,45.26579,359.9787,0.02645805,0.3846712,-0.01123242,15.9599996432662,16
-7.340821,0.4833333,0.4287685,-0.1579865150672983,0.6030277683785239,-0.1230533225948211,6.58735,45.26394,359.9573,0.0528864,0.3841945,-0.02245232,15.9799996428192,16
-7.299743,0.6833333,0.4689391,-0.0860395243697684,0.1395624851679917,-0.0603375062683242,9.879169,45.2608,359.9354,0.07925944,0.3834008,-0.03365069,15.9999996423721,16
-7.258677,0.8833332,0.5090982,-0.0136704734112447,-0.3286071476488558,0.0015444197357159,13.17005,45.25633,359.913,0.1055596,0.382291,-0.04481812,16.0199996419251,16
-7.04571,0.2833334,0.7137992,-0.0600437129828783,0.1034960192492579,-0.0491722095197886,3.235697,42.33176,359.8454,0.02584134,0.3609606,-0.01145194,16.0399996414781,16
-7.005705,0.4833333,0.753716,0.0341145090867689,-0.1094193576126628,0.0321861093287578,6.470417,42.3186,359.6898,0.05165445,0.3605281,-0.0228913,16.059999641031,16
-6.965713,0.6833333,0.7936215,0.1244523153267946,-0.3014265306996082,0.1087035571235226,9.70414,42.29644,359.5323,0.0774188,0.3598079,-0.03430895,16.079999640584,16
-6.925729,0.8833332,0.8335161,0.2206592883917739,-0.5268867476746439,0.1897283619801149,12.93651,42.26497,359.372,0.103112,0.3588012,-0.04569262,16.099999640137,16
-6.775131,0.2833333,0.9781314,0.1532258619006619,0.1202225644972555,0.1152460257916181,3.284012,40.9233,359.7924,0.02621335,0.3494849,-0.01171399,16.1199996396899,16
-6.734853,0.4833333,1.019065,0.2733813188584504,-0.1177825736973552,0.2197556472395865,6.56704,40.90535,359.5834,0.05239763,0.3490528,-0.02341489,16.1399996392429,16
-6.694587,0.6833332,1.059987,0.3842237754346529,-0.3348794958334132,0.3160542252977714,9.849045,40.87512,359.3718,0.07853129,0.3483332,-0.03509313,16.1599996387959,16
-6.654333,0.8833332,1.100894,0.3424457562443352,0.1348584260987919,0.2676534755377489,13.13048,40.83216,359.1561,0.1045975,0.3473271,-0.04673896,16.1799996383488,16
-6.457196,0.2833333,1.287924,0.2944240151821473,0.599891996333858,0.2143787437727264,3.52628,43.05837,359.8328,0.02808588,0.3668428,-0.01264761,16.1999996379018,16
-6.41301,0.4833333,1.330911,0.3619678065738645,0.1552438387834598,0.2730541343033605,7.051569,43.04284,359.6644,0.05613744,0.3663207,-0.02527983,16.2199996374547,16
-6.368849,0.6833333,1.37388,0.4272420953895013,-0.2941085647904579,0.3318789548933956,10.57775,43.01652,359.4927,0.08414149,0.3654505,-0.03789621,16.2399996370077,16
-6.194996,0.2833333,1.539355,0.2950923385345927,0.1568119344106791,0.2034342477129564,3.564831,44.60281,359.896,0.02843314,0.3793212,-0.01264269,16.2599996365607,16
-6.15002,0.4833333,1.582366,0.158689783898791,0.6030279602985427,0.0720083254165731,7.128925,44.59302,359.7909,0.05683216,0.3787701,-0.02527254,16.2799996361136,16
-6.105056,0.6833333,1.625366,0.1877348768270685,0.1395623630291524,0.0984650898784882,10.69198,44.57648,359.6843,0.08516811,0.3778527,-0.03787435,16.2999996356666,16
-6.060105,0.8833332,1.668354,0.2111311746785347,-0.3286074823545805,0.12082753247233,14.25399,44.55289,359.5751,0.1134136,0.37657,-0.05043595,16.3199996352196,16
-5.843486,0.2833334,1.876486,0.1109996192987075,0.1034956929939376,0.0275767089585663,3.576702,46.17562,0.06094977,0.02891645,0.3919351,-0.01174872,16.3399996347725,16
-5.799203,0.4833333,1.920477,0.1490372593184181,-0.1094196673156447,0.0666355906737776,7.152499,46.18141,0.1229016,0.05779927,0.3913625,-0.02347874,16.3599996343255,16
-5.754932,0.6833333,1.964455,0.1804123292302444,-0.3014268152256092,0.1006727904796411,10.72727,46.19119,0.1858199,0.08661763,0.390409,-0.03518253,16.3799996338785,16
-5.710674,0.8833332,2.00842,0.2157031320535223,-0.52688699787632,0.1396338738389393,14.30102,46.20517,0.2502266,0.1153435,0.3890759,-0.04684877,16.3999996334314,16
-5.559256,0.2833333,2.152336,0.0847799871786976,0.1202222382419345,0.0216647936088327,3.596876,47.03381,0.09189278,0.02909668,0.3987999,-0.01178768,16.4199996329844,16
-5.514417,0.4833333,2.196286,0.1434433178229563,-0.1177829796652585,0.0836952729993987,7.192712,47.04252,0.1844843,0.05815634,0.3982103,-0.0235604,16.4399996325374,16
-5.469594,0.6833332,2.240223,0.1947347208863261,-0.3348798651248165,0.138667551228516,10.78772,47.0572,0.2783472,0.08715159,0.3972286,-0.03530876,16.4599996320903,16
-5.424783,0.8833331,2.284148,0.0942816851001464,0.1348581036766443,0.0502006424039858,14.38168,47.07815,0.3744564,0.1160528,0.3958561,-0.04701902,16.4799996316433,16
-5.229212,0.2833334,2.470325,-0.0092524649895349,0.5998916114484092,-0.040538196527847,3.63702,47.69665,0.1165661,0.02943527,0.4040835,-0.01190054,16.4999996311963,16
-5.183638,0.4833333,2.514547,0.1250214439934884,0.1552435088692003,0.1030270202990624,7.27298,47.70782,0.2340401,0.0588324,0.4034725,-0.02378569,16.5199996307492,16
-5.138076,0.6833333,2.558756,0.2876521830815122,-0.2941089352143889,0.2808853496975398,10.90787,47.72669,0.353387,0.08816181,0.4024552,-0.03564359,16.5399996303022,16
-4.964345,0.2833333,2.723867,0.2790117042484326,0.1568112145581525,0.3010322975332551,3.589921,49.38712,0.1883381,0.02914478,0.4175127,-0.01159304,16.5599996298552,16
-4.918936,0.4833333,2.767127,0.2898530918919966,0.603026940674438,0.3442388120112891,7.178741,49.40494,0.378103,0.05825225,0.4168965,-0.02317128,16.5799996294081,16
-4.87354,0.6833333,2.810375,0.4836336279089894,0.1395615319274806,0.5463756812146721,10.76643,49.43501,0.5708211,0.0872939,0.4158707,-0.03472346,16.5999996289611,16
-4.828157,0.8833332,2.853613,0.7155427363999616,-0.3286082230282091,0.778871455402399,14.35271,49.47788,0.7678518,0.1162384,0.4144366,-0.04623939,16.6199996285141,16
-4.611361,0.2833333,3.060206,0.8573723832078533,0.1034947312159021,0.9207296523821736,3.520575,50.60308,0.2682523,0.02877116,0.4271143,-0.0110129,16.639999628067,16
-4.566873,0.4833333,3.102807,1.031136277154363,0.5308930441840554,1.0869101443176614,7.040034,50.62796,0.5384626,0.05750654,0.4265063,-0.02201211,16.65999962762,16
-4.522398,0.6833333,3.145395,1.470196310746855,0.0486105643996837,1.47376821149226,10.5582,50.66995,0.8127885,0.0861784,0.425494,-0.03298638,16.6799996271729,16
-4.477933,0.8833332,3.187973,1.9367175299747328,-0.4383764920194063,1.8594046689779864,14.07478,50.72983,1.093366,0.1147576,0.424079,-0.04392516,16.6999996267259,16
-4.328117,0.2833333,3.331467,2.247072062789269,-0.0250909496166639,2.07591037256562,3.455218,50.47153,0.2912853,0.02835377,0.4260795,-0.01055504,16.7199996262789,16
-4.284863,0.4833333,3.373758,2.7893789370628834,-0.2568233664150268,2.4893517920942188,6.90887,50.49807,0.5848697,0.05667057,0.4254948,-0.02109361,16.7399996258318,16
-4.241621,0.6833333,3.416038,3.31325605075304,-0.4676477007931922,2.861462652693868,10.36135,50.54281,0.882698,0.08492748,0.4245211,-0.03160985,16.7599996253848,16
-4.198391,0.8833332,3.458305,3.6693944082730794,0.0083625951974873,3.0550677731164493,13.81257,50.60658,1.187081,0.1130987,0.4231596,-0.0420942,16.7799996249378,16
-4.00492,0.2833333,3.643,4.001255157797799,0.4796683514041845,3.210238522693462,3.402838,48.82019,0.1985599,0.02775268,0.4130352,-0.01069305,16.7999996244907,16
-3.962522,0.4833333,3.684699,4.670845878120749,0.0412929633389397,3.6667918351649975,6.804227,48.83799,0.3985263,0.05546962,0.4124874,-0.02137159,16.8199996240437,16
-3.920135,0.6833333,3.726385,5.296936728161737,-0.4017867803437348,4.066851941065098,10.20456,48.86799,0.6012889,0.08312963,0.4115751,-0.03202821,16.8399996235967,16
-3.74919,0.2833333,3.890152,5.680810011204956,0.0554061624357046,4.223278163803792,3.343989,47.13918,0.1085042,0.02712197,0.3996669,-0.01079954,16.8599996231496,16
-3.707716,0.4833333,3.931225,6.013297404072088,0.5078945479205275,4.321499735160886,6.686537,47.14874,0.2177962,0.05420956,0.3991562,-0.02158454,16.8799996227026,16
-3.666255,0.6833333,3.972286,6.526220102512816,0.0507017849517653,4.624585478021127,10.0281,47.16485,0.3285675,0.08124326,0.3983057,-0.03234804,16.8999996222556,16
-3.624804,0.8833332,4.013336,6.973931961227231,-0.4111953378160712,4.867138645877492,13.36868,47.18778,0.4416203,0.1082001,0.3971166,-0.04308092,16.9199996218085,16
-3.410676,0.2833333,4.217788,7.237189719857498,0.027180235025552,4.94024106913993,3.286449,44.90668,359.9581,0.02636211,0.3817835,-0.01129031,16.9399996213615,16
-3.369681,0.4833333,4.257874,7.438865120162702,0.4608512597199053,4.961298025739656,6.571922,44.90305,359.9158,0.05269472,0.3813126,-0.02256804,16.9599996209145,16
-3.328695,0.6833333,4.297953,7.936832937423093,-0.0151586414539216,5.310772778195028,9.856035,44.89692,359.8729,0.0789726,0.3805285,-0.03382394,16.9799996204674,16
-3.287721,0.8833332,4.338019,8.340197647478336,-0.4958729055630553,5.592406671810481,13.1392,44.88818,359.8291,0.1051781,0.3794321,-0.04504888,16.9999996200204,16
-3.030639,0.2833333,4.590632,8.481200812468526,-0.0763146095305582,5.647681620106156,6.384927,39.79117,359.5965,0.05116953,0.3399613,-0.02225749,17.0199996195734,16
-2.953505,0.4833332,4.672194,8.532566672859065,0.3385392168476017,5.6397638695516,12.76859,39.72225,359.1829,0.1021722,0.3383717,-0.0444421,17.0399996191263,16
-2.876383,0.683333,4.753745,8.935699912439318,-0.1562883500282095,5.978868137964303,19.15063,39.60244,358.7478,0.1528492,0.3357286,-0.06648469,17.0599996186793,16
-2.799272,0.8833328,4.835285,9.056660150122148,0.0644676070716129,6.102337227777234,25.53062,39.42348,358.2777,0.2030429,0.3320406,-0.08831672,17.0799996182323,16
-2.574985,0.2833333,5.039307,9.049024232321011,0.3082223875614613,6.15197498854188,7.662286,36.74985,358.6143,0.0596016,0.3152731,-0.03251112,17.0999996177852,16
-2.474898,0.4833332,5.132511,9.3332167483201,-0.1176081765945402,6.522179533639982,15.31905,36.46302,357.1777,0.1189209,0.3130895,-0.06486845,17.1199996173382,16
-2.374823,0.683333,5.225704,9.472374135568115,-0.5481432023029413,6.809332627969107,22.96501,35.95485,355.6315,0.1776844,0.3094619,-0.09692289,17.1399996168911,16
-2.274759,0.8833327,5.318885,9.280109849026148,-0.0784054084335738,6.830130863663909,30.59322,35.1726,353.8993,0.2356212,0.3044075,-0.1285266,17.1599996164441,16
-1.960356,0.2833334,5.591736,8.959242670198094,0.3866276272480479,6.772070950293579,7.670461,39.11984,357.9755,0.05711647,0.335104,-0.03899908,17.1799996159971,16
-1.847718,0.4833332,5.673635,8.529017071038181,0.6819015271708653,6.6480832626204895,15.33795,38.69917,355.8712,0.1140013,0.33269,-0.07787101,17.19999961555,16
-1.735116,0.6833329,5.755511,8.458018611459806,-0.0696791703621486,6.881474119108155,22.98536,37.95358,353.605,0.1703462,0.3286784,-0.1163787,17.219999615103,16
-1.415328,0.2833334,6.030076,8.140066655783421,0.1082495793089841,6.905551161536108,6.972263,42.71136,358.1827,0.05086061,0.364335,-0.03688216,17.239999614656,16
-1.309205,0.4833333,6.098001,7.710320900979241,0.3096650025174558,6.843933707007071,13.9513,42.36955,356.3039,0.1016135,0.3621671,-0.07371223,17.2599996142089,16
-1.203112,0.683333,6.165906,7.190493203923571,0.4822964722606533,6.712613656200041,20.91307,41.77045,354.308,0.1519492,0.3585635,-0.1102397,17.2799996137619,16
-1.097049,0.8833328,6.233792,7.06592934037227,-0.2798777872835228,6.956168363423927,27.84741,40.8646,352.1178,0.2016681,0.3535397,-0.1463198,17.2999996133149,16
-0.6576687,0.2833333,6.611156,6.661388617531537,-0.1125425915216176,6.930561719314854,7.714947,52.71082,359.1751,0.0570921,0.4433547,-0.03630059,17.3199996128678,16
-0.5417181,0.4833332,6.681245,6.1619345624086845,0.0782792853568596,6.808061684467759,15.42617,52.53884,358.3196,0.113907,0.440306,-0.07242548,17.3399996124208,16
-0.4257975,0.6833331,6.751316,5.939189395735262,-0.3999962179649412,6.987622258189202,23.13176,52.23383,357.3979,0.1701849,0.4352422,-0.1082095,17.3599996119738,16
-0.3099225,0.8833328,6.82137,5.477137120110863,-0.1622001292827302,6.901259274969739,30.83058,51.76257,356.3615,0.2256728,0.4281845,-0.1435057,17.3799996115267,16
0.01628187,0.2833333,7.128155,4.939365147568495,0.0990825050482191,6.703881007842771,7.855717,59.62685,0.4778229,0.06150202,0.4957573,-0.03044713,17.3999996110797,16
0.1302958,0.4833332,7.204756,4.3515991736113335,0.3315812847923388,6.419702951714607,15.70863,59.72843,0.9741501,0.1226971,0.4922496,-0.06074131,17.4199996106327,16
0.2442771,0.683333,7.281338,4.241441494310221,-0.3707257921168065,6.558976709984162,23.5581,59.90907,1.510491,0.1832973,0.4864244,-0.09073995,17.4399996101856,16
0.358226,0.8833328,7.3579,3.8776935364767855,-0.1435233143187179,6.39852279431042,31.40326,60.18884,2.115358,0.2430178,0.4783109,-0.1203021,17.4599996097386,16
0.7985682,0.2833334,7.780727,3.4719383963393726,0.1071659311908074,6.141159749237472,7.53704,59.64422,1.063855,0.0616263,0.4956827,-0.02464761,17.4799996092916,16
0.9025071,0.4833333,7.863391,3.0513548234819927,0.3290711978838436,5.8144819832107935,15.06942,59.8608,2.166413,0.1229692,0.4924029,-0.04917201,17.4999996088445,16
1.006427,0.6833332,7.94602,2.938199576921744,-0.3838293962580295,5.832508028752303,22.59334,60.24465,3.353007,0.1837607,0.4869573,-0.07344928,17.5199996083975,16
1.110329,0.883333,8.028611,2.575682312944949,-0.1672203331552801,5.5395595727370175,30.10479,60.835,4.680202,0.2437332,0.4793734,-0.09737392,17.5399996079504,16
1.615673,0.2833333,8.484406,2.178955906344494,0.0728753872809366,5.1411062808251184,7.645977,47.72353,0.6273525,0.06318403,0.4032914,-0.02197586,17.5599996075034,16
1.706894,0.4833331,8.582397,1.771348347823169,0.2841872852767125,4.6600669646631445,15.28932,47.85497,1.286978,0.1261032,0.4005844,-0.04377614,17.5799996070564,16
1.79809,0.6833329,8.68036,1.7800728079903223,-0.4393062805676316,4.683534541243777,22.92838,48.08781,1.996633,0.1884398,0.3960848,-0.06537411,17.5999996066093,16
2.267388,0.2833332,9.136552,1.592435980786199,-0.2332908305269457,4.467295136918818,8.086055,43.62068,0.6174628,0.06745474,0.3702527,-0.02120474,17.6199996061623,16
2.356621,0.483333,9.24592,1.363900998923998,-0.0037882717095101,4.151668382588568,16.14812,43.75644,1.262608,0.1343944,0.3674828,-0.04221132,17.6399996057153,16
2.445647,0.6833329,9.355034,1.1174267516197665,0.1969304369640905,3.758687611179779,24.18953,43.99792,1.961233,0.2005136,0.3628963,-0.06296016,17.6599996052682,16
2.534525,0.8833325,9.463965,1.256641043841654,-0.5371563315314138,3.8791468671607534,32.2141,44.37307,2.753101,0.265533,0.3565235,-0.08336369,17.6799996048212,16
2.623296,0.9766695,9.572767,1.1003223469201382,-0.341734323192519,3.6941365899002903,40.2233,44.93278,3.698048,0.3291666,0.3484006,-0.1033322,17.6999996043742,16
3.132782,0.2833333,10.06564,0.8883713145854903,-0.1228253250794818,3.431339379579205,8.134257,36.64621,359.4918,0.06593781,0.3138791,-0.02649638,17.7199996039271,16
3.224672,0.4833332,10.17421,0.8246997943053103,-0.5730135837211164,3.5486887959784905,16.26553,36.53407,358.9625,0.1315234,0.3114974,-0.0528516,17.7399996034801,16
3.316536,0.683333,10.28274,0.367057599212373,-0.3071309118424897,3.33333838034045,24.39304,36.33374,358.3873,0.1964258,0.3075429,-0.07893267,17.7599996030331,16
3.408376,0.8833327,10.39124,-0.2170914697883139,-0.0177613697150411,3.0356322026588103,32.51576,36.02103,357.7326,0.2603179,0.302037,-0.1046081,17.779999602586,16
3.934393,0.2833332,10.90098,-0.8895888926849986,0.2428248697154206,2.685231731875369,7.600483,30.06276,358.2117,0.05996432,0.2597452,-0.03222487,17.799999602139,16
4.027952,0.4833331,10.99994,-1.4263926004003942,-0.4313950595625385,2.979419754254065,15.1911,29.69587,356.3591,0.1196321,0.2579367,-0.06429209,17.819999601692,16
4.121486,0.6833329,11.09886,-2.3752857140784664,-0.1761056379012732,2.869433083243045,22.76314,29.0469,354.3679,0.178727,0.2549332,-0.09605308,17.8399996012449,16
4.540615,0.2833333,11.55285,-3.3601199919261235,0.1026707617732602,2.70954536908614,7.107091,36.59034,358.4029,0.05447611,0.3140985,-0.03266151,17.8599996007979,16
4.637033,0.4833333,11.63552,-4.350481853881451,0.3526630743441544,2.5264128014000957,14.20075,36.28405,356.7495,0.1086524,0.3121928,-0.06521799,17.8799996003509,16
4.733415,0.683333,11.71817,-5.036141621425711,-0.3321497808124309,2.730980237372963,21.2794,35.74579,354.9865,0.1623613,0.309027,-0.09752145,17.8999995999038,16
4.829762,0.8833328,11.80081,-5.907423541697545,-0.0874535619765607,2.6451638890628093,28.33545,34.92904,353.0437,0.2153948,0.3046153,-0.1294325,17.9199995994568,16
5.396081,0.2833332,12.33867,-6.714452234219633,0.180728959275775,2.540685223285836,7.287467,40.68917,358.1783,0.05406469,0.347866,-0.03696715,17.9399995990098,16
5.503207,0.4833332,12.41422,-7.434155969821347,0.4201277700337538,2.443967926788069,14.56608,40.33059,356.2906,0.1078705,0.3456208,-0.07381521,17.9599995985627,16
5.610302,0.6833331,12.48975,-7.792070100205077,-0.2752788906276185,2.860867830435952,21.82645,39.69955,354.274,0.161198,0.3418926,-0.110336,17.9799995981157,16
5.717367,0.8833328,12.56525,-8.414054374872928,-0.0411764490704404,2.8506355087699,29.05766,38.73856,352.0417,0.2138189,0.3366988,-0.1463732,17.9999995976686,16
6.10057,0.2833332,13.00263,-8.921398603856327,0.2164124149512251,2.805141133080488,7.737226,45.26215,358.7311,0.05801884,0.3845852,-0.03615714,18.0199995972216,16
6.212133,0.4833333,13.0819,-9.153290755782484,-0.1950956662493301,3.161060934382654,15.46884,44.99683,357.415,0.115754,0.3818848,-0.07213563,18.0399995967746,16
6.323652,0.683333,13.16115,-9.247412922501212,-0.6108200603901557,3.477576553692685,23.19218,44.5261,355.9962,0.1729486,0.3773984,-0.107777,18.0599995963275,16
6.43514,0.8833326,13.24037,-9.66617430397696,-0.1257842825086053,3.339418936218882,30.89905,43.80001,354.4031,0.2293185,0.3711488,-0.1429044,18.0799995958805,16
6.924881,0.2833332,13.84822,-9.94858992450678,0.3550349987888243,3.1574438039307378,7.898586,51.54811,0.3213543,0.06323801,0.4336151,-0.02742837,18.0999995954335,16
7.029232,0.4833331,13.93845,-10.012166554868744,-0.0733387917143181,3.3048236992850164,15.79465,51.61686,0.6554436,0.126158,0.43052,-0.0547168,18.1199995949864,16
7.133551,0.6833332,14.02867,-10.35437855026202,0.2143586666304166,2.9945146165807213,23.68786,51.73925,1.016931,0.1884609,0.42538,-0.08173564,18.1399995945394,16
7.237838,0.8833328,14.11886,-10.553701705068269,0.5255431032497707,2.623696903138232,31.57788,51.92915,1.425377,0.2498519,0.4182214,-0.1083569,18.1599995940924,16
7.69877,0.2833333,14.74198,-10.593796522095296,0.8079438953227721,2.220027686830388,7.542357,45.18769,0.6595724,0.06292964,0.3830084,-0.01996635,18.1799995936453,16
7.783697,0.4833332,14.84317,-10.414349483483106,0.1555386457918937,2.285785770034561,15.08204,45.32223,1.343982,0.1255758,0.3805011,-0.03982993,18.1999995931983,16
7.868605,0.6833331,14.94431,-10.049014534699593,-0.3996941646036789,2.32739414778327,22.6177,45.5613,2.082309,0.1876701,0.3763385,-0.05948938,18.2199995927513,16
8.121629,0.2833333,15.45198,-10.019267738448471,0.0079526313861292,1.7793225911489152,3.257649,36.38036,3.71129,0.03709436,0.3110079,0.02188209,18.2399995923042,16
8.096994,0.4833332,15.53458,-9.82444871301544,-0.2616015727338371,1.3143121196162078,6.209202,38.82889,7.658439,0.07313135,0.3277588,0.04493076,18.2599995918572,16
8.072905,0.6833331,15.61737,-9.48263009529262,-0.5620046096525269,0.5814005631212886,8.969684,41.47243,11.77128,0.1089403,0.3436223,0.06806654,18.2799995914102,16
8.048831,0.8833331,15.70013,-8.960734653806929,-0.8893123040510444,-0.2223940258320134,11.52811,44.3316,16.04704,0.1444947,0.3587236,0.09108958,18.2999995909631,16
8.199588,0.2833331,16.40837,-8.76573555111803,-0.3280859145692654,-1.506167959208053,5.877021,32.60427,3.634395,0.05806796,0.2786322,0.01601305,18.3199995905161,16
8.19854,0.4833333,16.52911,-8.402443946813076,-0.5673108898714339,-2.5859618128889963,11.54064,36.72684,7.631178,0.1160681,0.3064022,0.03123216,18.3399995900691,16
8.197502,0.6833333,16.6498,-7.861031627168256,-0.8364032936544319,-3.779197742965046,16.88503,41.34934,12.1434,0.1735312,0.3327471,0.04634412,18.359999589622,16
8.196477,0.8833328,16.77045,-7.545232388750154,-0.4118685768649522,-5.344033238847096,21.83352,46.55437,17.25084,0.2301942,0.3575491,0.06127986,18.379999589175,16
8.458217,0.2833336,17.2509,-7.1087828080471045,0.0207497132958215,-6.827835163100225,7.656341,30.42898,1.367696,0.06754498,0.2610601,-0.006028872,18.399999588728,16
8.50132,0.4833336,17.37993,-6.529263616045194,-0.38110448751368,-7.97544010057603,15.19016,35.00974,3.28076,0.1345338,0.2944175,-0.01267812,18.4199995882809,16
8.54444,0.683333,17.50886,-5.753111177711411,-0.8373461989733044,-9.073498519880037,22.54391,40.0668,5.935112,0.2007856,0.3260023,-0.01917084,18.4399995878339,16
8.587556,0.8833327,17.63773,-5.401766791480933,-0.3826052174718422,-10.54678845414114,29.62813,45.82793,9.494414,0.2658507,0.355625,-0.02551299,18.4599995873868,16
8.866576,0.2833333,18.21552,-4.906396682043848,-0.510503211154076,-11.585488145919289,7.445642,21.28007,358.5303,0.06144516,0.1850518,-0.02456548,18.4799995869398,16
8.933707,0.4833334,18.32985,-4.320657628802866,-0.6194805431608993,-12.468983076547634,14.97309,25.21948,357.5665,0.1225258,0.2190994,-0.04898353,18.4999995864928,16
9.000822,0.6833329,18.44415,-3.6506355148774894,-0.7595245107914934,-13.142781533521273,22.5458,29.19831,357.119,0.1828969,0.2518696,-0.07311425,18.5199995860457,16
9.200302,0.2833336,18.94037,-3.222804170148054,-0.0249919042510443,-14.01249640640809,6.838766,22.04481,358.3181,0.05573642,0.1916911,-0.02578246,18.5399995855987,16
9.268509,0.4833336,19.04193,-2.872131525763768,-0.1209281465563849,-14.244433326313988,13.74125,25.87027,357.0937,0.1109188,0.2251256,-0.05130842,18.5599995851517,16
9.336539,0.6833333,19.14324,-2.496170958663228,-0.2010684477566896,-14.26182978271958,20.69174,29.64958,356.3139,0.1654268,0.2571575,-0.07651241,18.5799995847046,16
9.404481,0.8833331,19.24442,-2.0880201354892893,-0.3198932211203177,-14.039834006179673,27.66748,33.51608,356.0073,0.2190588,0.287773,-0.1012884,18.5999995842576,16
9.531871,0.2833336,19.6679,-2.1690633005057265,-0.2273084280158451,-13.876675854675309,7.067273,25.45881,358.2868,0.056825,0.2208021,-0.0281342,18.6199995838106,16
9.607855,0.4833336,19.76817,-2.255665088681108,-0.0931145610060499,-13.536798446527811,14.16527,29.08002,357.029,0.112853,0.2521506,-0.05584696,18.6399995833635,16
9.683441,0.6833335,19.8679,-2.3435236071247765,0.0294631370688291,-12.997607167694142,21.28984,32.61098,356.2024,0.1680521,0.2816499,-0.08308805,18.6599995829165,16
9.758804,0.8833334,19.96735,-2.427025266714633,0.0869128543722977,-12.23868861043091,28.42887,36.19616,355.8244,0.2222777,0.309437,-0.1097972,18.6799995824695,16
9.875229,0.2833333,20.51132,-2.968086740360752,0.1218378524992715,-11.68557711910005,7.542095,25.48027,358.5659,0.06139159,0.2208376,-0.02668299,18.6999995820224,16
9.949686,0.4833333,20.62008,-3.5113745297871475,0.1946261914633049,-10.988995490802964,15.02856,28.78938,357.5938,0.1214651,0.2490704,-0.05266542,18.7199995815754,16
9.993263,0.648662,20.60402,-4.06355378378194,0.2552650253422861,-10.130564112446123,23.16689,26.79827,358.8065,0.1929542,0.2290356,-0.05645329,18.7399995811284,16
10.0717,0.2143451,20.79398,-4.823616719260963,0.9713974302926642,-9.578806027499516,5.789155,20.77106,358.3706,0.04710619,0.1807288,-0.0230701,18.7599995806813,16
10.12091,0.3577377,20.6403,-5.499692533331201,0.8022165303855295,-8.63561552052759,11.78751,18.13257,357.7419,0.09829305,0.1587116,-0.0355329,18.7799995802343,16
10.18538,0.5493098,20.61483,-6.030570411042554,0.6442688248011188,-7.544393583276705,13.82929,18.20128,354.7031,0.1114926,0.1623439,-0.06431609,18.7999995797873,16
10.24953,0.7493097,20.61767,-6.414188552058066,0.4479311421808986,-6.286682623711428,15.14938,18.48941,351.1341,0.1174083,0.1688294,-0.0967366,18.8199995793402,16
10.334,0.2143389,20.81575,-6.861357761396398,0.492162376706641,-5.433962264159874,5.381228,12.99448,0.1527503,0.04679194,0.1129683,-0.003988849,18.8399995788932,16
10.419,0.3609163,20.70537,-7.164078188028633,0.5722963256418043,-4.528185802631906,11.5881,10.73043,1.002534,0.1013207,0.0921433,-0.0007733195,18.8599995784461,16
10.4834,0.5553649,20.70402,-7.319647737473964,0.6385072034907693,-3.5588558151942884,13.57722,10.97441,358.2342,0.1161878,0.09675485,-0.02653271,18.8799995779991,16
10.54053,0.7553648,20.72082,-7.31550434455804,0.6380952558379789,-2.512022382256543,15.15831,11.14119,355.0834,0.1270247,0.1017662,-0.05510858,18.8999995775521,16
10.60889,0.2144824,20.94462,-7.474390250153968,0.6275530647961052,-1.6525807797810792,5.559898,358.8072,0.4168814,0.04845945,-0.01057336,0.004138337,18.919999577105,16
10.7192,0.3642918,20.89289,-7.51331541877008,0.6396854670458296,-0.7953542897656725,12.20457,356.1756,1.777358,0.1057172,-0.03482269,0.01895999,18.939999576658,16
10.77283,0.5650067,20.91453,-7.440932285255437,0.6310589583872144,0.076943680220566,13.01757,353.3839,358.3835,0.1139642,-0.05573045,-0.007451436,18.959999576211,16
10.89403,0.2148068,21.20283,-7.253124324625636,0.5506910233176854,0.9751108832409976,6.07408,344.4739,0.692319,0.05168007,-0.1352017,0.01313425,18.9799995757639,16
10.96703,0.4108478,21.23171,-7.243395864010631,0.4968785899844087,1.3993217635292403,7.276226,338.3938,356.9229,0.06732968,-0.185316,-0.01443112,18.9999995753169,16
11.03055,0.6108478,21.28184,-7.151076267086252,0.4610441882120887,1.8165822642462324,8.433967,335.2145,352.3731,0.08589621,-0.20878,-0.04903646,19.0199995748699,16
11.09406,0.8108479,21.33197,-6.986485426976651,0.3963550254642604,2.236098108319638,9.339186,331.9464,347.7562,0.1042938,-0.2317708,-0.08350144,19.0399995744228,16
11.03798,0.2605274,21.78056,-6.924451188027065,0.3832300340453416,2.215607174645701,5.198696,325.0672,359.9545,0.0433796,-0.2998206,0.01323389,19.0599995739758,16
11.06114,0.4605274,21.85586,-6.795610935525492,0.3910654955158518,2.164270146365528,7.769729,319.7471,356.213,0.07492319,-0.3410131,-0.007652887,19.0799995735288,16
11.08435,0.6605274,21.93113,-6.610897523600517,0.3715805214681779,2.094164420475717,9.986371,314.2399,352.2317,0.1062425,-0.3810059,-0.02841061,19.0999995730817,16
11.03855,0.2460087,22.29833,-6.372589843489298,0.2723410957123894,2.016421392930809,7.804423,307.9536,359.7537,0.06209492,-0.4375858,0.02793057,19.1199995726347,16
11.04771,0.4457693,22.38438,-6.1714919782183895,0.199219884063722,1.5346336444496451,10.20268,300.5497,355.3719,0.09709525,-0.490355,0.009128401,19.1399995721877,16
11.05536,0.6457692,22.47224,-5.919461107234261,0.1472425943960399,1.0050447784241747,12.07139,293.2686,350.6061,0.1323078,-0.5379041,-0.01037424,19.1599995717406,16
11.06301,0.845769,22.56008,-5.632336571788757,0.0710298321068003,0.4348058236260002,13.32615,285.8157,345.6084,0.1668589,-0.5827136,-0.02981439,19.1799995712936,16
11.03426,0.2359155,22.82956,-5.315548427793882,-0.0817257975180573,-0.1652909901358015,7.997696,290.9617,358.1061,0.06679299,-0.5642754,0.02592935,19.1999995708466,16
11.04685,0.4316898,22.91108,-5.035901079739976,-0.2159827457545391,-1.4020093494680914,10.00686,284.0573,353.7187,0.1022305,-0.6082357,0.01055499,19.2199995703995,16
11.04937,0.6302844,22.99307,-4.726251430910963,-0.3250829228645722,-2.740033557699981,11.15393,277.0855,348.9995,0.1356568,-0.6489123,-0.00745038,19.2399995699525,16
11.04988,0.8295923,23.07679,-4.363845570163159,-0.4177057261513447,-4.022084932676734,11.64802,270.3289,344.0909,0.1683357,-0.6847278,-0.02677122,19.2599995695055,16
11.02887,0.2322994,23.37302,-3.992855095598866,0.1783834367707236,-5.470811334703555,7.313744,284.9159,357.4937,0.06385925,-0.6068513,0.02155018,19.2799995690584,16
11.04577,0.4267149,23.45031,-3.6015507886801803,-0.0239994124792838,-6.7986403298720575,9.052538,279.0706,353.1902,0.09835792,-0.6422478,0.006079672,19.2999995686114,16
11.04916,0.6251502,23.52649,-3.1762209789623874,-0.2020952428578813,-8.027198969583441,9.782442,272.8786,348.737,0.1288652,-0.677236,-0.01237631,19.3199995681643,16
11.0344,0.2360911,23.75229,-2.733625511167149,-0.4159418119935213,-9.164417087599835,7.45437,281.5644,357.3102,0.06515746,-0.6295772,0.02294473,19.3399995677173,16
11.04688,0.4318701,23.82711,-2.315173956379722,-0.4370720732417076,-10.525537445757736,8.751757,276.0748,353.0733,0.0969061,-0.6620513,0.006135307,19.3599995672703,16
11.04938,0.6306442,23.90039,-1.910265935116099,-0.3652070800455893,-11.63356654999745,9.21241,270.2209,348.7729,0.1254335,-0.6945242,-0.01267308,19.3799995668232,16
11.04988,0.8301001,23.97541,-1.509739771094612,-0.2980255886972347,-12.57522124380534,9.157763,264.6612,344.3839,0.1533739,-0.7227767,-0.03272367,19.3999995663762,16
11.0295,0.2327268,24.1961,-1.118433242677698,-0.8940518058604486,-13.501039408516842,6.901116,280.8418,357.9222,0.0579124,-0.6350424,0.02439261,19.4199995659292,16
11.0459,0.4167089,24.24855,-0.7427368160664223,-0.6419311582109657,-14.46354247941143,10.78361,275.0849,355.0504,0.09828083,-0.6684366,0.03165556,19.4399995654821,16
11.04918,0.6082763,24.30611,-0.4446355000683404,-0.3204750496136769,-15.138691311077668,13.04071,269.8832,351.6456,0.1312268,-0.6955373,0.02904344,19.4599995650351,16
11.04984,0.8013449,24.36372,-0.1700351345229496,-0.0343268326490942,-15.58266735722911,14.73273,264.5332,348.023,0.1623317,-0.7209139,0.0247728,19.4799995645881,16
11.03425,0.2360993,24.44831,-0.0059373851184219,0.768714288501842,-16.09372562669078,6.93715,281.4627,359.1983,0.05125789,-0.6314549,0.03288756,19.499999564141,16
11.04685,0.4174287,24.50136,0.0897171466507646,0.5583944636778603,-16.540395400551066,11.87498,280.9998,357.2963,0.09472292,-0.6306083,0.04767348,19.519999563694,16
11.04937,0.6028233,24.55368,0.1198201370486042,0.3658122992591146,-16.75658805758475,16.15845,280.2315,355.1927,0.1343751,-0.6297929,0.05817966,19.539999563247,16
11.03563,0.2371655,24.61209,0.0756981428227696,0.1377575044819866,-16.728771520229646,6.887778,285.0696,0.2550572,0.04632815,-0.6072859,0.03830336,19.5599995627999,16
11.04713,0.4223659,24.65144,0.0430795017524072,0.1303942500655601,-17.02744978108415,10.95719,285.2706,359.2336,0.07992035,-0.6035932,0.052649,19.5799995623529,16
11.04943,0.6107342,24.69195,0.0286061274970865,0.1173919309085794,-17.14165233293213,14.67181,285.6312,358.0093,0.1121245,-0.5975776,0.06343333,19.5999995619059,16
11.04989,0.7988318,24.73328,-0.0072984665611528,0.0829284728983801,-17.05288366145771,18.50677,286.0498,356.8162,0.1449052,-0.589843,0.07477442,19.6199995614588,16
11.03262,0.2351052,24.75663,0.0076612676953846,0.7141262132427099,-17.104940524841744,6.549075,275.7309,359.8952,0.04297128,-0.6697394,0.03764352,19.6399995610118,16
11.04652,0.4215245,24.7811,0.0726066101284246,0.5136319831268591,-16.981480563208347,9.874234,276.7238,359.0804,0.0696292,-0.6614211,0.05120494,19.6599995605648,16
11.04931,0.6139871,24.80269,0.0224627877228407,0.3254538633157963,-16.713528793240528,12.1785,277.2278,358.2007,0.08989888,-0.6560687,0.05840883,19.6799995601177,16
11.04986,0.806793,24.82506,-0.0042063588908156,0.056178177134208,-16.299014830906625,14.50057,277.8453,357.2982,0.1104757,-0.6493995,0.0652734,19.6999995596707,16
11.03716,0.2381738,24.77033,0.0415758611089565,0.0667463969910925,-15.999881014825885,6.795878,267.2534,359.9587,0.04115447,-0.7225633,0.04265473,19.7199995592237,16
11.04743,0.429975,24.76789,-0.0260226470896896,0.1210324647128098,-15.575704432727116,8.840147,268.0717,0.1076207,0.05289764,-0.7168171,0.05605568,19.7399995587766,16
11.04949,0.6238381,24.76538,-0.0396142346680701,0.1207334211766734,-15.022384704255176,10.69254,268.8963,0.2855041,0.06347577,-0.710939,0.06825286,19.7599995583296,16
11.0499,0.8180557,24.76329,-0.0435469224021396,0.0498087825839335,-14.326255338139976,12.51894,269.8054,0.4737955,0.07405388,-0.704396,0.0801281,19.7799995578825,16
11.03348,0.2356418,24.64813,-0.0213442067730849,0.7439706642887292,-13.750474102568806,6.851639,249.6076,359.5334,0.03744382,-0.8194985,0.04674636,19.7999995574355,16
11.0467,0.4241482,24.60372,-0.0554298816816611,0.4614245542627129,-13.182422774635626,10.28262,250.0735,0.9037914,0.04501332,-0.81587,0.07788063,19.8199995569885,16
11.04934,0.6139613,24.55546,-0.0592878835180705,0.1581695353320567,-12.500497685296509,13.84657,249.9137,2.451492,0.05164449,-0.8148989,0.1109375,19.8399995565414,16
11.04046,0.2404399,24.40647,-0.0397929476627592,0.5213213404082272,-11.879743778508873,7.716471,234.1962,358.5497,0.04188927,-0.8877514,0.05414505,19.8599995560944,16
11.04809,0.4265514,24.346,-0.0260166621122408,0.258237305923603,-11.14138561376247,12.40209,235.9823,359.4868,0.054627,-0.8776177,0.09329125,19.8799995556474,16
11.04962,0.6162149,24.28775,-0.0225927323081123,0.0140088777163235,-10.3325197190737,16.49588,238.3412,0.8913362,0.06319898,-0.8646584,0.1290109,19.8999995552003,16
11.0439,0.2427363,24.08386,-0.0223467819685954,-0.2658083928203437,-9.46548441728963,7.839949,225.3944,357.4813,0.04660095,-0.9195966,0.05459295,19.9199995547533,16
11.04878,0.4328841,24.02377,0.0007469460886273,0.322369353256324,-8.726287832995471,12.11069,229.9073,358.5808,0.05566631,-0.9009702,0.09043866,19.9399995543063,16
11.04976,0.6253365,23.96274,-0.0204820476859524,0.087819671322589,-7.94407172739507,15.9697,234.4945,0.3063057,0.06124437,-0.8805864,0.124709,19.9599995538592,16
11.04995,0.8184666,23.90248,-0.0223922312077959,-0.1557228282897403,-7.137986346943855,19.55973,239.4401,2.443569,0.0659441,-0.8574383,0.1579028,19.9799995534122,16
11.04999,0.957257,23.84325,-0.0215574183276405,-0.4259026246785473,-6.310033217941811,22.85837,244.8234,4.975465,0.07019459,-0.8313084,0.1899338,19.9999995529652,16
11.0496,0.2465625,23.63107,-0.0285269550538256,-0.4926763141253014,-5.66323674899138,8.262559,224.5277,357.2729,0.04925191,-0.9221333,0.05765998,20.0199995525181,16
11.04992,0.4430276,23.56378,-0.0738755473209291,-0.4912644704037762,-5.007042445435353,11.75691,230.2295,359.5873,0.0467135,-0.9005358,0.09121458,20.0399995520711,16
11.04998,0.6399723,23.49585,-0.1440098042166973,-0.4772071381530235,-4.353607930845673,14.92694,236.0712,2.325074,0.04328401,-0.8762364,0.1240835,20.0599995516241,16
11.004,0.2833335,23.32874,-0.2167333958303867,0.1598973484021279,-3.723886428311445,6.87567,224.5451,359.5463,0.02638508,-0.9236289,0.05399314,20.079999551177,16
11.0408,0.4452588,23.24809,-0.4356070875421984,-0.0335142591436511,-3.157944887689325,15.4207,228.8353,357.8399,0.07246043,-0.9011182,0.1144216,20.09999955073,16
11.04816,0.6376367,23.17725,-0.6895706236097574,-0.2075449213940402,-2.621714961756652,19.50502,235.9442,0.1484494,0.0783245,-0.8705154,0.1502023,20.119999550283,16
11.04963,0.8317242,23.1071,-0.9842877092829312,-0.3987447073461597,-2.120018547341793,23.04639,243.5434,3.220897,0.08173062,-0.8356442,0.1842629,20.1399995498359,16
11.10651,0.2833332,23.05025,-1.291161956804908,0.2430349968722557,-1.647013818599735,7.029544,236.3387,0.7952663,0.02283408,-0.8800777,0.05731332,20.1599995493889,16
11.01497,0.4833331,22.96675,-1.7461363703729376,0.0291979636264434,-1.2972306542453786,13.96341,241.3861,2.214621,0.04553879,-0.8545777,0.1142962,20.1799995489419,16
11.04299,0.6465553,22.88329,-2.249557102962042,-0.154979230037672,-0.9389970066498918,22.80489,246.5098,3.261997,0.08503572,-0.8224877,0.1805566,20.1999995484948,16
11.08051,0.2833332,22.75767,-2.787923979465948,-0.3629027132771248,-0.5945919238620476,7.076949,242.5722,2.143372,0.01609256,-0.8534058,0.06242906,20.2199995480478,16
10.99127,0.4833332,22.66422,-3.462149277712962,-0.3738135284014333,-0.284227406502147,13.95545,247.418,4.895522,0.0320942,-0.8278316,0.1244925,20.2399995476007,16
11.03825,0.6435704,22.57486,-4.1626828293048685,-0.3309239101158031,0.0465901832334196,22.46067,253.3398,7.478987,0.06474926,-0.792642,0.1940812,20.2599995471537,16
11.04765,0.8343317,22.50138,-4.8698865668230695,-0.2886532408611637,0.3756559953348244,25.56965,261.7608,11.76162,0.06852171,-0.7482914,0.2318273,20.2799995467067,16
11.04953,0.9607897,22.42446,-5.571641736815607,-0.2996142891992214,0.6801938278843984,27.55165,270.0604,16.75864,0.06664225,-0.7036273,0.2666261,20.2999995462596,16
11.01433,0.2833333,22.23882,-6.44438941382545,-0.3374322294086876,0.9775402613780032,6.476091,248.4941,2.22136,0.01578391,-0.8257603,0.05757342,20.3199995458126,16
11.04287,0.4465796,22.15828,-7.296104317203355,-0.3159765986513042,1.310757565716294,15.08204,253.4823,4.178794,0.04948984,-0.7967497,0.1267166,20.3399995453656,16
11.04857,0.6388575,22.08818,-8.1081369470913,-0.2882906511518414,1.6648933506544523,17.93485,261.0429,8.071137,0.04818145,-0.7561371,0.1633615,20.3599995449185,16
11.05647,0.2512104,22.04336,-8.859556521016643,0.3703020116317107,2.14214757890608,9.307503,247.0284,0.8605528,0.03855582,-0.8313133,0.07177623,20.3799995444715,16
11.0513,0.4483299,21.96516,-9.65629861291872,0.1607109013704782,2.5602688796760127,11.97578,253.5398,4.797715,0.02904506,-0.798591,0.1084088,20.3999995440245,16
11.05026,0.645539,21.88622,-10.379126384956423,-0.013158023180476,2.994085091211396,13.93735,260.1579,9.140129,0.01735099,-0.7633147,0.1434601,20.4199995435774,16
11.05005,0.8435374,21.80659,-11.015371303823828,0.4721033891348172,3.600942716700118,15.10409,266.8347,13.77351,0.0033376,-0.7257025,0.1764736,20.4399995431304,16
11.0256,0.2833335,21.72713,-11.740735757587885,0.3249848096565816,4.155407666685889,6.813997,243.509,1.560768,0.01971243,-0.8491553,0.05768305,20.4599995426834,16
11.04512,0.4478281,21.64445,-12.357130097036272,0.2102229128804535,4.705575080530963,15.71698,248.5017,2.789748,0.05699717,-0.8204494,0.1265543,20.4799995422363,16
11.04903,0.6427351,21.56985,-12.862662267814615,0.0739516305794322,5.23541291116404,18.34948,255.8329,6.804257,0.05159119,-0.7832569,0.1615672,20.4999995417893,16
11.02535,0.2494101,21.34692,-13.256002904504662,-0.0717017629986099,5.728812848787875,9.220612,241.6143,358.6908,0.050944,-0.8555908,0.06319972,20.5199995413423,16
10.99987,0.44941,21.26498,-13.823862829025972,-0.1062422413960658,6.331457259237084,12.61707,246.4001,2.338733,0.04318196,-0.8327515,0.1030334,20.5399995408952,16
10.97441,0.6494102,21.18307,-14.246729841433243,-0.0900512313200473,6.906510514211092,15.69195,251.4643,6.31854,0.03528206,-0.8073283,0.1425286,20.5599995404482,16
10.94896,0.8494103,21.10119,-14.526595966112383,-0.0763387929339534,7.442529641746084,18.40254,256.8149,10.62865,0.02726871,-0.7794057,0.1815629,20.5799995400012,16
10.81291,0.2833337,20.97459,-14.611678165029648,0.5467790732255804,8.047202759178788,7.083906,240.2091,359.7263,0.03304947,-0.8633827,0.05225021,20.5999995395541,16
10.75617,0.4703185,20.88833,-14.783624501474216,0.3270398999365234,8.608432223388355,14.06121,246.5262,358.9619,0.07464947,-0.8292313,0.09740995,20.6199995391071,16
10.68669,0.6703185,20.81139,-14.81915709128804,0.1391818808508023,9.12650174147143,19.30347,253.5142,1.852163,0.08755233,-0.7913573,0.1438425,20.63999953866,16
10.61722,0.8703183,20.73446,-14.716756919317923,-0.0719539908563737,9.59067429002636,24.15364,261.0248,5.519973,0.09995797,-0.7491213,0.1894684,20.659999538213,16
