pX,pY,pZ,aX,aY,aZ,reX,reY,reZ,rtX,rtY,rtZ,t,ID
-43.00041,0.23,-35.99972,4.27930461881806,0.2492150328344652,4.02219369026372,0.01571553,0.009918908,0.02319315,0.0001371614,8.653104e-05,0.0002023866,3.77999991551042,10
-43.00082,0.43,-35.99944,4.547398817310167,0.5149008327567562,4.182145461973747,0.03143349,0.009928524,0.04642237,0.000274344,8.653158e-05,0.0004050878,3.79999991506338,10
-43.00122,0.63,-35.99917,4.844644786815614,0.0901966782938018,4.287611340632978,0.04727085,0.009944681,0.06986079,0.0004125687,8.65322e-05,0.0006096145,3.81999991461635,10
-43.00172,0.2833333,-35.99873,5.097562005952874,-0.090891985444559,4.358698367606273,0.02380216,6.924626,0.03543426,0.0002260085,0.06039193,0.0002961136,3.83999991416931,10
-43.00228,0.4833333,-35.99824,5.369134051316678,-0.4805746304909742,4.391365637707352,0.04761573,6.924648,0.07086378,0.0004521138,0.06039191,0.0005921798,3.85999991372228,10
-43.00285,0.6833333,-35.99775,5.588944056596084,-0.6250387411860555,4.387966379600634,0.07149841,6.924685,0.1063318,0.0006788414,0.0603919,0.0008885447,3.87999991327524,10
-42.98364,0.2833334,-35.97016,5.757194369783726,-0.5496176807735037,4.349523222947532,0.909055,12.88034,0.5467004,0.008417876,0.1121232,0.003850797,3.89999991282821,10
-42.98947,0.4833333,-35.95237,5.982347295975927,-0.9189151277058396,4.282000367651591,1.818062,12.89337,1.093774,0.01683543,0.1121089,0.007702073,3.91999991238117,10
-42.99529,0.6833333,-35.9346,6.145725436782321,-1.0390217686786338,4.177131192114871,2.728916,12.91513,1.642386,0.02526996,0.1120848,0.01155926,3.93999991193414,10
-42.92729,0.2833333,-35.89289,6.248678861984089,-0.935271036281178,4.037047027825032,1.536348,21.10576,0.1204016,0.01337241,0.1831125,-0.001422515,3.9599999114871,10
-42.91947,0.4833333,-35.86695,6.34887521628773,-1.2722657066021432,3.850345011750101,3.072952,21.11059,0.2404364,0.02674379,0.1830628,-0.00284982,3.97999991104007,10
-42.91167,0.6833332,-35.84104,6.387135983584486,-1.3560960953904626,3.629930227549025,4.612035,21.11852,0.3587,0.04012833,0.1829793,-0.004298698,3.99999991059303,10
-42.82839,0.2833333,-35.78834,6.365733085705443,-1.2120965940514674,3.378915089999083,2.899587,27.18415,0.04733801,0.02468943,0.2349223,-0.005544518,4.019999910146,10
-42.80584,0.4833333,-35.74268,6.391638211180855,-1.5048697636676505,3.1023614874260232,5.801056,27.18766,0.09351315,0.04937614,0.2346961,-0.01110122,4.03999990969896,10
-42.78331,0.6833333,-35.69705,6.351701144917442,-1.5405064776275472,2.797490325608514,8.704681,27.19353,0.1399666,0.07404904,0.234319,-0.01665689,4.05999990925193,10
-42.65965,0.2833333,-35.6167,6.249459208955734,-1.3443407661470204,2.4683241017894773,4.290621,35.11929,0.158543,0.03610677,0.3014373,-0.009975608,4.07999990880489,10
-42.6186,0.4833337,-35.55357,6.135876446387833,-1.5809751892631505,2.11088953144462,8.585273,35.1371,0.3171977,0.07219218,0.3008012,-0.01996175,4.09999990835786,10
-42.50504,0.2833331,-35.47269,5.962316334389435,-1.5565008327571248,1.7359401119091302,3.90492,40.83363,0.2173728,0.03259125,0.3485834,-0.01010855,4.11999990791082,10
-42.46323,0.4833335,-35.41856,5.733397899090633,-1.2962511665916732,1.3481129636331914,7.810088,40.8559,0.4354406,0.06514297,0.3479739,-0.02021712,4.13999990746379,10
-42.42145,0.6833333,-35.36446,5.55110205477326,-1.4648293228178826,0.9520085305681788,11.71688,40.89349,0.6569678,0.097631,0.3469581,-0.03031272,4.15999990701675,10
-42.3797,0.8833335,-35.31038,5.312068092857508,-1.3683256130030428,0.5496459193408114,15.62493,40.9474,0.8849254,0.1300169,0.3455371,-0.04037679,4.17999990656972,10
-42.26769,0.2833333,-35.27858,5.02225241622417,-1.0320744243708386,0.146346227911259,3.722011,47.75748,0.2687711,0.03064411,0.4045181,-0.01100233,4.19999990612268,10
-42.22273,0.4833333,-35.23153,4.724569534653547,-1.1206789541363025,-0.2614490876025215,7.442822,47.78385,0.5396266,0.06124612,0.4038748,-0.02199063,4.21999990567565,10
-42.11197,0.2833333,-35.18053,4.384229671567375,-0.9402297812305634,-0.6599701012329469,3.656015,52.19632,0.3244786,0.02989184,0.4396036,-0.01149119,4.23999990522861,10
-42.06498,0.4833336,-35.13705,4.006901750558697,-0.5160604567228183,-1.0422359509691077,7.310783,52.22757,0.6513532,0.05974318,0.4389273,-0.0229683,4.25999990478158,10
-42.018,0.6833336,-35.09358,3.674647914336191,-0.5127736484145886,-1.3945186928031674,10.96429,52.28032,0.9833745,0.08952436,0.4378013,-0.03441992,4.27999990433455,10
-41.97104,0.8833338,-35.05012,3.301306946599226,-0.2364603236071594,-1.7181471398278203,14.61599,52.35532,1.321997,0.1191962,0.4362263,-0.04584367,4.29999990388751,10
-41.85999,0.2833333,-35.02962,2.9840423687797824,-0.3794263262346272,-1.9943262326550943,3.574913,59.26464,0.3565398,0.02865003,0.494105,-0.01271907,4.31999990344048,10
-41.80951,0.4833332,-34.99247,2.63705100910083,-0.5155620771968414,-2.232179350680262,7.148655,59.29822,0.7156653,0.0572632,0.4933767,-0.02542276,4.33999990299344,10
-41.69954,0.2833335,-34.9594,2.270780721595308,-0.0426880750851056,-2.42595192502203,3.507009,63.94905,0.4808057,0.02817777,0.5291806,-0.01264609,4.35999990254641,10
-41.64819,0.4833335,-34.92509,1.89601212329972,0.4045733854062074,-2.569949576332391,7.012786,63.99346,0.9649051,0.05631987,0.5284234,-0.02527801,4.37999990209937,10
-41.59686,0.6833339,-34.8908,1.6102374651054916,-0.0787550712885212,-2.655085235821101,10.51699,64.06833,1.456015,0.08439884,0.5271627,-0.03788336,4.39999990165234,10
-41.44436,0.2833333,-34.85207,1.310905386845981,0.1325921390324723,-2.7121097698726224,3.441472,68.84527,0.5301176,0.02738347,0.5649174,-0.0131601,4.4199999012053,10
-41.39164,0.483333,-34.82187,1.1143890705952302,-0.0808458431850894,-2.719449477889466,6.881697,68.8933,1.063775,0.05473333,0.5641353,-0.02630556,4.43999990075827,10
-41.33895,0.683333,-34.79167,0.9469560073842516,-0.2932384139724781,-2.684538137446122,10.32045,68.97396,1.602883,0.08201501,0.5628321,-0.03943902,4.45999990031123,10
-41.23378,0.2833328,-34.7743,0.7281863340578809,0.1613412824924698,-2.6299427898731444,3.411644,71.55331,0.4124082,0.02625363,0.5842774,-0.01448443,4.4799998998642,10
-41.17958,0.4833333,-34.74867,0.5318291990412334,0.5913538124391411,-2.535472525715239,6.822006,71.59016,0.8253932,0.05246387,0.5834891,-0.02896682,4.49999989941716,10
-41.1254,0.6833333,-34.72305,0.4590481359628384,0.0918219219180512,-2.4058580296991288,10.23111,71.65229,1.244195,0.07862003,0.582177,-0.04341938,4.51999989897013,10
-40.9734,0.2833333,-34.69574,0.336071258709822,0.2880107703456667,-2.264280966363,3.37995,73.15571,0.2796589,0.02513658,0.5955958,-0.0156153,4.53999989852309,10
-40.91837,0.4833335,-34.67401,0.2328358948978817,0.4873359660553027,-2.1018858602798645,6.758697,73.18044,0.5593787,0.05023349,0.5948132,-0.03122429,4.55999989807606,10
-40.86335,0.6833335,-34.65229,0.27222066186728,-0.0027874423501549,-1.922647476972997,10.13635,73.22211,0.8429472,0.07527946,0.5935104,-0.04680175,4.57999989762902,10
-40.76417,0.2833335,-34.63818,0.2204396911335493,0.2028099051810215,-1.766217703321928,3.336964,74.00791,0.1940648,0.02427099,0.6015748,-0.01617239,4.59999989718199,10
-40.70913,0.4833335,-34.6189,0.2847719784749856,-0.0153332916332656,-1.6132511582133908,6.672678,74.02487,0.388306,0.04850693,0.6008071,-0.03233261,4.61999989673495,10
-40.65411,0.6833338,-34.59963,0.264493359044593,0.2488071378041159,-1.494156998052926,10.00734,74.05344,0.5851649,0.0726946,0.5995291,-0.04846057,4.63999989628792,10
-40.50815,0.2833336,-34.5805,0.2395769047996765,0.5160836205016972,-1.3829354789663206,3.297343,74.49389,0.0659565,0.02325075,0.6049877,-0.01695556,4.65999989584088,10
-40.45302,0.4833341,-34.56404,0.2164504902278921,0.7342259301977113,-1.2821232556735396,6.59367,74.4996,0.1322953,0.04647492,0.6042362,-0.03389214,4.67999989539385,10
-40.3979,0.6833341,-34.54757,0.3233713979233741,-0.0027892670277773,-1.2087270379702382,9.888873,74.50906,0.1982535,0.06964629,0.6029847,-0.05080346,4.69999989494681,10
-40.30843,0.2833335,-34.53949,0.3544993614454981,0.1693546247234085,-1.122877606760845,3.257831,74.29881,359.9693,0.02249548,0.6036575,-0.01738013,4.71999989449978,10
-40.25357,0.4833333,-34.52465,0.3880211504223538,0.344635056460693,-1.0428879389053414,6.514781,74.29617,359.9383,0.0449665,0.6029258,-0.03474179,4.73999989405274,10
-40.2,0.6833333,-34.50864,0.4917691837430098,0.3106597774666565,-0.991091705172458,9.716383,74.18121,359.988,0.06749258,0.6009177,-0.05115796,4.75999989360571,10
-40.07656,0.2833332,-34.48507,0.5839061256024607,0.3075240674497035,-0.9461373199350228,2.737566,71.93864,0.177104,0.02024039,0.5871539,-0.01277987,4.77999989315867,10
-40.03276,0.4833332,-34.46722,0.6712769868641928,0.2819121451481252,-0.9099321266821327,5.441206,71.87003,0.3698063,0.0403237,0.5860787,-0.02524584,4.79999989271164,10
-39.90744,0.2833333,-34.43672,0.8429134730986618,-0.4598071377174244,-0.9099168288357298,2.865485,71.45914,0.1268648,0.02094366,0.5837548,-0.01370258,4.8199998922646,10
-39.86206,0.4833335,-34.41859,0.9369118561964668,-0.293411754774696,-0.893436213367508,5.654469,71.41676,0.2976483,0.04156549,0.5828435,-0.02668208,4.83999989181757,10
-39.81676,0.6833333,-34.40032,1.0245593941665376,-0.1249255021023618,-0.8797134267201869,8.444686,71.35597,0.4766474,0.06222671,0.5813923,-0.03957145,4.85999989137053,10
-39.77143,0.8833333,-34.38215,1.2048619622184873,-0.1667423449788447,-0.8890189428308304,11.23862,71.31784,0.6452137,0.08282414,0.5797002,-0.05252863,4.8799998909235,10
-39.64499,0.2833333,-34.36105,1.3627625070517553,-0.1787649654929444,-0.898546164459674,3.225899,73.1498,-7.236525e-05,0.02260433,0.5956371,-0.01677288,4.89999989047647,10
-39.59312,0.4833335,-34.3436,1.5055554965262845,-0.2143098011630606,-0.9097328800748272,6.357082,72.92529,0.1005695,0.04511416,0.5933449,-0.03224765,4.91999989002943,10
-39.4681,0.2833335,-34.3193,1.705718693880499,-0.2467179432587986,-0.9500198453690558,3.184083,74.94476,0.01285238,0.02211793,0.6081417,-0.01681348,4.9399998895824,10
-39.41452,0.4833335,-34.30473,1.8665149136747203,-0.2493314547591899,-0.9889314419379254,6.366274,74.73594,0.02064713,0.04424001,0.6059873,-0.0335585,4.95999988913536,10
-39.36483,0.6833336,-34.28832,1.9956957645347015,-0.2754667182985668,-1.0278223132356672,9.35599,74.24124,0.1666894,0.06590471,0.6013894,-0.04806241,4.97999988868833,10
-39.31648,0.8833336,-34.27133,2.1450342546475696,-0.2984652888733874,-1.0745257057683908,12.28529,73.65828,0.3406799,0.08742045,0.5957319,-0.06177528,4.99999988824129,10
-39.18399,0.2833336,-34.26126,2.2556035418690428,-0.2916701205012477,-1.1150230425841237,3.381109,76.80421,0.07463032,0.0235238,0.620891,-0.01781545,5.01999988779426,10
-39.13016,0.4833335,-34.24602,2.3354022392868856,-0.3083967436323604,-1.1503156356735325,6.581678,76.04033,0.1996549,0.04629417,0.6148433,-0.03398722,5.03999988734722,10
-39.0801,0.6833336,-34.22947,2.456412053953052,-0.3219867414892681,-1.206168717109282,9.591827,75.02798,0.4009809,0.06844027,0.6065872,-0.04814658,5.05999988690019,10
-38.9241,0.2833335,-34.21632,2.525494392258466,-0.3057829496096717,-1.252319871330073,3.381121,77.41808,0.1415257,0.02379301,0.6250647,-0.01748593,5.07999988645315,10
-38.87001,0.4833333,-34.20118,2.551059715630068,-0.3131009795502385,-1.2895743957814254,6.594354,76.25088,0.2806072,0.04675387,0.6162506,-0.03358555,5.09999988600612,10
-38.71098,0.2833331,-34.18229,2.694126655032754,-0.3172828424550526,-1.3279322817514512,3.514565,78.17606,0.09659164,0.02433315,0.6301968,-0.01868109,5.11999988555908,10
-38.65262,0.4833331,-34.1684,2.778867715462802,-0.2916704432718665,-1.3535980778231576,6.9459,76.89832,0.1524444,0.0482674,0.6206143,-0.0366282,5.13999988511205,10
-38.59743,0.6833333,-34.15479,2.8146200105749912,-0.2895804217189792,-1.3672461785729624,10.19738,75.56873,0.1581624,0.07107937,0.6101696,-0.05336425,5.15999988466501,10
-38.54307,0.8833332,-34.14132,2.7015411273528187,0.3559602952935238,-1.369431488110358,13.40335,74.2263,0.09059984,0.09353547,0.5991945,-0.06978939,5.17999988421798,10
-38.37555,0.283333,-34.14136,2.7142247494227334,0.1007054904107558,-1.3769662785141747,3.528176,78.39037,0.09263311,0.02436836,0.6316451,-0.01882836,5.19999988377094,10
-38.31535,0.4833328,-34.12808,2.6715973007653986,-0.1493220406597322,-1.3684046942288468,7.056592,77.06628,0.1036887,0.04870329,0.6217425,-0.03763182,5.21999988332391,10
-38.25516,0.683333,-34.11481,2.691385221739459,-0.1550716330365957,-1.3438784221814508,10.58332,75.73151,0.03201427,0.07297839,0.6111771,-0.05638973,5.23999988287687,10
-38.06369,0.2833336,-34.11596,2.652617525981796,-0.1299818149903626,-1.299869898597894,3.550637,81.12434,0.1493841,0.02438296,0.6499295,-0.01915568,5.25999988242984,10
-38.00272,0.4833339,-34.10455,2.567322589429473,-0.1273682781387576,-1.238368340064504,7.10276,79.80953,0.2173765,0.04873217,0.6401902,-0.03828518,5.2799998819828,10
-37.94176,0.6833341,-34.09314,2.3622987192136904,0.5197411477215788,-1.1692067160535125,10.65448,78.48752,0.2031109,0.07302046,0.62976,-0.05736818,5.29999988153577,10
-37.80388,0.2833336,-34.1055,2.3000566699991936,0.267101182098171,-1.1056871572865603,3.537669,82.85725,0.1990819,0.02429252,0.66133,-0.01912232,5.31999988108873,10
-37.74294,0.4833341,-34.09509,2.1114900416060323,0.5009259301105875,-1.0428806123173473,7.077893,81.55106,0.3176313,0.04855092,0.6517197,-0.03821853,5.3399998806417,10
-37.68202,0.6833341,-34.08468,1.8934818717198847,0.7420682354507222,-0.9690708213472484,10.61892,80.24098,0.3552361,0.07274939,0.6414099,-0.0572686,5.35999988019466,10
-37.46771,0.2833333,-34.09636,1.8424047325912056,0.2979429737930796,-0.9036182368301624,3.491294,84.63933,0.2611259,0.02405747,0.6729009,-0.01882525,5.37999987974763,10
-37.40738,0.4833333,-34.08683,1.7664098063188618,-0.1665680919684999,-0.8292625497077282,6.986585,83.34277,0.4434366,0.04808184,0.6634409,-0.03762539,5.39999987930059,10
-37.34706,0.6833333,-34.0773,1.740187433479946,-0.1733628156925313,-0.7604905939007303,10.4838,82.04654,0.5466756,0.07204394,0.6532843,-0.05638131,5.41999987885356,10
-37.11189,0.2833331,-34.087,1.6760367427247047,-0.1493178381078851,-0.6849295741372181,3.43865,85.15343,0.2733186,0.0237066,0.6762175,-0.01854396,5.43999987840652,10
-37.05241,0.4833331,-34.07786,1.4980140764737797,0.3324424949948827,-0.6123774734711347,6.881201,83.86177,0.4692276,0.04737825,0.6668409,-0.03706203,5.45999987795949,10
-36.99294,0.683333,-34.06872,1.2936630501415678,0.7938176078557097,-0.5337506903920755,10.32627,82.57159,0.5880201,0.0709935,0.6567826,-0.05553694,5.47999987751245,10
-36.8332,0.2833331,-34.07998,1.2477785366844645,0.329829111644448,-0.4685686320825368,3.396562,84.13781,0.1814108,0.02306039,0.6696939,-0.01868229,5.49999987706542,10
-36.77448,0.4833331,-34.07145,1.185224972443045,-0.1545443801325319,-0.3997860479314568,6.795002,82.84176,0.2858796,0.04608688,0.6603095,-0.03733982,5.51999987661839,10
-36.71576,0.683333,-34.06292,1.0179729831132356,0.2456744414454512,-0.3210886386339098,10.19394,81.54178,0.3132279,0.06905988,0.6502673,-0.05595464,5.53999987617135,10
-36.48705,0.2833333,-34.0756,1.031713167140353,-0.01480731134275,-0.2552116869824417,3.351998,83.04768,0.1023377,0.02248881,0.6626282,-0.01872077,5.55999987572432,10
-36.42912,0.4833331,-34.06741,1.029715927025002,-0.2700621578677202,-0.1882925042149814,6.704175,81.74857,0.1286154,0.04494634,0.6532319,-0.03741664,5.57999987527728,10
-36.3712,0.683333,-34.05922,0.8982989596575237,0.1458368751271954,-0.1183164615483001,10.05509,80.44109,0.07803439,0.06735274,0.6432015,-0.05607048,5.59999987483025,10
-36.12062,0.2833329,-34.06813,0.864657079102745,-0.0989632559847594,-0.0668112266530798,3.302597,81.22408,359.9739,0.02172734,0.6506684,-0.0189307,5.61999987438321,10
-36.06351,0.4833329,-34.06044,0.6981215098675619,0.1416561552049735,-0.0208465911617921,6.602684,79.91781,359.8723,0.04342659,0.641221,-0.03783748,5.63999987393618,10
-36.00642,0.6833326,-34.05276,0.5178592859649065,0.3885476727408731,0.0230128829616802,9.898319,78.59594,359.6935,0.06507464,0.6311684,-0.05670232,5.65999987348914,10
-35.94935,0.8833326,-34.04507,0.5186177402900114,-0.0508729872793076,0.0453554658584955,13.18798,77.24924,359.4348,0.08665386,0.6205209,-0.07550765,5.67999987304211,10
-35.73412,0.2833333,-34.05541,0.5131934689849302,-0.51172451174977,0.0637146237450849,3.251215,78.81642,359.8641,0.02116591,0.6346113,-0.0189255,5.69999987259507,10
-35.67792,0.4833336,-34.04737,0.3789728925104789,-0.0890290684345581,0.092408008210608,6.497507,77.50622,359.6536,0.04230537,0.6250906,-0.03782784,5.71999987214804,10
-35.48198,0.2833333,-34.04828,0.442838673946337,-0.328078861617436,0.1005206494936103,3.220033,76.84848,359.7831,0.02083576,0.6212745,-0.01894346,5.739999871701,10
-35.42632,0.4833329,-34.0398,0.4915260560109082,-0.5629474448417302,0.1020092187964323,6.43341,75.53426,359.4921,0.04164665,0.6116793,-0.03786426,5.75999987125397,10
-35.37068,0.6833329,-34.03133,0.3804754006252935,-0.1277081202294415,0.1123135379116178,9.638193,74.19439,359.1243,0.06241238,0.6015313,-0.05674456,5.77999987080693,10
-35.31505,0.8833328,-34.02285,0.261216527264537,0.286099838048214,0.1164617719512577,12.83214,72.81995,358.6764,0.08311444,0.5908408,-0.07556201,5.7999998703599,10
-35.10398,0.2833336,-34.03153,0.3017981503347968,-0.2265016130692505,0.0936115375178374,3.371697,76.26776,359.7557,0.02182443,0.6172818,-0.01984264,5.81999986991286,10
-35.04568,0.4833339,-34.02235,0.2466320693884505,-0.0402449071067489,0.0923014111450513,6.736029,74.95479,359.4337,0.0436207,0.6076204,-0.03966033,5.83999986946583,10
-34.9874,0.6833339,-34.01318,0.1905959887733175,0.1522834017494536,0.0867428306737814,10.09116,73.61252,359.031,0.06536804,0.5973637,-0.05943314,5.85999986901879,10
-34.75613,0.2833331,-34.02057,0.3253152610975505,-0.3415008566273432,0.058783568594336,3.536016,78.47221,359.7974,0.02277879,0.6322576,-0.02088384,5.87999986857176,10
-34.69484,0.4833328,-34.0124,0.2780929265903502,-0.1364273547447301,0.0523355002524184,7.065682,77.16518,359.5135,0.04552666,0.6226559,-0.04174099,5.89999986812472,10
-34.48387,0.2833333,-34.01303,0.3845913924498525,-0.3519565818201779,0.0335083293260396,3.563991,79.59947,359.836,0.02297525,0.6398301,-0.02100443,5.91999986767769,10
-34.4221,0.4833336,-34.00532,0.4797002719958776,-0.562258573589312,0.0118757372470454,7.122529,78.29836,359.5904,0.04591848,0.6302907,-0.04198262,5.93999986723065,10
-34.36034,0.6833333,-33.9976,0.3674782336885371,-0.1014066860999134,0.0090319320907923,10.67359,76.97035,359.2605,0.06880525,0.6200715,-0.06290969,5.95999986678362,10
-34.2986,0.8833336,-33.98989,0.2485659140435565,0.3390596751034989,0.0035455285307897,14.21491,75.60433,358.8414,0.09160921,0.6091843,-0.08376221,5.97999986633658,10
-34.07873,0.2833331,-33.99716,0.30537929251539,-0.1458371692365647,-0.0243376102109316,3.592809,80.56595,359.9695,0.02374205,0.6462517,-0.02047157,5.99999986588955,10
-34.0167,0.4833336,-33.98809,0.240307829968053,0.0691685266847662,-0.0306168011325453,7.183148,79.28243,359.8589,0.04745485,0.636784,-0.04091186,6.01999986544251,10
-33.95468,0.6833341,-33.97902,0.1748038460812324,0.2914922511527844,-0.0377036852330512,10.76908,77.98039,359.6655,0.07110836,0.6266212,-0.06130134,6.03999986499548,10
-33.71476,0.2833333,-33.98443,0.3131575068488423,-0.1714510406196615,-0.0633387984947084,3.56261,81.79424,0.04713359,0.02376561,0.6543767,-0.02004043,6.05999986454844,10
-33.65326,0.4833333,-33.97543,0.2505537367486177,0.0655079975674591,-0.0651848809044075,7.124153,80.52193,0.01511687,0.04749697,0.6450153,-0.04005223,6.07999986410141,10
-33.59176,0.6833333,-33.96642,0.1831653822775933,0.3097854121617474,-0.0667106145651992,10.68309,79.23645,359.9025,0.07116982,0.6349608,-0.06001497,6.09999986365438,10
-33.43096,0.2833336,-33.9738,0.3364616238510933,-0.1312038554756469,-0.0832126173981215,3.638137,82.32047,0.0589222,0.02423696,0.6578231,-0.02050553,6.11999986320734,10
-33.36806,0.4833338,-33.96499,0.2553550999642908,0.1277094485106829,-0.0801192987934307,7.275654,81.05289,0.03731861,0.04843947,0.6484739,-0.04098232,6.13999986276031,10
-33.30519,0.6833335,-33.95619,0.1604692849706559,0.3939408390640054,-0.0761979886148758,10.91148,79.77222,359.9335,0.07258384,0.6384009,-0.06141258,6.15999986231327,10
-33.07445,0.2833338,-33.9641,0.0659830347375169,0.6152204393511463,-0.0725019906219692,3.642177,83.23773,0.07860895,0.02421243,0.6638206,-0.02059392,6.17999986186624,10
-33.0114,0.4833338,-33.95596,0.1571384838547977,-0.1144758658182459,-0.0881014466599481,7.284227,81.97585,0.0770364,0.04839104,0.6545429,-0.04115898,6.1999998614192,10
-32.94838,0.6833341,-33.94781,0.0657349848643775,0.0691678043929479,-0.0814354014318645,10.92424,80.7022,359.9938,0.07250685,0.6445338,-0.06167204,6.21999986097217,10
-32.69757,0.2833338,-33.95358,-0.0241141274946556,0.2601290493553754,-0.0733288061087336,3.592438,85.01842,0.1513923,0.02399866,0.6753456,-0.02020651,6.23999986052513,10
-32.63528,0.4833336,-33.9462,-0.0722730456337785,0.2460161108272799,-0.0705960061672499,7.186382,83.76735,0.2244466,0.04796433,0.6662154,-0.0403856,6.2599998600781,10
-32.573,0.6833338,-33.93882,-0.1308757842619918,0.2669249471629734,-0.0657722798698579,10.77994,82.50973,0.2184637,0.07186951,0.6563582,-0.06051397,6.27999985963106,10
-32.51073,0.8833338,-33.93143,-0.1853318482550747,0.2695391772962473,-0.0601846108399257,14.37116,81.2352,0.1307519,0.09568424,0.6457858,-0.08057093,6.29999985918403,10
-32.30251,0.2833331,-33.94207,-0.0039754537380041,-0.4397706801445598,-0.0698362276549744,3.530607,85.87548,0.2126495,0.023816,0.6808369,-0.01962684,6.31999985873699,10
-32.24126,0.4833335,-33.93461,0.002884070913641,-0.236786207371415,-0.0596121351153051,7.063846,84.63518,0.3490768,0.04759875,0.6718189,-0.03922629,6.33999985828996,10
-32.18003,0.6833333,-33.92715,0.0121675549893183,-0.0275293760467199,-0.0499340345572285,10.59827,83.39274,0.4090347,0.07132384,0.6620898,-0.05877906,6.35999985784292,10
-31.95125,0.2833331,-33.93529,0.0378154745344616,0.1357289093574284,-0.0421471258895564,3.469519,86.3542,0.2588145,0.02362077,0.6838905,-0.01906787,6.37999985739589,10
-31.89104,0.4833328,-33.92758,0.0554359450738459,0.067254550586344,-0.0380114193572076,6.942474,85.12181,0.443394,0.04720874,0.674955,-0.03810763,6.39999985694885,10
-31.68254,0.2833336,-33.92909,0.070036362889688,0.0338015907667093,-0.0330644652490832,3.420323,85.86822,0.2315937,0.02322554,0.6808079,-0.01884905,6.41999985650182,10
-31.62323,0.4833338,-33.9214,-0.0846527841770168,0.462245376757164,-0.0179356619134658,6.843463,84.63575,0.3898361,0.04641834,0.671889,-0.03767129,6.43999985605478,10
-31.56393,0.6833337,-33.91372,-0.046230518318616,0.2341714162005138,-0.018890993247826,10.26828,83.40301,0.4747239,0.06955776,0.6622984,-0.05645059,6.45999985560775,10
-31.50465,0.8833337,-33.90603,-0.0151527345200364,0.0155065346020096,-0.0180076733015894,13.69313,82.16098,0.4849236,0.09261978,0.6520466,-0.07516792,6.47999985516071,10
-31.28679,0.2833333,-33.91559,0.0220671084243306,-0.2481115300113574,-0.0165569740086688,3.379074,83.83986,0.1280919,0.02268468,0.667776,-0.01886642,6.49999985471368,10
-31.22832,0.4833333,-33.90767,0.1007217081450733,-0.2909723748427602,-0.0124445278691531,6.758825,82.60311,0.1834906,0.04533919,0.6588026,-0.03770588,6.51999985426664,10
-31.16988,0.6833334,-33.89975,0.1642646579810858,-0.2998582542162799,-0.0080815838526824,10.13798,81.36005,0.1653183,0.06794184,0.6491874,-0.05650309,6.53999985381961,10
-30.93283,0.2833331,-33.90724,0.2264190146437918,-0.3280848330045451,-0.0049174735060866,3.328248,82.48403,0.04154886,0.0220753,0.658955,-0.01887207,6.55999985337257,10
-30.87527,0.4833331,-33.89955,0.0873203592164628,0.291321643751621,0.0129760409389128,6.655214,81.24345,0.01089199,0.04411939,0.6499602,-0.03771891,6.57999985292554,10
-30.81773,0.6833333,-33.89186,0.120061069433671,0.014114376926165,0.0081421741556546,9.979753,79.99174,359.9069,0.06611426,0.6403504,-0.05652456,6.5999998524785,10
-30.56199,0.2833333,-33.89738,0.1487654307137518,-0.2536842055837644,0.0022379982617231,3.277539,80.76341,359.9197,0.02133043,0.6476269,-0.01906175,6.61999985203147,10
-30.50524,0.4833331,-33.8902,0.0677241927380798,0.1538521789845794,0.0134787964678615,6.551636,79.51622,359.7679,0.04263481,0.6385905,-0.03810033,6.63999985158443,10
-30.44851,0.6833332,-33.88302,0.1839754711884289,-0.0951299793359351,0.0045129517845587,9.820261,78.25116,359.5424,0.06388892,0.6289666,-0.05709723,6.6599998511374,10
-30.3918,0.8833336,-33.87585,0.2978546164604871,-0.334702801265872,-0.0058764202197281,13.08213,76.95948,359.2405,0.08507679,0.6187649,-0.07603572,6.67999985069036,10
-30.17482,0.2833331,-33.88555,0.2215767584377381,0.1010598482061131,0.0010025229395829,3.226243,77.99899,359.8134,0.02085258,0.629099,-0.01898085,6.69999985024333,10
-30.119,0.4833331,-33.87762,0.3582225836762909,-0.1196964330582094,-0.0091025408565919,6.446703,76.74804,359.556,0.04167984,0.6199763,-0.03793868,6.7199998497963,10
-30.0632,0.6833331,-33.8697,0.4832345884781261,-0.3310445261415972,-0.0202279866808545,9.659791,75.4737,359.2255,0.06246289,0.6102986,-0.05685666,6.73999984934926,10
-29.82611,0.2833333,-33.87711,0.3851545204567301,0.1329433260965455,-0.0168867401677417,3.281491,77.00226,359.7646,0.02112952,0.6223195,-0.01943128,6.75999984890223,10
-29.76929,0.4833333,-33.86884,0.2782626403374237,0.580727486117598,-0.0141569806296182,6.556189,75.75031,359.4572,0.04223331,0.6131453,-0.03883879,6.77999984845519,10
-29.71248,0.6833333,-33.86057,0.3424359468152076,0.1073302304954596,-0.0329161214412785,9.822396,74.47149,359.075,0.06329121,0.6034049,-0.05820465,6.79999984800816,10
-29.45227,0.2833338,-33.86603,0.4029457850029807,-0.3822705465062032,-0.0517336310286431,3.532372,78.58272,359.7781,0.02262756,0.6330084,-0.02101579,6.81999984756112,10
-29.39095,0.4833338,-33.85828,0.2986372720477419,0.0169027846259626,-0.0501557313636737,7.05824,77.33312,359.4787,0.04522514,0.6238145,-0.04200409,6.83999984711409,10
-29.32966,0.6833341,-33.85054,0.3891301658669732,-0.2404429696118738,-0.0664189710571996,10.5776,76.05396,359.0978,0.06777722,0.6139625,-0.06295706,6.85999984666705,10
-29.26839,0.8833338,-33.8428,0.4747416528420025,-0.4883796882761213,-0.0814095013766937,14.08663,74.73472,358.6311,0.09025079,0.6034644,-0.08383791,6.87999984622002,10
-29.04846,0.2833331,-33.85406,0.3688012360365675,-0.0609807161763917,-0.0776361604002282,3.562582,79.96828,359.8318,0.02287475,0.6422993,-0.02109823,6.89999984577298,10
-28.98665,0.4833328,-33.84678,0.3695803285153118,-0.2900996145920727,-0.0914636885088917,7.119931,78.7283,359.5859,0.04571831,0.6331924,-0.04217051,6.91999984532595,10
-28.92485,0.6833326,-33.8395,0.1947701664243375,-0.0296185969890928,-0.0926410738316114,10.67007,77.46194,359.2596,0.06850568,0.6234098,-0.0631916,6.93999984487891,10
-28.68446,0.2833331,-33.84747,0.0172690992340669,0.2413161755556327,-0.0922129170826977,3.593064,81.80955,359.9854,0.02361109,0.6544849,-0.02062452,6.95999984443188,10
-28.62228,0.4833331,-33.83944,0.0305329853399598,-0.1698793598428559,-0.1114391039289088,7.184208,80.58756,359.8944,0.04719295,0.6454802,-0.04121971,6.97999984398484,10
-28.56011,0.6833329,-33.83142,0.046125350007081,-0.5983241082211675,-0.129426548543897,10.77155,79.34883,359.7246,0.0707159,0.6357775,-0.06176449,6.99999984353781,10
-28.29962,0.2833335,-33.8371,-0.1116525071445515,-0.1390403354377388,-0.1267758830528222,3.562618,82.71962,0.04719914,0.02360343,0.6604566,-0.02023131,7.01999984309077,10
-28.23798,0.4833332,-33.82906,-0.0579481807115733,-0.3373199175173063,-0.1412169192640178,7.124263,81.5072,0.0190322,0.04717384,0.6515383,-0.04043392,7.03999984264374,10
-28.17635,0.6833332,-33.82102,-0.0045577998858341,-0.5272364521718093,-0.1545061652962189,10.68345,80.28235,359.914,0.07068602,0.6419267,-0.06058749,7.0599998421967,10
-28.11474,0.8833333,-33.81298,-0.150840100904908,-0.0428623909943571,-0.1494292666123087,14.23852,79.03508,359.7292,0.09411461,0.6316328,-0.08067065,7.07999984174967,10
-27.894,0.2833336,-33.82434,-0.2910166795190605,0.4242620729276476,-0.1433687408054567,3.636513,83.25574,0.06509258,0.02409396,0.6639419,-0.02065303,7.09999984130263,10
-27.83102,0.4833336,-33.81643,-0.2506049618566841,-0.0308403148779882,-0.1597122419214649,7.272593,82.04967,0.05364085,0.04815435,0.6550422,-0.04127737,7.1199998408556,10
-27.76806,0.6833335,-33.80851,-0.4335710191069175,0.2170960431194958,-0.1592472692850322,10.90723,80.83174,359.9641,0.07215701,0.6454188,-0.06185496,7.13999984040856,10
-27.52731,0.2833333,-33.81812,-0.6133550023664895,0.4754867803432707,-0.156666846695078,3.629113,84.33344,0.0908886,0.02400186,0.6709347,-0.0206686,7.15999983996153,10
-27.46437,0.4833336,-33.81096,-0.5948543045547758,0.0517470510698444,-0.1723691711662915,7.258242,83.13348,0.105759,0.04796943,0.6621175,-0.04130841,7.17999983951449,10
-27.40145,0.683334,-33.8038,-0.5672780287614714,-0.3892424200742058,-0.1854627685470973,10.88581,81.92348,0.04348439,0.07187621,0.652572,-0.06189658,7.19999983906746,10
-27.14057,0.2833333,-33.81156,-0.7078416968993508,0.057496768547546,-0.1770143064337404,3.576428,86.15443,0.1730801,0.02382436,0.6826156,-0.02020986,7.21999983862042,10
-27.07844,0.4833332,-33.80501,-0.6249892758148015,-0.1533271513251948,-0.1847069190375769,7.154643,84.96595,0.2721361,0.04761593,0.673944,-0.040392,7.23999983817339,10
-27.01633,0.6833334,-33.79847,-0.5309360783384136,-0.355787468485442,-0.1899011650960034,10.73302,83.7732,0.2966271,0.0713478,0.6645495,-0.06052479,7.25999983772635,10
-26.95424,0.8833334,-33.79193,-0.6281909077013061,0.1160419695887765,-0.1756661009687334,14.3098,82.56652,0.2444647,0.09499202,0.6544433,-0.08058652,7.27999983727932,10
-26.7359,0.2833335,-33.80397,-0.7103234414114965,0.5706220647037508,-0.1601687380177558,3.51494,86.69852,0.2242686,0.02364462,0.6860759,-0.01962988,7.29999983683228,10
-26.67484,0.4833339,-33.79716,-0.6002913037379258,0.1029746979195858,-0.1684037969178362,7.032669,85.51955,0.3764313,0.04725698,0.6774963,-0.03923309,7.31999983638525,10
-26.61379,0.6833338,-33.79035,-0.707514195797593,0.3383653867059889,-0.1596853313023452,10.55148,84.34006,0.4566676,0.07081198,0.6682121,-0.05878673,7.33999983593822,10
-26.37532,0.2833333,-33.80023,-0.8069270581849572,0.5842102816160599,-0.1494673544164086,3.455299,87.01555,0.2612315,0.02343488,0.6880885,-0.01910319,7.35999983549118,10
-26.31528,0.4833334,-33.79316,-0.7058971454941911,0.147924173123312,-0.1602112339711574,6.913786,85.84344,0.4521812,0.04683699,0.6795799,-0.03817789,7.37999983504415,10
-26.25526,0.6833334,-33.78609,-0.5922310462533602,-0.305610819306177,-0.1704355181695653,10.37446,84.67342,0.5729729,0.07018436,0.6703855,-0.05720859,7.39999983459711,10
-26.0972,0.2833332,-33.79613,-0.6427521138968331,0.1285832908487739,-0.15869726989499,3.411229,86.28792,0.2161007,0.02300607,0.6834886,-0.01897836,7.41999983415008,10
-26.03798,0.4833332,-33.78913,-0.4748846650304337,-0.0947858911346164,-0.162885159855012,6.824831,85.1152,0.3625649,0.04598016,0.6749898,-0.03793039,7.43999983370304,10
-25.97878,0.6833331,-33.78213,-0.3006961739592171,-0.3097913478310844,-0.1640203192888911,10.23974,83.94199,0.4393708,0.06890168,0.6658268,-0.05683968,7.45999983325601,10
-25.75116,0.2833333,-33.79391,-0.3208667937311205,0.1494927392725575,-0.1452889776956141,3.366212,85.03317,0.127888,0.02240309,0.6754875,-0.01902711,7.47999983280897,10
-25.69277,0.4833334,-33.7872,-0.3324884264191254,0.5915276967678962,-0.1252842210759226,6.732982,83.8561,0.1865934,0.04477478,0.6669718,-0.03802881,7.49999983236194,10
-25.6344,0.6833334,-33.7805,-0.1665410837665177,0.111336057790094,-0.1290304423511123,10.0993,82.67345,0.1756573,0.06709671,0.6578175,-0.05698849,7.5199998319149,10
-25.38789,0.2833335,-33.79051,-0.2236799509244242,0.3341825148925306,-0.1155600701673904,3.315507,83.40185,0.01151256,0.02166615,0.6649618,-0.01916996,7.53999983146787,10
-25.33039,0.4833334,-33.78426,-0.2791014867376766,0.5674834608151704,-0.1010689326383627,6.629596,82.21822,359.9545,0.04330566,0.6564122,-0.03831637,7.55999983102083,10
-25.2729,0.6833336,-33.77801,-0.1399815571984319,0.1186538492027399,-0.1088058793764403,9.940434,81.0224,359.8274,0.06489421,0.6472526,-0.05742038,7.5799998305738,10
-25.21543,0.8833333,-33.77176,0.0060622246103427,-0.3474247826854348,-0.1167181328119895,13.24701,79.80599,359.628,0.0864156,0.637492,-0.07646558,7.59999983012676,10
-25.00784,0.2833333,-33.78631,-0.0187169671824669,0.0742241147545341,-0.1031365376193349,3.264517,81.56017,359.895,0.02097088,0.6529119,-0.01929826,7.61999982967973,10
-24.95117,0.4833332,-33.78035,0.1633380841557823,-0.1616904561826972,-0.1139905076544458,6.525231,80.37144,359.7221,0.04191631,0.644325,-0.03857345,7.63999982923269,10
-24.89451,0.6833332,-33.77439,0.3435422877530172,-0.3892415222404739,-0.1258735279163474,9.780351,79.16418,359.4792,0.06281437,0.6351558,-0.05780657,7.65999982878566,10
-24.66837,0.2833334,-33.78647,0.3217744456379776,0.0574976774452123,-0.119170936865327,3.21454,79.1682,359.7913,0.02045653,0.6369978,-0.01927587,7.67999982833862,10
-24.61253,0.4833334,-33.78007,0.300157595704821,0.4869873612432639,-0.1130373542595961,6.423138,77.97456,359.5153,0.04088851,0.6283384,-0.03852918,7.69999982789159,10
-24.55671,0.6833334,-33.77368,0.545429507081792,-0.0057503404557094,-0.1553305153556863,9.624317,76.75703,359.1696,0.06127798,0.6191257,-0.05774253,7.71999982744455,10
-24.30872,0.2833337,-33.78373,0.5465059144226494,0.2045513533713179,-0.1797769441448018,3.370501,78.95251,359.7665,0.02140557,0.6355284,-0.02026896,7.73999982699752,10
-24.25012,0.483334,-33.77705,0.5283239536847795,0.4253072218725651,-0.2027130590842851,6.734534,77.75876,359.4624,0.04278427,0.6268069,-0.04051279,7.75999982655048,10
-24.19153,0.683334,-33.77038,0.5037309408627948,0.6042465985811609,-0.2252405925940905,10.09055,76.53769,359.0847,0.06411538,0.6174843,-0.06071229,7.77999982610345,10
-24.13296,0.883334,-33.76371,0.6333849621229071,-0.1646529977160022,-0.2990815716562522,13.43807,75.2801,358.629,0.08538567,0.6075695,-0.08085577,7.79999982565641,10
-23.9217,0.2833333,-33.77911,0.5759236989528453,-0.017075702647032,-0.3474733115161825,3.535188,80.46804,359.7912,0.02237155,0.6456456,-0.02131356,7.81999982520938,10
-23.86016,0.4833331,-33.77312,0.5121932982293593,0.140955523428305,-0.3917603848360294,7.064497,79.27958,359.5086,0.04471318,0.6369447,-0.04260062,7.83999982476234,10
-23.79866,0.6833332,-33.76714,0.6259154053595637,-0.3831440733915587,-0.4866283755737193,10.58725,78.06315,359.1485,0.067006,0.6275779,-0.06384619,7.85999982431531,10
-23.56874,0.2833332,-33.78095,0.5249221778798727,-0.2042044153803134,-0.5554344988939128,3.566836,82.45821,359.8665,0.02263853,0.6587791,-0.02138687,7.87999982386827,10
-23.50667,0.4833333,-33.77573,0.4128365482723879,-0.0148108685276083,-0.6175961472979097,7.129356,81.28,359.659,0.045245,0.6501815,-0.04274853,7.89999982342124,10
-23.44463,0.6833335,-33.7705,0.4831133730805241,-0.5075479327872803,-0.7405003336457838,10.68582,80.07832,359.3751,0.0677965,0.6408952,-0.0640585,7.91999982297421,10
-23.1942,0.2833333,-33.78108,0.428331463219358,-0.297246022908668,-0.83319429657206,3.590788,83.84676,0.02161035,0.02343699,0.6678038,-0.02079274,7.93999982252717,10
-23.13187,0.4833334,-33.77461,0.3677626115857606,-0.0764900651990215,-0.9152782883690662,7.180459,82.68662,359.971,0.04684646,0.6592848,-0.04155451,7.95999982208014,10
-23.06956,0.6833334,-33.76814,0.3152333531479598,0.1024495278225144,-0.9882104917293936,10.76734,81.51289,359.8461,0.07019811,0.65006,-0.06226599,7.9799998216331,10
-23.00728,0.8833335,-33.76167,0.1919109588781182,0.0538382845153209,-1.0921195531768717,14.34987,80.31579,359.6437,0.09346664,0.6401401,-0.0829046,7.99999982118607,10
-22.79859,0.2833333,-33.77723,0.0678073551724445,0.0444298351558973,-1.1788470511426716,3.568865,84.4465,0.04646154,0.0233319,0.6716859,-0.02062608,8.01999982073903,10
-22.73663,0.4833332,-33.77102,-0.0433903198337084,0.0209084369013834,-1.25027393249027,7.136791,83.29336,0.02098505,0.04663073,0.6632383,-0.04122409,8.039999820292,10
-22.67468,0.6833332,-33.76481,-0.2113386138102484,0.0099314014427892,-1.3128889756048316,10.70244,82.12843,359.9223,0.06987243,0.6540891,-0.06177252,8.05999981984496,10
-22.44387,0.2833332,-33.77892,-0.3819746505182557,0.038157411788873,-1.3556113388607152,3.647202,85.74006,0.0861417,0.02383381,0.6799754,-0.02109936,8.07999981939793,10
-22.38044,0.4833335,-33.77333,-0.5416716904373367,0.0522699498374737,-1.380772105634776,7.29431,84.59399,0.09931712,0.04763364,0.6715698,-0.04216933,8.09999981895089,10
-22.31703,0.6833333,-33.76775,-0.5167208421734841,-0.6413597779026876,-1.377298579794715,10.93997,83.43816,0.03847356,0.07137402,0.6624246,-0.06318682,8.11999981850386,10
-22.06903,0.2833333,-33.78453,-0.6539647382806102,-0.4185123979637721,-1.3337798137978218,3.618639,87.8176,0.1228608,0.02349002,0.6931419,-0.02112444,8.13999981805682,10
-22.00598,0.4833334,-33.78063,-0.7784990774154217,-0.1852108152987731,-1.2747843665623115,7.237917,86.67853,0.1738048,0.04694672,0.6848779,-0.04221987,8.15999981760979,10
-21.94294,0.6833334,-33.77673,-0.8764570850017108,0.0062744268096838,-1.2030149998896214,10.85643,85.53236,0.1520226,0.07034443,0.6758703,-0.06326357,8.17999981716275,10
-21.87993,0.8833335,-33.77283,-1.1374518893094887,0.7101306081501515,-1.0995281363489156,14.47257,84.36937,0.05455413,0.09365264,0.6661295,-0.08423606,8.19999981671572,10
-21.57862,0.2833333,-33.81258,-1.2609467153967486,0.4110381790159393,-0.9771819119375884,3.549158,92.18854,0.2609404,0.0231148,0.7200854,-0.02073294,8.21999981626868,10
-21.51656,0.4833331,-33.81104,-1.3512241500280666,0.1270693851413455,-0.8412410595442772,7.101728,91.06704,0.4526121,0.04619774,0.7121133,-0.04143845,8.23999981582165,10
-21.45451,0.683333,-33.80949,-1.62549731938293,0.5241507206363629,-0.6755880523327029,10.65628,89.94782,0.5754011,0.06922435,0.7033921,-0.06209405,8.25999981537461,10
-21.39248,0.8833331,-33.80795,-1.7949170640588932,0.2704284210634083,-0.4559478914788322,14.2111,88.82195,0.627205,0.09216149,0.6939317,-0.08268248,8.27999981492758,10
-21.19197,0.2833333,-33.85382,-1.9285756102058895,0.0318298844644411,-0.2315784310676463,3.483554,93.55393,0.283135,0.02261533,0.7283031,-0.02045728,8.29999981448054,10
-21.13099,0.4833334,-33.85327,-2.0142837889782275,-0.2460064990584921,-0.0064471884400205,6.970928,92.43884,0.4987505,0.04520039,0.7204694,-0.04088763,8.31999981403351,10
-21.07004,0.6833337,-33.85271,-2.169562626202568,-0.2973716062915165,0.2840429524640733,10.46036,91.32767,0.6467929,0.06772596,0.7119029,-0.06127105,8.33999981358647,10
-20.84916,0.2833335,-33.9022,-2.285004591087203,-0.3090458801229669,0.5727266320316353,3.425573,95.4782,0.2922457,0.02198735,0.7397059,-0.02040637,8.35999981313944,10
-20.7892,0.4833334,-33.90343,-2.3491492968650896,-0.3343454774655316,0.8554949498086906,6.854863,94.36707,0.5175001,0.04393884,0.7320315,-0.04078956,8.3799998126924,10
-20.72924,0.6833333,-33.90467,-2.5527799653880248,0.293701879125879,1.1520497458925618,10.28689,93.26067,0.6771952,0.06584014,0.7236348,-0.06112676,8.39999981224537,10
-20.5004,0.2833333,-33.96778,-2.709487731222991,0.0308505756727077,1.4607089367096364,3.378679,95.74763,0.1879107,0.02099,0.7413136,-0.02076512,8.41999981179833,10
-20.44145,0.4833332,-33.97102,-2.8078725626592096,-0.2168775484071169,1.7596600933697282,6.759077,94.63042,0.3091369,0.04194542,0.7337058,-0.0415078,8.4399998113513,10
-20.38252,0.6833331,-33.97426,-3.063404946875723,0.2164450532024749,2.063577552951621,10.14022,93.51175,0.3645059,0.06285395,0.7253948,-0.06220469,8.45999981090426,10
-20.3236,0.883333,-33.97749,-3.246333500009662,-0.001035676389801,2.3729478671150304,13.52082,92.38366,0.3527383,0.08369531,0.7163897,-0.08283596,8.47999981045723,10
-20.16204,0.2833334,-34.03802,-3.370864511253016,-0.2033927639272861,2.661323176600192,3.32868,92.27496,0.02461473,0.02028037,0.720696,-0.02079217,8.49999981001019,10
-20.10401,0.4833334,-34.04046,-3.427043830586035,-0.4449878049335318,2.924383799978674,6.655869,91.14802,359.9841,0.04053579,0.7129565,-0.04155429,8.51999980956316,10
-20.04601,0.6833335,-34.0429,-3.5807448117042107,0.1802025580331432,3.18440258252809,9.980645,90.0102,359.8769,0.06074701,0.7045548,-0.06227165,8.53999980911613,10
-19.85448,0.2833331,-34.0684,-3.6059826426857375,-0.0855056683924087,3.4580649182895518,3.274173,86.80983,359.854,0.01988041,0.6868953,-0.02055624,8.55999980866909,10
-19.7973,0.4833331,-34.0683,-3.5608449359339325,-0.3360902830800872,3.6948346160091177,6.543846,85.67171,359.6428,0.03973701,0.6789192,-0.04108717,8.57999980822206,10
-19.74014,0.6833329,-34.0682,-3.63875408798374,0.0943754635959465,3.915426257600302,9.807475,84.51327,359.365,0.05955484,0.6703315,-0.06156816,8.59999980777502,10
-19.53301,0.2833334,-34.05551,-3.5424395186147244,-0.1259624964937514,4.13822379461223,3.219332,81.24828,359.7507,0.01990454,0.6508819,-0.01993986,8.61999980732799,10
-19.4768,0.4833336,-34.05177,-3.3872881692506205,-0.331176402549645,4.310754124596279,6.432134,80.10519,359.437,0.03978579,0.6426804,-0.03985547,8.63999980688095,10
-19.42061,0.6833336,-34.04803,-3.3863188119867083,0.1446599342782701,4.457183976653155,9.637069,78.93637,359.056,0.05962611,0.6339158,-0.05972994,8.65999980643392,10
-19.36443,0.8833337,-34.0443,-3.3345305059531167,0.6100070925029581,4.553273791388893,12.83254,77.73415,358.6056,0.07941548,0.6245977,-0.07953524,8.67999980598688,10
-19.30827,0.9766705,-34.04058,-3.115181997318963,0.1598878160841133,4.603716043761516,16.01698,76.4897,358.0794,0.09912934,0.614734,-0.09926412,8.69999980553985,10
-19.15306,0.2833333,-34.02792,-2.8422201130007,-0.3007206271770878,4.595803389585146,3.309735,71.38286,359.5976,0.02140657,0.5832552,-0.0196992,8.71999980509281,10
-19.09597,0.4833333,-34.01661,-2.7937953730031198,0.1331597097762778,4.580647614648239,6.609929,70.23114,359.1282,0.0427876,0.574613,-0.03937376,8.73999980464578,10
-19.03889,0.6833334,-34.00529,-2.546823370849649,-0.0837627166398641,4.511608007513704,9.898979,69.04354,358.588,0.06412286,0.5654392,-0.05900526,8.75999980419874,10
-18.9119,0.2833333,-33.95116,-2.273527129276067,-0.2855612640414106,4.385207810279461,3.499594,67.58622,359.6038,0.0234537,0.5560207,-0.01985553,8.77999980375171,10
-18.85263,0.4833335,-33.93475,-1.9665778560980665,-0.5265977510600242,4.2017615522405904,6.989803,66.43568,359.1368,0.04687823,0.5471736,-0.0396842,8.79999980330467,10
-18.79339,0.6833335,-33.91837,-1.581170685973106,-0.5411633708928625,3.9973273373355935,10.47081,65.24702,358.5971,0.07027379,0.5377679,-0.05945711,8.81999980285764,10
-18.68395,0.2833332,-33.86265,-1.1888904008547296,-0.5160384580539957,3.741743092026351,3.545379,63.78492,359.711,0.02493275,0.5281383,-0.01848346,8.8399998024106,10
-18.62601,0.483333,-33.84036,-0.7821692798955517,-0.5045393156394098,3.436574075217898,7.084111,62.6473,359.3539,0.04984956,0.519168,-0.03692539,8.85999980196357,10
-18.56809,0.6833329,-33.81807,-0.5455073204819136,0.1603072264897865,3.143569050276032,10.61395,61.47743,358.922,0.07470634,0.5096582,-0.05532325,8.87999980151653,10
-18.51019,0.8833328,-33.7958,-0.3003705023294003,0.6741774242641116,2.8134910974694662,14.13315,60.26543,358.4104,0.09947685,0.4996193,-0.07365802,8.8999998010695,10
-18.45526,0.2833333,-33.75257,0.1739220071271958,0.1610199248347253,2.391878734091474,3.576946,60.37213,359.8919,0.0265035,0.5025901,-0.01650746,8.91999980062246,10
-18.39981,0.4833331,-33.72383,0.4423467819718194,0.3581492396375706,2.0138706687464207,7.150661,59.25566,359.717,0.05298859,0.4935344,-0.03297168,8.93999980017543,10
-18.34438,0.6833332,-33.69511,0.6931736323054913,0.5729808958994971,1.619118073949263,10.7192,58.11823,359.4696,0.07940923,0.4839609,-0.04939599,8.95999979972839,10
-18.27081,0.2833331,-33.64491,1.113482925834191,0.1129304075183634,1.17098352259611,3.563095,57.95275,359.9557,0.02701013,0.4842253,-0.01539865,8.97999979928136,10
-18.21741,0.4833331,-33.61305,1.5084001467138162,-0.3571208873101702,0.7140385356027856,7.123631,56.84548,359.8434,0.05398759,0.4751281,-0.03076939,8.99999979883432,10
-18.16403,0.683333,-33.58121,1.7625623805477826,0.0678036821112184,0.3212314243692837,10.68031,55.72152,359.6609,0.0809031,0.4655375,-0.04609799,9.01999979838729,10
-18.11066,0.8833331,-33.54938,2.193863533810246,-0.1575869070126778,-0.0985895141656669,14.23168,54.57148,359.404,0.107725,0.4554639,-0.06137387,9.03999979794025,10
-18.00082,0.2833335,-33.47651,2.5853881872129545,-0.367366252916499,-0.5064225515897647,3.638024,57.71452,0.03552422,0.02795034,0.4823774,-0.01504844,9.05999979749322,10
-17.94716,0.4833335,-33.44256,2.7852627814627926,0.1043930988938958,-0.8698276552857891,7.275062,56.61884,0.001469435,0.05586235,0.4732768,-0.03007609,9.07999979704618,10
-17.89351,0.6833335,-33.40862,2.94471925490844,0.5661513011007648,-1.2115330079638404,10.90974,55.51088,359.8964,0.083705,0.4636655,-0.04506661,9.09999979659915,10
-17.73635,0.2833333,-33.33463,3.231264119588685,0.1129314460469814,-1.563629065545122,3.603388,60.49879,0.1419265,0.02778303,0.5034818,-0.01476914,9.11999979615211,10
-17.68253,0.4833335,-33.30203,3.293276561720811,0.3699979867125983,-1.8963370892480391,7.207732,59.4166,0.2159044,0.05552761,0.4945007,-0.02951809,9.13999979570508,10
-17.62873,0.6833334,-33.26945,3.299858381676618,0.6447665032048304,-2.1960061382899774,10.8118,58.32938,0.2213362,0.08320399,0.4849943,-0.04423175,9.15999979525805,10
-17.57494,0.8833333,-33.23687,3.2590859624040758,0.8849666748264562,-2.458543045650977,14.41409,57.22807,0.1557638,0.1107786,0.474973,-0.05889745,9.17999979481101,10
-17.41888,0.2833332,-33.198,3.4064862694064235,0.1845759259289232,-2.7231637008797627,3.538632,65.4659,0.2759843,0.02727405,0.5404023,-0.01467008,9.19999979436398,10
-17.36442,0.4833331,-33.16853,3.499116558096551,-0.4244269621929526,-2.938969503607229,7.080737,64.40058,0.4863995,0.05451085,0.531637,-0.02932112,9.21999979391694,10
-17.30998,0.6833332,-33.13906,3.4268018441122567,-0.0393330592907136,-3.1125427093771947,10.62505,63.33926,0.6317744,0.08168183,0.5223229,-0.04393789,9.23999979346991,10
-17.1047,0.2833333,-33.11143,3.4942425301108475,-0.3050417042290994,-3.273108119866471,3.467887,71.76102,0.3765201,0.02644136,0.5857447,-0.01507322,9.25999979302287,10
-17.04903,0.4833334,-33.08683,3.4972553869226,-0.5556266547550297,-3.3819782484694763,6.941122,70.70789,0.6896521,0.05284756,0.577257,-0.03012738,9.27999979257584,10
-16.99339,0.6833333,-33.06222,3.36066333065156,-0.1251610678526308,-3.4873901490788377,10.41831,69.66502,0.9386346,0.07918084,0.5681909,-0.04516096,9.2999997921288,10
-16.74684,0.2833335,-33.05754,3.375900368863052,-0.3454993307630234,-3.577508881622581,3.411942,76.49976,0.3690555,0.0253721,0.6187394,-0.01590246,9.31999979168177,10
-16.69026,0.4833334,-33.03795,3.315559643312989,-0.5507140023210522,-3.616475710734562,6.829046,75.44867,0.6736821,0.05069923,0.6104894,-0.03179978,9.33999979123473,10
-16.63369,0.6833332,-33.01836,3.128473142529746,-0.0748780815666784,-3.6495434341954183,10.25016,74.40765,0.9172929,0.07596914,0.6016461,-0.04766179,9.3599997907877,10
-16.57715,0.8833334,-32.99878,2.8785924848965667,0.3904690500000325,-3.640115657279246,13.67405,73.36941,1.099966,0.1011561,0.5922191,-0.06347293,9.37999979034066,10
-16.52061,0.9766706,-32.97921,2.7407480089348724,-0.0596496353260622,-3.6185695206823816,17.09967,72.32642,1.220792,0.1262364,0.5822179,-0.07921787,9.39999978989363,10
-16.26364,0.2833335,-33.01292,2.5382970604858066,-0.5202569989391481,-3.5483552288698377,3.36428,79.27129,0.2467149,0.02397927,0.6375781,-0.01706805,9.41999978944659,10
-16.20662,0.4833333,-32.99833,2.2846984163836925,-0.086376274661043,-3.454269153220398,6.731441,78.21446,0.429344,0.04791526,0.6295106,-0.03412959,9.43999978899956,10
-16.14962,0.6833332,-32.98375,1.989680496298332,0.3370154847132485,-3.321564910420236,10.10039,77.16038,0.5504589,0.07179819,0.6208507,-0.05115412,9.45999978855252,10
-15.92388,0.2833333,-33.00692,1.894313879404772,-0.1550596140345301,-3.192475445897156,3.312549,80.59116,0.09835988,0.02260005,0.6464416,-0.01803832,9.47999978810549,10
-15.86704,0.4833334,-32.99635,1.729589275484786,0.0626648403045391,-3.048725208501775,6.62536,79.52467,0.13504,0.04517199,0.638483,-0.03605513,9.49999978765845,10
-15.81021,0.6833334,-32.98577,1.528624561587609,0.2976036695662885,-2.872417425591731,9.936957,78.45213,0.1076849,0.06768323,0.6299422,-0.05404385,9.51999978721142,10
-15.566,0.2833335,-33.00665,1.502354700958252,-0.142827504586976,-2.697610965997786,3.26422,80.95765,359.9592,0.02143375,0.6489112,-0.01875995,9.53999978676438,10
-15.50956,0.4833334,-32.99896,1.4398586778755256,-0.5937475830102239,-2.491066841816856,6.526165,79.88247,359.8571,0.04284165,0.6410147,-0.03749813,9.55999978631735,10
-15.45315,0.6833334,-32.99127,1.286020922163564,-0.1501797882871031,-2.304254290961957,9.784369,78.79364,359.6918,0.0642013,0.6325504,-0.05619765,9.57999978587031,10
-15.39675,0.8833333,-32.98358,1.1131703218363462,0.2828990504181945,-2.098485957503854,13.03783,77.68346,359.4602,0.08549089,0.6235259,-0.07484826,9.59999978542328,10
-15.19078,0.2833334,-33.0103,1.0865907669373858,-0.1994885497016844,-1.9098845430629223,3.215738,79.34122,359.8247,0.02062148,0.6381541,-0.01908912,9.61999978497624,10
-15.13501,0.4833333,-33.00346,0.9226596124726836,0.0279232612636328,-1.7533460466773256,6.426718,78.25918,359.5884,0.04121905,0.6302363,-0.03815619,9.63999978452921,10
-15.07926,0.6833332,-32.99661,0.7444639742753942,0.2725493035818688,-1.5881796608196694,9.631666,77.1562,359.2889,0.06177407,0.6217747,-0.05718451,9.65999978408217,10
-15.02352,0.8833331,-32.98977,0.7404131986675591,-0.1581947097854558,-1.4503232061913671,12.82899,76.0248,358.9227,0.08226499,0.6127771,-0.07615829,9.67999978363514,10
-14.75465,0.2833333,-33.02355,0.7258702784515592,-0.5994276551261521,-1.3078015966768213,3.39966,81.29195,359.8108,0.02143178,0.6511329,-0.02057452,9.6999997831881,10
-14.69543,0.4833332,-33.0184,0.5920058560496955,-0.1461719167785597,-1.172243443081495,6.794276,80.21142,359.5571,0.04283691,0.6432382,-0.04112379,9.71999978274107,10
-14.63621,0.683333,-33.01326,0.4606209218147672,0.2965950240180844,-1.0374940367877592,10.18253,79.10712,359.2363,0.06419409,0.6347288,-0.06162836,9.73999978229403,10
-14.39719,0.2833335,-33.03977,0.5848332308311921,-0.1761044335007785,-0.947015621909472,3.532717,83.9556,359.8369,0.02196278,0.6685567,-0.02167421,9.759999781847,10
-14.33554,0.4833337,-33.0367,0.5274444407723085,0.0609950824739747,-0.8582007519848034,7.061565,82.87944,359.6061,0.04389622,0.6607302,-0.04333052,9.77999978139997,10
-14.2739,0.6833338,-33.03362,0.4619684216272546,0.3153090591822229,-0.7717244401248031,10.58465,81.77956,359.3057,0.06577827,0.652226,-0.06493847,9.79999978095293,10
-14.01451,0.2833334,-33.05923,0.6110514655850565,-0.1057473362932427,-0.7237988751236948,3.576585,85.8602,359.9189,0.02236718,0.6807899,-0.02177283,9.8199997805059,10
-13.95214,0.4833334,-33.05671,0.5245834473181521,0.1829953479212284,-0.6586684426894394,7.150381,84.79467,359.7708,0.0447047,0.6730466,-0.04352039,9.83999978005886,10
-13.88977,0.6833333,-33.0542,0.4192397946175656,0.488952598020113,-0.5959253193153238,10.71978,83.71032,359.5538,0.06698854,0.6645983,-0.0652159,9.85999977961183,10
-13.82743,0.8833332,-33.05169,0.3090146131080313,0.7598537880461976,-0.5393382026108675,14.28339,82.59804,359.2642,0.0891945,0.6554546,-0.08683682,9.87999977916479,10
-13.60977,0.2833335,-33.07841,0.3744685305239912,0.0896760242846629,-0.5253133706170736,3.572091,87.04659,0.03958508,0.02283703,0.688307,-0.021213,9.89999977871776,10
-13.54752,0.4833336,-33.07508,0.4421015634178484,-0.4896019509112262,-0.5209992472899749,7.143295,85.99672,0.01405914,0.04564561,0.6806473,-0.04239535,9.91999977827072,10
-13.4853,0.6833338,-33.07174,0.2862660884440284,-0.0752708204038681,-0.4667238390134578,10.71241,84.93597,359.9218,0.06839907,0.6722769,-0.06352746,9.93999977782369,10
-13.42309,0.8833336,-33.0684,0.1342235820364923,0.3280837118880092,-0.4174541369381188,14.27822,83.8556,359.7602,0.091074,0.6632054,-0.08458714,9.95999977737665,10
-13.14469,0.2833332,-33.10386,0.2302264098729427,-0.1845159291875865,-0.4189435599933055,3.608491,89.02638,0.09239953,0.0230165,0.7007076,-0.02149846,9.97999977692962,10
-13.08173,0.4833334,-33.10177,0.1266168934973777,0.0121957477037819,-0.3828846197263331,7.216978,87.98562,0.1193132,0.0460013,0.6931435,-0.04296738,9.99999977648258,10
-13.01879,0.6833333,-33.09967,0.0179385455253751,0.22563388350963,-0.3483125064106325,10.82473,86.93707,0.07925218,0.06892894,0.6848415,-0.06439052,10.0199997760355,10
-12.76915,0.2833334,-33.12778,0.1169262305848324,-0.2367860345301595,-0.3512119535626716,3.633579,89.72381,0.08917249,0.02302048,0.7050282,-0.02181246,10.0399997755885,10
-12.70574,0.4833335,-33.12651,-0.0102757314772592,0.0101050996884083,-0.3198590698837833,7.267106,88.68584,0.1124536,0.04600834,0.6975014,-0.04359557,10.0599997751415,10
-12.64234,0.6833334,-33.12524,-0.148814497927292,0.2737226928214538,-0.287576493573102,10.89943,87.63985,0.06904368,0.06893952,0.6892231,-0.06532536,10.0799997746944,10
-12.57897,0.8833334,-33.12396,-0.2841801530427954,0.5017962251081018,-0.257234661629802,14.52956,86.5769,359.9562,0.0917881,0.6802024,-0.08698232,10.0999997742474,10
-12.37241,0.2833333,-33.1537,-0.2432326805850682,-0.2116967446777889,-0.2648029923003037,3.589702,91.40382,0.1571998,0.02285561,0.7153342,-0.02145927,10.1199997738004,10
-12.30972,0.4833333,-33.15307,-0.3694808541651415,-0.0024404455543635,-0.2340782437651789,7.180591,90.37654,0.2501382,0.04567977,0.707936,-0.0428898,10.1399997733533,10
-12.24706,0.6833333,-33.15244,-0.487978190980904,0.2235423482888667,-0.2038241392205755,10.7715,89.34599,0.2785742,0.06844865,0.6997916,-0.06426834,10.1599997729063,10
-12.01995,0.2833334,-33.18209,-0.3978777888462197,-0.2263324106132496,-0.2127173539810556,3.528975,93.01543,0.2328016,0.02266539,0.7250785,-0.0209404,10.1799997724593,10
-11.95825,0.4833333,-33.18184,-0.2866533034062346,-0.6871838509281316,-0.2250761407469248,7.060511,91.99826,0.4031945,0.0453006,0.7178093,-0.04185328,10.1999997720122,10
-11.89657,0.6833334,-33.18158,-0.3953592476126779,-0.2540350490561449,-0.1951927301983183,10.59343,90.983,0.5114551,0.06788187,0.7098055,-0.06271692,10.2199997715652,10
-11.8349,0.8833334,-33.18132,-0.4870017109841988,0.1681368595331302,-0.1672663288685534,14.1263,89.96182,0.5565023,0.09038288,0.7010762,-0.08350911,10.2399997711182,10
-11.54865,0.2833334,-33.21801,-0.307445858164117,-0.3256450210565565,-0.1878584583182423,3.462714,93.29729,0.2680578,0.02244069,0.7267753,-0.02036468,10.2599997706711,10
-11.48806,0.4833333,-33.21736,-0.3284304322550664,-0.1101162394132727,-0.1739269553832478,6.928187,92.28732,0.4754889,0.04485046,0.7195818,-0.04069972,10.2799997702241,10
-11.42748,0.6833334,-33.2167,-0.3475034846981044,0.1221387830020818,-0.1593647908948732,10.39573,91.28178,0.6228,0.06720901,0.7116769,-0.060988,10.2999997697771,10
-11.17132,0.2833332,-33.24617,-0.1415691966143004,-0.321464150072458,-0.1798829575228886,3.408729,92.12041,0.1941055,0.02185745,0.7197148,-0.02024167,10.31999976933,10
-11.11175,0.4833333,-33.24552,-0.1693729590482195,-0.0557553620870151,-0.1650913079167644,6.818905,91.10668,0.3280001,0.04368395,0.712517,-0.04045559,10.339999768883,10
-11.05221,0.6833333,-33.24487,-0.2076467600055043,0.2266799933614105,-0.1474740433040828,10.22995,90.09298,0.4018097,0.06546183,0.704637,-0.06062502,10.359999768436,10
-10.99268,0.8833331,-33.24421,-0.2433786896424248,0.4735714904246787,-0.1294980372267211,13.64079,89.072,0.4145413,0.08717012,0.6960832,-0.08073043,10.3799997679889,10
-10.77712,0.2833332,-33.27404,-0.0992559270395894,-0.221103644041307,-0.1476668780576844,3.355731,90.16033,0.09688153,0.02127356,0.7077741,-0.02013636,10.3999997675419,10
-10.71856,0.4833333,-33.27303,-0.133177166653069,0.0069702419426963,-0.1308565138538888,6.711228,89.14205,0.1343072,0.04251892,0.7005403,-0.04024453,10.4199997670949,10
-10.66002,0.6833334,-33.27203,-0.1661975643622781,0.2517702408101718,-0.1138451781149605,10.06591,88.11819,0.1115578,0.06371819,0.6926571,-0.06030959,10.4399997666478,10
-10.60149,0.8833334,-33.27102,-0.1851864821355233,0.4610259240994548,-0.099358866899653,13.41869,87.08145,0.02699695,0.08485142,0.6841324,-0.08031292,10.4599997662008,10
-10.32713,0.2833333,-33.30961,0.0533899208494359,-0.2712844989086544,-0.1348877489894633,3.299853,88.50013,359.96,0.02038054,0.6975092,-0.02034141,10.4799997657537,10
-10.26956,0.4833334,-33.30932,0.0464947511704689,-0.0808452316197337,-0.1273484633187998,6.597472,87.47409,359.8607,0.04073625,0.6902542,-0.04065843,10.4999997653067,10
-10.212,0.6833334,-33.30903,0.0368676727628471,0.1263203925689857,-0.1193247690805918,9.891421,86.43465,359.7005,0.06104449,0.6823798,-0.06093251,10.5199997648597,10
-9.96852,0.2833335,-33.33956,0.2349942005873462,-0.3423719133809763,-0.1494891338105226,3.242791,86.59001,359.8661,0.01979285,0.685504,-0.02025361,10.5399997644126,10
-9.911901,0.4833334,-33.33903,0.2079272698962926,-0.1017530438883288,-0.1444455924461323,6.481712,85.55927,359.6736,0.03956195,0.6782097,-0.04048391,10.5599997639656,10
-9.855299,0.6833332,-33.3385,0.1672243652219949,0.1555922609970549,-0.1379273770323017,9.715701,84.51021,359.4205,0.05929057,0.6703257,-0.06067291,10.5799997635186,10
-9.79871,0.8833331,-33.33797,0.1257126984362457,0.3773934681853029,-0.1323159858864926,12.9432,83.43567,359.1042,0.07895952,0.6618598,-0.08080006,10.5999997630715,10
-9.593475,0.2833332,-33.36842,0.2483647996249844,-0.3423718635497227,-0.1647136009558778,3.193765,83.91929,359.7621,0.01933515,0.668389,-0.02017517,10.6199997626245,10
-9.537617,0.4833332,-33.36713,0.2048193678092724,-0.1393878431781476,-0.1616699567927852,6.381813,82.88423,359.4663,0.03864809,0.6610241,-0.04032687,10.6399997621775,10
-9.481774,0.683333,-33.36584,0.1616298740145731,0.0803228623522538,-0.1579145010545879,9.563021,81.82544,359.11,0.05792209,0.653099,-0.06043829,10.6599997617304,10
-9.251501,0.2833334,-33.39799,0.1318531711708583,0.2644894809009806,-0.1557782387123083,3.529008,85.74293,359.774,0.02122523,0.6800765,-0.022394,10.6799997612834,10
-9.18973,0.4833334,-33.39791,0.1474960892959602,0.2273774474373777,-0.1650405793525351,7.052502,84.70877,359.4839,0.04242305,0.6726367,-0.04475921,10.6999997608364,10
-9.127984,0.6833333,-33.39783,0.1538807325581528,0.2357407779945631,-0.1705341875359032,10.57039,83.64751,359.1258,0.06357519,0.6645108,-0.06708397,10.7199997603893,10
-9.066266,0.8833331,-33.39775,0.164523948625356,0.2362631956118281,-0.1746637784142706,14.08146,82.5503,358.6958,0.08466381,0.6557074,-0.08934361,10.7399997599423,10
-8.77888,0.2833332,-33.4388,0.3790347337811841,-0.4646846652161105,-0.2154981992653013,3.562504,88.25578,359.8527,0.02141712,0.6959539,-0.0225644,10.7599997594953,10
-8.716674,0.4833331,-33.44004,0.331787536789129,-0.2428832047770706,-0.2108802011227304,7.121039,87.23268,359.6409,0.04280309,0.6886321,-0.04510429,10.7799997590482,10
-8.654486,0.683333,-33.44127,0.2771034948123461,-0.004355196215151,-0.2031461728234269,10.67415,86.18724,359.3625,0.06413808,0.680598,-0.06759059,10.7999997586012,10
-8.395618,0.2833333,-33.47374,0.4365553649653018,-0.4416854724475654,-0.2315917077863112,3.592745,89.56193,359.9862,0.02216559,0.704055,-0.02216676,10.8199997581542,10
-8.332925,0.4833333,-33.47404,0.3548515995694039,-0.1697040213475282,-0.2213229065067281,7.183934,88.55435,359.9094,0.04430526,0.6967939,-0.04430305,10.8399997577071,10
-8.270249,0.6833333,-33.47434,0.2555376260844655,0.1190039655918099,-0.2070277835228609,10.77218,87.53287,359.7678,0.06639142,0.6888021,-0.06638638,10.8599997572601,10
-8.207592,0.8833333,-33.47464,0.1523942192296621,0.3721679312361227,-0.1912604606285448,14.35628,86.48891,359.5583,0.08840074,0.6800888,-0.08839329,10.879999756813,10
-7.991035,0.2833333,-33.50681,0.0591816854497642,0.4236879594796436,-0.1765862716495938,3.562213,90.1475,0.04627537,0.02223517,0.7076654,-0.02172093,10.899999756366,10
-7.928877,0.4833333,-33.50669,0.0104648951051338,0.3558056979248021,-0.1741959744566799,7.123458,89.1497,0.03071789,0.04444073,0.7004729,-0.04341045,10.919999755919,10
-7.866737,0.683333,-33.50658,-0.047272425367379,0.3338863374375009,-0.1686617956182416,10.68289,88.14212,359.952,0.06659335,0.6925577,-0.06504922,10.9399997554719,10
-7.804615,0.8833329,-33.50647,-0.0997960647215858,0.3046139350658103,-0.1626991028488191,14.23935,87.11661,359.8077,0.08866986,0.6839288,-0.08661444,10.9599997550249,10
-7.526597,0.2833333,-33.5483,0.0438875137895875,-0.4256411943299313,-0.1967926096274332,3.634921,91.57729,0.09113418,0.02268509,0.7163941,-0.02217839,10.9799997545779,10
-7.46314,0.4833332,-33.54901,-0.0601009936598462,-0.2326589718908826,-0.1845285283780349,7.269845,90.58759,0.1195492,0.04533923,0.7092466,-0.04432657,10.9999997541308,10
-7.399705,0.6833332,-33.54972,-0.1662056035735375,-0.0224624113798832,-0.1699641859502421,10.9041,89.59058,0.0839858,0.06793778,0.7013388,-0.06642589,11.0199997536838,10
-7.151103,0.2833333,-33.58429,-0.0623829723440421,-0.4876361333214981,-0.1926422673424959,3.616104,92.52068,0.1066045,0.02248576,0.7221084,-0.02215252,11.0399997532368,10
-7.088,0.4833333,-33.58575,-0.1800107694716333,-0.2430108064127895,-0.1760095010283606,7.232452,91.53546,0.1511214,0.04494087,0.7150326,-0.0442749,11.0599997527897,10
-7.024914,0.6833333,-33.58722,-0.3052558869671671,0.0188290683469869,-0.1559488410605567,10.84798,90.54417,0.1328356,0.06734103,0.707198,-0.06634381,11.0799997523427,10
-6.961845,0.8833331,-33.58869,-0.423679025743751,0.2456130779159842,-0.135214875485893,14.46154,89.53844,0.04943353,0.08965988,0.6986136,-0.08833768,11.0999997518957,10
-6.756251,0.2833333,-33.62267,-0.3590278471301378,-0.4686813374118392,-0.1538991213176892,3.560049,94.2074,0.195486,0.02239239,0.7321963,-0.02159517,11.1199997514486,10
-6.694071,0.4833332,-33.62436,-0.4535553910940586,-0.2597386441371396,-0.1355978617717461,7.121866,93.23454,0.3307232,0.04475474,0.7252524,-0.04316168,11.1399997510016,10
-6.63191,0.6833333,-33.62605,-0.5336759696593618,-0.0335817338839214,-0.1171009971333205,10.68437,92.26168,0.4057674,0.06706344,0.7175599,-0.064677,11.1599997505546,10
-6.569764,0.8833332,-33.62774,-0.5851919557345333,0.157519221970118,-0.1013143689841875,14.2463,91.28113,0.4193804,0.08929306,0.7091276,-0.08611814,11.1799997501075,10
-6.304856,0.2833333,-33.67046,-0.5811065012335037,0.127829086380325,-0.100892754765276,3.491521,95.23772,0.2624606,0.02222594,0.7382855,-0.02096027,11.1999997496605,10
-6.243793,0.4833332,-33.67198,-0.5749554027680355,0.144101968769856,-0.0989666374387816,6.985936,94.27486,0.4665709,0.044423,0.731451,-0.04189313,11.2199997492135,10
-6.182743,0.683333,-33.6735,-0.5534688667893803,0.1530223781527674,-0.0981404143515973,10.48183,93.31655,0.6128957,0.06656626,0.7238871,-0.06277531,11.2399997487664,10
-5.94732,0.2833334,-33.70844,-0.3160702873285963,-0.5390395963322449,-0.1396346201617042,3.431478,94.88551,0.2494238,0.02185232,0.7362259,-0.02058296,11.2599997483194,10
-5.887308,0.4833334,-33.70971,-0.3293750402893471,-0.3078643400758958,-0.1338187727776443,6.86523,93.9242,0.4416803,0.04367515,0.7294282,-0.04113634,11.2799997478724,10
-5.827313,0.6833333,-33.71098,-0.3402382709227343,-0.0594745312641221,-0.1255973739133864,10.30073,92.96684,0.5770972,0.06544884,0.7219268,-0.06164434,11.2999997474253,10
-5.572372,0.2833333,-33.74672,-0.127423833972379,-0.4864550941133597,-0.1558834941669467,3.38245,93.15376,0.1440531,0.02119939,0.7259549,-0.02057158,11.3199997469783,10
-5.51332,0.4833335,-33.74796,-0.1475714067896372,-0.2036368014261788,-0.1454148190335331,6.765434,92.18584,0.2310745,0.04236981,0.7191262,-0.04111517,11.3399997465312,10
-5.454284,0.6833336,-33.7492,-0.1785516877264537,0.0963959407563282,-0.1312538396926044,10.14845,91.21558,0.2608497,0.06349407,0.7116247,-0.06161447,11.3599997460842,10
-5.395265,0.8833336,-33.75044,-0.2075729992990092,0.3613725870607177,-0.116140212238772,13.53054,90.23602,0.2321399,0.08455214,0.7034582,-0.08205031,11.3799997456372,10
-5.336263,0.9766707,-33.75167,-0.2218364472036129,0.4251929797170539,-0.1028222696771479,16.91066,89.23981,0.1426296,0.1055239,0.6946351,-0.1024034,11.3999997451901,10
-5.082255,0.2833335,-33.79527,-0.1871221161882568,0.3700990972003321,-0.1046536901987629,3.325384,90.87568,0.01778117,0.0204701,0.7121865,-0.02056432,11.4199997447431,10
-5.024248,0.4833333,-33.79634,-0.1567828411459166,0.3614563550526747,-0.1045640375018486,6.649223,89.90158,359.9791,0.04091359,0.7053177,-0.04110088,11.4399997442961,10
-4.966257,0.6833331,-33.79741,-0.1178393639001984,0.3459490498954876,-0.1053931964512813,9.970988,88.91788,359.8827,0.06131337,0.6978113,-0.06159484,11.459999743849,10
-4.742642,0.2833332,-33.83384,0.1175761390208136,-0.3700526080391021,-0.1501195601462512,3.26819,89.62801,359.9112,0.01968348,0.7045365,-0.02064823,11.479999743402,10
-4.68563,0.4833332,-33.83551,0.1078909906508089,-0.1623297095328193,-0.1470873719444725,6.533397,88.6478,359.7662,0.03934296,0.6976601,-0.04127245,11.499999742955,10
-4.628633,0.6833332,-33.83718,0.0945590979517265,0.0630955197170844,-0.1428343180377425,9.794365,87.65211,359.5633,0.05895827,0.6901732,-0.061854,11.5199997425079,10
-4.386274,0.2833332,-33.87349,0.2862131958753222,-0.3863617393549103,-0.1812750876693734,3.215676,86.85692,359.7939,0.01914078,0.6872132,-0.02059452,11.5399997420609,10
-4.330067,0.4833332,-33.87447,0.2526146214673002,-0.1255321410714718,-0.1789393086553268,6.426415,85.87,359.5321,0.03825957,0.6802592,-0.04116506,11.5599997416139,10
-4.273876,0.6833332,-33.87545,0.204337372396357,0.1529997073718279,-0.1736971914890901,9.631174,84.86137,359.2123,0.05733937,0.6727262,-0.06169442,11.5799997411668,10
-4.217699,0.8833332,-33.87644,0.1540170680771826,0.3969633790814437,-0.1680847113735808,12.82857,83.82422,358.8317,0.07636414,0.6646214,-0.0821613,11.5999997407198,10
-4.009908,0.2833335,-33.91242,0.3733906813831282,-0.2996633537307017,-0.2164196331507604,3.369831,86.4106,359.768,0.02004641,0.6843606,-0.02160499,11.6199997402728,10
-3.950943,0.4833335,-33.91327,0.4126803055055947,-0.0725651853777267,-0.2241265853075127,6.734282,85.42393,359.4775,0.04006813,0.6773319,-0.04318401,11.6399997398257,10
-3.891994,0.6833333,-33.91413,0.4383269788338043,0.1722354311533597,-0.2283211397620306,10.09231,84.41233,359.1259,0.06004701,0.669674,-0.06471699,11.6599997393787,10
-3.833071,0.8833332,-33.91498,0.4637443139245489,0.3824676175257339,-0.2316697999809207,13.44388,83.36813,358.7091,0.07997113,0.6613941,-0.08619156,11.6799997389317,10
-3.565968,0.2833333,-33.96256,0.6654338795911164,-0.3478910664413301,-0.2754925366227105,3.53155,89.22468,359.8276,0.02087922,0.7020051,-0.02271128,11.6999997384846,10
-3.504304,0.4833331,-33.96527,0.6296534568269001,-0.1545249426333159,-0.2690766233779165,7.059214,88.24583,359.5938,0.04173066,0.6950316,-0.04540025,11.7199997380376,10
-3.442664,0.6833332,-33.96797,0.5873422450562039,0.0565435610526319,-0.2591788471411362,10.58202,87.24389,359.2965,0.06253599,0.6873543,-0.06804246,11.7399997375906,10
-3.205543,0.2833334,-34.00683,0.7370887271613484,-0.4072697095676674,-0.2903873682854794,3.576373,90.89483,359.914,0.02135768,0.712276,-0.02276275,11.7599997371435,10
-3.143187,0.4833335,-34.00983,0.6745942168753218,-0.1607964615456696,-0.2787094663554583,7.150118,89.9267,359.7673,0.04268813,0.7053673,-0.0454983,11.7799997366965,10
-3.08085,0.6833335,-34.01283,0.6007016514020606,0.1033792309955006,-0.2629497836724823,10.71986,88.94069,359.5578,0.06396804,0.697729,-0.06818012,11.7999997362494,10
-2.823275,0.2833333,-34.05188,0.5290777911176954,0.3329867149179547,-0.2459896033738857,3.572451,91.93756,0.03770548,0.02190149,0.7186046,-0.02218176,11.8199997358024,10
-2.760968,0.4833333,-34.05384,0.4876612994121045,0.3422916514353769,-0.2427834849323105,7.144007,90.98402,0.01640154,0.04377671,0.7117609,-0.0443313,11.8399997353554,10
-2.698678,0.6833333,-34.0558,0.4190975448536437,0.3980475641052345,-0.2329715107957923,10.71368,90.02071,359.9345,0.06559986,0.7041833,-0.06642861,11.8599997349083,10
-2.636407,0.8833333,-34.05776,0.3375053354299113,0.4469382565505749,-0.219552651234558,14.28044,89.0397,359.7897,0.08734838,0.6958803,-0.08845074,11.8799997344613,10
-2.574153,0.9766704,-34.05972,0.2570047886799552,0.435648011018399,-0.2055347625115189,17.84321,88.03246,359.5782,0.1089992,0.6868612,-0.1103756,11.8999997340143,10
-2.318703,0.2833332,-34.10746,0.3462721008587656,-0.4148442330780881,-0.2357164200802444,3.608766,92.99365,0.07728937,0.02216461,0.7249619,-0.02237474,11.9199997335672,10
-2.25576,0.4833332,-34.10992,0.211147049590026,-0.24249074881065,-0.215958319452497,7.21725,92.04853,0.09507525,0.04429902,0.7181706,-0.04471933,11.9399997331202,10
-2.192837,0.6833331,-34.11239,0.0749020166856683,-0.052922637153794,-0.1946201586439073,10.82487,91.09595,0.05229051,0.06638076,0.7106242,-0.06701409,11.9599997326732,10
-1.966065,0.2833335,-34.15246,0.1276396706441557,-0.5387247033213393,-0.2172469887663624,3.633622,93.81257,0.08921473,0.02222821,0.7298531,-0.02261981,11.9799997322261,10
-1.902718,0.4833334,-34.15565,-0.0133454369548092,-0.3147277067868739,-0.1965619135751879,7.267188,92.87141,0.1187821,0.04442606,0.7230992,-0.04520915,11.9999997317791,10
-1.839388,0.6833333,-34.15884,-0.1559276567803846,-0.0735163727031657,-0.1726568334008575,10.89971,91.9235,0.08793319,0.0665696,0.7155755,-0.0677439,12.0199997313321,10
-1.592295,0.2833332,-34.20068,-0.285758845917922,0.1326387674080329,-0.1485242108308071,3.589833,95.61589,0.1616336,0.02208099,0.7405038,-0.02225957,12.039999730885,10
-1.529719,0.4833331,-34.20452,-0.3709569248011908,0.1180034825248492,-0.1404655737329534,7.18077,94.68446,0.2650928,0.04413231,0.7338707,-0.04448925,12.059999730438,10
-1.467162,0.683333,-34.20836,-0.4675990543381014,0.1493313239081382,-0.127397676036864,10.77184,93.7513,0.3101919,0.06613046,0.7264732,-0.06666595,12.079999729991,10
-1.40462,0.883333,-34.2122,-0.5611033274552384,0.1733063496513804,-0.1125487988952969,14.36186,92.80881,0.2952638,0.08804873,0.7183198,-0.08876715,12.0999997295439,10
-1.099306,0.2833333,-34.26454,-0.4249418229696038,-0.5037014567803417,-0.1463155886301095,3.522067,96.89945,0.2413597,0.02195864,0.7479759,-0.02160185,12.1199997290969,10
-1.03783,0.4833333,-34.26824,-0.4590547102726181,-0.2574723751041281,-0.1385411029286629,7.046529,95.97914,0.4264529,0.04388859,0.7414604,-0.04317532,12.1399997286499,10
-0.9763703,0.6833333,-34.27194,-0.4907566083904002,0.0059711273186158,-0.129869454298273,10.57235,95.06252,0.555767,0.06576689,0.7341983,-0.06469804,12.1599997282028,10
-0.9149256,0.8833332,-34.27564,-0.5061370332454438,0.2343587441650668,-0.1234499256739809,14.09844,94.1426,0.6286668,0.08756976,0.7261977,-0.08614761,12.1799997277558,10
-0.7006722,0.2833332,-34.31555,-0.4912554208037083,0.2615901175562227,-0.1224846193773316,3.457495,96.57963,0.2602227,0.02176694,0.7461327,-0.02101051,12.1999997273088,10
-0.6402501,0.483333,-34.31844,-0.4772357498294117,0.1699075461241639,-0.1292584551815778,6.91723,95.66461,0.4658068,0.04350509,0.7396626,-0.04198959,12.2199997268617,10
-0.5798455,0.6833329,-34.32132,-0.4612254938257507,0.1246761001640673,-0.1335897929416347,10.37879,94.75469,0.6171124,0.06519409,0.7324729,-0.06292172,12.2399997264147,10
-0.3459409,0.2833332,-34.36335,-0.429767658383934,0.0725797310503819,-0.1383752049293107,3.406688,95.7761,0.2005481,0.02123044,0.7414722,-0.02087766,12.2599997259676,10
-0.2864777,0.4833331,-34.36633,-0.4060730723928292,0.0402762840692675,-0.146679269661206,6.81478,94.85831,0.3466079,0.04243135,0.7350146,-0.04172767,12.2799997255206,10
-0.227032,0.6833332,-34.36931,-0.3855318457425709,0.0544237235094844,-0.1497056209854719,10.22375,93.94205,0.4384871,0.06358513,0.7278633,-0.06253222,12.2999997250736,10
-0.1676029,0.8833331,-34.37229,-0.3549100085026424,0.0617063182890508,-0.1505021631146164,13.6328,93.02077,0.4755739,0.08467288,0.7200258,-0.08327138,12.3199997246265,10
0.124495,0.2833334,-34.42535,-0.3403261041717211,0.0887822850763481,-0.1566660103662087,3.351742,93.86388,0.08449677,0.02050908,0.7302157,-0.02086163,12.3399997241795,10
0.1829152,0.4833335,-34.42829,-0.340027414245879,0.1623093880510658,-0.1578271743963739,6.703003,92.93947,0.114946,0.04099054,0.7237299,-0.04169542,12.3599997237325,10
0.2413194,0.6833333,-34.43123,-0.34078498328225,0.2289716704095843,-0.1571690185360026,10.0534,92.0098,0.09081008,0.06142846,0.716584,-0.06248541,12.3799997232854,10
0.2997068,0.8833332,-34.43417,-0.3293629195366301,0.2354531753482789,-0.1578571341306727,13.40199,91.06825,0.01054921,0.08180334,0.7087849,-0.0832124,12.3999997228384,10
0.5029015,0.2833335,-34.47625,-0.0330752174021125,-0.5972674896376093,-0.2248015374361855,3.293353,92.09496,359.9531,0.01965005,0.7196261,-0.02097138,12.4199997223914,10
0.560262,0.4833335,-34.47964,0.040145953736832,-0.4071423570010998,-0.2379343028791183,6.584574,91.16293,359.8525,0.039277,0.7131187,-0.04191807,12.4399997219443,10
0.617609,0.6833335,-34.48302,0.1089692909671775,-0.1998028740090598,-0.2487059555168258,9.872344,90.21817,359.6967,0.05885922,0.7059825,-0.06282034,12.4599997214973,10
0.8398457,0.2833334,-34.52627,0.1866423815676658,-0.0275193459389055,-0.260261265594444,3.241197,90.53297,359.8718,0.0191102,0.7101256,-0.02087737,12.4799997210503,10
0.896344,0.4833334,-34.52948,0.250180799547294,-0.0760269236869851,-0.2770569679102337,6.478939,89.597,359.6905,0.03819797,0.7035955,-0.04173085,12.4999997206032,10
0.9528264,0.6833333,-34.5327,0.3059660005362064,-0.0785711648667667,-0.2899298877602518,9.71233,88.64404,359.4542,0.05724717,0.6964628,-0.06254225,12.5199997201562,10
1.009295,0.8833332,-34.53592,0.3672100522352184,-0.088468119671913,-0.3019364581678445,12.94007,87.66754,359.1602,0.0762395,0.6887347,-0.08329144,12.5399997197092,10
1.290709,0.2833335,-34.59057,0.226501530568155,0.5612545037170751,-0.2697728060596418,3.266963,88.46287,359.7666,0.01900517,0.697315,-0.02134298,12.5599997192621,10
1.347787,0.4833334,-34.59357,0.3161447511654853,0.3263505731462951,-0.2975782969062592,6.528767,87.5214,359.4792,0.0379879,0.6907055,-0.04266137,12.5799997188151,10
1.40485,0.6833333,-34.59657,0.3975651840700993,0.1128427822215027,-0.3205853778227947,9.784435,86.55658,359.1353,0.05693159,0.6834942,-0.06393638,12.5999997183681,10
1.660494,0.2833333,-34.64377,0.4843437501844585,-0.1336303291130193,-0.341868210259058,3.528972,90.09413,359.7862,0.02043514,0.7073912,-0.02310796,12.619999717921,10
1.722083,0.4833333,-34.64811,0.4920648246228905,-0.1473599684288318,-0.3566102725412321,7.053059,89.15482,359.5142,0.04084378,0.7007226,-0.04618647,12.639999717474,10
1.783641,0.6833333,-34.65245,0.4755859640510276,-0.1151263773726696,-0.36281578812914,10.57312,88.19034,359.1803,0.06121324,0.6933479,-0.06922771,12.6599997170269,10
1.845181,0.8833333,-34.65678,0.4484429471344926,-0.0902456184217749,-0.3636649492740389,14.08616,87.19264,358.781,0.08151512,0.6852756,-0.09219338,12.6799997165799,10
1.906703,0.9766703,-34.66111,0.4241677483756909,-0.1260335144800521,-0.3623512249453426,17.59071,86.15279,358.3108,0.101728,0.6765147,-0.1150595,12.6999997161329,10
2.160172,0.2833335,-34.71714,0.3833895656656949,-0.169173989218571,-0.3656537215607898,3.564202,92.27192,359.8689,0.020725,0.7206616,-0.0232142,12.7199997156858,10
2.222188,0.4833333,-34.7224,0.3335389483505029,-0.166351072504714,-0.3632969994815482,7.125124,91.3446,359.6794,0.04142182,0.7140914,-0.04640237,12.7399997152388,10
2.284186,0.6833333,-34.72765,0.2883369496990333,-0.1708807996350452,-0.3587078721035226,10.68143,90.39716,359.4294,0.06206938,0.7067907,-0.06953631,12.7599997147918,10
2.509225,0.2833333,-34.77372,0.0532010895784553,0.4842085358669425,-0.3083200943507762,3.590032,94.09253,0.03531243,0.02156971,0.7315384,-0.02271615,12.7799997143447,10
2.571723,0.4833332,-34.77806,0.0404913062746636,0.2546716678831711,-0.3205469415482298,7.179379,93.18359,0.01407187,0.04311473,0.7250457,-0.04540112,12.7999997138977,10
2.634203,0.6833332,-34.78241,0.0231730599339856,0.0465307970210372,-0.3278152741354176,10.7669,92.26519,359.9348,0.06460829,0.7178023,-0.06803242,12.8199997134507,10
2.879429,0.2833332,-34.83158,0.0153657423189379,-0.1945753233371242,-0.3336511237145885,3.568623,95.10542,0.06348442,0.02142338,0.737529,-0.02260227,12.8399997130036,10
2.941508,0.4833332,-34.83651,-0.065346547009037,-0.2029383271162845,-0.3351588327489594,7.136612,94.20184,0.07042098,0.04281557,0.7311075,-0.04517549,12.8599997125566,10
3.003569,0.6833332,-34.84145,-0.1624351699764066,-0.165338216912552,-0.3296839896912686,10.70325,93.29074,0.02024254,0.06415732,0.7239377,-0.06769598,12.8799997121096,10
3.065613,0.8833332,-34.84637,-0.261832303633982,-0.1350906032371807,-0.3207452124387373,14.26761,92.36469,359.9109,0.08542641,0.716028,-0.09014056,12.8999997116625,10
3.370754,0.2833333,-34.90911,-0.3494733647609562,-0.1655114290421057,-0.3118818702948189,3.639114,96.10539,0.09308556,0.02182833,0.7433674,-0.02307308,12.9199997112155,10
3.434037,0.4833333,-34.91476,-0.340529359408495,-0.2032854306311297,-0.3290453307443002,7.278208,95.20822,0.1293039,0.04362733,0.7369659,-0.04611473,12.9399997107685,10
3.497303,0.6833332,-34.9204,-0.3408844808765847,-0.1950963192826735,-0.3392234600511585,10.91638,94.30511,0.107856,0.06537268,0.7297816,-0.06910114,12.9599997103214,10
3.560545,0.8833332,-34.92604,-0.3357896691638498,-0.1942599327977438,-0.3461032046921772,14.55335,93.3884,0.02668633,0.08704375,0.7218222,-0.09201306,12.9799997098744,10
3.774141,0.2833333,-34.97518,-0.5084583794056199,0.4661958995497157,-0.3054939392151823,3.604414,97.29464,0.1330919,0.02164968,0.7502611,-0.02284061,12.9999997094274,10
3.836766,0.4833333,-34.98136,-0.5147985745838755,0.242025364194788,-0.314655310585259,7.209407,96.40491,0.2103275,0.04327008,0.7439514,-0.04565071,13.0199997089803,10
3.899374,0.6833332,-34.98753,-0.5131627582835385,0.0392510075145224,-0.3191578866520075,10.8141,95.51209,0.2313878,0.06483836,0.7368656,-0.06840644,13.0399997085333,10
3.961965,0.8833332,-34.99371,-0.4887155149450271,-0.1964884171087386,-0.3228952393579405,14.41744,94.6088,0.1945143,0.08632882,0.7290118,-0.09108462,13.0599997080863,10
4.233554,0.2833332,-35.05684,-0.5166761029538502,-0.199485102807695,-0.3267326727348774,3.538411,99.68381,0.2462611,0.02155193,0.763859,-0.02221036,13.0799997076392,10
4.295076,0.4833331,-35.06347,-0.5396113841781549,-0.1565184524610511,-0.3260874015638677,7.079111,98.8082,0.438726,0.04307517,0.7577101,-0.04439153,13.0999997071922,10
4.356581,0.683333,-35.0701,-0.5438052225263137,-0.1209045162624792,-0.3246711224251726,10.6213,97.93711,0.5779937,0.06454807,0.7507954,-0.06652142,13.1199997067451,10
4.599354,0.2833334,-35.12388,-0.753929628166703,0.5743287708404707,-0.2731637618612623,3.471495,99.9376,0.2720135,0.02129927,0.7652946,-0.0216666,13.1399997062981,10
4.659781,0.4833334,-35.13012,-0.718188234947629,0.3849357025246078,-0.2960309842218365,6.945418,99.06681,0.491687,0.04257021,0.7592119,-0.04330304,13.1599997058511,10
4.720192,0.6833333,-35.13636,-0.6846293129754004,0.2169385989226404,-0.3141255224726293,10.42111,98.20235,0.6597057,0.06379211,0.7523887,-0.06489003,13.179999705404,10
4.780586,0.8833332,-35.1426,-0.6400085697579891,0.0159762128942073,-0.3310086734106789,13.89791,97.3379,0.7759567,0.08494511,0.7448323,-0.08640726,13.199999704957,10
4.982044,0.2833333,-35.19292,-0.3683735375158212,-0.7845801848463203,-0.4133655174545652,3.417923,99.21599,0.2314726,0.02086319,0.7612494,-0.02140529,13.21999970451,10
5.041508,0.4833332,-35.19894,-0.3133000590678811,-0.5627792382267416,-0.4316319212585355,6.837591,98.34489,0.4112643,0.04169828,0.7551894,-0.04278126,13.2399997040629,10
5.100954,0.6833331,-35.20496,-0.2573938576904186,-0.3242515028655386,-0.4436121385994696,10.25859,97.47774,0.5398111,0.06248721,0.7484154,-0.06411073,13.2599997036159,10
5.160383,0.883333,-35.21098,-0.1875538987751266,-0.1212678448159608,-0.4529535558628978,13.68015,96.6083,0.6167316,0.08321034,0.7409347,-0.0853734,13.2799997031689,10
5.419648,0.2833333,-35.27651,-0.2864239141252751,0.6003600258388411,-0.4143350141066619,3.362827,97.70884,0.116661,0.02007258,0.752696,-0.02142612,13.2999997027218,10
5.478013,0.4833333,-35.28282,-0.1716555379795235,0.3253120792000936,-0.450307011033189,6.725643,96.83095,0.1816908,0.04011701,0.7466268,-0.0428247,13.3199997022748,10
5.536361,0.6833332,-35.28912,-0.0518022282957471,0.0716601090361185,-0.4816861345257663,10.08811,95.95016,0.1950007,0.06011866,0.7398757,-0.06417808,13.3399997018278,10
5.765983,0.2833333,-35.34571,-0.1330651369425712,0.5053309839753588,-0.4586218347854824,3.305933,96.34225,-0.005402812,0.01920231,0.7448308,-0.02152552,13.3599997013807,10
5.823241,0.4833333,-35.35262,-0.0393536485736794,0.2944712084250793,-0.4981982865563807,6.610422,95.45641,359.938,0.03838172,0.7387522,-0.04302573,13.3799997009337,10
5.880485,0.6833333,-35.35953,0.0543405957422873,0.1050076376847328,-0.5314893184988208,9.912253,94.56062,359.8288,0.05751658,0.7320214,-0.06448079,13.3999997004867,10
5.937713,0.8833334,-35.36644,0.1609866710083416,-0.1174212144366697,-0.5623874048742223,13.21099,93.64867,359.6655,0.07659426,0.724645,-0.08587246,13.4199997000396,10
6.224148,0.2833333,-35.43836,0.1764695288829418,-0.1071067545743484,-0.5940605763198334,3.249112,94.22756,359.8629,0.01841756,0.7324347,-0.02158581,13.4399996995926,10
6.280448,0.4833332,-35.44535,0.173948880275125,-0.0508291838653668,-0.6153530265364822,6.494757,93.33417,359.675,0.03681386,0.726318,-0.04314654,13.4599996991456,10
6.336732,0.6833332,-35.45235,0.1659126881494579,-0.0019043246909283,-0.6300201851270444,9.736089,92.42364,359.4344,0.05517286,0.7195799,-0.06466366,13.4799996986985,10
6.393002,0.8833331,-35.45934,0.1648567011682615,-0.0136481194802511,-0.6418562925744169,12.97188,91.48965,359.1384,0.07347633,0.7122273,-0.08611708,13.4999996982515,10
6.592847,0.2833334,-35.51413,0.216654303518295,-0.0327445180396759,-0.6873564955583689,3.196113,91.79549,359.7678,0.01795374,0.7178575,-0.02143566,13.5199996978045,10
6.648407,0.4833334,-35.52035,0.253783497140553,-0.0058778031389099,-0.7194473347967829,6.387299,90.89795,359.4852,0.03588688,0.7116876,-0.04284723,13.5399996973574,10
6.70395,0.6833335,-35.52656,0.2891632609473404,0.0136363095598716,-0.7423313969847953,9.572684,89.97833,359.1499,0.05378447,0.7049261,-0.06421667,13.5599996969104,10
6.928148,0.2833333,-35.58776,0.3357087790093676,-0.0275183486168997,-0.7602163477720438,3.52951,93.81697,359.782,0.01965009,0.7299559,-0.02378811,13.5799996964633,10
6.989346,0.4833333,-35.59615,0.3176740225813717,-0.0760255940985481,-0.7458202903650388,7.054291,92.92037,359.5084,0.03927508,0.723698,-0.04754598,13.5999996960163,10
7.05052,0.6833332,-35.60453,0.2886757579634,-0.0785695762777761,-0.719854321974779,10.57455,91.99886,359.1754,0.05885754,0.7167143,-0.07126158,13.6199996955693,10
7.111666,0.8833331,-35.6129,0.2615565088123333,-0.0884661170130836,-0.6867199187213942,14.08941,91.04468,358.7797,0.07838213,0.709012,-0.09490899,13.6399996951222,10
7.390738,0.2833334,-35.69188,0.0315264088186957,0.5612562505987008,-0.5942183375374128,3.562799,96.73393,359.8652,0.01977335,0.7470778,-0.02401568,13.6599996946752,10
7.452127,0.4833333,-35.70199,0.0308234562298039,0.3263521403914806,-0.5496213260186451,7.122331,95.84827,359.6742,0.03951723,0.7409403,-0.04800587,13.6799996942282,10
7.513498,0.6833333,-35.71209,0.0179535837524831,0.1128442187903264,-0.4968917320041299,10.67745,94.94278,359.4256,0.05921497,0.7340491,-0.07194011,13.6999996937811,10
7.764793,0.2833333,-35.78131,0.0061521822048629,-0.1336287608224224,-0.4407342356237933,3.592843,98.44144,-0.0001331302,0.02047418,0.7568592,-0.0237387,13.7199996933341,10
7.826738,0.4833332,-35.79098,0.0342757201541115,-0.1473587514834161,-0.3779599241574942,7.184495,97.57102,359.9453,0.04092386,0.75079,-0.04744653,13.7399996928871,10
7.888665,0.6833332,-35.80065,0.04710156340861,-0.1151254751830573,-0.3090769718474533,10.77387,96.68935,359.8347,0.06132512,0.743946,-0.07109832,13.75999969244,10
7.950574,0.8833331,-35.81031,0.0583235529300925,-0.0902447548252469,-0.2389545890770605,14.36009,95.78902,359.6657,0.08165651,0.7363351,-0.09466986,13.779999691993,10
8.012465,0.9766704,-35.81998,0.0816447031607978,-0.1260326395582419,-0.1724562277588006,17.9422,94.86201,359.4346,0.1018968,0.7279658,-0.1181369,13.799999691546,10
8.258672,0.2833334,-35.89938,0.148349080993178,-0.1691731992363943,-0.1018451589480307,3.569966,100.2179,0.07765201,0.02049633,0.7668791,-0.02346499,13.8199996910989,10
8.320138,0.4833333,-35.90956,0.1961608416915972,-0.1663505170430529,-0.0285039385702177,7.139557,99.35915,0.1016059,0.04096341,0.7609224,-0.04689984,13.8399996906519,10
8.381587,0.6833333,-35.91974,0.2392520224308949,-0.1708804286884077,0.0426614855094982,10.70808,98.49436,0.07138572,0.06138211,0.7541897,-0.07028023,13.8599996902049,10
8.60078,0.2833333,-35.99195,0.0861738039155728,0.4842091057901237,0.1671495129410871,3.64693,101.7217,0.1055281,0.02079893,0.7752039,-0.02409917,13.8799996897578,10
8.66339,0.4833334,-36.00356,0.0990754272644167,0.2546716084689849,0.2452240925552118,7.293978,100.8682,0.1567969,0.04156935,0.7692754,-0.04816586,13.8999996893108,10
8.725983,0.6833334,-36.01517,0.1059167138515988,0.0465302254426224,0.3203067322874346,10.94036,100.0101,0.1532703,0.06228897,0.7625299,-0.07217487,13.9199996888638,10
8.952318,0.2833335,-36.09113,0.1210458552033095,-0.1945765310480763,0.3875759534737355,3.618934,103.2296,0.1242319,0.02045627,0.7834414,-0.02407803,13.9399996884167,10
9.014183,0.4833334,-36.10395,-0.1163775876136519,0.4373741377535605,0.5202471874245376,7.238275,102.3805,0.1949622,0.04088508,0.7776089,-0.04812384,13.9599996879697,10
9.07603,0.6833333,-36.11676,-0.1199029789023082,0.1846985981037343,0.5889768824956008,10.8572,101.5282,0.2117579,0.06126402,0.7709624,-0.0721126,13.9799996875226,10
9.137861,0.8833333,-36.12957,-0.131903715045853,-0.0465808298648415,0.6525101274336791,14.47478,100.6655,0.1727125,0.08156782,0.7635096,-0.09602093,13.9999996870756,10
9.400114,0.2833335,-36.22192,-0.137910692292527,-0.310825499488864,0.7060013904120694,3.554793,103.268,0.1880316,0.02053728,0.7836519,-0.0233008,14.0199996866286,10
9.461146,0.4833334,-36.2334,-0.0931052214830838,-0.3423268312552452,0.7536965468490635,7.110931,102.4283,0.3241962,0.04104766,0.7778791,-0.04657105,14.0399996861815,10
9.522161,0.6833334,-36.24488,-0.0506021279380011,-0.327864946762695,0.7918473282066714,10.66763,101.5898,0.4086972,0.06151005,0.7713185,-0.06978709,14.0599996857345,10
9.583159,0.8833333,-36.25636,0.0036640554583673,-0.3207560285364772,0.8156940221817806,14.22373,100.7461,0.4412524,0.08190477,0.763978,-0.09292008,14.0799996852875,10
9.796185,0.2833334,-36.30236,-0.1186807341265812,0.3459725487289775,0.8865128751220936,3.487831,102.1099,0.2229333,0.02064137,0.7773501,-0.02244639,14.0999996848404,10
9.85643,0.4833333,-36.31174,0.0275255576789223,0.1280742131973763,0.882815762024336,6.97754,101.2766,0.3954006,0.04125635,0.7715872,-0.0448643,14.1199996843934,10
9.916659,0.6833333,-36.32113,0.1655003327848536,-0.0684277823178134,0.8677108114809258,10.46787,100.4472,0.518738,0.06182745,0.7650709,-0.06722388,14.1399996839464,10
9.976871,0.8833332,-36.33052,0.3089806233044907,-0.297895017920329,0.8368672519961748,13.95862,99.61539,0.5917109,0.08233182,0.7578074,-0.08951117,14.1599996834993,10
10.24849,0.2833334,-36.38893,0.210086494680576,0.3456947331324945,0.8707256284383149,3.42785,100.6315,0.2128875,0.02052773,0.7691939,-0.02183153,14.1799996830523,10
10.3079,0.4833334,-36.39674,0.2766668745828511,0.104658370169308,0.8502477449771604,6.856985,99.80061,0.3769115,0.04103139,0.763425,-0.04362956,14.1999996826053,10
10.36729,0.6833335,-36.40454,0.3394717538639806,-0.114981906725197,0.8198104060358631,10.28714,98.97304,0.4918908,0.06148989,0.7569348,-0.06538002,14.2199996821582,10
10.60937,0.2833333,-36.45451,0.183795700568913,0.3527004375913467,0.8463439977017231,3.371434,98.3557,0.1164207,0.01999881,0.756395,-0.02159727,14.2399996817112,10
10.66781,0.4833332,-36.46147,0.0239218825365608,0.8161662340115154,0.8625289448300464,6.742793,97.51863,0.1840337,0.03997311,0.7505823,-0.04316357,14.2599996812642,10
10.72623,0.6833332,-36.46843,0.0967216994153545,0.370438666177411,0.8072443578459172,10.11382,96.67912,0.2022188,0.05990455,0.7440848,-0.06468445,14.2799996808171,10
10.78464,0.8833331,-36.47538,0.1625332309945744,-0.0795051427249668,0.7408778925369788,13.48377,95.83116,0.1698988,0.07977486,0.7369087,-0.08613999,14.2999996803701,10
11.08433,0.2833334,-36.53745,0.2347720464045615,-0.4610259503223192,0.6594757700043559,3.311759,95.60255,359.9738,0.01924024,0.7405146,-0.02156096,14.3199996799231,10
11.14174,0.4833334,-36.54396,0.3019637320773274,-0.5106829682528611,0.5948305650427699,6.621784,94.75639,359.8985,0.03845756,0.7346455,-0.04309638,14.339999679476,10
11.19913,0.6833334,-36.55048,0.3552443665371552,-0.5148645002851204,0.5226719047717836,9.928965,93.89954,359.7732,0.05763358,0.7281296,-0.06458393,14.359999679029,10
11.25651,0.8833335,-36.55699,0.407908806188189,-0.5268868228571124,0.4393537879750298,13.23293,93.02592,359.5958,0.07675231,0.7209731,-0.08600839,14.379999678582,10
11.4683,0.2833332,-36.60302,0.2838776633972095,0.1202225687660183,0.4157254367796739,3.254516,93.26186,359.8744,0.01870384,0.7266732,-0.02139547,14.3999996781349,10
11.52482,0.4833332,-36.60885,0.4201967506837256,-0.1177823913602712,0.3226247480280975,6.505855,92.41075,359.7003,0.03738635,0.7207624,-0.0427658,14.4199996776879,10
11.58133,0.6833332,-36.61467,0.5400297654571009,-0.3348793831032695,0.2251590592853176,9.753267,91.54356,359.476,0.05603101,0.7142369,-0.06409314,14.4399996772408,10
11.63782,0.883333,-36.62049,0.4604950822078386,0.1348583544010267,0.1973066643360397,12.99564,90.6543,359.199,0.07462128,0.7071034,-0.08535611,14.4599996767938,10
11.90757,0.2833333,-36.67839,0.370022273345473,0.5998917443898284,0.1689442918108312,3.200027,90.1955,359.7516,0.01817513,0.7080771,-0.021307,14.4799996763468,10
11.96335,0.4833333,-36.68332,0.4418095914657023,0.1552440767015588,0.0937848143768889,6.395068,89.33774,359.455,0.03632958,0.7020947,-0.04258979,14.4999996758997,10
12.01911,0.6833332,-36.68824,0.5082874836384654,-0.2941080852082037,0.0180078824140252,9.584333,88.45734,359.1077,0.05444824,0.6955305,-0.06383087,14.5199996754527,10
12.26481,0.2833335,-36.73842,0.3427193350437232,0.1568124085045271,0.0342205852019574,3.530123,91.52989,359.7671,0.02003172,0.7161862,-0.02348551,14.5399996750057,10
12.3263,0.4833335,-36.74459,0.3558583424608788,-0.0372858656963026,0.0075970272156737,7.055511,90.67299,359.481,0.04003778,0.7100883,-0.04694174,14.5599996745586,10
12.38776,0.6833334,-36.75076,0.3545825290875743,-0.210476121334118,-0.0125204072762841,10.57645,89.79077,359.1382,0.06000299,0.7032815,-0.07035482,14.5799996741116,10
12.4492,0.8833334,-36.75692,0.3528555660236101,-0.4171193680667754,-0.0290069728749671,14.09206,88.87577,358.735,0.07990975,0.6957726,-0.09370017,14.5999996736646,10
12.75305,0.2833332,-36.8202,0.1821275845552339,0.2488071651590055,-0.0032487973261723,3.562977,93.6726,359.8479,0.02029876,0.7290772,-0.02358332,14.6199996732175,10
12.81488,0.4833333,-36.82729,0.2648220039775157,0.0296194711263811,-0.03690525265133,7.122531,92.82627,359.6424,0.04056951,0.7230614,-0.0471397,14.6399996727705,10
12.87668,0.6833332,-36.83437,0.3375702167604437,-0.1686599037875908,-0.0655121119407766,10.67765,91.95955,359.3816,0.06079346,0.7163135,-0.07064135,14.6599996723235,10
12.93847,0.883333,-36.84145,0.4149776194892318,-0.4003925396866576,-0.0922946682143432,14.22737,91.06505,359.0619,0.08094907,0.7088413,-0.09406474,14.6799996718764,10
13.15296,0.2833334,-36.88772,0.2578516892912859,0.2404441364642174,-0.0616250651045717,3.592545,94.76331,359.9846,0.02112561,0.7355216,-0.02315775,14.6999996714294,10
13.21537,0.4833334,-36.89363,0.2580756424429182,-0.0038334290177113,-0.0743076504754469,7.183747,93.93314,359.9176,0.04222862,0.7295503,-0.04628335,14.7199996709824,10
13.27777,0.6833332,-36.89954,0.2581691457367423,-0.2272029298514303,-0.0843595289917615,10.7726,93.09127,359.7971,0.06328213,0.7228302,-0.06935473,14.7399996705353,10
13.34014,0.883333,-36.90545,0.0532819629971186,0.2362629417512072,-0.0445507520702648,14.35826,92.23063,359.6206,0.08426386,0.7153689,-0.09234815,14.7599996700883,10
13.61297,0.2833334,-36.96512,-0.1469609469390409,0.6950243251434678,-0.0040338312234382,3.570375,96.24599,0.06888511,0.02124262,0.7442055,-0.02279432,14.7799996696413,10
13.67498,0.4833335,-36.97115,-0.113720678407855,0.244103872463115,-0.0242611471135489,7.140194,95.42706,0.08666763,0.04245578,0.7383225,-0.04555855,14.7999996691942,10
13.73698,0.6833333,-36.97717,-0.075472168554052,-0.2115208001054804,-0.0437894402885845,10.70892,94.60204,0.05280041,0.06361975,0.7316905,-0.06827003,14.8199996687472,10
13.983,0.2833333,-37.02813,-0.3070299614826108,0.2331272171856192,8.620285694860286e-05,3.647699,96.92579,0.08901178,0.02168565,0.7481306,-0.02330837,14.8399996683002,10
14.04634,0.4833333,-37.03472,-0.3516537616558253,0.0327566875804533,-0.0026508309986752,7.295249,96.11118,0.1261906,0.04334163,0.7422397,-0.04658559,14.8599996678531,10
14.10966,0.6833331,-37.04131,-0.4031926326469612,-0.1467058548240294,-0.0021717714502358,10.94194,95.29145,0.1109906,0.06494523,0.7355643,-0.06980707,14.8799996674061,10
14.17296,0.8833332,-37.04789,-0.4468890052453886,-0.3596215520172786,-0.0019467903112726,14.58766,94.4596,0.04156724,0.086476,0.7281117,-0.09295321,14.899999666959,10
14.47764,0.2833335,-37.112,-0.6533762764964361,0.3000327277207501,0.0420085828395073,3.611423,98.31835,0.1412565,0.02153862,0.7561277,-0.02303278,14.919999666512,10
14.54029,0.4833333,-37.11913,-0.5965635775417795,0.0745727786322588,0.0205942115757125,7.223442,97.51204,0.2318308,0.04304839,0.7503301,-0.04603506,14.939999666065,10
14.60293,0.6833332,-37.12626,-0.5390793501788878,-0.1299791848236631,0.0013239258127057,10.83532,96.70422,0.2715944,0.06450667,0.7437541,-0.06898287,14.9599996656179,10
14.66554,0.8833331,-37.13338,-0.4655358340786968,-0.3679838356825592,-0.019514580852757,14.44615,95.88825,0.2591136,0.08588808,0.7364073,-0.09185266,14.9799996651709,10
14.87829,0.2833336,-37.18131,-0.6166065962007217,0.2665809081830652,0.0168870799568168,3.547081,99.54781,0.2135303,0.02140915,0.7630976,-0.0224269,14.9999996647239,10
14.93988,0.4833335,-37.18834,-0.5903156792534006,0.0160308292545375,-0.0015530101576004,7.095795,98.75146,0.3780175,0.04279049,0.7574039,-0.04482488,15.0199996642768,10
15.00146,0.6833334,-37.19536,-0.5446517910566904,-0.213611032047315,-0.0219499613909732,10.64538,97.95855,0.4939575,0.0641222,0.7509496,-0.06717092,15.0399996638298,10
15.23459,0.2833331,-37.24539,-0.6932701411543825,0.243581726042865,0.0064172287362467,3.484515,100.0228,0.2605143,0.0212793,0.7657716,-0.02183391,15.0599996633828,10
15.2952,0.4833329,-37.25191,-0.8269325553218323,0.6960698939079837,0.0333689499181204,6.971264,99.23301,0.4733483,0.04253152,0.7601466,-0.04363978,15.0799996629357,10
15.35579,0.6833329,-37.25844,-0.7258727961497478,0.2388767741927474,-0.0111112456433772,10.45913,98.44983,0.6393863,0.06373382,0.753783,-0.06539337,15.0999996624887,10
15.41637,0.8833331,-37.26496,-0.6089940359373891,-0.223020831119339,-0.057097338193472,13.9479,97.66748,0.7585064,0.08486728,0.7466876,-0.08707701,15.1199996620417,10
15.70756,0.2833333,-37.32739,-0.7536688782982033,0.2153551333157865,-0.0393976342190995,3.426319,99.36119,0.2389613,0.02093323,0.7620665,-0.02144529,15.1399996615946,10
15.76718,0.4833334,-37.33342,-0.7104455889825658,0.008711992692336,-0.0713105793681521,6.854168,98.57249,0.431187,0.04183891,0.7564701,-0.04286023,15.1599996611476,10
15.82678,0.6833332,-37.33944,-0.6665966647975274,-0.1770226917765178,-0.0986476912810871,10.28337,97.78915,0.577196,0.06269903,0.7501628,-0.06422892,15.1799996607006,10
15.88637,0.8833331,-37.34546,-0.608990002393849,-0.3962102734274677,-0.1247326361443654,13.71324,97.00555,0.6768271,0.08349349,0.7431509,-0.085531,15.1999996602535,10
16.08821,0.2833334,-37.39238,-0.7078024330265542,0.2571712354315256,-0.1058713673988549,3.37076,97.48039,0.131598,0.02025883,0.751379,-0.02135215,15.2199996598065,10
16.14678,0.4833334,-37.39816,-0.5481670549276032,0.0254384950784878,-0.152412093994279,6.74162,96.6852,0.2166434,0.04049142,0.7457647,-0.04267523,15.2399996593595,10
16.20533,0.6833336,-37.40395,-0.3872807207132638,-0.1853858275388054,-0.1956688364590491,10.11235,95.88892,0.2549451,0.06068088,0.7394735,-0.06395327,15.2599996589124,10
16.26387,0.8833334,-37.40973,-0.2116325223918735,-0.4296630713826452,-0.2393088091389117,13.48235,95.08591,0.2455686,0.08080881,0.7325115,-0.08516751,15.2799996584654,10
16.52402,0.2833333,-37.47004,-0.2604090518716937,0.1986288590034487,-0.2224949602322041,3.311839,95.69277,-0.004483823,0.01936453,0.7410393,-0.02144916,15.2999996580184,10
16.58146,0.4833333,-37.47626,-0.144040739670185,-0.0581941482255699,-0.2492126574707498,6.622304,94.88887,359.9445,0.03870601,0.7354109,-0.04287311,15.3199996575713,10
16.63888,0.6833333,-37.48247,-0.0190055441697083,-0.2941087207309185,-0.274507733411113,9.930333,94.07597,359.8458,0.05800366,0.7291383,-0.06425166,15.3399996571243,10
16.86914,0.2833333,-37.53317,-0.0932253278741939,0.1568117828260985,-0.2480376591695403,3.255501,94.1283,359.8945,0.01867575,0.7318389,-0.02142313,15.3599996566772,10
16.92561,0.4833331,-37.53949,-0.1599098071812044,0.6030280343484813,-0.220472926454974,6.50827,93.3183,359.7428,0.03732987,0.7261966,-0.04282211,15.3799996562302,10
16.98207,0.6833332,-37.54581,0.0045876986425206,0.1395625659259861,-0.253046640991613,9.757545,92.4938,359.5433,0.05594644,0.7199381,-0.06417765,15.3999996557832,10
17.03851,0.8833332,-37.55213,0.1742970656984788,-0.3286073392204043,-0.2848494608131631,13.00231,91.64902,359.2937,0.07450671,0.7130696,-0.08547084,15.4199996553361,10
17.32577,0.2833335,-37.61735,0.0724207273546646,0.1034954415726144,-0.2503852861739233,3.20113,91.41379,359.7639,0.01803125,0.7155362,-0.02143084,15.4399996548891,10
17.38145,0.4833333,-37.62323,0.1511641695791254,-0.1094197687205033,-0.261177237206823,6.397691,90.59628,359.4818,0.03604205,0.7098395,-0.04283791,15.4599996544421,10
17.43713,0.6833335,-37.62911,0.2172797188466688,-0.301426674008019,-0.2672549425995427,9.588884,89.75723,359.1514,0.05401722,0.7035576,-0.064203,15.479999653995,10
17.49279,0.8833336,-37.63499,0.2836381780503458,-0.5268865193394776,-0.2720659148838749,12.77366,88.89091,358.7698,0.07194169,0.6966965,-0.08550576,15.499999653548,10
17.69771,0.2833334,-37.68959,0.1828330374163904,0.1202228713253575,-0.2300532985166228,3.53024,92.95452,359.7749,0.01978798,0.7247974,-0.02368688,15.519999653101,10
17.75904,0.4833333,-37.69713,0.3337286757877784,-0.1177827195321784,-0.2490663609258803,7.05607,92.13831,359.4991,0.03955116,0.7189926,-0.04734407,15.5399996526539,10
17.82034,0.6833333,-37.70467,0.4726795188245276,-0.3348800119179307,-0.2631693373849728,10.5778,91.29773,359.1691,0.05927286,0.7124733,-0.07095861,15.5599996522069,10
17.88162,0.8833331,-37.7122,0.4072381463393419,0.1348582096116165,-0.2244153800690753,14.0947,90.4257,358.7815,0.07893735,0.705246,-0.09450547,15.5799996517599,10
18.13692,0.2833334,-37.78231,0.3342506843008195,0.5998924194639221,-0.1827592923800125,3.563225,95.75211,359.8628,0.01996553,0.7413616,-0.02386203,15.5999996513128,10
18.19848,0.4833333,-37.79136,0.4172161491514359,0.1552443796964866,-0.1850252902160107,7.123382,94.94697,359.6745,0.03990161,0.7356575,-0.04769863,15.6199996508658,10
18.26002,0.6833336,-37.80041,0.4990402256614992,-0.294108171890192,-0.1856608652007239,10.67947,94.12285,359.4336,0.05979108,0.7292119,-0.07148004,15.6399996504188,10
18.48913,0.2833332,-37.85665,0.3164571372736624,0.1568122213759746,-0.1213769978076584,3.592942,97.16773,-0.004453178,0.02070909,0.7495571,-0.02353523,15.6599996499717,10
18.55127,0.4833333,-37.86497,0.1291145108181339,0.6030280510750567,-0.0559926611991912,7.184671,96.37743,359.9418,0.04139442,0.7439013,-0.04703891,15.6799996495247,10
18.61339,0.6833333,-37.87328,0.16335544666995,0.1395626214198808,-0.051711180827624,10.7743,95.57664,359.8372,0.06203131,0.737485,-0.07048757,15.6999996490777,10
18.6755,0.8833332,-37.8816,0.1911671228643037,-0.3286071306609288,-0.0463980976844311,14.36111,94.75861,359.6796,0.08259851,0.7303153,-0.09385729,15.7199996486306,10
18.96278,0.2833335,-37.94987,0.0554596236091633,0.1034959318703311,0.005111231736862,3.570641,97.94938,0.06004828,0.02084483,0.7540427,-0.0231599,15.7399996481836,10
19.02457,0.4833335,-37.95787,0.1057965682563022,-0.1094196534639505,0.0060830108694034,7.140616,97.16835,0.07160363,0.04166266,0.748447,-0.04628796,15.7599996477365,10
19.08635,0.6833335,-37.96586,0.1485841651528261,-0.301427365373099,0.0074091407408971,10.7094,96.38115,0.03378097,0.06243176,0.7420953,-0.06936274,15.7799996472895,10
19.14811,0.8833335,-37.97386,0.1979460376231117,-0.5268881057505315,0.005088642149559,14.27627,95.58135,359.9449,0.08313063,0.7349946,-0.09236102,15.7999996468425,10
19.35244,0.2833333,-38.02247,0.0259726067412806,0.1202210442084448,0.0605850816540751,3.647597,98.21243,0.07979976,0.02136126,0.7555268,-0.02360231,15.8199996463954,10
19.41559,0.4833333,-38.03062,0.1083370387258746,-0.117784454740048,0.0497707675395631,7.294902,97.43632,0.110248,0.0426937,0.7499104,-0.04717302,15.8399996459484,10
19.47873,0.6833334,-38.03876,0.1816678746886495,-0.334881589878577,0.0395321786352198,10.94123,96.65501,0.09075164,0.06397458,0.7435048,-0.0706872,15.8599996455014,10
19.54184,0.8833335,-38.0469,0.0529892392286086,0.1348562668025634,0.0792695365682547,14.58661,95.86185,0.01964415,0.08518516,0.7363169,-0.09412485,15.8799996450543,10
19.80337,0.2833333,-38.1093,-0.0784862363026981,0.5998899333896663,0.1178424548503329,3.611284,99.81612,0.1433558,0.02124897,0.7646062,-0.02329961,15.8999996446073,10
19.86582,0.4833333,-38.118,-0.0445569025954029,0.1552419281207913,0.1073081453354447,7.223111,99.04923,0.2385216,0.04246945,0.7590875,-0.04656835,15.9199996441603,10
19.92825,0.6833333,-38.12671,-0.0051326974997962,-0.2941103862447297,0.0944923223444647,10.83482,98.28149,0.2854494,0.06363922,0.7527844,-0.06978209,15.9399996437132,10
20.16131,0.2833336,-38.17995,-0.222717092651159,0.1568098995183486,0.14595826721294,3.547068,101.2685,0.2190811,0.02110734,0.7727036,-0.02271504,15.9599996432662,10
20.22268,0.4833336,-38.18871,-0.4366978867105189,0.6030258751393707,0.1944848040977689,7.095728,100.511,0.3915325,0.04218732,0.7672897,-0.04540087,15.9799996428192,10
20.28404,0.6833337,-38.19747,-0.4101311729423642,0.1395604836416919,0.1733303655443023,10.64527,99.75769,0.5179493,0.06321847,0.7611083,-0.06803422,15.9999996423721,10
20.34539,0.8833339,-38.20622,-0.3739546065248262,-0.3286097264162119,0.1467682951428983,14.19472,99.00288,0.5978849,0.08417669,0.7541667,-0.09059083,16.0199996419251,10
20.63665,0.2833335,-38.27208,-0.493489085047738,0.1034933253995848,0.1693592241124051,3.47967,101.4079,0.2657558,0.02102245,0.7734803,-0.02202785,16.0399996414781,10
20.69702,0.4833335,-38.27994,-0.4192293143761496,-0.1094219050176926,0.1372489402310464,6.961542,100.6575,0.4863129,0.04201863,0.7681286,-0.0440278,16.059999641031,10
20.75737,0.6833337,-38.2878,-0.3441271690187761,-0.3014286829393134,0.1021021035574563,10.44447,99.91454,0.6628401,0.06296685,0.7620356,-0.06597389,16.079999640584,10
20.81771,0.8833338,-38.29565,-0.254945725759395,-0.5268883745082514,0.0603160974277443,13.92839,99.17358,0.7952062,0.08384795,0.7552077,-0.08784986,16.099999640137,10
21.01929,0.2833333,-38.34407,-0.3714055375505971,0.120221128538258,0.0834051821182981,3.420463,100.4031,0.2273151,0.02062664,0.7679194,-0.02166052,16.1199996396899,10
21.07866,0.4833333,-38.35134,-0.2279927936431782,-0.1177839260234834,0.0404193666019807,6.842176,99.65213,0.410242,0.04122651,0.7625852,-0.04329042,16.1399996392429,10
21.138,0.6833334,-38.3586,-0.0880249400286459,-0.3348812052544816,-0.0005495724976469,10.26498,98.90621,0.5492362,0.06178147,0.7565401,-0.06487359,16.1599996387959,10
21.19733,0.8833333,-38.36587,-0.1393625781318057,0.1348569572093492,0.0136369671400871,13.68835,98.16009,0.6441557,0.08227258,0.7497901,-0.08639033,16.1799996383488,10
21.45699,0.2833335,-38.42802,-0.1914756759109117,0.5998908058721858,0.0284813403029673,3.363726,98.44891,0.1102696,0.01989669,0.7569289,-0.02159765,16.1999996379018,10
21.51528,0.4833334,-38.43513,-0.0824835565668848,0.1552430585584528,-0.0044954846795377,6.727204,97.6904,0.17607,0.03976677,0.7515771,-0.04316685,16.2199996374547,10
21.57354,0.6833335,-38.44223,0.0322520328793523,-0.2941088019244989,-0.0380834220315762,10.09028,96.92999,0.1972862,0.05959507,0.7455491,-0.06469069,16.2399996370077,10
21.80381,0.2833334,-38.4953,-0.1044760487742415,0.1568116944888755,-0.0038827606349443,3.306326,96.78899,359.9904,0.01909311,0.7474247,-0.02162712,16.2599996365607,10
21.86102,0.4833333,-38.50267,-0.2400332005174696,0.6030278509659875,0.0304777702247918,6.611249,96.02232,359.9364,0.03816349,0.7420598,-0.0432292,16.2799996361136,10
21.91821,0.6833332,-38.51004,-0.1483450448488525,0.1395623970921243,0.0008573502135291,9.913791,95.2468,359.837,0.05719126,0.7360499,-0.06478575,16.2999996356666,10
21.97539,0.8833333,-38.51741,-0.0558125979078099,-0.3286071992224603,-0.0286944124363799,13.21371,94.45698,359.6907,0.07616308,0.7294009,-0.08627955,16.3199996352196,10
22.2632,0.2833332,-38.58357,-0.1207209066595176,0.1034962241497966,-0.012931663214772,3.248994,94.28495,359.8577,0.0183723,0.7327761,-0.02162558,16.3399996347725,10
22.31949,0.4833333,-38.59066,0.0011678982092178,-0.1094188625234817,-0.0486191689863346,6.494796,93.51017,359.6712,0.0367235,0.7273704,-0.04322611,16.3599996343255,10
22.37576,0.6833333,-38.59774,0.1177546838669094,-0.3014259379516237,-0.0833912781202741,9.73682,92.71916,359.4388,0.05503787,0.7213525,-0.06478405,16.3799996338785,10
22.43202,0.8833332,-38.60482,0.2419949140662858,-0.5268861569303642,-0.1207126914461369,12.97404,91.90645,359.1581,0.07329866,0.7147283,-0.08627842,16.3999996334314,10
22.63299,0.2833333,-38.65328,0.1486333430227056,0.1202234927350252,-0.0989167452011159,3.195831,91.56949,359.7641,0.01797087,0.7164847,-0.0214212,16.4199996329844,10
22.68857,0.4833333,-38.65928,0.3065468596630758,-0.1177816215893716,-0.1429430320583904,6.387239,90.79019,359.4843,0.03592113,0.7110291,-0.04281867,16.4399996325374,10
22.74414,0.6833332,-38.66528,0.4529228033641637,-0.3348784743798401,-0.1835753749809967,9.573603,89.9898,359.1585,0.05383679,0.7049921,-0.06417465,16.4599996320903,10
22.79969,0.883333,-38.67128,0.3962424447184531,0.1348592145128511,-0.170796620518395,12.75392,89.16291,358.7843,0.07170437,0.6983796,-0.08546726,16.4799996316433,10
23.06462,0.2833335,-38.73617,0.332284309940583,0.5998924601478296,-0.1552914953914239,3.516264,93.87542,359.7988,0.01966587,0.7303036,-0.02361392,16.4999996311963,10
23.12561,0.4833332,-38.74425,0.5628444062576641,0.1552438833005408,-0.2112152727397358,7.028633,93.09956,359.5494,0.03930672,0.7247672,-0.04719917,16.5199996307492,10
23.18657,0.6833332,-38.75232,0.8095089007927037,-0.2941094914601087,-0.2667718146599185,10.53791,92.30145,359.2487,0.05890796,0.7185192,-0.07074633,16.5399996303022,10
23.41983,0.2833333,-38.80739,0.8062969716087593,0.1568106388852116,-0.2564455419157028,3.558733,95.63025,359.8542,0.01990904,0.7406505,-0.02386208,16.5599996298552,10
23.48132,0.4833335,-38.81643,0.8087146324321282,0.6030263609940913,-0.2450114995032493,7.114476,94.8615,359.66,0.03979158,0.7351627,-0.04769726,16.5799996294081,10
23.5428,0.6833335,-38.82546,1.0297412433667574,0.1395608148627148,-0.2986413926797553,10.66628,94.07376,359.4155,0.05962804,0.7289383,-0.07147808,16.5999996289611,10
23.60425,0.8833334,-38.83449,1.2702353655438792,-0.3286089332978031,-0.3573077532733961,14.21334,93.26033,359.1174,0.07939841,0.7219846,-0.09518036,16.6199996285141,10
23.89675,0.2833333,-38.90227,1.3689297344380371,0.1034946238870506,-0.3746537337554869,3.586691,97.34227,0.01526506,0.02076636,0.750561,-0.02341223,16.639999628067,10
23.9588,0.4833332,-38.9104,1.4855094635720008,0.5308932837573892,-0.39686327069073,7.172506,96.59164,359.9839,0.04150983,0.7451335,-0.04679305,16.65999962762,10
24.02084,0.6833332,-38.91853,1.97319048082646,0.0486110020783825,-0.5384833004152227,10.75656,95.83234,359.9046,0.06220464,0.7389497,-0.07011947,16.6799996271729,10
24.08286,0.8833333,-38.92666,2.4996056187248,-0.4383749378418586,-0.7062796264928934,14.33822,95.05802,359.7752,0.08282997,0.7320166,-0.09336779,16.6999996267259,10
24.28496,0.2833334,-38.97706,2.8291985444291683,-0.0250884362746074,-0.8338024382301228,3.567484,97.96713,0.05413737,0.02078427,0.754146,-0.0231762,16.7199996262789,10
24.34669,0.4833335,-38.98516,3.4478048200308287,-0.2568212204477876,-1.0585108644160923,7.134216,97.22317,0.06193306,0.04154047,0.7487689,-0.04632175,16.7399996258318,10
24.40839,0.6833332,-38.99325,4.02571890293531,-0.4676453956621423,-1.2934727940355517,10.69978,96.47314,0.02274207,0.0622489,0.7426397,-0.06941443,16.7599996253848,10
24.47008,0.8833332,-39.00134,4.3676531483316445,0.0083655209541484,-1.4834304723173375,14.26347,95.71093,359.9349,0.08288777,0.7357653,-0.09243063,16.7799996249378,10
24.73235,0.2833333,-39.06642,4.669074035989873,0.4796721100048677,-1.6770495542026185,3.638651,99.12092,0.09682501,0.02123588,0.7606895,-0.02361522,16.7999996244907,10
24.79527,0.4833335,-39.07523,5.407513002287541,0.0412963720754373,-2.000607209485402,7.277191,98.38395,0.1469889,0.04244353,0.7553239,-0.04719857,16.8199996240437,10
24.85816,0.6833333,-39.08403,6.077758003045442,-0.4017838232247478,-2.319825930355336,10.91507,97.64344,0.1500161,0.06360032,0.7491701,-0.07072631,16.8399996235967,10
25.09121,0.2833333,-39.13996,6.416294776245227,0.0554093398750407,-2.5645318039966583,3.604282,100.4652,0.1404057,0.0210578,0.7682424,-0.02338911,16.8599996231496,10
25.15344,0.4833332,-39.14938,6.682805900288461,0.5078978070761491,-2.7981260922198388,7.209029,99.73463,0.2349673,0.04208744,0.7629567,-0.04674771,16.8799996227026,10
25.21564,0.6833333,-39.1588,7.204044215643481,0.0507045496280275,-3.0786438842423323,10.81357,99.00351,0.2836964,0.06306687,0.7568887,-0.07005119,16.8999996222556,10
25.27783,0.8833333,-39.16822,7.629859731980638,-0.4111930435747163,-3.334068922182041,14.41723,98.26585,0.28538,0.08397215,0.7500455,-0.09327664,16.9199996218085,10
25.56905,0.2833331,-39.23809,7.803199061907019,0.0271827231906298,-3.517228737632081,3.539058,102.1916,0.2396223,0.02101923,0.7777836,-0.02271742,16.9399996213615,10
25.63022,0.4833331,-39.24744,7.895531948617531,0.4608537822964262,-3.676089126490133,7.079775,101.4731,0.4351334,0.04201069,0.7726131,-0.04540548,16.9599996209145,10
25.69138,0.683333,-39.25678,8.363462566437867,-0.015156761630875,-3.912757715551237,10.62161,100.7608,0.5873234,0.06295366,0.7666757,-0.06804197,16.9799996204674,10
25.75252,0.8833329,-39.26612,8.666359025456764,-0.4958713991259383,-4.099475064319492,14.16364,100.049,0.6961704,0.08382525,0.7599782,-0.09060191,16.9999996200204,10
26.08466,0.2833329,-39.34193,8.580041206602086,-0.0763133532951187,-4.171733500349816,5.306773,98.6409,0.06184222,0.0305844,0.7575376,-0.03475627,17.0199996195734,10
26.17664,0.4833327,-39.35541,8.34747663069906,0.3385408673771894,-4.19589406152636,10.61286,97.90614,0.05557597,0.06109519,0.7509103,-0.06943043,17.0399996191263,10
26.2686,0.6833327,-39.36889,8.603428442483267,-0.1562868837522958,-4.324902315045513,15.91737,97.1553,359.9786,0.09146641,0.7426476,-0.1039462,17.0599996186793,10
26.36053,0.8833326,-39.38236,8.486944560105858,0.0644690057442906,-4.343025079390564,21.2198,96.37392,359.825,0.1216351,0.7327685,-0.1382306,17.0799996182323,10
26.64329,0.2833332,-39.4551,8.208154396725504,0.3082237840561984,-4.30590121387926,6.361194,94.18218,359.3168,0.03341442,0.7315211,-0.0446901,17.0999996177852,10
26.75346,0.4833335,-39.47593,8.362834474852455,-0.1176075012590928,-4.350398153438853,12.7109,93.32103,358.5336,0.066717,0.7237432,-0.08923136,17.1199996173382,10
26.86362,0.6833333,-39.49676,8.363748974178968,-0.548142713747578,-4.331751359452781,19.04633,92.34152,357.6247,0.09980263,0.7136869,-0.1334841,17.1399996168911,10
26.97375,0.8833328,-39.51758,7.960227254896033,-0.0784048236132887,-4.187616968395865,25.36519,91.20618,356.5532,0.1325686,0.7013815,-0.1773274,17.1599996164441,10
27.40712,0.2833336,-39.64352,7.423673138329235,0.3866291286323461,-3.989740563842808,8.944042,95.3214,358.0994,0.04028667,0.7376886,-0.06876323,17.1799996159971,10
27.55987,0.4833342,-39.69245,6.779646354901665,0.6819035060465958,-3.746261079160618,17.85863,94.09907,355.9778,0.08031886,0.7263383,-0.1371606,17.19999961555,10
27.71257,0.683334,-39.74137,6.704442360386508,-0.0696785208135062,-3.6132852211831903,26.71952,92.42964,353.5044,0.1198353,0.7103326,-0.2046885,17.219999615103,10
28.11486,0.2833333,-39.86462,6.316574179732434,0.1082491981695921,-3.3743142975452187,7.143107,98.09322,358.1163,0.02843505,0.7543455,-0.05779462,17.239999614656,10
28.23337,0.4833338,-39.91568,5.7953692304086495,0.3096642751728181,-3.084421887751056,14.25875,96.98666,356.0728,0.05673902,0.7454705,-0.1154205,17.2599996142089,10
28.35184,0.6833339,-39.96672,5.170437966175754,0.4822960319684269,-2.7536066850372123,21.32656,95.56525,353.8005,0.08479653,0.7334704,-0.1725457,17.2799996137619,10
28.47028,0.8833339,-40.01775,5.252269317003389,-0.279878956140033,-2.5762678656197053,28.32867,93.74541,351.198,0.1124892,0.7183983,-0.2289311,17.2999996133149,10
29.02573,0.2833333,-40.18698,5.007189674115683,-0.1125448638093414,-2.299098577004252,7.760258,107.9935,359.1246,0.03361113,0.8074096,-0.05922199,17.3199996128678,10
29.14947,0.4833333,-40.24423,4.673940084003814,0.0782756665798835,-1.9913832876954984,15.5045,107.0659,358.115,0.06705496,0.7980598,-0.1181508,17.3399996124208,10
29.27318,0.6833335,-40.30147,4.851248638775417,-0.4000008558433146,-1.8032275580596604,23.22776,105.9461,356.9207,0.1001751,0.7849823,-0.176511,17.3599996119738,10
29.39685,0.8833333,-40.35867,4.714692152610514,-0.1622061012796563,-1.5333933079588815,30.92379,104.5596,355.4645,0.1328114,0.7682368,-0.234048,17.3799996115267,10
29.81449,0.2833333,-40.46961,4.476058983813097,0.0990765471643388,-1.2409651756030158,7.028585,111.9469,359.8414,0.0331558,0.8272665,-0.05157499,17.3999996110797,10
29.92677,0.4833332,-40.51864,4.165139797560816,0.3315755837310726,-0.9355058133385016,14.05225,111.1798,359.5871,0.06617488,0.8190622,-0.1029375,17.4199996106327,10
30.03901,0.6833336,-40.56765,4.569139226069474,-0.370731791381534,-0.8328293349096967,21.06944,110.3499,359.2225,0.09893178,0.8077524,-0.153892,17.4399996101856,10
30.15122,0.8833333,-40.61664,4.597070262054167,-0.1435282592865473,-0.6670057863319272,28.0783,109.4224,358.7223,0.1313027,0.7933826,-0.2042466,17.4599996097386,10
30.67568,0.2833333,-40.75859,4.527372533906107,0.107161358389265,-0.5098989087478714,3.404149,108.5485,359.3027,0.0124052,0.8115537,-0.02766423,17.4799996092916,10
30.72712,0.4833333,-40.78905,4.393258484803102,0.3290679056235445,-0.3690257379991166,6.794503,107.7653,358.5571,0.02477277,0.8067678,-0.0552749,17.4999996088445,10
30.77856,0.6833335,-40.81949,4.753652822509071,-0.3838327199677723,-0.350645854841126,10.16847,106.931,357.7567,0.03707922,0.8012168,-0.08280009,17.5199996083975,10
30.82999,0.8833337,-40.84991,4.733647630301483,-0.1672233319164693,-0.2765353601352629,13.52484,106.0385,356.8947,0.04931332,0.7949083,-0.1102165,17.5399996079504,10
31.45249,0.2833335,-41.01813,4.619983891946859,0.0728728585190692,-0.2206004927194982,3.486309,104.6437,359.1468,0.0127023,0.7912068,-0.02862353,17.5599996075034,10
31.50694,0.4833335,-41.04799,4.4432602532894805,0.2841860006409437,-0.1904873792592383,6.954252,103.8478,358.2477,0.02538408,0.7862232,-0.05715046,17.5799996070564,10
31.56139,0.6833336,-41.07784,4.935620207430706,-0.4393070490317665,-0.3252362976944596,10.40459,102.9901,357.2918,0.03801881,0.7804475,-0.08558805,17.5999996066093,10
32.149,0.2833333,-41.22971,5.1209117202622885,-0.2332917425608457,-0.4142994875567822,4.580714,103.4452,359.6663,0.0224716,0.7844626,-0.03317489,17.6199996061623,10
32.22523,0.4833336,-41.25425,5.213379630503109,-0.003789749049358,-0.5208904897051596,9.154452,102.686,359.2719,0.04490211,0.7787098,-0.0662732,17.6399996057153,10
32.30145,0.6833336,-41.2788,5.243144961889527,0.1969289416780226,-0.6530183103543195,13.72037,101.8834,358.8119,0.06726738,0.7716846,-0.09923258,17.6599996052682,10
32.37764,0.8833339,-41.30337,5.913686780939411,-0.5371577535516004,-0.9082543467136404,18.27801,101.0252,358.277,0.08953374,0.7634,-0.1320053,17.6799996048212,10
32.4538,0.9766706,-41.32793,6.120101544231968,-0.3417347162670203,-1.054415205832285,22.82594,100.0963,357.6538,0.1116561,0.7538701,-0.1645461,17.6999996043742,10
33.13961,0.283333,-41.49105,6.187307866528677,-0.122825559338643,-1.180173512057543,3.932607,103.1615,359.9595,0.02104484,0.7830309,-0.0271023,17.7199996039271,10
33.20605,0.4833331,-41.50768,6.656177968996175,-0.5730145580440815,-1.3579163392319344,7.863037,102.4439,359.8697,0.04205765,0.7777916,-0.05416152,17.7399996034801,10
33.27247,0.6833336,-41.52431,6.67394462282747,-0.3071312632747918,-1.413632341162554,11.79064,101.7121,359.7287,0.06301207,0.7716119,-0.08114538,17.7599996030331,10
33.33889,0.8833336,-41.54095,6.574465821147065,-0.0177616289769456,-1.4325882805773134,15.7126,100.9592,359.5359,0.08388673,0.764504,-0.107994,17.779999602586,10
34.13702,0.2833333,-41.73036,6.388845334926465,0.2428242098869032,-1.4229215314393713,6.74829,100.5396,359.7038,0.03563472,0.767824,-0.04691287,17.799999602139,10
34.25223,0.4833328,-41.75782,6.789864113990831,-0.4313967502533271,-1.4561878655491398,13.49104,99.76482,359.3139,0.07113817,0.7598695,-0.0936536,17.819999601692,10
34.36742,0.6833325,-41.78528,6.570547847571142,-0.1761068889967759,-1.3015938334514772,20.22653,98.91397,358.8132,0.1063859,0.749253,-0.1400577,17.8399996012449,10
35.01897,0.2833329,-41.94464,6.222390201348659,0.1026698866772126,-1.0883511430516677,6.450021,97.40001,359.1082,0.03129176,0.7503406,-0.04739081,17.8599996007979,10
35.12888,0.4833325,-41.97544,5.776257916794663,0.3526622577040005,-0.8259102392590378,12.88564,96.52858,358.1125,0.06247536,0.7426403,-0.09461884,17.8799996003509,10
35.23876,0.6833332,-42.00623,5.645952665521328,-0.3321515122742449,-0.5506389899756172,19.30302,95.51109,356.9808,0.09344814,0.7325211,-0.1415298,17.8999995999038,10
35.34862,0.8833333,-42.03701,5.088978520275276,-0.087455520989484,-0.1620307280931001,25.69715,94.30602,355.6696,0.1241106,0.7200176,-0.1879719,17.9199995994568,10
36.16797,0.2833333,-42.26094,4.462704591255111,0.1807274558006541,0.262484175110572,6.814353,99.28152,357.8841,0.02443514,0.7612332,-0.05721477,17.9399995990098,10
36.27942,0.4833342,-42.31768,3.799007695951112,0.4201259763699898,0.7118555433966023,13.59755,98.17717,355.6134,0.04875242,0.752826,-0.1142859,17.9599995985627,10
36.39083,0.6833335,-42.37441,3.604335789452527,-0.2626769006879558,1.1457996609566408,20.33079,96.74767,353.1198,0.07287647,0.7414699,-0.1709213,17.9799995981157,10
36.5022,0.8833339,-42.43111,2.8867423950555,-0.0174825172451696,1.7046443860745557,26.99465,94.91689,350.3074,0.09671638,0.7272085,-0.2268948,17.9999995976686,10
