t,pX,pY,pZ,aX,aY,aZ,reX,reY,reZ,rtX,rtY,rtZ,ID
7.92,-43.30571,1.101702,-37.82837,2.715039145270265,-0.0697133198758976,2.584543149924431,14.63773,356.356,163.6092,-0.01306281,-0.1305218,0.9818047,19
7.94,-43.30285,1.155046,-37.82236,2.768823392341448,-0.0634103947804188,2.604168605045614,14.6757,357.3611,163.6201,-0.004416074,-0.1296372,0.9818538,19
7.96,-43.30367,1.354858,-37.82176,2.8191630319593246,-0.03401541102162,2.6208752163121147,14.69502,357.3674,163.645,-0.004365814,-0.1297941,0.9818633,19
7.98,-43.27481,1.157542,-37.76161,2.866485654855546,-0.050058302032594,2.626986759790828,17.64252,358.9652,165.3232,0.01073648,-0.1532301,0.9802145,19
8.0,-43.28479,1.354381,-37.74768,2.91136141142033,-0.0420031276973445,2.6311575178146533,18.07125,359.0607,165.6346,0.01160395,-0.1568231,0.979969,19
8.02,-43.19263,1.173792,-37.64502,2.953343206401658,-0.0117677525321857,2.633056038620473,16.69212,4.652792,167.8013,0.05534497,-0.1399437,0.9823717,19
8.04,-43.19079,1.368679,-37.61319,2.9928376661274347,-0.0278937563947089,2.627181248114565,17.65534,4.660161,167.8262,0.05620753,-0.1482117,0.9811095,19
8.06,-43.11117,1.1863,-37.52635,3.026001723252757,-0.0431950638812549,2.6154709897100687,12.80002,9.842394,169.7843,0.09479993,-0.1030273,0.9853216,19
8.08,-43.0994,1.374872,-37.465,3.056520936224889,-0.0348180252065141,2.6018199192917884,14.67878,9.834232,169.75,0.09604192,-0.1191735,0.9832284,19
8.1,-43.00879,1.20109,-37.39244,3.08396025297208,-0.0046639514896043,2.5859364054692486,7.045142,15.43305,171.8855,0.1379903,-0.05125059,0.9860098,19
8.12,-42.98609,1.382023,-37.30635,3.100555403349455,-0.0208861600325613,2.558890627504804,9.709509,15.4376,171.9167,0.1394075,-0.07422219,0.9841275,19
8.14,-42.81475,1.226661,-37.17012,3.1146114140333347,-0.0138817821818704,2.530463251643276,0.7368941,23.01736,175.4706,0.1996054,0.001587589,0.9790583,19
8.16,-42.77451,1.393642,-37.05387,3.1257013514108314,0.0144670184606154,2.5003519749530803,4.376555,23.02855,175.7212,0.2007242,-0.02994263,0.9781936,19
8.18,-42.63445,1.262472,-36.95816,3.1246810583478526,-0.0078197762097148,2.458422258566248,357.1801,26.93769,178.3503,0.2324775,0.02727816,0.9721841,19
8.2,-42.57704,1.4127,-36.81251,3.113225603550526,-0.0305121892545613,2.4074090652994213,1.738964,26.93361,178.783,0.2329988,-0.01228378,0.9723008,19
8.22,-42.45618,1.259169,-36.8033,3.099705357179772,-0.0292966880356793,2.3555368977856848,356.0191,31.76071,180.7726,0.2736833,0.03156266,0.9611689,19
8.24,-42.40179,1.419671,-36.68452,3.077942059776353,-0.0539976872332581,2.2963805424014287,359.8132,31.74338,181.2487,0.2734845,-0.001411926,0.9618134,19
8.26,-42.34345,1.249328,-36.69428,3.054463797044309,-0.0543730457571184,2.236711712297395,359.5249,34.31396,181.4621,0.2950148,0.0001974488,0.9553987,19
8.28,-42.28368,1.4129,-36.58393,3.0289202209847783,-0.032327077767972,2.1763284826551805,3.19681,34.32299,181.8418,0.2944848,-0.03138882,0.9551142,19
8.3,-42.2251,1.572636,-36.47579,2.981467096174889,-0.0600153319446183,2.0995077511816733,6.866988,34.35639,182.2224,0.2936493,-0.06292482,0.9538398,19
8.32,-42.20013,1.237326,-36.55951,2.9215044371448364,-0.0872206377978779,2.014056050100667,6.22495,37.64554,182.6753,0.3208784,-0.05889937,0.9452763,19
8.34,-42.14073,1.225964,-36.51572,2.861450858400324,-0.0889675943610394,1.9293665965750444,10.36164,39.26061,183.2746,0.3320107,-0.09457611,0.938516,19
8.36,-42.07339,1.396157,-36.41349,2.786214504667856,-0.1186575884032776,1.834233785749712,13.98003,39.3421,183.661,0.3302867,-0.1252084,0.9354737,19
8.38,-42.06607,1.208308,-36.44751,2.7114749850277127,-0.1217203531035058,1.7403212797075485,13.45316,41.12098,183.685,0.3450721,-0.1208277,0.9306988,19
8.4,-41.99752,1.382614,-36.3485,2.637021250390947,-0.1001333035361842,1.6475719982116992,17.0382,41.23262,184.1094,0.3430281,-0.151048,0.9269076,19
8.42,-41.96906,1.182618,-36.35585,2.538322697782976,-0.1326023383322976,1.538234146950824,17.41358,42.73236,184.1133,0.3548375,-0.1538071,0.9219253,19
8.44,-41.89933,1.362949,-36.26097,2.4335604899801933,-0.165186568028827,1.4262231114669115,20.96069,42.87387,184.5436,0.3523857,-0.1834273,0.9172078,19
8.46,-41.89631,1.167623,-36.27732,2.3308150852284246,-0.1692032525070979,1.316705500939462,20.15173,42.65729,184.295,0.351749,-0.176274,0.9188833,19
8.48,-41.82635,1.351938,-36.18489,2.21419853950757,-0.201245540031112,1.1987998328740357,23.67408,42.7978,184.6713,0.3490201,-0.2053824,0.913557,19
8.5,-41.83901,1.152343,-36.21657,2.100403161683096,-0.2039695047177001,1.0841745285388829,23.08086,42.22221,184.3083,0.3456316,-0.199765,0.916087,19
8.52,-41.76912,1.34066,-36.12617,1.9790364547668489,-0.2353397790095504,0.9669505925530696,26.58344,42.35369,184.6213,0.3426416,-0.2283833,0.9101017,19
8.54,-41.75511,1.132013,-36.12621,1.8549829389069168,-0.264743914026138,0.8493649876190492,28.0564,41.12834,184.2018,0.3322316,-0.2392938,0.9108671,19
8.56,-41.68473,1.32581,-36.03939,1.7345434292221062,-0.2637272465969739,0.7359015807415332,31.52325,41.20401,184.354,0.3287409,-0.2669443,0.9038327,19
8.58,-41.67685,1.124475,-36.04523,1.6177787584660486,-0.2343811920600511,0.6267276048059403,32.10542,40.01302,183.6614,0.3203181,-0.2702056,0.9055761,19
8.6,-41.60356,1.321309,-35.9631,1.4904794105986037,-0.262168257031541,0.5110519624272989,35.53178,39.94213,183.5341,0.3162599,-0.2966729,0.8978323,19
8.62,-41.59661,1.118599,-35.97028,1.3678963887327606,-0.2590408637096865,0.4005582280167221,37.42347,39.57371,183.0444,0.3124974,-0.3102767,0.8937942,19
8.64,-41.52108,1.317276,-35.89186,1.2501406756971347,-0.2271003719449173,0.295458178891292,40.81324,39.3587,182.7037,0.3077882,-0.3356695,0.885024,19
8.66,-41.46094,1.114945,-35.86032,1.1316465838550087,-0.2521946438221343,0.1906729419438306,43.29312,40.66089,181.7633,0.3175713,-0.3508284,0.8734438,19
8.68,-41.38448,1.315155,-35.78458,1.013403245814775,-0.274532001087273,0.0880608706281753,46.64773,40.38255,181.3696,0.3124858,-0.3753581,0.863421,19
8.7,-41.35538,1.11368,-35.76791,0.9008837528602848,-0.2656530399758575,-0.0081314787609798,46.39202,40.7383,180.3731,0.3187267,-0.3702883,0.8621292,19
8.72,-41.24678,1.109904,-35.6745,0.8035619772789833,-0.2852455338625961,-0.091127069296597,50.71109,40.31291,178.7228,0.3158514,-0.3985116,0.8466257,19
8.74,-41.16995,1.309315,-35.60241,0.7116445688047852,-0.2741320677758394,-0.1677300845382063,53.99309,39.80861,178.0862,0.3104385,-0.4216941,0.8351082,19
8.76,-41.09323,1.50598,-35.53043,0.6253338951902832,-0.2343541620298106,-0.2376546915048996,57.27,39.19254,177.3401,0.3047681,-0.444517,0.8229009,19
8.78,-40.98684,1.102156,-35.4466,0.5448292090849156,-0.1678941767965631,-0.3006112661457916,59.71223,38.0336,174.0495,0.3066468,-0.4553514,0.8104203,19
8.8,-40.91459,1.104437,-35.38391,0.4791586711573341,-0.1832291978200813,-0.3496831136503981,61.23717,35.39462,171.2482,0.2978648,-0.4638425,0.8056476,19
8.82,-40.8385,1.295509,-35.31427,0.4193219553326344,-0.1691448267616174,-0.3914391236317458,64.40907,33.98626,169.6657,0.292191,-0.4853319,0.7918918,19
8.84,-40.66669,1.128896,-35.1714,0.3784342494861228,-0.1737302550360261,-0.4160615630316,60.95705,29.91437,166.7878,0.277331,-0.4611874,0.8120315,19
8.86,-40.58981,1.312918,-35.10145,0.3428138744846247,-0.1732585413026897,-0.4335315022014407,64.02566,27.91022,164.529,0.271874,-0.4822573,0.7982069,19
8.88,-40.51369,1.494293,-35.03218,0.3132590609221362,-0.1450194754772016,-0.4426481811451657,67.04973,25.34982,161.7172,0.266201,-0.5029356,0.7837483,19
8.9,-40.40588,1.17843,-34.95415,0.2899901406548562,-0.0908944527521986,-0.4431439186115904,52.01416,34.44462,171.2947,0.297118,-0.3974183,0.8461142,19
8.92,-40.25636,1.211526,-34.84679,0.2750433912683121,-0.079935238155696,-0.4383562622331709,43.05758,39.01235,173.9933,0.3283096,-0.3291574,0.8692186,19
8.94,-40.1722,1.384718,-34.77118,0.2684878924859815,-0.0424524365917018,-0.4229836672923364,46.39679,38.46946,173.2222,0.3242589,-0.3533765,0.8586481,19
8.96,-40.08931,1.554777,-34.69672,0.2728668629358441,-0.0321953982665096,-0.4002958790960571,49.72916,37.82095,172.3508,0.3199266,-0.3772808,0.8473322,19
8.98,-40.00222,1.249913,-34.6758,0.2868145432550042,-0.0264075572608218,-0.3661146611455983,26.16723,44.52611,176.0313,0.3760574,-0.1965942,0.8979201,19
9.0,-39.90977,1.418108,-34.5962,0.2985563133771576,-0.014874478224761,-0.3364663370898952,29.73605,44.36654,175.6911,0.3736035,-0.2237136,0.8907039,19
9.02,-39.81894,1.582648,-34.51799,0.3225312062976009,-0.0076603373360869,-0.296567583936473,33.30437,44.17501,175.3249,0.370783,-0.2506161,0.882617,19
9.04,-39.7239,1.271811,-34.47792,0.3447017434541353,0.0030326215371839,-0.2601619236674142,2.30599,51.03048,177.9691,0.4309182,-0.01052451,0.9019928,19
9.06,-39.65457,1.275537,-34.42575,0.3774232400469595,0.0091659593426954,-0.2163241826689139,358.3628,52.02716,178.2149,0.4382862,0.01966943,0.8985872,19
9.08,-39.55935,1.440948,-34.34696,0.4037970818857275,0.0193572426058022,-0.1775538755982344,1.946383,52.02744,178.3173,0.4387,-0.008823131,0.8983533,19
9.1,-39.46592,1.602623,-34.26963,0.4395737012381158,0.0253378587142434,-0.135353600173782,5.528881,52.03415,178.4202,0.4386845,-0.03729815,0.8972408,19
9.12,-39.42635,1.291468,-34.25505,0.4709855411656933,0.0314501125152944,-0.0942367277783695,352.2112,53.94411,179.0693,0.452002,0.06420311,0.8893909,19
9.14,-39.33031,1.45341,-34.17472,0.5098378501543825,0.0345090236034333,-0.053833669768414,355.8089,53.91878,179.3119,0.4528518,0.03531249,0.8908156,19
9.16,-39.23623,1.611524,-34.09604,0.5229202977480858,0.0332626214360887,-0.0315895344468417,359.4055,53.90874,179.5523,0.4532531,0.006394803,0.8913583,19
9.18,-39.20601,1.269509,-34.08876,0.5405225097111526,0.0312784450629971,-0.0155496657541025,354.1083,55.06743,180.0206,0.4616679,0.04548793,0.8855631,19
9.2,-39.16706,1.261684,-34.06622,0.5474326975888406,0.0699132093389694,-0.0035258400134319,355.8076,55.24704,180.5622,0.4635029,0.03013435,0.8853267,19
9.22,-39.07153,1.425181,-33.98868,0.537861152770164,0.0360251307252832,-0.0172266724039724,359.3932,55.2357,180.8326,0.4635876,0.001323715,0.8860056,19
9.24,-39.01899,1.245834,-33.9565,0.5162730345065585,0.0237376454376316,-0.025572918507744,1.443055,55.99492,181.5927,0.4691953,-0.01764158,0.8828953,19
9.26,-38.92225,1.410749,-33.87914,0.4970265201920627,0.012138045157787,-0.0414595243013771,5.079039,56.0118,181.8893,0.4683927,-0.04684837,0.8822553,19
9.28,-38.82738,1.571913,-33.80326,0.4791494877715481,0.0474964860846888,-0.0465298634312283,8.714339,56.04781,182.1889,0.4671155,-0.07600209,0.8807216,19
9.3,-38.87251,1.231941,-33.83884,0.4393429822780099,0.0069927933681867,-0.0740121790529144,8.288087,56.31928,182.8809,0.4689458,-0.07552285,0.8799107,19
9.32,-38.85928,1.226239,-33.82621,0.4021445556963474,-0.0331131278464374,-0.1077708062005902,10.36273,56.32503,183.1636,0.4676687,-0.09256227,0.8788521,19
9.34,-38.76278,1.396714,-33.75121,0.3722136354198087,-0.0019733224324282,-0.1198296323002354,13.98412,56.38266,183.4367,0.4654759,-0.1213041,0.8761514,19
9.36,-38.77264,1.199503,-33.75583,0.3225959346434495,-0.0236859416669395,-0.1424160074425997,14.78234,56.8245,183.675,0.4679881,-0.1282195,0.873753,19
9.38,-38.67768,1.376134,-33.68316,0.2648952525249433,-0.0700669209127804,-0.1763172662149732,18.36914,56.90478,183.9563,0.4651958,-0.1564871,0.870049,19
9.4,-38.58401,1.549256,-33.61147,0.2186061653066797,-0.0619698361900312,-0.1946321248282152,21.95449,57.00585,184.2494,0.4619462,-0.1845923,0.8654893,19
9.42,-38.66386,1.175664,-33.66608,0.1614782055089838,-0.1085593561643016,-0.2241668067372946,18.75369,56.00766,184.0568,0.4578748,-0.1601579,0.8732806,19
9.44,-38.62561,1.160694,-33.63064,0.1131804756788774,-0.0976912147242312,-0.2416959157304363,21.58985,54.48837,184.1055,0.4434296,-0.1825171,0.8758415,19
9.46,-38.53353,1.347639,-33.56157,0.0675666830032266,-0.0867542803968729,-0.2622227262641727,25.11399,54.52523,184.1984,0.4397336,-0.209508,0.8707193,19
9.48,-38.55399,1.145387,-33.57042,0.0128730417372917,-0.1045829686626181,-0.283075505431305,24.61449,53.10438,184.056,0.4297188,-0.206008,0.8767946,19
9.5,-38.46338,1.336355,-33.50243,-0.0477416590817405,-0.1477778302675686,-0.3122349253710461,28.1083,53.1041,184.0554,0.4256727,-0.2324331,0.87105,19
9.52,-38.44661,1.128684,-33.47711,-0.091872379121213,-0.1321019979498986,-0.3249105581542202,30.06727,50.35925,183.7113,0.4030791,-0.2479212,0.8771198,19
9.54,-38.40015,1.124822,-33.43969,-0.1389667530360707,-0.1724772991579189,-0.3430565800665262,32.09164,49.4218,183.5297,0.3938299,-0.2633489,0.8761817,19
9.56,-38.31222,1.321985,-33.37358,-0.172927439510226,-0.1520365590245106,-0.3491127704942274,35.50951,49.27331,183.2628,0.3889552,-0.2883746,0.868944,19
9.58,-38.22453,1.516155,-33.30764,-0.2019208611253926,-0.1314519347996655,-0.3557625696831916,38.92573,49.09753,182.9723,0.3837345,-0.3131353,0.8609328,19
9.6,-38.23815,1.117143,-33.31948,-0.229395126827236,-0.1387729549942041,-0.3598441026223127,39.64843,48.40678,182.6688,0.3783728,-0.3182217,0.861048,19
9.62,-38.15086,1.31654,-33.25486,-0.2597052586400057,-0.1723196246526041,-0.3691749868815477,43.0279,48.1353,182.2579,0.3727308,-0.3422564,0.8522317,19
9.64,-38.06369,1.513017,-33.19033,-0.274529056553745,-0.145461398852867,-0.364464600651555,46.40471,47.8125,181.7993,0.3667637,-0.365984,0.842671,19
9.66,-38.01691,1.113731,-33.1634,-0.2834482562978673,-0.1756942630016491,-0.3581643818233164,46.4065,47.96688,180.3522,0.3724863,-0.3611243,0.8402479,19
9.68,-37.96668,1.112958,-33.12733,-0.2847645826763481,-0.1456614228244245,-0.3437058999957152,48.07726,47.47298,179.5098,0.3692114,-0.3713172,0.8353052,19
9.7,-37.88113,1.313447,-33.06471,-0.2809901555477347,-0.1160811684825999,-0.3276226306179355,51.37483,47.02632,178.9247,0.3632455,-0.394079,0.8246875,19
9.72,-37.7299,1.103718,-32.95609,-0.254762020169986,-0.1146782878176063,-0.2942580297375334,56.53832,45.53182,176.1709,0.3552145,-0.4250865,0.8055414,19
9.74,-37.64545,1.299772,-32.89486,-0.2290012779050219,-0.0821038172351964,-0.2626902496014622,59.78501,44.70932,175.2031,0.3487392,-0.4467172,0.7931728,19
9.76,-37.56126,1.493145,-32.83384,-0.1994485153757947,-0.0507975846130749,-0.2301695983358604,63.02183,43.6762,174.0269,0.341979,-0.4679722,0.7801568,19
9.78,-37.47747,1.683857,-32.77309,-0.1601429314764528,-0.1005006846203921,-0.1920801443305135,66.24564,42.34832,172.5579,0.3349398,-0.4888374,0.7665032,19
9.8,-37.33175,1.118166,-32.66582,-0.1220626557161459,-0.0636214627176183,-0.1553134585243154,61.80388,36.33775,167.1969,0.3202933,-0.4550906,0.7923284,19
9.82,-37.24802,1.304563,-32.60471,-0.0806155601214184,0.0004814406338262,-0.1171087260008238,64.88406,34.2758,164.8906,0.3139222,-0.4754821,0.7786796,19
9.84,-37.07373,1.161939,-32.47674,-0.0227646299684547,-0.0059057793560207,-0.0691006664855691,55.73964,36.17313,168.7909,0.3165306,-0.4154391,0.8221415,19
9.86,-36.99311,1.178357,-32.41803,0.023583961201349,0.0160481470189124,-0.0332797588665512,52.02962,39.17385,171.2849,0.3317967,-0.3891381,0.8330585,19
9.88,-36.90956,1.35634,-32.35379,0.0722770940783146,0.037291191026341,0.002644637685031,55.14226,38.13777,169.9979,0.326635,-0.4105402,0.8214238,19
9.9,-36.82709,1.5316,-32.29036,0.1229593838949592,0.0546626734058749,0.0383169996099987,58.23814,36.8806,168.4942,0.3212197,-0.431615,0.8091503,19
9.92,-36.73302,1.228592,-32.25337,0.1652116205405667,0.0735444505327616,0.0633255618596875,37.78205,45.0388,174.7517,0.3756799,-0.2821775,0.8673993,19
9.94,-36.64067,1.399868,-32.18337,0.1988279459081914,0.1130723175113504,0.0827072190431237,41.18536,44.64491,174.1325,0.3717367,-0.3067403,0.8579816,19
9.96,-36.52972,1.257651,-32.13268,0.2324326264790004,0.1499968222690803,0.1003845019055962,19.91986,50.12305,176.5998,0.4216719,-0.1442292,0.8896351,19
9.98,-36.43358,1.426284,-32.0616,0.2616693971006798,0.1150045156140845,0.1105079888402311,23.40898,50.03981,176.3744,0.419747,-0.1706346,0.884161,19
10.0,-36.39173,1.268204,-32.04329,0.2835823436779883,0.1247644750766213,0.1220387150139297,8.052467,53.05395,177.5629,0.4467522,-0.05333272,0.8916475,19
10.02,-36.29297,1.435323,-31.97158,0.3040866082678093,0.1337613584314334,0.1314150852608597,11.60386,53.04356,177.502,0.4461166,-0.08074643,0.8889858,19
10.04,-36.18816,1.279253,-31.90469,0.3250935524801859,0.0951588989564735,0.1393052360692177,354.4026,56.21438,178.4153,0.4699201,0.04957171,0.8812497,19
10.06,-36.08823,1.444043,-31.83226,0.3433605185256905,0.1241066817416066,0.1503808710456029,357.9739,56.20548,178.5493,0.4707453,0.02155687,0.8820013,19
10.08,-36.02768,1.29136,-31.7905,0.3619968179066202,0.1741934412170992,0.1625173956632197,352.2212,56.88767,179.0801,0.4747061,0.0634557,0.8774905,19
10.1,-35.92772,1.453205,-31.71476,0.3630610779591148,0.1509749013162773,0.1610638025597652,355.8245,56.86111,179.335,0.4755834,0.0347971,0.878897,19
10.12,-35.84334,1.282588,-31.65763,0.358853556407432,0.0999816952566642,0.1548531463713343,353.7809,57.40329,179.7744,0.479447,0.04852412,0.8758906,19
10.14,-35.74549,1.444688,-31.58254,0.3592269241268386,0.1169425023596461,0.1550721083017738,357.336,57.37963,180.0798,0.4799519,0.02005743,0.8769866,19
10.16,-35.72623,1.261973,-31.57472,0.3453804949379053,0.0841718960300256,0.1437997009354044,355.7735,57.67746,180.577,0.4821745,0.02987437,0.8752845,19
10.18,-35.62875,1.425832,-31.5015,0.3283969008046226,0.0504238097707978,0.1295720245983695,359.3244,57.66529,180.8616,0.4822698,0.001538804,0.8759707,19
10.2,-35.53318,1.586061,-31.42973,0.3171311691486451,0.087373555859057,0.1224643849366335,2.874333,57.67076,181.1458,0.4818992,-0.02679049,0.8758107,19
10.22,-35.56046,1.24593,-31.45498,0.2902710713741525,0.0752871423347801,0.1076583206636638,1.431089,58.18418,181.5921,0.4859783,-0.01766641,0.8737713,19
10.24,-35.49548,1.237857,-31.40429,0.2609150555326884,0.0638888736672497,0.0905597273091913,6.180713,58.29682,182.5916,0.4851761,-0.05807021,0.8724618,19
10.26,-35.39653,1.405236,-31.33142,0.2348106067097468,0.1012105561210471,0.0773820574576942,9.800255,58.33852,182.8914,0.4835736,-0.08681461,0.8707659,19
10.28,-35.29937,1.568923,-31.25986,0.1826916692305733,0.0618168314259044,0.0462356669762775,13.41851,58.4002,183.1978,0.481486,-0.1154638,0.8681962,19
10.3,-35.36453,1.217335,-31.2987,0.1283544005522143,0.0231812646424982,0.0129370384269393,11.9108,58.38485,183.3504,0.4822567,-0.1047189,0.8693834,19
10.32,-35.26609,1.38987,-31.22777,0.0921375561379305,0.0570409903352284,-0.0063376908735417,15.52066,58.44951,183.6229,0.4797984,-0.1330752,0.8663704,19
10.34,-35.16918,1.558798,-31.15794,0.0454171967804253,0.0370555019520086,-0.0313468536973045,19.12915,58.53357,183.9051,0.4768624,-0.1612905,0.8624944,19
10.36,-35.22747,1.183054,-31.18817,-0.0113284226701662,-0.0074042178634924,-0.0633730748802672,17.43062,58.0387,183.916,0.4746967,-0.1488075,0.866366,19
10.38,-35.20356,1.17571,-31.16758,-0.0531104278266987,0.0045575851129206,-0.084821655203783,18.74799,57.51711,184.0498,0.4693533,-0.1594717,0.8671771,19
10.4,-35.10818,1.358528,-31.10012,-0.0952842865604006,0.0165265695327814,-0.1070328489102228,22.29676,57.58263,184.2366,0.4659463,-0.186799,0.8626967,19
10.42,-35.10737,1.152944,-31.08555,-0.1631119905187015,-0.0547597314845296,-0.146318646422042,23.09742,55.14834,184.0538,0.4469649,-0.1933901,0.8712013,19
10.44,-35.01407,1.341823,-31.01898,-0.2045937240718434,-0.0434430333669745,-0.1670005078691905,26.6201,55.16726,184.0988,0.4430196,-0.220036,0.8657883,19
10.46,-34.92143,1.527465,-30.9529,-0.2494815735078752,-0.0580718686662669,-0.1891147058680591,30.14109,55.18992,184.1464,0.4386576,-0.246461,0.8595603,19
10.48,-34.98132,1.132682,-30.98254,-0.2921146923308693,-0.0699797553429995,-0.2100653957400853,28.05115,52.51414,183.9443,0.4214766,-0.2319903,0.8732565,19
10.5,-34.95969,1.128747,-30.96243,-0.3292233797844792,-0.0804276766628296,-0.2272667292372343,30.04297,51.5209,183.6973,0.4120097,-0.2468432,0.8730247,19
10.52,-34.86996,1.324609,-30.8981,-0.3629294185779872,-0.088264169820998,-0.2426481785757643,33.46963,51.41365,183.4936,0.4072938,-0.2719854,0.8662713,19
10.54,-34.83393,1.118729,-30.86397,-0.3872191716537942,-0.0939074822961633,-0.254419451362661,37.41676,49.33878,182.9967,0.3875719,-0.3017144,0.8639234,19
10.56,-34.74525,1.317503,-30.80035,-0.401326792295984,-0.0672324417766911,-0.2598445121440305,40.81086,49.09114,182.6043,0.3820412,-0.3259189,0.8556223,19
10.58,-34.65673,1.513329,-30.73684,-0.4114214371116445,-0.0404705707580635,-0.2632223153726816,44.20252,48.79739,182.1698,0.3761744,-0.3498285,0.8465673,19
10.6,-34.65772,1.115035,-30.74652,-0.4290014081299089,-0.1008115529716481,-0.272920175221484,43.28775,49.35092,181.7252,0.3829539,-0.3409607,0.8468421,19
10.62,-34.62819,1.114474,-30.72552,-0.4232901433998037,-0.1017032640730851,-0.2660969215083444,44.68763,49.31104,181.1271,0.3824241,-0.3492832,0.8421159,19
10.64,-34.54161,1.315005,-30.66287,-0.4133282220220859,-0.1007027418906555,-0.2569288964820111,48.01812,49.0087,180.7094,0.3765784,-0.3725717,0.8322328,19
10.66,-34.45286,1.10995,-30.6005,-0.3993721670790657,-0.1012131598370758,-0.2456183685131359,50.70457,47.79226,178.7089,0.3704549,-0.3873302,0.8242223,19
10.68,-34.36694,1.309388,-30.53921,-0.3723941588842225,-0.1021654914780065,-0.2244409957787549,53.99112,47.27196,178.052,0.3642575,-0.4097097,0.8130817,19
10.7,-34.28113,1.506071,-30.478,-0.3363324784729102,-0.0719170691200651,-0.1972595960282719,57.27223,46.63643,177.2824,0.3577577,-0.4317384,0.8012674,19
10.72,-34.12143,1.104418,-30.36677,-0.2964540788682344,-0.042673490593165,-0.1680275734542418,61.23256,42.99244,171.2586,0.3505526,-0.4484498,0.7841848,19
10.74,-34.03672,1.295495,-30.30778,-0.2460366996088958,-0.0338667009193378,-0.1310068782379509,64.40697,41.58128,169.6729,0.3439693,-0.4691726,0.770827,19
10.76,-33.9525,1.483956,-30.24914,-0.1932350036769103,-0.0486672166076854,-0.0925940206757762,67.55882,39.75488,167.6742,0.3371105,-0.4895101,0.7568517,19
10.78,-33.82512,1.128942,-30.15645,-0.1388050615393212,-0.0649897131348943,-0.0532147752126768,60.95341,36.62587,166.7557,0.3245153,-0.4470605,0.7943509,19
10.8,-33.74023,1.312996,-30.09637,-0.0829994886919278,-0.0860858819179653,-0.0130816045569637,64.01805,34.58804,164.4588,0.318191,-0.4673603,0.7808905,19
10.82,-33.65616,1.4944,-30.03687,-0.0338369459385328,-0.0708830379899396,0.0207926977790156,67.03659,31.98589,161.6009,0.3116139,-0.4872795,0.7668095,19
10.84,-33.47502,1.195691,-29.90982,0.0159994331876274,-0.0558546429174225,0.0550043548099332,48.26275,42.7454,173.1869,0.3546202,-0.3602796,0.8394951,19
10.86,-33.38289,1.210071,-29.85513,0.0616745006944015,-0.0384922535374197,0.0802360915758439,43.28511,44.38854,173.8931,0.3688097,-0.322301,0.8519916,19
10.88,-33.28622,1.381617,-29.78523,0.1085080172841848,0.0024714109615253,0.1061968301396945,46.80156,43.76379,173.0107,0.3638691,-0.347012,0.8410231,19
10.9,-33.1911,1.549677,-29.71645,0.1487362182881559,-0.0040986796283432,0.1239801395956941,50.3099,43.00988,172.0054,0.3585767,-0.3713844,0.8292389,19
10.92,-33.13445,1.249456,-29.71002,0.1897820524546674,-0.0128640835816468,0.1416992081901722,26.24359,49.34906,176.0001,0.4135149,-0.1919791,0.8811212,19
10.94,-33.03374,1.417124,-29.63802,0.2299499407455005,-0.0005971336427906,0.1611935608235684,29.86547,49.17427,175.6286,0.4106695,-0.2188175,0.8738925,19
10.96,-32.93482,1.581036,-29.5673,0.2649149866503997,-0.0122456900461185,0.1764564743222068,33.48577,48.96432,175.229,0.4074106,-0.2454315,0.8657849,19
10.98,-32.86563,1.271694,-29.53653,0.2958504496998633,0.0205677420966401,0.193439551841859,2.345538,55.12709,177.9483,0.4628859,-0.009858315,0.8860009,19
11.0,-32.81234,1.275497,-29.499,0.324135455242081,0.0505141144323314,0.2087135532568389,358.3837,55.97326,178.2057,0.4689663,0.01980079,0.8829648,19
11.02,-32.71164,1.440879,-29.42709,0.3526687540316873,0.0572576747106881,0.2265158060692114,1.97188,55.97355,178.2997,0.4693722,-0.008231599,0.8827084,19
11.04,-32.59604,1.291452,-29.34892,0.3780792485362703,0.0625687425964613,0.2431930166229068,352.2173,57.43873,179.0574,0.4789063,0.06345794,0.8752006,19
11.06,-32.49503,1.4534,-29.27487,0.3898042856887507,0.0647891962808938,0.2511992735592652,355.817,57.41452,179.2896,0.4798069,0.03498455,0.8765928,19
11.08,-32.39607,1.611517,-29.20233,0.3976325242521632,0.0660213660427013,0.2576208057753146,359.4158,57.40495,179.5196,0.4802321,0.006484529,0.8771166,19
11.1,-32.39505,1.282613,-29.20388,0.4067293002918619,0.110540514416705,0.2664479480554744,353.78,57.84171,179.7657,0.4827907,0.04847385,0.8740515,19
11.12,-32.31171,1.262014,-29.146,0.3959170303155539,0.0787068913342371,0.2594734362125241,355.7665,58.04765,180.5708,0.4849971,0.02988201,0.8737214,19
11.14,-32.21368,1.425879,-29.07351,0.3837074232897168,0.0952553854183688,0.2531088642899002,359.3174,58.0356,180.8519,0.4850981,0.00160279,0.874408,19
11.16,-32.18904,1.25011,-29.05897,0.3674476048464123,0.1098185590401284,0.2441785380762002,359.4568,58.2888,181.3606,0.4870216,-0.001642843,0.8732963,19
11.18,-32.08935,1.414566,-28.98619,0.3409630980290807,0.1010904110682772,0.2288463812168846,3.073734,58.29498,181.6402,0.4864991,-0.03039046,0.8731522,19
11.2,-31.99159,1.575297,-28.91483,0.3115846193473852,0.0927879993308157,0.2118843743365537,6.689993,58.31894,181.9216,0.4854891,-0.05910257,0.8721333,19
11.22,-32.03624,1.232204,-28.93356,0.2672889779042773,0.0324835652609083,0.1851038144987495,8.26179,57.99254,182.8463,0.4817795,-0.07499439,0.8729773,19
11.24,-31.93718,1.401227,-28.86167,0.2305516628249631,0.0206730071348506,0.1652180829215739,11.87965,58.03729,183.102,0.4798638,-0.103519,0.8708073,19
11.26,-31.83982,1.566582,-28.79103,0.1963761062058853,0.0364670687511783,0.1470838968587586,15.49631,58.09943,183.3645,0.4774681,-0.1319322,0.8677661,19
11.28,-31.90211,1.208692,-28.82726,0.1428166648819768,0.0002229375419398,0.115544227186441,13.45454,58.26479,183.5325,0.480094,-0.1171774,0.8688288,19
11.3,-31.80445,1.383305,-28.75678,0.0871645699751519,-0.0348358567726731,0.0825855972286575,17.05244,58.33553,183.8012,0.4774233,-0.1453758,0.8654675,19
11.32,-31.70821,1.55436,-28.68731,0.0344806456718203,-0.0471113074473792,0.0516115800667886,20.64894,58.42581,184.0804,0.4742806,-0.1734223,0.86125,19
11.34,-31.75808,1.175678,-28.71062,-0.0269765722944601,-0.0852108749997972,0.0154794225906007,18.75437,57.32771,184.0529,0.467909,-0.1596107,0.8679459,19
11.36,-31.72705,1.168261,-28.68367,-0.0892179857561883,-0.1214533561296905,-0.0210996587898111,20.14496,56.49885,184.0587,0.4602681,-0.1704687,0.869706,19
11.38,-31.63284,1.353169,-28.61665,-0.1455279834035856,-0.1322487081663231,-0.0542529449922208,23.67125,56.5473,184.1884,0.4567023,-0.1974558,0.8649465,19
11.4,-31.53951,1.534786,-28.55024,-0.1904443708162091,-0.1122953940170894,-0.0797409212599267,27.19616,56.60606,184.3252,0.4527048,-0.2242455,0.8593694,19
11.42,-31.62338,1.145414,-28.59797,-0.251853672226078,-0.1474497912386509,-0.1160325307178555,24.61164,54.22811,184.0492,0.4383117,-0.2053202,0.872539,19
11.44,-31.53138,1.336403,-28.53195,-0.3028560611571329,-0.1516380724025758,-0.1461402853539541,28.10413,54.22469,184.0415,0.4342034,-0.2315778,0.8668435,19
11.46,-31.53242,1.128717,-28.51763,-0.3516385219275011,-0.1532104732748736,-0.1749143560791295,30.05672,51.32641,183.707,0.4104897,-0.2471252,0.8737037,19
11.48,-31.44261,1.324503,-28.45241,-0.4092086301662303,-0.2116241934018845,-0.2099323930056464,33.50226,51.22446,183.5135,0.4057729,-0.2724629,0.8668894,19
11.5,-31.44656,1.121804,-28.44956,-0.4417613731618401,-0.182891860945337,-0.2294565841455016,34.73484,49.75207,183.2424,0.3936567,-0.2820535,0.8690662,19
11.52,-31.35776,1.319781,-28.38539,-0.4718291026647021,-0.1805702617665727,-0.2498154275683783,38.14018,49.55424,182.9095,0.3884311,-0.306608,0.8613163,19
11.54,-31.30241,1.115587,-28.35195,-0.4979501276740863,-0.2044636547323687,-0.2680693660404918,41.87626,49.25362,182.3496,0.3824475,-0.3327659,0.8518892,19
11.56,-31.21438,1.315589,-28.28893,-0.5120902624186146,-0.1675181830007286,-0.2794356728596558,45.24673,48.95661,181.9188,0.3765503,-0.3564518,0.8426389,19
11.58,-31.12646,1.512689,-28.22597,-0.5286667513067953,-0.187272751518689,-0.2933609957174807,48.61444,48.60213,181.4338,0.3703264,-0.3798202,0.8326563,19
11.6,-31.11808,1.113732,-28.22072,-0.5409236100595223,-0.2063846482309189,-0.3048644544585577,46.38731,48.63493,180.3569,0.3773912,-0.3600749,0.8381286,19
11.62,-31.00223,1.109951,-28.13824,-0.5407089438184931,-0.1966918951463575,-0.306915068714737,50.70589,47.64103,178.7032,0.3693841,-0.3875623,0.824697,19
11.64,-30.9165,1.309401,-28.07686,-0.5163640081827179,-0.1841655509356946,-0.2923388855110671,53.98861,47.11713,178.0418,0.3631988,-0.4099237,0.813565,19
11.66,-30.83089,1.506101,-28.01557,-0.4874901856205782,-0.1708434318020222,-0.2753747042271492,57.26592,46.47749,177.2672,0.3567128,-0.4319355,0.80176,19
11.68,-30.72247,1.102208,-27.93811,-0.4512728006039901,-0.1530920758840201,-0.2533018670176892,59.695,44.57165,174.0282,0.3524658,-0.4427584,0.791644,19
11.7,-30.63759,1.295913,-27.87822,-0.4113007183014923,-0.1351177226234526,-0.2290861867403313,62.91489,43.45123,172.7514,0.3457728,-0.4638657,0.7786391,19
11.72,-30.5531,1.486964,-27.81861,-0.3675822653597134,-0.1704267647498231,-0.2023685021220731,66.11925,42.01404,171.16,0.3387985,-0.4845858,0.7650023,19
11.74,-30.34983,1.128981,-27.66847,-0.3216838142924834,-0.1410307822046773,-0.1741521188047139,60.94497,35.43999,166.7029,0.316489,-0.449444,0.7975898,19
11.76,-30.26236,1.14441,-27.60444,-0.2737286635518154,-0.111883786522814,-0.1445143206445611,58.35977,36.12182,167.8687,0.3181482,-0.4323326,0.8094546,19
11.78,-30.17894,1.32636,-27.54239,-0.2235171800962394,-0.1318432706494117,-0.1140800704805693,61.41712,34.39781,165.8765,0.3122727,-0.4528811,0.7965363,19
11.8,-30.09642,1.50566,-27.48101,-0.1780195989275022,-0.0742288744867767,-0.087363084104592,64.43813,32.24089,163.4551,0.3061533,-0.473067,0.7829947,19
11.82,-30.00367,1.195671,-27.41881,-0.1317181900887547,-0.0636787364918246,-0.064327983335823,48.26658,41.95918,173.2041,0.3487948,-0.3617191,0.8419246,19
11.84,-29.91923,1.372096,-27.35492,-0.0787789738370339,-0.0764967408793555,-0.0396774291884729,51.3966,41.21783,172.2343,0.3439294,-0.3834723,0.8311528,19
11.86,-29.77148,1.239232,-27.2847,-0.0382365115382667,-0.0218266677326908,-0.0235925088746458,32.01834,47.05411,175.3429,0.3936579,-0.2370667,0.8761126,19
11.88,-29.67464,1.408634,-27.21346,-0.0047366546993652,0.0086417826817411,-0.0127284473114204,35.54069,46.77546,174.8419,0.3902339,-0.2628336,0.8677106,19
11.9,-29.62762,1.257374,-27.19771,0.0280487503402375,0.0382678306663222,-0.0023689767555752,19.98743,50.32187,176.578,0.4232145,-0.1445022,0.8887832,19
11.92,-29.53007,1.425706,-27.12678,0.0499183801930183,0.0184396333120359,-0.0007289281133666,23.50758,50.23089,176.3326,0.4212332,-0.1710556,0.8832483,19
11.94,-29.43003,1.271968,-27.06893,0.0793485279479182,0.0428188986514768,0.0110700678913158,2.329846,54.60594,177.9465,0.4588509,-0.009844738,0.8881001,19
11.96,-29.35938,1.275572,-27.01902,0.1070144573049636,0.0660137829600113,0.0221557472758826,358.3814,55.4828,178.2054,0.4651825,0.01978813,0.8849638,19
11.98,-29.25954,1.441054,-26.94642,0.1269812269687911,0.0408780191266323,0.0279745610247714,1.960755,55.48309,178.2995,0.4655893,-0.008235367,0.8847113,19
12.0,-29.16157,1.602808,-26.87518,0.1492189487420918,0.08269206572261,0.0392176242231405,5.539091,55.48928,178.394,0.4655417,-0.03624302,0.8835956,19
12.02,-29.09764,1.294004,-26.82754,0.1670683881691697,0.0988673748297648,0.0480012227429225,352.8118,56.53086,179.2868,0.4722728,0.05815348,0.8791988,19
12.04,-28.99953,1.455699,-26.75136,0.182227280700348,0.1136177717141138,0.0561218560512095,356.3745,56.50523,179.5588,0.4730121,0.02968654,0.8804795,19
12.06,-28.96651,1.282795,-26.73095,0.1916820896878071,0.1708164600295491,0.0620375789770104,353.7621,56.93226,179.7713,0.4758367,0.04878119,0.8778468,19
12.08,-28.86974,1.445122,-26.65546,0.1815511851067439,0.1518429964067731,0.052523906878799,357.2988,56.90866,180.0739,0.4763391,0.02041544,0.8789455,19
12.1,-28.77493,1.60377,-26.58151,0.1682974051313635,0.1315428232426816,0.04166214651657,0.8346397,56.90377,180.3747,0.4763846,-0.007961676,0.8792009,19
12.12,-28.78739,1.249849,-26.59953,0.152937872033549,0.1316705671421444,0.0312651533620651,359.4809,57.07137,181.3712,0.4777146,-0.001736967,0.8784221,19
12.14,-28.68873,1.413984,-26.52387,0.1376186519333502,0.1591074057717531,0.022214116904915,3.123824,57.07798,181.6618,0.4771818,-0.0308681,0.8782625,19
12.16,-28.59201,1.574345,-26.44971,0.1194955212307657,0.18442080715758,0.0118466426931402,6.765626,57.10321,181.9542,0.4761641,-0.05995972,0.87721,19
12.18,-28.61913,1.237646,-26.47116,0.0891103442208001,0.1842477610408601,-0.0054922591010755,6.199893,57.53936,182.5921,0.4793905,-0.05826068,0.8756436,19
12.2,-28.52048,1.404746,-26.39647,0.0566785427882194,0.1846756751058257,-0.0236300768805852,9.845407,57.58155,182.8942,0.4777839,-0.08729792,0.8739169,19
12.22,-28.50552,1.217402,-26.37838,0.0022238803030871,0.1313740345191507,-0.0557631351321745,11.89678,57.74099,183.3577,0.4773668,-0.1047831,0.8720904,19
12.24,-28.46369,1.208769,-26.34564,-0.0328527104513907,0.153064236577621,-0.0752878240373653,13.437,57.89921,183.5432,0.4773215,-0.1171856,0.8703721,19
12.26,-28.36701,1.383445,-26.27443,-0.0695450073224437,0.1738978197360513,-0.0955208681870578,17.02281,57.97291,183.8236,0.4746797,-0.1453829,0.8670116,19
12.28,-28.38827,1.190938,-26.28566,-0.130391163040235,0.113979298186578,-0.1319616830280972,16.07768,57.88773,183.783,0.4748967,-0.138127,0.868257,19
12.3,-28.29285,1.36974,-26.21583,-0.1683093369250361,0.1323712728209362,-0.1527376615397386,19.63913,57.97068,184.0533,0.4719121,-0.1659768,0.8643122,19
12.32,-28.33059,1.175717,-26.23654,-0.2257768506667283,0.0958186556802956,-0.1855377639371909,18.73491,56.96194,184.0709,0.4651295,-0.1596882,0.8694639,19
12.34,-28.2926,1.160701,-26.20107,-0.2829358141358811,0.060866903880327,-0.2176866136022774,21.57938,55.39702,184.1239,0.4503422,-0.1820731,0.8723204,19
12.36,-28.19982,1.347595,-26.13302,-0.3184218104796841,0.1063836879973471,-0.2356890811819867,25.10171,55.44173,184.2367,0.446628,-0.2090164,0.8672166,19
12.38,-28.22107,1.14539,-26.14141,-0.364195433815762,0.0962396885888391,-0.260803420714224,24.60399,53.9664,184.0741,0.4362816,-0.2055079,0.8735636,19
12.4,-28.12981,1.336307,-26.07436,-0.4078676871061959,0.0884338360161461,-0.284008495076586,28.09659,53.9748,184.093,0.432217,-0.2318895,0.867837,19
12.42,-28.1615,1.132717,-26.08903,-0.462966030464266,0.0236651417566561,-0.3145833001298994,28.02685,52.0841,183.9514,0.4182108,-0.2321204,0.8748797,19
12.44,-28.10778,1.124842,-26.0425,-0.4894799448483082,0.0447413510908955,-0.3263888047809029,32.08237,50.16136,183.5308,0.3994856,-0.2627054,0.8736419,19
12.46,-28.01897,1.321993,-25.97747,-0.5126753406300488,0.0658664282188255,-0.3358121337500281,35.50206,50.01328,183.2646,0.3945637,-0.2876575,0.8664333,19
12.48,-28.00606,1.11876,-25.96462,-0.5312052458764063,0.0595015716018113,-0.3458178259240201,37.39949,49.00614,182.9898,0.385104,-0.3018839,0.8650807,19
12.5,-27.9178,1.317564,-25.90079,-0.5453670312725603,0.0551040184827076,-0.3529392642243398,40.786,48.75336,182.5891,0.3795961,-0.3260525,0.8567951,19
12.52,-27.90925,1.115615,-25.90374,-0.5423252582203419,0.0522157548133936,-0.3492366592408595,41.86235,49.14582,182.337,0.3817028,-0.3327447,0.8522727,19
12.54,-27.82479,1.114491,-25.84405,-0.5376053647575425,0.0226577811690833,-0.3448483126391948,44.68111,49.0606,181.1242,0.3806009,-0.3495534,0.8429651,19
12.56,-27.73836,1.315031,-25.78111,-0.5235516552746806,0.0534695015472896,-0.3330981824577361,48.01293,48.7532,180.6995,0.3747618,-0.3728654,0.8330727,19
12.58,-27.69915,1.112955,-25.75392,-0.5077178280313386,0.0265783397012364,-0.320658878561634,48.06998,48.07172,179.5157,0.3735622,-0.3704029,0.8333972,19
12.6,-27.61303,1.313441,-25.69217,-0.4877329854579852,-0.0003483966046056,-0.3054891405712379,51.36599,47.62793,178.9342,0.3675502,-0.3930918,0.8228151,19
12.62,-27.56208,1.10716,-25.6568,-0.4511473071871483,0.0018505722928564,-0.2788104761314542,53.30942,46.99507,177.6632,0.3646525,-0.4040608,0.8157985,19
12.64,-27.40181,1.10224,-25.54272,-0.4036429116876223,0.0088164832471724,-0.2443063395384825,59.68459,44.59615,174.0163,0.3526945,-0.4425988,0.7915883,19
12.66,-27.3168,1.295985,-25.48318,-0.3529915133096666,0.0157381209277887,-0.2077853287851851,62.89981,43.45911,172.7204,0.3459706,-0.4636499,0.7786157,19
12.68,-27.20783,1.109178,-25.40349,-0.2969056779985446,-0.0308774774110296,-0.1674599478747596,62.65033,38.31538,167.8481,0.3307388,-0.4586712,0.7843308,19
12.7,-27.12393,1.297883,-25.34353,-0.2417593264131019,0.0086677898512775,-0.1278931639548011,65.75242,36.33755,165.6522,0.3242371,-0.4790204,0.7705881,19
12.72,-27.03859,1.128931,-25.27999,-0.1841041825435061,-0.0007572624483555,-0.0869884535522991,60.94388,35.6272,166.7437,0.3176323,-0.4491426,0.7971652,19
12.74,-26.88422,1.161827,-25.16913,-0.1163535919504532,-0.032978541600829,-0.0394593839691466,55.7542,36.7045,168.793,0.3203236,-0.4144981,0.8206095,19
12.76,-26.79985,1.341606,-25.10696,-0.0650357140176187,0.0125182630196677,-0.0042404091876329,58.81646,35.18455,166.9872,0.3146383,-0.4352143,0.8082359,19
12.78,-26.71301,1.195634,-25.04847,-0.0121317054557321,0.0359841776579637,0.0275980242273705,48.27367,42.14101,173.1893,0.3501706,-0.3614148,0.84132,19
12.8,-26.62798,1.372012,-24.98491,0.0423649123956368,0.0580173484507711,0.0603095055411557,51.4099,41.3868,172.2029,0.3452484,-0.3831675,0.8305377,19
12.82,-26.54473,1.227531,-24.95241,0.090980303917632,0.0311511290190036,0.084978203707335,37.93156,45.4537,174.6719,0.3789035,-0.2824632,0.8655062,19
12.84,-26.41951,1.250391,-24.88362,0.1416642558079601,0.0512268520681813,0.1098019502167217,26.15499,48.89112,175.9843,0.4100653,-0.1917355,0.8829197,19
12.86,-26.32189,1.419269,-24.81356,0.1929803268782417,0.0696602595437077,0.1347174320561976,29.66408,48.71088,175.5995,0.4073146,-0.2177274,0.8759481,19
12.88,-26.27246,1.263566,-24.79074,0.2280273789849025,0.0834824288822867,0.1522273689436311,13.8577,52.01946,177.1643,0.4378705,-0.09761398,0.8905739,19
12.9,-26.1734,1.431178,-24.71981,0.2612694858912072,0.0960745294401438,0.1685204819785331,17.40835,51.97783,177.0099,0.4365522,-0.1246823,0.8864937,19
12.92,-26.14479,1.271909,-24.7057,0.2905629940541092,0.1065309413006343,0.1844172024329813,2.351312,54.73096,177.9421,0.4598213,-0.009965971,0.887593,19
12.94,-26.02727,1.279136,-24.62521,0.3217615359528372,0.0938658946417709,0.2018010204835461,354.4386,56.4821,178.4216,0.4719914,0.04924432,0.8801601,19
12.96,-25.92691,1.443818,-24.55289,0.349977932121285,0.1259721296798954,0.2201935167862849,358.0181,56.47279,178.563,0.4728115,0.02116693,0.8809047,19
12.98,-25.86674,1.291311,-24.51147,0.3711641352647068,0.1341222599984673,0.2337194656118733,352.2272,57.13587,179.0807,0.4766079,0.06335236,0.8764631,19
13.0,-25.76642,1.453129,-24.43608,0.3888442710681108,0.1403196215678611,0.2459852575822831,355.8328,57.10918,179.3371,0.4774872,0.0346982,0.8778674,19
13.02,-25.72831,1.283035,-24.40897,0.3867364566316271,0.0931180158847347,0.2440874221676363,353.7524,57.21714,179.7421,0.4780029,0.04891616,0.8766636,19
13.04,-25.63087,1.445512,-24.33488,0.3843580882978923,0.0875171969793138,0.2411229612441023,357.2822,57.19559,180.0177,0.4785267,0.02074775,0.8777528,19
13.06,-25.53539,1.604334,-24.26229,0.3784675886254258,0.0811393684768748,0.2357480685292272,0.8105181,57.19103,180.2917,0.4785939,-0.00742861,0.8780044,19
13.08,-25.54923,1.254661,-24.28456,0.366310599939684,0.0736792782074251,0.2271967139648718,357.4355,57.63126,181.138,0.4820431,0.01482041,0.8758057,19
13.1,-25.45187,1.419132,-24.2117,0.3513261883060314,0.0655748273282997,0.2165979433510654,0.990703,57.62748,181.414,0.4818157,-0.01352134,0.8761433,19
13.12,-25.44765,1.240643,-24.20179,0.3170413700469052,0.0060590234920612,0.1929586890772689,4.003793,57.66449,182.0491,0.4813283,-0.03921493,0.8756621,19
13.14,-25.34899,1.407001,-24.12813,0.2960821761835097,0.0212059790785393,0.1808071835212286,7.627328,57.69307,182.3309,0.4801124,-0.06803821,0.8744475,19
13.16,-25.25216,1.569654,-24.05583,0.2719439571074598,0.0344057785844762,0.1662827370731459,11.24968,57.74012,182.6176,0.4784143,-0.09678538,0.8723541,19
13.18,-25.29663,1.226425,-24.08225,0.2217697229506998,-0.0305059527942606,0.1338936175215335,10.32628,57.74202,183.1598,0.4785247,-0.09203525,0.8730223,19
13.2,-25.19876,1.39705,-24.00996,0.1759999635075746,-0.0480303075712586,0.1056281927494779,13.93057,57.79921,183.4319,0.4763155,-0.1204832,0.8703722,19
13.22,-25.24051,1.199918,-24.02968,0.1218252824758043,-0.0918483404881995,0.0720983808876689,14.73034,57.34645,183.636,0.472047,-0.1275124,0.871645,19
13.24,-25.14527,1.376929,-23.95957,0.0781759066872607,-0.0822288189700859,0.0452634832345251,18.27902,57.41528,183.8782,0.4692567,-0.1552821,0.868033,19
13.26,-25.05129,1.550507,-23.89038,0.025702254410532,-0.0991079721623902,0.0130691681433958,21.82635,57.50183,184.1305,0.4660156,-0.1828944,0.8635864,19
13.28,-25.11508,1.175799,-23.92955,-0.0276158401059554,-0.1144466655120219,-0.0198929324641419,18.72649,56.53557,184.0529,0.4619242,-0.1597249,0.8711907,19
13.3,-25.02133,1.358691,-23.86063,-0.0824561722259846,-0.1306582689967573,-0.053248949676413,22.26015,56.60239,184.2437,0.4585777,-0.1870698,0.8667035,19
13.32,-25.06474,1.153136,-23.87836,-0.1432941606507869,-0.1737744453773886,-0.0898435920075848,23.04939,53.52005,184.0399,0.434615,-0.1938322,0.8775253,19
13.34,-24.97403,1.342195,-23.81018,-0.1842670597682039,-0.1601270809550523,-0.1130931157035517,26.53629,53.53285,184.0704,0.4307792,-0.2203542,0.8721393,19
13.36,-24.88396,1.52808,-23.74248,-0.2293593905318913,-0.1724202741807133,-0.1395189461792232,30.02216,53.54821,184.1028,0.4265459,-0.2466643,0.8659477,19
13.38,-24.94,1.132743,-23.77513,-0.2729009123025507,-0.1827215946896931,-0.1652154218805042,28.0263,51.15511,183.9459,0.4111163,-0.2327066,0.8782387,19
13.4,-24.85111,1.32718,-23.70774,-0.3115123679655456,-0.1922993214800774,-0.1879494217225179,31.48522,51.09611,183.8271,0.406686,-0.258512,0.8718047,19
13.42,-24.85586,1.121879,-23.70436,-0.3484136072042969,-0.2286336608820361,-0.2104099384766717,34.71193,48.45887,183.2223,0.3839031,-0.2829351,0.8734881,19
13.44,-24.7683,1.319916,-23.6388,-0.3647392009287271,-0.2053456335356116,-0.2197567238119702,38.11032,48.24738,182.8662,0.3787397,-0.3075337,0.8657227,19
13.46,-24.68092,1.514991,-23.57337,-0.3802469627271723,-0.2084147191706166,-0.2308567604290234,41.50658,47.99706,182.4753,0.3732427,-0.3318531,0.8571934,19
13.48,-24.68007,1.115592,-23.58174,-0.392320301985738,-0.2099768941773822,-0.2401831793644748,41.86974,48.21383,182.349,0.3747131,-0.3338948,0.8553419,19
13.5,-24.59323,1.315599,-23.51719,-0.3987054039454079,-0.2102198050475669,-0.2465508938058298,45.23828,47.91605,181.917,0.3689014,-0.3576886,0.8460467,19
13.52,-24.51258,1.113727,-23.4607,-0.3971556427442775,-0.237987626804043,-0.2479699354815494,46.37953,47.78473,180.3647,0.3711488,-0.3612171,0.8409405,19
13.54,-24.44704,1.112963,-23.41327,-0.3804761327030599,-0.2061562983256769,-0.2377453756183829,48.05705,47.31205,179.5205,0.3680315,-0.371439,0.8359047,19
13.56,-24.36177,1.313453,-23.35042,-0.3585624142038432,-0.2020718281425078,-0.2241992634400498,51.35203,46.86784,178.9384,0.3620902,-0.3942069,0.8252905,19
13.58,-24.29506,1.107164,-23.30355,-0.3332988033196522,-0.1973994621908926,-0.2089583955497445,53.30312,46.31648,177.6678,0.3598074,-0.4051808,0.8179743,19
13.6,-24.21061,1.305604,-23.24162,-0.2958628287113658,-0.1905151519437618,-0.1852027284353372,56.56409,45.68433,176.8958,0.3535554,-0.4272351,0.8062856,19
13.62,-24.12033,1.102252,-23.17723,-0.2577008808774965,-0.2101067469399272,-0.161223202270313,59.67016,43.99276,174.0249,0.3485062,-0.4437299,0.7935115,19
13.64,-23.95864,1.109096,-23.05879,-0.2114968884051689,-0.1709342086124217,-0.131746370806463,62.64836,37.81408,167.8933,0.3271248,-0.4598974,0.7858788,19
13.66,-23.87544,1.297765,-22.99769,-0.1617992624461464,-0.1513964792826636,-0.0997736384104341,65.75845,35.86297,165.727,0.3207259,-0.4803769,0.7720692,19
13.68,-23.77438,1.128876,-22.9227,-0.1113914572452916,-0.1557606020170394,-0.0674272615683095,60.95154,35.15962,166.7653,0.3142881,-0.4502694,0.798467,19
13.7,-23.69133,1.31302,-22.86066,-0.0634287192239253,-0.105832400087764,-0.0372163581250326,64.00639,33.12952,164.477,0.3081557,-0.4706674,0.7849728,19
13.72,-23.60567,1.161712,-22.80005,-0.016420474138993,-0.1038855364979222,-0.0086549488716101,55.7692,36.28681,168.8115,0.317255,-0.4154905,0.8217467,19
13.74,-23.46484,1.195502,-22.70112,0.0407295261265865,-0.0715336494531334,0.0228912988428078,48.29383,41.7679,173.203,0.3473696,-0.362248,0.8424084,19
13.76,-23.38042,1.371809,-22.63656,0.0889705595388634,-0.0183109561672421,0.0479794769924248,51.43711,41.02952,172.2375,0.3425184,-0.384127,0.8315718,19
13.78,-23.28226,1.227342,-22.59317,0.1327459385044767,-0.012809001431505,0.066475875175938,37.96685,45.11903,174.6868,0.3763114,-0.2832661,0.8665333,19
13.8,-23.18545,1.397302,-22.52129,0.1767330399559319,0.0381881630193783,0.0857497408834579,41.5063,44.67862,173.9982,0.3720998,-0.3086919,0.8566977,19
13.82,-23.13991,1.250124,-22.51108,0.216049600395507,0.0410172925057144,0.0995384352868606,26.1966,48.59069,176.0034,0.4076945,-0.1924529,0.8839325,19
13.84,-23.02787,1.263968,-22.44365,0.2557960013634059,0.0884898888515859,0.1178542208916844,13.82311,51.76288,177.1763,0.4358743,-0.09755735,0.8915958,19
13.86,-22.93073,1.432103,-22.37297,0.2890300703442672,0.1548237269755486,0.1350163868512952,17.32313,51.72507,177.0356,0.4345996,-0.1243142,0.8875837,19
13.88,-22.88332,1.272033,-22.34641,0.3110015253423945,0.1483518864448371,0.143396686617407,2.333037,54.50616,177.946,0.4580776,-0.009889338,0.8884984,19
13.9,-22.78402,1.438679,-22.27505,0.3374345181562024,0.1874555959876932,0.1574995377934165,5.885174,54.50708,177.9588,0.4580655,-0.03748361,0.8872573,19
13.92,-22.7491,1.279162,-22.25403,0.3570230118428155,0.1790951501201493,0.167746616184877,354.4463,56.28054,178.4223,0.4704452,0.04920082,0.8809915,19
13.94,-22.62247,1.291296,-22.16487,0.3835010245784103,0.2161896623126585,0.1853075590295558,352.2302,56.96751,179.0804,0.4753206,0.06336766,0.8771638,19
13.96,-22.52242,1.453131,-22.08919,0.4033386416924793,0.273240129295395,0.2000795764940077,355.8346,56.94076,179.3376,0.4761969,0.03469994,0.8785686,19
13.98,-22.47832,1.296035,-22.06136,0.4036515647609109,0.2543320727273169,0.2004300778491083,353.4585,57.25001,179.53,0.4780852,0.0520423,0.8764491,19
14.0,-22.37963,1.456958,-21.98519,0.3974649058322979,0.2560288541130513,0.1962636831970621,357.0287,57.22454,179.837,0.4786862,0.02344191,0.8776023,19
14.02,-22.39429,1.269953,-21.99865,0.3861650374102345,0.2320480849910209,0.1883695468388513,354.0774,57.63655,180.006,0.4813919,0.04523769,0.8749816,19
14.04,-22.31011,1.254476,-21.94688,0.3800044550470418,0.2557507352103571,0.185405725042584,357.4564,57.83566,181.1311,0.483604,0.01465508,0.8749501,19
14.06,-22.21175,1.418714,-21.87416,0.3580706451611859,0.2294185394550859,0.1714144067217269,1.033564,57.83211,181.401,0.4833754,-0.01380551,0.8752816,19
14.08,-22.19815,1.245708,-21.86284,0.333002617513165,0.2017791605257584,0.1555944843525352,1.446279,58.2263,181.5887,0.4862977,-0.01776967,0.8735924,19
14.1,-22.09792,1.410422,-21.78904,0.3046610586285507,0.1981684625627591,0.1403598715137453,5.10063,58.24313,181.883,0.4854779,-0.04685518,0.8729621,19
14.12,-22.11245,1.232165,-21.7914,0.2614316314596583,0.1698082866536766,0.115231343526744,8.253875,58.03857,182.85,0.4821316,-0.07494439,0.8727877,19
14.14,-22.01318,1.401067,-21.71927,0.2296525777690088,0.1916613485446755,0.0981091238804277,11.88085,58.08439,183.112,0.480212,-0.103559,0.8706115,19
14.16,-21.91564,1.566286,-21.64838,0.179777874993174,0.1600971442658795,0.0689924774927499,15.50651,58.14811,183.381,0.4778095,-0.1320608,0.8675597,19
14.18,-21.97805,1.208686,-21.68561,0.1175502284706664,0.1025607971988477,0.0314986789981039,13.45111,58.34607,183.5377,0.4807073,-0.1171521,0.868492,19
14.2,-21.96246,1.199754,-21.67227,0.0744787462795861,0.1200466749699497,0.0074045588493616,14.7538,58.31752,183.6477,0.4793852,-0.1274466,0.8675975,19
14.22,-21.91279,1.183126,-21.62963,0.0108782483085581,0.0842137130329785,-0.0302570722480717,17.4171,57.80509,183.915,0.4729427,-0.1487912,0.867345,19
14.24,-21.81695,1.363859,-21.56105,-0.0408171910811341,0.075685080386731,-0.0594228363401989,20.98255,57.8796,184.1414,0.4697326,-0.1764366,0.8631205,19
14.26,-21.8308,1.168188,-21.56273,-0.0922002197324078,0.0687253073677396,-0.0884040348598151,20.15724,56.52583,184.0738,0.4604381,-0.17061,0.8695897,19
14.28,-21.73632,1.35294,-21.495,-0.1598573263911182,0.0056989752370953,-0.1280928226992292,23.70257,56.58043,184.2199,0.4568627,-0.1977968,0.8647877,19
14.3,-21.76813,1.152999,-21.5094,-0.2035575702019394,0.0245963158849231,-0.15142761163216,23.08356,54.98772,184.0618,0.4457446,-0.1934034,0.8718508,19
14.32,-21.71905,1.13897,-21.46526,-0.2635956256922287,-0.0123811439969877,-0.1854370576938442,26.32424,53.31204,183.9877,0.4295025,-0.2185813,0.8732653,19
14.34,-21.62745,1.331532,-21.39867,-0.3066477275900681,-0.0191554662607383,-0.2082454379036624,29.82746,53.28972,183.9403,0.425188,-0.2447953,0.8671525,19
14.36,-21.62998,1.128728,-21.39239,-0.3467214816816395,-0.0240987071296572,-0.2295626852766079,30.04481,51.40882,183.7129,0.41112,-0.2469955,0.8734353,19
14.38,-21.54016,1.324494,-21.32718,-0.3950060254415883,-0.0866776604276163,-0.2569614834088667,33.49059,51.30965,183.5246,0.4064063,-0.2723416,0.866622,19
14.4,-21.54434,1.121823,-21.32496,-0.4185506811635693,-0.0627888943665433,-0.2681157147657451,34.71414,49.85249,183.2463,0.3944355,-0.2818227,0.8687708,19
14.42,-21.46155,1.117187,-21.26792,-0.4496443890495007,-0.0958262404769397,-0.2868462314496409,39.61745,49.29935,182.6611,0.385133,-0.317029,0.8581474,19
14.44,-21.37321,1.316612,-21.205,-0.4630320910407151,-0.0974063171310928,-0.2944602124365496,42.99094,49.02003,182.2381,0.379413,-0.3408833,0.8494104,19
14.46,-21.33876,1.115032,-21.18527,-0.4718474660105665,-0.0977409356586227,-0.2995719706141027,43.26949,49.32322,181.731,0.3827581,-0.3408802,0.8469942,19
14.48,-21.25137,1.31533,-21.12279,-0.4831709812861553,-0.156750378636045,-0.307458559101625,46.61496,49.01536,181.2954,0.37687,-0.3643017,0.8374546,19
14.5,-21.226,1.113745,-21.10538,-0.4772620917107408,-0.1283558501483581,-0.302181085323411,46.36388,48.80248,180.358,0.3786463,-0.3596739,0.8376505,19
14.52,-21.11065,1.109988,-21.02383,-0.4627393835861584,-0.1587004689620395,-0.2920114818410759,50.6727,47.82018,178.7124,0.3706895,-0.3870668,0.8242478,19
14.54,-21.02478,1.309457,-20.9628,-0.4431827417426639,-0.1300853473128098,-0.2788298615659905,53.95254,47.2962,178.0506,0.3644912,-0.409388,0.8131444,19
14.56,-20.93092,1.103768,-20.8966,-0.4166381672395216,-0.0729749270189229,-0.2614638482656315,56.49672,46.27688,176.1806,0.3604661,-0.4234448,0.8033952,19
14.58,-20.84574,1.299882,-20.83675,-0.3796202264391719,-0.1008328431075056,-0.2371548948117707,59.73582,45.44811,175.205,0.3539064,-0.44493,0.7911147,19
14.6,-20.74611,1.104522,-20.76507,-0.3385426946425967,-0.095509312753329,-0.2099585835187385,61.20752,41.88581,171.195,0.3432396,-0.4504468,0.7875075,19
14.62,-20.6776,1.109109,-20.71536,-0.283250435262484,-0.1135425682776244,-0.1733094825721162,62.6387,38.53565,167.8923,0.332078,-0.458225,0.7838448,19
14.64,-20.5936,1.297822,-20.65555,-0.2266162784144754,-0.0746237676025806,-0.1360217118190259,65.74342,36.57324,165.7133,0.3255718,-0.4785789,0.7701055,19
14.66,-20.42595,1.144318,-20.53368,-0.1773517306005043,-0.0567129803502412,-0.1050069207339703,58.37836,36.33712,167.8267,0.3198165,-0.4319039,0.8086881,19
14.68,-20.34624,1.161706,-20.47633,-0.1270090572697677,-0.0397552819247728,-0.0736859551137292,55.77092,36.84636,168.7943,0.3213249,-0.4143426,0.8201464,19
14.7,-20.26179,1.341483,-20.41426,-0.0788033309290252,-0.0189495657449312,-0.0467004812950566,58.83488,35.33144,166.9948,0.3156362,-0.4350606,0.8077684,19
14.72,-20.18998,1.195558,-20.36706,-0.0330738253685174,-0.021765833008436,-0.0241136212384449,48.2882,42.27344,173.1884,0.3511335,-0.3612923,0.8408623,19
14.74,-20.03702,1.227334,-20.28275,0.0143784881095032,0.0221524102722032,-0.0004312070232694,37.97598,45.58201,174.6716,0.3798401,-0.282616,0.8649584,19
14.76,-19.93947,1.397352,-20.21203,0.0558732843624119,0.0410966137730788,0.0153393963077315,41.51118,45.13171,173.9676,0.3755625,-0.3079156,0.8551567,19
14.78,-19.87777,1.25016,-20.18882,0.0979517040832895,0.0581941596784418,0.0308442460502669,26.19028,49.01138,175.9995,0.4109468,-0.1919327,0.8824377,19
14.8,-19.77981,1.418796,-20.11812,0.137903204087658,0.1180863887642871,0.0487573900202797,29.72075,48.839,175.6319,0.4081962,-0.2181243,0.8754089,19
14.82,-19.7154,1.268053,-20.08441,0.1691503419367954,0.1057058252082173,0.0593369011410249,8.135725,53.13359,177.5504,0.4473684,-0.05389777,0.8912785,19
14.84,-19.61603,1.435058,-20.01282,0.2059409016323528,0.1377668870539789,0.0776235233497688,11.69949,53.12162,177.481,0.4467153,-0.08136384,0.8885858,19
14.86,-19.51845,1.59839,-19.94252,0.2379528238411383,0.1894628612202149,0.0949668604818452,15.26244,53.105,177.4097,0.4456304,-0.1087449,0.8850345,19
14.88,-19.47849,1.279198,-19.92231,0.260194765910847,0.16923550521791,0.1048477977474906,354.4386,56.2963,178.4114,0.4705594,0.04930359,0.8809253,19
14.9,-19.37831,1.443959,-19.85003,0.2797009766689653,0.1719486012276811,0.1146300403920705,358.0135,56.28766,178.5427,0.4713832,0.02128172,0.8816667,19
14.92,-19.30464,1.293995,-19.79462,0.2959469365019407,0.1480588872705642,0.1226903061559347,352.8069,56.66936,179.2838,0.473332,0.05817429,0.8786256,19
14.94,-19.20633,1.455701,-19.71873,0.317964076251318,0.1696144351440271,0.1367842121199101,356.3693,56.64386,179.5542,0.474075,0.02973098,0.8799058,19
14.96,-19.11002,1.61364,-19.6444,0.3208822132963096,0.1620522311794838,0.1372536151424519,359.9308,56.6352,179.8223,0.4743572,0.001266779,0.880331,19
14.98,-19.11836,1.269874,-19.65759,0.3197279331053031,0.1534371282928386,0.1353120440578541,354.0871,57.30585,180.0105,0.4788687,0.04521691,0.8763703,19
15.0,-19.07983,1.261845,-19.63582,0.3096874770322473,0.1407632259511476,0.1275292914821917,355.7794,57.42875,180.5518,0.4802677,0.02998216,0.8763357,19
15.02,-18.99107,1.250187,-19.57446,0.293063918902599,0.1026922673133071,0.1154995139755947,359.4332,57.76927,181.3696,0.483059,-0.001442615,0.8754923,19
15.04,-18.89244,1.414696,-19.50061,0.2896231462130778,0.1149296052675484,0.1142084485469441,3.042214,57.77555,181.66,0.482538,-0.03023534,0.8753531,19
15.06,-18.8787,1.240369,-19.48956,0.2847094429638099,0.1514204889647128,0.113998215073543,4.028526,58.06673,182.063,0.4843873,-0.03945787,0.8739627,19
15.08,-18.77901,1.406388,-19.41569,0.255503711139919,0.1125308380635858,0.097826657883568,7.679945,58.09703,182.3598,0.4831518,-0.0685091,0.8727311,19
15.1,-18.79256,1.232137,-19.42232,0.2359350483912559,0.1229339309428334,0.088980420604189,8.246982,58.14024,182.8717,0.4828949,-0.07497179,0.8723649,19
15.12,-18.78013,1.2264,-19.40979,0.2129572223390945,0.131495943511879,0.0780306148869067,10.32337,58.10205,183.1576,0.4812688,-0.09194226,0.8715158,19
15.14,-18.68159,1.396949,-19.33803,0.1822577531916978,0.1106171746526971,0.0622587675708095,13.93517,58.15908,183.4288,0.4790463,-0.1204022,0.8688673,19
15.16,-18.69375,1.199692,-19.341,0.1493860188451967,0.0908741752813727,0.0450296371762966,14.755,58.46823,183.6691,0.4805011,-0.127499,0.8669717,19
15.18,-18.67,1.191011,-19.3213,0.113883828420553,0.0693151640404415,0.0260129019790746,16.06754,58.41453,183.7794,0.478896,-0.137855,0.8660728,19
15.2,-18.5739,1.369804,-19.25242,0.0990281315430232,0.1209447744315216,0.02091388094047,19.62909,58.49662,184.0471,0.475893,-0.1656348,0.8621457,19
15.22,-18.61247,1.175776,-19.27281,0.0621309018428912,0.0923199005220857,0.0025740732303942,18.72545,57.47336,184.067,0.4690197,-0.1593907,0.8673882,19
15.24,-18.57412,1.160647,-19.23733,0.0321088433834586,0.0944397707329781,-0.0119461126545665,21.59085,55.88295,184.121,0.4540298,-0.1819106,0.8703865,19
15.26,-18.48069,1.347564,-19.17016,-0.0132850689375429,0.0403438560586999,-0.0352452672416596,25.11351,55.92621,184.2301,0.4502887,-0.2087849,0.8652985,19
15.28,-18.50246,1.145435,-19.17842,-0.0517886671557423,0.015306286168072,-0.0542810340393478,24.59635,54.44737,184.0704,0.4399594,-0.2051589,0.8717342,19
15.3,-18.41058,1.33635,-19.11222,-0.089184937051165,-0.0076365668550953,-0.0727182469782485,28.08916,54.45422,184.0859,0.4358677,-0.2314733,0.8660292,19
15.32,-18.44297,1.13276,-19.1267,-0.1150721314245268,-0.030559669816449,-0.0827584237543557,28.01567,52.55613,183.9501,0.421827,-0.2317155,0.8731685,19
15.34,-18.3894,1.124871,-19.08079,-0.1326135800297061,-0.0208489366928793,-0.0885350311124244,32.06842,50.62347,183.5312,0.4030221,-0.2622354,0.8720529,19
15.36,-18.30006,1.322015,-19.01649,-0.1572900393946712,-0.0676693423485234,-0.1002718407157154,35.48819,50.47538,183.265,0.3980724,-0.2871321,0.8648673,19
15.38,-18.28762,1.118785,-19.00397,-0.1658689047055421,-0.0548372043374625,-0.102249125822881,37.37896,49.45676,182.9912,0.3885271,-0.3012986,0.8636111,19
15.4,-18.19886,1.317583,-18.94084,-0.1818440039287894,-0.0987665004081332,-0.1107290274966614,40.76557,49.20416,182.5907,0.3829887,-0.3254139,0.8553517,19
15.42,-18.19088,1.115628,-18.94405,-0.1809605560751652,-0.0828629560274246,-0.1084745821777688,41.84515,49.58295,182.3391,0.38497,-0.3321221,0.8508603,19
15.44,-18.10576,1.11449,-18.8848,-0.177341901234256,-0.0937044172437924,-0.1045440889000204,44.68608,49.49027,181.1216,0.3837598,-0.3490179,0.8415141,19
15.46,-18.01885,1.315032,-18.82251,-0.1706421670118465,-0.1031669367110436,-0.0989121427813617,48.01789,49.18249,180.6964,0.3778827,-0.3722787,0.8316427,19
15.48,-17.97972,1.112956,-18.7957,-0.1560573221767276,-0.1120425434321961,-0.087572094156294,48.06886,48.49478,179.5158,0.3766378,-0.369767,0.8320161,19
15.5,-17.89315,1.313443,-18.7346,-0.1384226500858734,-0.1198882031837783,-0.0745862130439372,51.36484,48.05067,178.9339,0.370586,-0.3924058,0.821457,19
15.52,-17.77917,1.103789,-18.65728,-0.0937392082979617,-0.1263496823985209,-0.042817279154546,56.47904,47.25106,176.1851,0.3672916,-0.4215086,0.8003787,19
15.54,-17.69305,1.299929,-18.59902,-0.0513024146471567,-0.1021574622056279,-0.0131267101547538,59.71376,46.42052,175.2072,0.3606298,-0.4428509,0.788178,19
15.56,-17.6072,1.493404,-18.54095,-0.0033485772874162,-0.1315450916310487,0.0203873805461345,62.93869,45.37881,174.0203,0.3536754,-0.4638251,0.7753373,19
15.58,-17.47478,1.109141,-18.44645,0.0444152267914348,-0.1024714454885941,0.0535051412085123,62.63748,39.32926,167.8548,0.3376486,-0.4563243,0.7814471,19
15.6,-17.40245,1.117994,-18.39391,0.0928584386169013,-0.0753813607519637,0.0868736753777721,61.80771,37.95329,167.2805,0.3310992,-0.4517899,0.7879041,19
15.62,-17.2393,1.144298,-18.27881,0.1428076554117647,-0.0669678835961379,0.1210122380061622,58.38086,37.14719,167.8292,0.3255142,-0.4302279,0.8064018,19
15.64,-17.15432,1.326276,-18.21863,0.2032231267133084,-0.0517475792413161,0.1617046030736006,61.43743,35.38876,165.7977,0.3194496,-0.4506229,0.7935392,19
15.66,-17.0529,1.178244,-18.14837,0.2633030758846872,-0.037496978967126,0.2021910123655801,52.06519,40.45711,171.2163,0.3413093,-0.3868118,0.8290268,19
15.68,-16.96728,1.35631,-18.08682,0.3100951254494313,0.0235862700202535,0.2328419378236264,55.17163,39.37558,169.8734,0.335911,-0.407952,0.8174813,19
15.7,-16.88349,1.211272,-18.04181,0.3571072969692559,0.0378887428432063,0.2578416088358444,43.16201,44.61842,173.9203,0.3705429,-0.3210864,0.8516795,19
15.72,-16.81825,1.227237,-18.00956,0.4039375382458168,0.0508374647856462,0.2824974207905306,38.00181,46.19712,174.6603,0.3844856,-0.2818781,0.8628192,19
15.74,-16.71979,1.397274,-17.94007,0.4518903355243657,0.1077828299389535,0.308578616859875,41.53664,45.74025,173.9465,0.3801347,-0.3070715,0.8530398,19
15.76,-16.61419,1.257331,-17.89156,0.488303876935614,0.1814768012207204,0.3301780158060188,20.02488,51.17566,176.5683,0.4298213,-0.1440048,0.8855416,19
15.78,-16.5154,1.42566,-17.82224,0.5178262363674326,0.1608534900032477,0.3418666244155921,23.54644,51.08187,176.3156,0.4277857,-0.1704356,0.8800118,19
15.8,-16.41831,1.590405,-17.75411,0.5492630673720524,0.1853160957441192,0.3582374608139145,27.06835,50.96783,176.049,0.4253436,-0.1967104,0.8736459,19
15.82,-16.36555,1.275633,-17.7237,0.5796148426980585,0.1622025525508507,0.3733943331544811,358.4106,55.744,178.1979,0.4672023,0.01961036,0.883902,19
15.84,-16.26552,1.441236,-17.65189,0.6081732276627503,0.1617393804198168,0.3896568571795793,1.980912,55.7443,178.2862,0.4676067,-0.00828856,0.8836413,19
15.86,-16.16736,1.60313,-17.58142,0.6321023929950347,0.1595389449565104,0.4035683514129426,5.550213,55.75013,178.375,0.4675569,-0.0361716,0.8825229,19
15.88,-16.11577,1.291419,-17.55107,0.6508623523718882,0.1527656891614842,0.4146945554096879,352.2271,57.31239,179.0529,0.4779421,0.06342915,0.8757339,19
15.9,-16.06635,1.293865,-17.51511,0.6588530303659947,0.1423238725355042,0.4191581828118382,352.8112,57.43797,179.3081,0.4792281,0.05787577,0.8754278,19
15.92,-15.96791,1.28288,-17.44512,0.6616385005178032,0.1305031540844464,0.4209796288056373,353.7613,57.78738,179.7749,0.4823755,0.04859016,0.8742706,19
15.94,-15.87006,1.445155,-17.37089,0.6623992170805957,0.1611634565510158,0.4220648232759851,357.3003,57.76334,180.083,0.4828831,0.02027695,0.8753677,19
15.96,-15.85103,1.262094,-17.3635,0.644997506892449,0.1152779173974407,0.408420557935663,355.7518,58.06419,180.5721,0.4851218,0.02998552,0.8736466,19
15.98,-15.7532,1.426002,-17.291,0.6145579715053997,0.0442414420765784,0.3855092867971101,359.2977,58.05186,180.8577,0.4852229,0.001727671,0.8743371,19
16.0,-15.74489,1.250165,-17.29029,0.594900723656113,0.0458747235086629,0.3721117554391635,359.4339,58.36047,181.3604,0.4875694,-0.001474808,0.8729897,19
16.02,-15.66731,1.240542,-17.23104,0.5694304356221533,0.0228707501244576,0.3569648829563736,4.000007,58.60735,182.064,0.4885128,-0.03923859,0.871673,19
16.04,-15.56754,1.40676,-17.15837,0.5411408747985633,0.0264615639459887,0.3406819711129072,7.631606,58.63775,182.3638,0.4872834,-0.06809005,0.8704622,19
16.06,-15.46962,1.569255,-17.08704,0.5078782764084944,0.0283624101128446,0.3209164597245402,11.26197,58.68781,182.6686,0.4855619,-0.09686454,0.8683721,19
16.08,-15.51522,1.226268,-17.11239,0.4816099531169802,0.076074964492213,0.3064972602374729,10.33577,58.60949,183.162,0.4851124,-0.09196699,0.8693698,19
16.1,-15.41564,1.396629,-17.04104,0.4195179129592168,0.0213110278758191,0.268253765413966,13.96547,58.66776,183.4387,0.4828656,-0.1205247,0.8667111,19
16.12,-15.31771,1.563315,-16.97087,0.3703758282767266,0.017764265261238,0.2389834902996259,17.59381,58.74543,183.7242,0.4801325,-0.1489526,0.8631791,19
16.14,-15.36816,1.190895,-16.99778,0.315913660757829,-0.0131252728930365,0.2073594009917785,16.09151,58.91354,183.7755,0.4826471,-0.1378444,0.8639556,19
16.16,-15.27074,1.369526,-16.92944,0.2496387474298154,-0.0687482731142483,0.1679496273473606,19.6769,58.99456,184.0393,0.4795984,-0.1657272,0.860011,19
16.18,-15.17453,1.544679,-16.86196,0.1973597017068404,-0.0682035463685876,0.1375880843398145,23.26084,59.09554,184.315,0.476079,-0.1934389,0.8552222,19
16.2,-15.07971,1.716457,-16.79545,0.1540553432869864,-0.0401138029567816,0.1130929032397471,26.84296,59.21861,184.6055,0.4720927,-0.2209491,0.8495952,19
16.22,-15.21047,1.160793,-16.87153,0.0835597129129606,-0.0947011967618402,0.0711978822127985,21.5788,56.41504,184.0995,0.4581129,-0.1814699,0.8682738,19
16.24,-15.11574,1.347662,-16.80549,0.0324897247033888,-0.0922591722053016,0.041880240568535,25.11386,56.45001,184.1878,0.4543158,-0.2082975,0.8632044,19
16.26,-15.12879,1.139032,-16.80024,-0.0100323256170185,-0.0600190197777211,0.0171708875658258,26.31213,53.94714,183.9745,0.434375,-0.2180385,0.8708827,19
16.28,-15.1038,1.132755,-16.77854,-0.0717078192657694,-0.1127219590608004,-0.0186656846693444,28.03835,52.98412,183.9432,0.4250721,-0.2315711,0.8715423,19
16.3,-15.01223,1.327127,-16.71368,-0.1238800758975045,-0.1341704602215968,-0.0489050883926966,31.51773,52.92377,183.8217,0.4205079,-0.2573,0.8651386,19
16.32,-14.97786,1.121818,-16.67849,-0.1739016305943976,-0.1531415192349798,-0.0783225264243403,34.71953,50.42937,183.2506,0.3987866,-0.2813652,0.8667659,19
16.34,-14.8881,1.319746,-16.615,-0.2035229579470163,-0.1142397147198619,-0.0950972578666797,38.13742,50.23542,182.9241,0.393509,-0.305948,0.8590138,19
16.36,-14.86251,1.117192,-16.5993,-0.2335545390605926,-0.130797551799973,-0.1146030779518176,39.60998,49.86254,182.6635,0.3893498,-0.3163812,0.8562663,19
16.38,-14.77349,1.316607,-16.53718,-0.2603576645473431,-0.1451958741850395,-0.1325524688361068,42.98673,49.58393,182.2415,0.3835842,-0.3401932,0.8475489,19
16.4,-14.75568,1.115037,-16.52926,-0.2727237772294366,-0.10122050311852,-0.1414220402592809,43.26108,49.85884,181.7347,0.3867145,-0.3401676,0.8452244,19
16.42,-14.66768,1.315332,-16.46759,-0.2821179976338035,-0.1439000830696625,-0.1488655995780996,46.60748,49.55067,181.2985,0.3807795,-0.3635313,0.8357124,19
16.44,-14.5905,1.112949,-16.4138,-0.2775974159354353,-0.1548506395473554,-0.1457743070108068,48.06152,48.7656,179.5349,0.3785521,-0.3693721,0.8311762,19
16.46,-14.50352,1.313401,-16.35269,-0.2693039989295327,-0.1339790232595122,-0.1404160264654623,51.36911,48.33054,178.9648,0.372479,-0.3920865,0.8205847,19
16.48,-14.43734,1.10718,-16.30736,-0.2577607069647281,-0.1135985990948794,-0.1334192102789921,53.28971,47.65468,177.6756,0.3693268,-0.4028273,0.8137791,19
16.5,-14.35139,1.305618,-16.24733,-0.2310318787421095,-0.1204764730044869,-0.1159077663876211,56.55426,47.02341,176.9046,0.362935,-0.4247586,0.8021533,19
16.52,-14.15924,1.104498,-16.11231,-0.2014672555179597,-0.1266881614777316,-0.097010131621291,61.20755,42.30475,171.1991,0.3461002,-0.4495674,0.786256,19
16.54,-14.07409,1.29573,-16.05352,-0.1734732165366799,-0.0744704992203588,-0.0793635679929214,64.37645,40.78747,169.4938,0.3393871,-0.4702147,0.7729294,19
16.56,-13.96156,1.118007,-15.97219,-0.1283349774129498,-0.0991896931557416,-0.0488757476517887,61.80927,37.50602,167.2481,0.3281487,-0.4527033,0.7891113,19
16.58,-13.87734,1.304472,-15.91256,-0.0829003237248662,-0.148694757682756,-0.0180841901979365,64.88229,35.4923,164.9958,0.3217377,-0.472949,0.775557,19
16.6,-13.79383,1.488326,-15.85343,-0.0435296105256253,-0.1152341171298352,0.0080993099339159,67.91167,32.89888,162.1667,0.3150724,-0.4928123,0.761389,19
16.62,-13.68736,1.161686,-15.77683,0.009461208830428,-0.0997295045326542,0.0413992287321736,55.77333,37.19342,168.7934,0.3238094,-0.4136623,0.8191577,19
16.64,-13.54647,1.195481,-15.6796,0.051099284145655,-0.0608169890663701,0.0666503475048079,48.30502,42.6124,173.1937,0.353588,-0.360848,0.8397705,19
16.66,-13.46138,1.371906,-15.61658,0.0920065434323946,-0.0239683207043893,0.0912813140280739,51.43612,41.87422,172.2286,0.3486697,-0.3825426,0.8290117,19
16.68,-13.37744,1.545583,-15.55441,0.1286176493744939,-0.010184933542144,0.1077685846854525,54.55717,40.99011,171.122,0.3434826,-0.4039339,0.8176132,19
16.7,-13.28441,1.239136,-15.52588,0.1583683077355835,-0.020025804636677,0.1183111497929052,32.0762,47.67567,175.3498,0.3983517,-0.2367422,0.8738379,19
16.72,-13.18718,1.408583,-15.45554,0.1883489157049909,0.0161128284156634,0.1312414293999402,35.59366,47.40409,174.8623,0.3949031,-0.2624252,0.8654484,19
16.74,-13.09159,1.574497,-15.38637,0.2213319192023635,0.0282940563043015,0.1465143727422464,39.109,47.08071,174.3295,0.3910766,-0.2878571,0.8562327,19
16.76,-12.99781,1.737,-15.31852,0.2522570534062265,0.0399496449928102,0.1606003136036051,42.62247,46.69522,173.7406,0.3868758,-0.3130198,0.8461971,19
16.78,-12.92338,1.271797,-15.3002,0.2793499972522812,0.0941573659933509,0.1761350164171005,2.400021,55.26067,177.95,0.4639212,-0.01025696,0.8854485,19
16.8,-12.82268,1.438194,-15.22957,0.3028563125325736,0.1440344242874186,0.1896660054383114,5.973822,55.26207,177.9691,0.4638913,-0.03795009,0.8841817,19
16.82,-12.70333,1.285204,-15.15052,0.3128298948993648,0.0984254252378833,0.1932013921009066,353.3253,57.34802,178.7262,0.4784146,0.05639669,0.8761325,19
16.84,-12.61987,1.29119,-15.09117,0.3265579261833484,0.1211517301070914,0.2012230120812896,352.243,57.64596,179.0841,0.480512,0.06310406,0.8743398,19
16.86,-12.51892,1.452966,-15.01643,0.3319050560990699,0.0944228765249868,0.2035418130647446,355.8517,57.61868,179.3469,0.4813924,0.03445741,0.8757395,19
16.88,-12.42003,1.610889,-14.94323,0.32474317380574,0.0411577714879269,0.1976020132024034,359.4595,57.60803,179.6073,0.4817928,0.005784549,0.876266,19
16.9,-12.41848,1.282798,-14.94789,0.3208083117586804,0.0559940514894278,0.1959325741282565,353.777,58.10934,179.7716,0.4848325,0.04841537,0.872919,19
16.92,-12.31968,1.444855,-14.87393,0.3153941969320186,0.0440490391412471,0.1924851762759787,357.3338,58.08556,180.0784,0.4853449,0.02000735,0.874013,19
16.94,-12.22289,1.603193,-14.80147,0.3067305780287033,0.0581044334870795,0.1875993718759843,0.8897758,58.08082,180.3833,0.4853864,-0.008412076,0.8742591,19
16.96,-12.21226,1.250416,-14.80449,0.2822248340219737,0.022895621001033,0.1716952543368635,359.402,58.66697,181.3753,0.4899048,-0.001330324,0.8716779,19
16.98,-12.16931,1.245764,-14.77202,0.2663810602956373,0.0384599844619369,0.1635864825801836,1.424612,58.83216,181.6037,0.4909107,-0.01770082,0.8710091,19
17.0,-12.0688,1.410513,-14.69894,0.2315739346087622,0.0048056955321852,0.1422884124533363,5.071182,58.84978,181.9146,0.490089,-0.04672758,0.8703894,19
17.02,-12.03885,1.232068,-14.67078,0.2018737121307492,-0.0044734901819315,0.1259236529048404,8.249845,58.8853,182.8746,0.4885533,-0.07491934,0.869206,19
17.04,-11.93876,1.400811,-14.59923,0.1732531644106307,0.0137995302668884,0.1100982765350928,11.8847,58.9358,183.1635,0.4866182,-0.103606,0.867029,19
17.06,-11.84042,1.56585,-14.52892,0.1418886654821476,0.0313550052318601,0.0924088245516288,15.51821,59.00609,183.46,0.4841913,-0.1321795,0.8639753,19
17.08,-11.744,1.72733,-14.46,0.0848514023040605,-0.0300807032733146,0.0530027091828009,19.15043,59.09758,183.7669,0.4812751,-0.1606116,0.8600489,19
17.1,-11.86117,1.199616,-14.53197,0.047446428197279,-0.0156343959641155,0.026682225906605,14.77071,59.09541,183.6642,0.4852319,-0.1274029,0.864314,19
17.12,-11.76294,1.376149,-14.46316,0.0085127139234739,-0.001357890986375,-0.0006656296670994,18.3688,59.17312,183.9365,0.4823533,-0.1554593,0.8606623,19
17.14,-11.76972,1.17574,-14.45635,-0.0500420101097509,-0.0687472568504321,-0.0579251374568283,18.74063,58.04375,184.058,0.4733293,-0.1592292,0.8650225,19
17.16,-11.7392,1.168309,-14.42993,-0.0931161816902559,-0.0818959217169202,-0.1200103622557422,20.13378,57.20404,184.0672,0.46561,-0.170096,0.8668743,19
17.18,-11.6441,1.353118,-14.36367,-0.1362549584177412,-0.0923985100111585,-0.1803663998583504,23.66881,57.25622,184.207,0.4620153,-0.1971028,0.8621187,19
17.2,-11.54988,1.53462,-14.29802,-0.1961463980185995,-0.1583082848550049,-0.2525891689656714,27.20243,57.31952,184.3543,0.4579816,-0.2239113,0.8565442,19
17.22,-11.63613,1.145518,-14.34563,-0.2557613587722516,-0.2230233589894899,-0.3227770227025064,24.5908,54.88202,184.0503,0.4433049,-0.2047853,0.8700556,19
17.24,-11.54333,1.336462,-14.28056,-0.2913093328158203,-0.2371242697373335,-0.3793460476803993,28.08603,54.87958,184.0448,0.4391659,-0.2309932,0.8643815,19
17.26,-11.4511,1.524237,-14.21589,-0.3307476461503092,-0.2766738794670106,-0.439525707565302,31.57999,54.87672,184.039,0.4346203,-0.2569772,0.8579057,19
17.28,-11.49702,1.124869,-14.22886,-0.3527946776952867,-0.2554838696607753,-0.4872184031626885,32.08222,50.95209,183.5333,0.4054988,-0.2620841,0.8708668,19
17.3,-11.46803,1.121892,-14.20624,-0.362575906646292,-0.2041879775358691,-0.5246715545315035,34.68964,50.31982,183.2281,0.3980523,-0.2811608,0.8671942,19
17.32,-11.37853,1.319922,-14.14353,-0.3844209452621031,-0.2383642077231363,-0.569955481267995,38.08482,50.1112,182.8766,0.3927777,-0.3055205,0.8595228,19
17.34,-11.28923,1.514996,-14.08095,-0.3942502358153916,-0.2117194119757145,-0.6066804087579059,41.47792,49.86432,182.491,0.3871575,-0.3296035,0.851094,19
17.36,-11.26111,1.115047,-14.06621,-0.4002791093766736,-0.18508195891002,-0.6390205459698042,43.27717,49.6484,181.7302,0.3851513,-0.3405323,0.8458816,19
17.38,-11.17293,1.315329,-14.00399,-0.3999051726968813,-0.1860790216659812,-0.6645752673471621,46.63781,49.33709,181.2898,0.3792027,-0.3640137,0.8363149,19
17.4,-11.08484,1.512726,-13.94183,-0.399944504899676,-0.2137346728107646,-0.6888035905221559,49.99554,48.96457,180.7912,0.3729271,-0.3871726,0.8260257,19
17.42,-10.99944,1.109987,-13.88167,-0.3851624197237229,-0.1810256317467483,-0.7005098488121773,50.68273,48.01757,178.7229,0.372059,-0.3868578,0.82359,19
17.44,-10.92042,1.107185,-13.82606,-0.3551268151067199,-0.2056769015282109,-0.7002652523936512,53.28588,47.37166,177.6759,0.3673203,-0.4032878,0.8147032,19
17.46,-10.83477,1.305628,-13.76565,-0.319836613356709,-0.1705755020964331,-0.6949277015054944,56.54977,46.7395,176.9037,0.3609561,-0.4252448,0.8030658,19
17.48,-10.74928,1.501356,-13.70534,-0.278063088202944,-0.1898519010955563,-0.683028958804291,59.80677,45.95942,175.986,0.3542959,-0.4468425,0.7907696,19
17.5,-10.62832,1.1045,-13.61859,-0.2300881398514717,-0.1495538240291387,-0.6651659871844631,61.20639,41.99244,171.1991,0.3439576,-0.4502244,0.7872013,19
17.52,-10.54349,1.295736,-13.55935,-0.179923342760694,-0.1607704851869751,-0.6426116180982209,64.37469,40.47411,169.4925,0.3372791,-0.4709009,0.7738597,19
17.54,-10.45916,1.484344,-13.50046,-0.142747650262848,-0.1139102219761867,-0.6275474286410212,67.51685,38.51069,167.3432,0.3303291,-0.4911882,0.7598962,19
17.56,-10.26874,1.14425,-13.36002,-0.0947432928025615,-0.1127716226793631,-0.6002188942456261,58.39177,36.27922,167.7933,0.3195262,-0.4320299,0.8087228,19
17.58,-10.18986,1.161623,-13.30266,-0.0495529728567986,-0.0582571174881235,-0.5735969887655339,55.78294,36.79613,168.7846,0.3209938,-0.4145047,0.8202187,19
17.6,-10.10546,1.341441,-13.24067,-0.0053524297014239,-0.0506533696490328,-0.5469383977208322,58.84339,35.27596,166.979,0.315301,-0.4351969,0.8078513,19
17.62,-9.941243,1.211718,-13.137,0.040689999698562,-0.0449210923664772,-0.5174614043333268,43.10384,43.83957,173.9403,0.3647358,-0.3219596,0.8543926,19
17.64,-9.85187,1.385612,-13.07103,0.0885942733355088,-0.0111162528019969,-0.489848086462413,46.37535,43.26651,173.1265,0.3602151,-0.3450367,0.8442343,19
17.66,-9.763809,1.556483,-13.00602,0.1242676439849546,0.0207833355863118,-0.4702289566453794,49.63942,42.5845,172.2093,0.3553932,-0.3678176,0.8333698,19
17.68,-9.681889,1.249898,-12.98219,0.1610209749433839,0.0518370571492174,-0.4490285350612659,26.26061,48.83546,175.9978,0.4095561,-0.192664,0.8829304,19
17.7,-9.632588,1.257503,-12.95255,0.1984667815743027,0.0789848384607601,-0.4265939449431992,20.03114,50.41904,176.5794,0.4239482,-0.1447629,0.8883606,19
17.72,-9.535703,1.426091,-12.88216,0.2207578039946318,0.1026982641437054,-0.4107410458326264,23.52668,50.33055,176.341,0.4219788,-0.1711349,0.8828571,19
17.74,-9.436738,1.271982,-12.82482,0.2425691198206607,0.1258222581821732,-0.3940960263906563,2.401041,54.66897,177.9422,0.4593437,-0.0103655,0.8878302,19
17.76,-9.337212,1.438623,-12.75373,0.2634190481886994,0.1454664536982418,-0.3770529223086929,5.954031,54.6699,177.955,0.4593222,-0.03794534,0.8865717,19
17.78,-9.23949,1.601602,-12.68394,0.2773265891712397,0.092391001721289,-0.367047544557914,9.50601,54.67163,177.9678,0.4588592,-0.06548087,0.8844618,19
17.8,-9.143751,1.761065,-12.61556,0.2847759601791281,0.1061588299033099,-0.3552626898874229,13.05697,54.67421,177.981,0.4579558,-0.09294566,0.881503,19
17.82,-9.117203,1.291546,-12.60286,0.2905637832789641,0.1185391404643489,-0.3425588849552581,352.2202,57.08584,179.0323,0.476196,0.063618,0.8766783,19
17.84,-9.01669,1.453743,-12.52904,0.2814210628961229,0.1255369000061505,-0.3401563171713511,355.8052,57.0637,179.2445,0.4771049,0.03529992,0.8780594,19
17.86,-8.951385,1.28291,-12.48328,0.2724249173649384,0.1555499626202384,-0.3358936490427393,353.7703,57.52713,179.7561,0.4803829,0.04865583,0.8753716,19
17.88,-8.916012,1.270142,-12.45609,0.2467799213975909,0.1354043998343751,-0.3442288946175666,354.0691,57.67138,179.9949,0.4816517,0.04534061,0.8748347,19
17.9,-8.819358,1.433781,-12.38308,0.2191775999432731,0.1142692040189626,-0.3530836881494672,357.582,57.65017,180.2862,0.4820747,0.0172812,0.8758727,19
17.92,-8.758069,1.250367,-12.34684,0.1929001621480798,0.1138279048633469,-0.3583580331168097,359.4044,58.03722,181.3602,0.4851071,-0.001213531,0.8743591,19
17.94,-8.659364,1.415055,-12.27393,0.1653654105004223,0.113595649856008,-0.3640299289757362,2.998993,58.04316,181.6427,0.4845951,-0.02983227,0.87423,19
17.96,-8.647157,1.240432,-12.26181,0.1199898209140526,0.063178839128675,-0.3801542592842908,4.008215,58.2553,182.0554,0.4858331,-0.03926872,0.8731681,19
17.98,-8.54727,1.406495,-12.18844,0.0864116265154929,0.087829889499274,-0.3856142775876687,7.655764,58.28509,182.3484,0.4846008,-0.0682534,0.8719456,19
18.0,-8.560756,1.232204,-12.19575,0.0597487771351615,0.1364209696809666,-0.3856629849141413,8.23173,58.5045,182.8697,0.4856744,-0.07480574,0.8708321,19
18.02,-8.502523,1.217576,-12.15323,0.000730262319654,0.1070726454710453,-0.4026052936510245,11.86842,58.90732,183.354,0.4862405,-0.1042986,0.8672044,19
18.04,-8.403974,1.390192,-12.08325,-0.0483223857492775,0.1297545610640895,-0.4130895036939579,15.46327,58.97342,183.6336,0.483789,-0.1325117,0.8642225,19
18.06,-8.306948,1.559227,-12.01436,-0.0980566640314931,0.1519288611040323,-0.4237728010357071,19.05673,59.05932,183.923,0.4808596,-0.1605856,0.8603864,19
18.08,-8.370839,1.190937,-12.0849,-0.1748371630408614,0.093824730131253,-0.4492544451452946,16.08029,59.61826,183.7809,0.4879543,-0.1375323,0.8609833,19
18.1,-8.273067,1.369664,-12.01786,-0.2512930844182834,0.0364424867669949,-0.4744472825329835,19.65118,59.70079,184.0498,0.4849001,-0.1652456,0.8570733,19
18.12,-8.176507,1.54494,-11.95166,-0.3120893289199626,0.0252640065260536,-0.4863139018048605,23.22062,59.80355,184.3308,0.4813738,-0.1927895,0.8523286,19
18.14,-8.206452,1.160787,-12.08879,-0.3713795065956464,0.0167090622252267,-0.4970506382426463,21.56876,58.08703,184.1198,0.4707114,-0.1806203,0.8615208,19
18.16,-8.150008,1.153113,-12.1615,-0.4308439596371998,0.0087878882974392,-0.5065270190617763,23.04495,57.46938,184.0708,0.4645474,-0.1917744,0.8620523,19
18.18,-8.054992,1.342018,-12.09872,-0.4780638680072658,0.0319448406574384,-0.5082499537767236,26.54446,57.49595,184.1342,0.4605468,-0.2180347,0.8567536,19
18.2,-8.076279,1.139092,-12.13086,-0.5226812694390335,0.0553241929558894,-0.5082421591651778,26.27567,55.9156,183.9822,0.4492991,-0.2165089,0.8633569,19
18.22,-7.982594,1.33178,-12.06926,-0.5893576270234,-0.0066284359734804,-0.5195513358852626,29.74328,55.89066,183.9291,0.4448926,-0.2421211,0.8574257,19
18.24,-7.957066,1.124869,-12.07492,-0.6258981907885233,0.0173837383735948,-0.5119147698871442,32.06599,53.18564,183.5409,0.4223992,-0.260147,0.8628377,19
18.26,-7.90525,1.121236,-12.06246,-0.6580534590566568,0.0416088006285372,-0.5016194395260178,34.58977,52.75794,183.5103,0.4158619,-0.2792024,0.8590145,19
18.28,-7.817034,1.319085,-12.00158,-0.7002936552636125,-0.0208267200794471,-0.4973257516192497,37.92018,52.74088,183.322,0.4114603,-0.3031536,0.8511592,19
18.3,-7.728969,1.514091,-11.94091,-0.7258299256525207,-0.023547761829539,-0.4840053103232824,41.24952,52.70839,183.1232,0.4067111,-0.3268412,0.8425857,19
18.32,-7.744376,1.115515,-11.96309,-0.7365146061137297,0.0058377543634286,-0.4612232158088678,41.81678,52.17458,182.3972,0.4039895,-0.3290409,0.8420848,19
18.34,-7.654292,1.315433,-11.90396,-0.7442370897555955,-0.0214041524086286,-0.4362199721949646,45.16674,52.00928,182.0236,0.3986671,-0.3522425,0.8326871,19
18.36,-7.564802,1.512404,-11.84434,-0.7462902901641636,-0.0478947827680687,-0.4079421778250167,48.516,51.79639,181.6471,0.3928551,-0.3752709,0.8226382,19
18.38,-7.522905,1.112882,-11.8167,-0.7338385806014469,0.0117747744503622,-0.3695290517608314,48.06276,51.07787,179.572,0.3951252,-0.3659736,0.8234228,19
18.4,-7.466678,1.109989,-11.78156,-0.7186629694937939,-0.0161347238381321,-0.3289546015688278,50.64735,50.55289,178.7281,0.3902244,-0.3824722,0.815287,19
18.42,-7.378215,1.309452,-11.72455,-0.6981389383071408,-0.0441389272567608,-0.2855809272225289,53.91944,50.10406,178.0843,0.3842371,-0.4043465,0.804151,19
18.44,-7.214646,1.102223,-11.61639,-0.6722030504008263,0.0139689050855843,-0.2394271303180082,59.64964,47.29147,174.0613,0.3710906,-0.4369574,0.783313,19
18.46,-7.126927,1.295963,-11.56059,-0.6252849024752609,0.0196545812488596,-0.1786323710591022,62.86737,46.24257,172.7965,0.3645196,-0.4576257,0.7702934,19
18.48,-7.019069,1.109082,-11.48581,-0.5748416166275516,0.0005969318802665,-0.1171554051729124,62.62715,40.87434,167.9108,0.3479418,-0.4528866,0.7769994,19
18.5,-6.932424,1.297816,-11.42958,-0.5206398783212394,-0.0201325317000145,-0.054386874721936,65.7317,38.97511,165.7346,0.3415611,-0.4728345,0.7632198,19
18.52,-6.852919,1.128828,-11.36645,-0.4548038638231677,-0.0020470386561345,0.0118957895239364,60.94969,37.17308,166.7206,0.3284432,-0.4457216,0.7927309,19
18.54,-6.767051,1.313097,-11.30829,-0.3864909216494613,0.0154589855899227,0.0786184621624033,63.99161,35.15829,164.3815,0.3223989,-0.4656254,0.77924,19
18.56,-6.618187,1.178175,-11.18528,-0.3091738811790093,-0.016028902090908,0.1398315837886534,52.09167,40.52924,171.1504,0.3420333,-0.386676,0.8285868,19
18.58,-6.531489,1.356323,-11.12488,-0.2451678278895138,0.0273282022374587,0.1896338659871728,55.19157,39.4663,169.7563,0.3369605,-0.4075731,0.8168997,19
18.6,-6.45874,1.211257,-11.07945,-0.1791078992524535,0.0483817809819693,0.2311843546454113,43.18939,44.3502,173.8771,0.3686474,-0.321587,0.8523893,19
18.62,-6.366097,1.384677,-11.0143,-0.1040517650268214,0.0470265699611521,0.2702985869138528,46.51477,43.79157,173.0002,0.3643434,-0.3447794,0.8418866,19
18.64,-6.247168,1.250175,-10.96199,-0.0396643194576038,0.0891698332594987,0.3026851586949612,26.24333,49.80667,175.9463,0.4171201,-0.1912784,0.8794041,19
18.66,-6.186626,1.257772,-10.9291,0.0197511539857886,0.0828508665827073,0.3264543736804193,20.02298,51.51395,176.5311,0.4324808,-0.1435492,0.8842384,19
18.68,-6.087729,1.426682,-10.86257,0.0791119404927579,0.074281305286201,0.3485333770119139,23.49388,51.46909,176.2486,0.4308835,-0.1693841,0.8785831,19
18.7,-5.990469,1.592101,-10.79723,0.1386387759575576,0.1316243504416588,0.3745537245635144,26.96464,51.40369,175.9549,0.428888,-0.1950636,0.8721172,19
18.72,-5.993529,1.272043,-10.82084,0.1916071039439716,0.1407991791752463,0.395229904031821,2.390986,56.43914,177.9424,0.4730028,-0.009892584,0.8806312,19
18.74,-5.89165,1.438745,-10.75332,0.2484479572183224,0.1272115077867481,0.4145982953826614,5.937604,56.50006,177.9588,0.4734226,-0.03719651,0.8791322,19
18.76,-5.791574,1.601791,-10.68709,0.302798644485779,0.1588582198879988,0.4334824475614385,9.483179,56.56247,177.9792,0.4733886,-0.06445698,0.8767918,19
18.78,-5.7326,1.291515,-10.67227,0.3537323478789493,0.1870422799844714,0.4492816227959155,352.2201,59.70559,179.0484,0.4961209,0.06296046,0.8655598,19
18.8,-5.690191,1.293878,-10.64821,0.3839283318976714,0.1408031546156238,0.4528277943462466,352.8041,60.04298,179.311,0.499003,0.05733687,0.8643045,19
18.82,-5.587588,1.455477,-10.57777,0.4111440282816957,0.0913508670110773,0.4536760751194866,356.3688,60.07396,179.6131,0.5002121,0.02911739,0.8653166,19
18.84,-5.555384,1.269934,-10.57477,0.4449627351095281,0.1296792038424761,0.459522815390311,354.084,61.32473,180.0298,0.5093101,0.04425694,0.8590345,19
18.86,-5.453998,1.433282,-10.50717,0.4580409772284221,0.091489120870729,0.4531771085180796,357.6124,61.36021,180.3595,0.5101874,0.01631774,0.8598053,19
18.88,-5.450234,1.254514,-10.5233,0.4637624214744862,0.0775877454961831,0.441945282822646,357.4379,61.78955,181.138,0.5134999,0.01408613,0.8577411,19
18.9,-5.346886,1.418681,-10.45748,0.476057691264162,0.0897251732880773,0.433911357671122,1.01647,61.84492,181.4253,0.5137231,-0.01399997,0.8578203,19
18.92,-5.319812,1.240423,-10.44221,0.4854670478480055,0.0996116856971716,0.421908121510834,4.000663,62.51242,182.0667,0.5179273,-0.03918586,0.8545226,19
18.94,-5.214654,1.406462,-10.37646,0.4779947654969744,0.0849434231827403,0.4012254223442835,7.64598,62.60298,182.3763,0.5170926,-0.06770617,0.8530791,19
18.96,-5.225069,1.232198,-10.38033,0.467923620090012,0.0709621520116491,0.3765365558562576,8.226777,62.66928,182.8709,0.5169985,-0.07424286,0.8526116,19
18.98,-5.120451,1.401048,-10.31608,0.4674499806643785,0.1051454134560122,0.3563019075484641,11.84953,62.77897,183.1614,0.515443,-0.1023731,0.8502465,19
19.0,-5.017612,1.566211,-10.25302,0.4633919671816955,0.1360070445363103,0.3312017206594213,15.47064,62.90929,183.4635,0.5133691,-0.1303922,0.8470277,19
19.02,-5.131239,1.199882,-10.30428,0.4389442315171937,0.1131319796169098,0.2934648775576107,14.74103,61.9663,183.6298,0.5067933,-0.1260953,0.8519002,19
19.04,-5.029573,1.376678,-10.24201,0.4192969703318973,0.1195844349709564,0.2563561022026286,18.31501,62.09379,183.871,0.5042706,-0.1534692,0.8481157,19
19.06,-4.929234,1.549983,-10.18062,0.3980616455429763,0.1253889367232434,0.2154291790420062,21.88738,62.24033,184.1262,0.5012559,-0.1806852,0.8435043,19
19.08,-5.013484,1.175812,-10.22104,0.3505073307739651,0.0490978449070358,0.1577454285709982,18.73336,61.02434,184.0428,0.4956945,-0.1577974,0.8524206,19
19.1,-4.913562,1.358535,-10.1596,0.314027182787703,0.0262751806303274,0.1103978161398482,22.29205,61.14845,184.2295,0.4925783,-0.184737,0.8477843,19
19.12,-4.928084,1.153134,-10.15268,0.2712360904574458,-0.0228005457601307,0.0578695503492385,23.06727,58.47906,184.0418,0.4721485,-0.1912361,0.8578779,19
19.14,-4.830609,1.341981,-10.09193,0.2285527291172982,-0.0698590035476577,0.0026656431224119,26.59245,58.55307,184.0786,0.4684764,-0.2174177,0.8523522,19
19.16,-4.852882,1.139144,-10.09342,0.2044150604960568,-0.034643662881667,-0.0251597643469612,26.2749,56.60158,183.9685,0.4544861,-0.2159862,0.8606437,19
19.18,-4.757883,1.331823,-10.03313,0.1664108879200103,-0.0546853549720638,-0.0446358485630357,29.74958,56.63028,183.9052,0.4504596,-0.2414816,0.8545054,19
19.2,-4.663338,1.521376,-9.973188,0.1297126322577698,-0.0721032776609637,-0.0638807810802869,33.22321,56.65543,183.8416,0.4460198,-0.2667471,0.8475834,19
19.22,-4.741036,1.124916,-10.00379,0.0973369593963577,-0.0880340669420626,-0.0772133899551202,32.0608,53.33199,183.5273,0.4235385,-0.2599342,0.8622967,19
19.24,-4.648265,1.322023,-9.943565,0.0654528652187876,-0.130048505907376,-0.091493903272023,35.49173,53.24203,183.2608,0.4188405,-0.2845163,0.8549933,19
19.26,-4.555715,1.516103,-9.883541,0.0457082008608513,-0.111153033721666,-0.0950144821431634,38.92126,53.12734,182.9751,0.4137666,-0.3088354,0.8469229,19
19.28,-4.563257,1.115624,-9.882878,0.0343411951996729,-0.0621597715456457,-0.0902045396697621,41.84687,51.6384,182.3509,0.4001328,-0.3297476,0.843828,19
19.3,-4.531065,1.115,-9.859549,0.0131672229309352,-0.0991825131687523,-0.0911958179809273,43.24258,51.45322,181.7566,0.3983999,-0.3380924,0.8398432,19
19.32,-4.441765,1.315259,-9.800037,-0.0128944849902997,-0.1637868945663456,-0.095594991707559,46.58073,51.22086,181.3455,0.3928134,-0.3611826,0.8302224,19
19.34,-4.373633,1.112963,-9.749514,-0.0160014427220658,-0.1693800443724755,-0.0824697035648184,48.0476,49.86349,179.5356,0.3865162,-0.3676136,0.8275572,19
19.36,-4.285405,1.313419,-9.690072,-0.0161650181287321,-0.1733766334374346,-0.0674475305594071,51.35242,49.48697,178.9662,0.3807616,-0.3900862,0.8168439,19
19.38,-4.197221,1.511071,-9.630718,-0.0136443779407951,-0.179168033079969,-0.0508690970450226,54.65355,49.02386,178.3142,0.3746877,-0.412224,0.8054462,19
19.4,-4.130083,1.103794,-9.578227,0.0023763638992221,-0.1844548606490764,-0.0237817365671143,56.47153,47.2455,176.1929,0.3672347,-0.4214909,0.8004406,19
19.42,-4.043504,1.299909,-9.51963,0.0224453710483583,-0.1850872687214091,0.0071735288908897,59.71931,46.47557,175.2184,0.3609572,-0.4428151,0.7880043,19
19.44,-3.957174,1.493328,-9.461259,0.0447448915743512,-0.1854007346196836,0.0397557043842717,62.95776,45.5007,174.0421,0.354385,-0.4637673,0.774924,19
19.46,-3.765493,1.117891,-9.321915,0.0668925986580142,-0.1761539697090408,0.0760698607285134,61.82909,39.34192,167.2476,0.3407361,-0.4487118,0.7836631,19
19.48,-3.682371,1.128653,-9.269748,0.0895591102223494,-0.1669090949360122,0.1130313210949969,60.96981,38.31644,166.8058,0.3359946,-0.4435498,0.7895175,19
19.5,-3.596107,1.312763,-9.211935,0.1093249122936915,-0.1041919981263862,0.1474680808189196,64.03323,36.38595,164.5654,0.329965,-0.4635514,0.7759849,19
19.52,-3.414645,1.1779,-9.108557,0.1247971894948443,-0.1134208964302668,0.1850393148983444,52.12343,43.00892,171.2472,0.3595323,-0.3824359,0.821062,19
19.54,-3.326536,1.355813,-9.049948,0.1399792416820635,-0.091568967576615,0.2310978669271635,55.24707,42.03542,169.9683,0.3543987,-0.4033717,0.80936,19
19.56,-3.190946,1.210975,-9.03205,0.156466278501944,-0.0708420162978205,0.2773953081218752,43.21432,47.78527,173.9861,0.3937064,-0.3164677,0.8410642,19
19.58,-3.095978,1.384124,-8.970072,0.1515464205055686,-0.0513005081492896,0.3120738277728004,46.56045,47.30914,173.2306,0.3892862,-0.3396308,0.8305746,19
19.6,-3.001911,1.238879,-8.966843,0.1473295862376085,-0.0327653402978378,0.3455793411453677,32.13362,51.53168,175.3731,0.4274356,-0.2321774,0.8598396,19
19.62,-2.851002,1.257357,-8.919108,0.1402678633140155,-0.0149456135221906,0.3830716300658731,20.06231,55.10448,176.6166,0.4598466,-0.1409157,0.8702773,19
19.64,-2.74889,1.425817,-8.856021,0.1227274894151077,-0.0211765452104489,0.4202372842383591,23.56403,55.08961,176.423,0.458129,-0.1668271,0.8645993,19
19.66,-2.67832,1.268057,-8.841291,0.101132683824599,0.0161815719547825,0.4563167254491824,8.17926,58.23999,177.5677,0.4866142,-0.05198638,0.8704452,19
19.68,-2.573262,1.435122,-8.778764,0.0833063797495738,0.0750442556246355,0.4937141248692935,11.73374,58.28904,177.5219,0.4862806,-0.07877901,0.8675398,19
19.7,-2.470054,1.598527,-8.717417,0.0517921089646849,0.0621275777775241,0.5225588189903265,15.28726,58.33583,177.4785,0.4854789,-0.1054882,0.8638006,19
19.72,-2.446441,1.279155,-8.715546,0.018843746174939,0.0469565427699674,0.5481045994392851,354.4923,61.56739,178.4182,0.5105889,0.04832854,0.8583711,19
19.74,-2.302789,1.291231,-8.645084,-0.005816688336543,0.0548247372421854,0.5878548717537769,352.2433,62.10257,179.0739,0.5141389,0.06210291,0.8549983,19
19.76,-2.195983,1.453092,-8.579159,-0.0326107369895649,0.0611165486334891,0.623927955104378,355.8465,62.13254,179.332,0.5155006,0.03404592,0.8561031,19
19.78,-2.091319,1.611107,-8.514641,-0.079484659090241,0.0144131502239742,0.6489354062492501,359.4485,62.17859,179.5912,0.5163495,0.005963149,0.8563573,19
19.8,-2.107381,1.282922,-8.513195,-0.1224032017814744,0.0353782522453142,0.6773708933730539,353.7749,61.60441,179.7513,0.5112182,0.0477481,0.8577316,19
19.82,-2.003577,1.445022,-8.446347,-0.1654640182152162,0.029380230627046,0.7041218495366184,357.3311,61.63834,180.0433,0.5121989,0.01980604,0.8585513,19
19.84,-1.901847,1.603399,-8.380919,-0.2106046113022358,0.0232731457038193,0.7261366852577613,0.8861293,61.69029,180.3371,0.5126826,-0.008147283,0.8585386,19
19.86,-1.915947,1.250479,-8.372574,-0.2480769759164952,0.0657813860766861,0.7528818969862371,359.3892,61.44973,181.3569,0.5109273,-0.001467663,0.859526,19
19.88,-1.876051,1.245829,-8.34233,-0.2884628951649182,0.1043323091872739,0.774605029864908,1.412077,61.56034,181.5843,0.5115115,-0.01766003,0.859077,19
19.9,-1.77151,1.410603,-8.274973,-0.3420137074880292,0.0944089999231654,0.786988215128034,5.059454,61.63346,181.8808,0.5111033,-0.04630077,0.8582291,19
19.92,-1.668951,1.571594,-8.208973,-0.3968008973043949,0.0851568324162949,0.795980372025038,8.705964,61.72615,182.1843,0.5101736,-0.07489078,0.8565062,19
19.94,-1.699401,1.226214,-8.211864,-0.4572239196080654,0.0740820857069006,0.8014811243275543,10.33687,61.56606,183.1653,0.5073758,-0.09143995,0.8565655,19
19.96,-1.595776,1.396466,-8.145752,-0.5292822395368746,0.0386002769320761,0.7985451052544771,13.97497,61.68226,183.4501,0.5054769,-0.1197205,0.8537065,19
19.98,-1.493843,1.56302,-8.080796,-0.5853764685968584,0.0546237580066256,0.8021725398711469,17.61139,61.81944,183.7477,0.5030659,-0.1478714,0.849983,19
20.0,-1.393796,1.726014,-8.017119,-0.6425154019850735,0.0701930078785017,0.8022751916840033,21.24601,61.97982,184.0611,0.5001456,-0.1758638,0.8454001,19
20.02,-1.529376,1.190937,-8.090701,-0.7264910728168761,0.0044864046653516,0.7816309301133528,16.08452,61.8399,183.7767,0.5045552,-0.1367218,0.8513565,19
20.04,-1.428298,1.369524,-8.027495,-0.7786523971375015,0.0191233693041332,0.7751832726691342,19.67192,61.97868,184.0463,0.5018241,-0.164263,0.8472408,19
20.06,-1.328452,1.544621,-7.96513,-0.8300672691150023,0.0337584675369731,0.7665017066255917,23.25757,62.13915,184.3319,0.4985992,-0.1916341,0.8422922,19
20.08,-1.401602,1.160851,-7.992341,-0.902336059494625,-0.0349146130206556,0.7392846482835445,21.56836,59.26947,184.0996,0.4796082,-0.1799049,0.8566075,19
20.1,-1.387907,1.153189,-7.978184,-0.945834936675621,-0.0209030181718509,0.7255990148715324,23.04413,58.46621,184.047,0.4720693,-0.1910935,0.8579658,19
20.12,-1.337173,1.139108,-7.936221,-0.9871617471073872,-0.0065849137172016,0.7107165055754713,26.2913,56.73349,183.9737,0.455447,-0.216039,0.8600973,19
20.14,-1.241636,1.331708,-7.875704,-1.0252563997151538,-0.0199057250387681,0.6916254896492047,29.78452,56.76186,183.9156,0.4513726,-0.2416737,0.853932,19
20.16,-1.146564,1.52115,-7.815543,-1.0667014476428598,-0.0587455461139659,0.6686856346985327,33.27632,56.78705,183.8574,0.4468803,-0.2670735,0.846976,19
20.18,-1.193671,1.124862,-7.831523,-1.0869599041821294,-0.0375856977190745,0.654088175409476,32.0803,53.83964,183.5354,0.4273102,-0.2596752,0.8603791,19
20.2,-1.100375,1.321944,-7.771825,-1.1030576155212377,-0.0161055740642198,0.6388619425920066,35.51688,53.75179,183.2778,0.4225622,-0.284262,0.8530813,19
20.22,-1.106064,1.118821,-7.770416,-1.129801529316683,-0.081174743145606,0.6103853683212077,37.35545,52.46944,182.9917,0.4111275,-0.2980904,0.8531564,19
20.24,-1.026944,1.115661,-7.725225,-1.1264840753539938,-0.0584236098940743,0.5950776143019382,41.82248,52.22284,182.3351,0.4045139,-0.3288045,0.8418233,19
20.26,-0.935609,1.315701,-7.667318,-1.120750377340292,-0.0919632354442939,0.5767465640067211,45.18282,51.9694,181.8867,0.3987722,-0.3519359,0.8325942,19
20.28,-0.8443452,1.512844,-7.609512,-1.109778270392031,-0.1244641871099916,0.5584468411446519,48.54058,51.65995,181.387,0.3926859,-0.3747554,0.8226455,19
20.3,-0.8428925,1.113779,-7.601387,-1.0852496081600276,-0.1273812558014411,0.5456121535639404,46.35063,51.17071,180.3564,0.3959007,-0.3561891,0.8296854,19
20.32,-0.8097659,1.112996,-7.577664,-1.0460120872928724,-0.0984113634095757,0.5384336667260918,48.03035,50.43773,179.5222,0.3907266,-0.3665624,0.825645,19
20.34,-0.6904547,1.107233,-7.493909,-0.989919605344804,-0.1268699803449412,0.5388669608550433,53.26143,48.96078,177.6709,0.3786364,-0.4003304,0.809611,19
20.36,-0.6029464,1.305705,-7.436065,-0.925392924409156,-0.0956598789807209,0.540156976007319,56.52188,48.37593,176.8889,0.3724834,-0.4219627,0.7979092,19
20.38,-0.5155781,1.501457,-7.378366,-0.8556351345550839,-0.0654708331772258,0.5408713453882773,59.77594,47.64716,175.9666,0.3660257,-0.4432404,0.785553,19
20.4,-0.3999227,1.104522,-7.289505,-0.7810166732832091,-0.0396124973721996,0.5408426915805703,61.19229,42.79586,171.191,0.349515,-0.4483813,0.7848144,19
20.42,-0.3349126,1.109108,-7.23802,-0.6916066849151652,-0.0345710164679696,0.545923262230432,62.62507,39.04256,167.8831,0.3355891,-0.4569653,0.7824091,19
20.44,-0.2497755,1.297872,-7.179384,-0.5978517896412416,-0.0292832645631383,0.5500199766705722,65.72782,37.10344,165.6688,0.3293264,-0.4770949,0.7685597,19
20.46,-0.09980178,1.144201,-7.050006,-0.4894455909451387,-0.0717423406249422,0.5596219633112586,58.40248,35.93331,167.7545,0.3172243,-0.4327213,0.8095573,19
20.48,-0.01500846,1.326258,-6.989009,-0.3950236226258133,-0.0556590852120215,0.5555361896853455,61.45237,34.16719,165.6512,0.3115453,-0.4530302,0.7965114,19
20.5,0.06890617,1.50564,-6.928701,-0.2979022472161516,-0.0133716754887527,0.550329201025304,64.46322,31.95062,163.1022,0.3056208,-0.4729744,0.782838,19
20.52,0.1236038,1.195476,-6.8453,-0.1880226784548868,-0.0161436639954281,0.5439193979947283,48.32232,40.21489,173.1221,0.3361567,-0.3648499,0.8468034,19
20.54,0.199143,1.2272,-6.71372,-0.0895445151688361,0.0261022811873262,0.5293172319528717,38.04282,42.61555,174.6214,0.3574046,-0.2871889,0.8742446,19
20.56,0.2936619,1.397458,-6.639485,0.0100635808700558,0.0656813300973576,0.5124827306272284,41.55949,42.19297,173.8764,0.353725,-0.3125505,0.8642208,19
20.58,0.2968516,1.250158,-6.577868,0.0964028891501017,0.0807321354920043,0.488999513887503,26.2713,45.70552,175.9518,0.3853635,-0.1959301,0.8937174,19
20.6,0.3914021,1.418996,-6.503082,0.1755479437380758,0.0720942334093921,0.4574626260467858,29.7872,45.56978,175.5473,0.3831852,-0.22225,0.8864525,19
20.62,0.4487549,1.268057,-6.405009,0.2547227140326284,0.1088861786233313,0.4327451786595543,8.200951,50.07508,177.5378,0.4234232,-0.05570203,0.9028528,19
20.64,0.472809,1.271837,-6.313404,0.3258055737649079,0.1208097757517467,0.4054388992594683,2.447289,51.39221,177.9328,0.4337756,-0.01142013,0.9005875,19
20.66,0.569057,1.438316,-6.236901,0.3943011261936411,0.1318361428373428,0.3762368351352906,6.015987,51.4471,177.9413,0.4342108,-0.0394809,0.8991032,19
20.68,0.6635931,1.601095,-6.161842,0.4640401076191872,0.187494227377951,0.3519936318600633,9.583656,51.50295,177.9534,0.4342246,-0.06749539,0.8967478,19
20.7,0.6765336,1.28518,-6.12008,0.5218506807835734,0.1723638247603063,0.3170298500735362,353.3316,53.57077,178.7225,0.4492803,0.05693173,0.8914266,19
20.72,0.773068,1.448556,-6.041535,0.575919646063016,0.154991620321129,0.2809642780108958,356.9179,53.60895,178.9097,0.4505354,0.02829146,0.8923029,19
20.74,0.8355799,1.295966,-5.930522,0.637238691889631,0.2044257315220852,0.2523048351105772,353.457,54.14551,179.505,0.4541562,0.05277665,0.8890823,19
20.76,0.9310934,1.456839,-5.849874,0.6782487437951535,0.200606172495936,0.2091742975565121,357.0358,54.17553,179.7943,0.4551604,0.02384449,0.8900321,19
20.78,0.9015538,1.270123,-5.819735,0.7063782001591116,0.1724454985473302,0.1578306542258633,354.0753,54.56642,179.9985,0.457776,0.04593664,0.8875642,19
20.8,0.9946274,1.433645,-5.741625,0.7294416593174091,0.1434177855247423,0.1048495599713784,357.5958,54.59855,180.2979,0.4585843,0.01745042,0.8883995,19
20.82,1.042288,1.25036,-5.690164,0.7501245484649656,0.1360089919040894,0.0493652999805378,359.3947,55.13853,181.3652,0.4628371,-0.0008316343,0.8863478,19
20.84,1.137474,1.415003,-5.612458,0.7667740921871712,0.1287090012254095,-0.0073436950766007,2.990566,55.19838,181.6574,0.462743,-0.02982127,0.8859907,19
20.86,1.230865,1.575952,-5.536304,0.7668588325695357,0.0707533247896889,-0.0735091631653903,6.585724,55.27692,181.9545,0.4621897,-0.05877692,0.8847558,19
20.88,1.322279,1.733371,-5.461847,0.7694924638484136,0.0633636451878054,-0.1382896938741041,10.17939,55.37504,182.2593,0.4611785,-0.08766602,0.8826449,19
20.9,1.241165,1.232089,-5.50421,0.7779428591846242,0.0822772754428928,-0.198548882956932,8.23353,55.70861,182.8826,0.4642755,-0.07517324,0.8824221,19
20.92,1.337268,1.40079,-5.427188,0.7686982521245344,0.0487452766690563,-0.2677462584055081,11.86762,55.81502,183.1853,0.462819,-0.1042605,0.8799748,19
20.94,1.325413,1.208862,-5.401874,0.7556492210749265,0.0163693117453239,-0.3377313122507113,13.41423,56.11997,183.5511,0.4637586,-0.1174911,0.8776976,19
20.96,1.346858,1.199921,-5.361599,0.7578819200538391,0.057660342733059,-0.3984631629629261,14.72013,56.16426,183.6636,0.4630067,-0.1278887,0.8764849,19
20.98,1.440691,1.37672,-5.288682,0.7555748992121051,0.0963306674182992,-0.459989038794378,18.28029,56.29616,183.9399,0.4606721,-0.1559909,0.8725973,19
21.0,1.533304,1.550052,-5.216785,0.7165205676878492,0.0282849182402968,-0.5389557442027884,21.83875,56.4495,184.2313,0.4578907,-0.1839335,0.8678641,19
21.02,1.445583,1.168501,-5.265828,0.6605096488138252,-0.0659354905510142,-0.6247835372619489,20.10649,53.18656,184.0368,0.4350097,-0.1715233,0.8826832,19
21.04,1.536137,1.353463,-5.194184,0.6366899594562395,-0.0555960257078984,-0.6898259619498894,23.62399,53.28156,184.1489,0.4319897,-0.1987363,0.8776572,19
21.06,1.625893,1.535141,-5.123237,0.595192335828361,-0.1006178503632384,-0.7604803882149127,27.14027,53.38703,184.2708,0.4285631,-0.2257541,0.8718054,19
21.08,1.565089,1.145553,-5.166592,0.5520254987622885,-0.1435478355947718,-0.8295397768493974,24.58006,51.56073,184.0555,0.417907,-0.2065904,0.8825564,19
21.1,1.653986,1.336468,-5.09612,0.5324601716181957,-0.1042098339762198,-0.8837250572849275,28.07415,51.61568,184.0598,0.4143548,-0.2331807,0.8765689,19
21.12,1.742377,1.524207,-5.026114,0.5035122995085831,-0.1204715751988854,-0.938158472214098,31.56696,51.67286,184.0681,0.4104186,-0.2595447,0.8697689,19
21.14,1.720277,1.124853,-5.033446,0.4816723891654528,-0.1034528570792163,-0.986783332244376,32.06499,48.48401,183.5552,0.3866203,-0.2639485,0.8794504,19
21.16,1.760164,1.121892,-4.987339,0.4600537846759224,-0.086140933482516,-1.0323135589392347,34.66688,47.98838,183.2412,0.3803242,-0.2830558,0.8751756,19
21.18,1.846968,1.319879,-4.920687,0.4242185877955671,-0.1553934335754738,-1.0830093871171584,38.06314,47.8422,182.9056,0.3756338,-0.3077021,0.8672134,19
21.2,1.93361,1.514902,-4.854217,0.4096948167174195,-0.1368843587388069,-1.1189290493289623,41.45766,47.66212,182.5417,0.3706125,-0.3320696,0.8584873,19
21.22,1.918033,1.115599,-4.87592,0.3961328833701592,-0.1183084492632216,-1.150839357150163,41.82428,47.96539,182.3667,0.3728707,-0.3338929,0.8562983,19
21.24,2.004493,1.315562,-4.810657,0.393789895046472,-0.1273664851067829,-1.17270955450686,45.193,47.73241,181.952,0.3675032,-0.3576954,0.8468163,19
21.26,2.068654,1.113719,-4.767724,0.3920382993280638,-0.1327471760599444,-1.1894665242929343,46.35703,47.70887,180.3845,0.3705615,-0.3612199,0.8412834,19
21.28,2.154009,1.314177,-4.703355,0.3911655125350933,-0.1362736767968256,-1.20151217203305,49.68282,47.41049,179.9125,0.3651268,-0.3843833,0.8307776,19
21.3,2.194745,1.110007,-4.662207,0.3907287977496693,-0.1413571000449187,-1.2088675470337211,50.63687,46.92185,178.7386,0.3641783,-0.3883106,0.8272933,19
21.32,2.279639,1.309455,-4.599422,0.4050779806768028,-0.1465862076501393,-1.2038616486426377,53.92088,46.46704,178.0975,0.3584754,-0.4107139,0.8159561,19
21.34,2.43923,1.102196,-4.48551,0.4405599571197242,-0.1465622785867598,-1.182948129163912,59.62296,44.22913,174.1047,0.3498934,-0.4431676,0.7931467,19
21.36,2.523683,1.295921,-4.424749,0.471284754009167,-0.1153541306731665,-1.161071266549049,62.8461,43.19357,172.8641,0.3436497,-0.4642662,0.7799544,19
21.38,2.607783,1.486983,-4.364298,0.5041898907481278,-0.1351066499570772,-1.1331543455594084,66.05509,41.85698,171.3253,0.3371255,-0.4849766,0.7661294,19
21.4,2.691409,1.675412,-4.304241,0.5359940243964859,-0.1564163243568424,-1.1005666141135175,69.24419,40.08368,169.3522,0.3303273,-0.5052848,0.7516822,19
21.42,2.825119,1.128693,-4.209215,0.5619823325982294,-0.0940630793807163,-1.0680613198091071,60.96714,35.6524,166.7375,0.3178196,-0.4492399,0.7969784,19
21.44,2.909424,1.312876,-4.14829,0.6048157388100532,-0.0730914008593504,-1.023788714450352,64.02299,33.64225,164.4133,0.31192,-0.4694479,0.7833627,19
21.46,3.068405,1.177956,-4.040895,0.6457534612524714,-0.075228654904572,-0.9768386391172974,52.12175,39.88954,171.2068,0.3371895,-0.3882695,0.8304747,19
21.48,3.143117,1.195216,-3.979766,0.6757296959675925,-0.0289496875732292,-0.9356012834285692,48.35317,42.55764,173.1863,0.353169,-0.3612804,0.8397582,19
21.5,3.228578,1.371535,-3.916458,0.7032941035959535,0.0147793245912667,-0.8906512419367024,51.49658,41.87989,172.2329,0.3486446,-0.3829936,0.8287774,19
21.52,3.390472,1.238849,-3.847156,0.7216604810275158,-0.0119169055685867,-0.8502501751595561,32.1677,48.17875,175.3363,0.4021503,-0.2367498,0.871849,19
21.54,3.489207,1.408113,-3.777666,0.7426434733787064,0.0305679717883674,-0.8089691617641145,35.70379,47.95615,174.8448,0.3990259,-0.2624223,0.8632258,19
21.56,3.586305,1.573801,-3.709404,0.7626400288851888,0.0916900098059904,-0.7745131642226217,39.23809,47.68341,174.3115,0.3955154,-0.287841,0.8537697,19
21.58,3.634891,1.263102,-3.714294,0.7736551595644372,0.0833305814873737,-0.7444531052755546,14.01872,53.73046,177.1757,0.4510628,-0.09777465,0.8837771,19
21.6,3.68634,1.267846,-3.687994,0.7867303774631402,0.0975237357828144,-0.7151626114631864,8.232724,55.31572,177.5633,0.4642404,-0.05372125,0.8825422,19
21.62,3.788677,1.434684,-3.619825,0.7964416400599734,0.1107171175424648,-0.6848134363400847,11.80865,55.35892,177.5145,0.4639274,-0.08105242,0.8796188,19
21.64,3.897674,1.279059,-3.573091,0.8100986654483883,0.1243397567338546,-0.6570878253438166,354.515,59.3004,178.4288,0.4935203,0.04835379,0.8683094,19
21.66,4.001556,1.443748,-3.50586,0.8302181594480352,0.160916407031667,-0.6313793577809071,358.0922,59.34204,178.5832,0.494734,0.02058326,0.8687971,19
21.68,4.103491,1.604693,-3.439964,0.8457442221513808,0.1941016678478679,-0.6060463719409231,1.668299,59.39328,178.7402,0.4954643,-0.007199402,0.8684368,19
21.7,4.151186,1.293646,-3.435874,0.8410300094251262,0.1538992936698441,-0.5892132540774602,352.8244,61.25541,179.3031,0.5081223,0.05693901,0.8589875,19
21.72,4.256031,1.454975,-3.367391,0.8315359630844421,0.1572337635531559,-0.5737239843909344,356.4131,61.27923,179.5977,0.5092891,0.02871513,0.8600192,19
21.74,4.358747,1.612476,-3.300377,0.8180747432131517,0.1598095016809379,-0.5587557766050018,0.0006918268,61.3214,179.893,0.5099528,0.0004709542,0.8602021,19
21.76,4.39338,1.262092,-3.317681,0.796880301084745,0.1579571471136693,-0.5549907012111178,355.7248,63.18035,180.6042,0.5236356,0.02901144,0.8511093,19
21.78,4.444257,1.254517,-3.298734,0.7719484646972119,0.1559090620367442,-0.5528553286504553,357.43,63.5134,181.1304,0.5263435,0.01387643,0.8499192,19
21.8,4.549745,1.418602,-3.235969,0.7612240955955227,0.202473081345586,-0.5453203098715986,1.016021,63.5608,181.4148,0.5265112,-0.01403868,0.8500325,19
21.82,4.550928,1.245742,-3.244868,0.724453205513927,0.175758314437713,-0.5496254617174595,1.410964,64.3745,181.5974,0.5324506,-0.01784402,0.8462569,19
21.84,4.658641,1.41039,-3.18216,0.6922706021307861,0.1997234347075928,-0.5513094141218471,5.066104,64.44318,181.9077,0.531978,-0.04625126,0.8454409,19
21.86,4.680377,1.23202,-3.177641,0.6571606904828353,0.2218222257117652,-0.5546075634970438,8.238179,65.12596,182.8855,0.5351417,-0.07403562,0.8413303,19
21.88,4.713983,1.226328,-3.159032,0.5945384507031657,0.1670730141258408,-0.5694027515538387,10.30973,65.25311,183.1699,0.5346822,-0.09049369,0.8398154,19
21.9,4.821165,1.396667,-3.099666,0.5300717584885204,0.111894413084697,-0.5856833110489711,13.93576,65.36531,183.4612,0.5326693,-0.1182466,0.8370553,19
21.92,4.831511,1.199687,-3.096998,0.4738415913541478,0.100151020984208,-0.5919494557388314,14.74725,66.12379,183.6935,0.537286,-0.124938,0.8329757,19
21.94,4.937045,1.376157,-3.040103,0.4071229776024088,0.0635571367813965,-0.6032384447748101,18.3382,66.26227,184.0009,0.5345864,-0.152196,0.8292579,19
21.96,5.041175,1.549099,-2.984029,0.3551315343689791,0.0817973610893772,-0.6084581704881049,21.92731,66.42463,184.3248,0.5313589,-0.1792954,0.8247218,19
21.98,5.143709,1.718627,-2.928884,0.3131807157291353,0.1270620525785152,-0.609841647042513,25.51417,66.61346,184.6677,0.5276065,-0.2062034,0.8193742,19
22.0,5.02106,1.168264,-2.991627,0.2427735211261634,0.0896403522702765,-0.6229448668733536,20.13351,65.1094,184.092,0.5242226,-0.1661528,0.8327308,19
22.02,5.027245,1.160861,-2.986919,0.1652580661540372,0.0246180570938696,-0.639003269315547,21.55094,64.40092,184.1233,0.5174568,-0.1769341,0.8343146,19
22.04,5.129773,1.347687,-2.934211,0.1066225930121871,0.0150466222804848,-0.641128690424202,25.07554,64.49819,184.2411,0.5137265,-0.2027428,0.8292891,19
22.06,5.120574,1.139066,-2.930606,0.050228453912372,0.0079207154864922,-0.6432653171651196,26.2807,62.31885,184.0025,0.4967721,-0.2120169,0.8369241,19
22.08,5.221,1.331608,-2.878999,-0.0042396696561448,2.1314381334874843e-05,-0.6456558290032879,29.76927,62.35626,183.9746,0.4924068,-0.2369895,0.8309678,19
22.1,5.320927,1.521005,-2.827703,-0.0565997489250795,-0.0099763588868491,-0.6390836899504417,33.25631,62.39279,183.9479,0.4875866,-0.2617301,0.8242452,19
22.12,5.273175,1.121916,-2.844268,-0.1162889279515058,-0.0461159951805777,-0.6360609549242378,34.67085,58.65719,183.2336,0.4600531,-0.2728623,0.8360105,19
22.14,5.371225,1.319897,-2.79485,-0.1719837918696627,-0.0808855039418489,-0.6322925740598855,38.07794,58.50315,182.889,0.4545934,-0.2961675,0.8285115,19
22.16,5.46908,1.514895,-2.745579,-0.2140883744295929,-0.0869665964314515,-0.6190211755893796,41.48321,58.31398,182.5149,0.4487305,-0.3192025,0.8202776,19
22.18,5.468011,1.115611,-2.754617,-0.2444615684023572,-0.0609691049632871,-0.6011278177327524,41.82475,58.54663,182.3624,0.4502507,-0.3207073,0.8182614,19
22.2,5.565123,1.315579,-2.706393,-0.2700332361630835,-0.0351102954672591,-0.5818132334302424,45.19648,58.30746,181.9422,0.4439997,-0.3431607,0.8093213,19
22.22,5.662147,1.512634,-2.658262,-0.2984586217342109,-0.0980378369364287,-0.5630325957748259,48.56576,58.01549,181.4737,0.4373628,-0.3653082,0.7996777,19
22.24,5.730139,1.112925,-2.628924,-0.3071426341960055,-0.0728000667573536,-0.5301496490021362,48.05098,57.78929,179.5649,0.4426883,-0.3547795,0.7989068,19
22.26,5.808479,1.110023,-2.592327,-0.3107775011949962,-0.0479145117541079,-0.4957356533393004,50.62136,57.41092,178.7363,0.4383078,-0.3701723,0.7905884,19
22.28,5.903168,1.309498,-2.546294,-0.3038445270580834,-0.0522206164650942,-0.4538451280674754,53.89563,56.94998,178.0903,0.4315858,-0.3912179,0.7798711,19
22.3,5.997747,1.506231,-2.500362,-0.2923410411583866,-0.0554643280435626,-0.4108411846091724,57.16496,56.38093,177.3398,0.4245082,-0.4119308,0.7685126,19
22.32,6.101611,1.104362,-2.45273,-0.269849571023379,-0.0007285742854327,-0.3635293187309838,59.62337,54.61572,174.0971,0.4202768,-0.4206638,0.7582005,19
22.34,6.282015,1.11433,-2.366286,-0.2256258166662346,-0.0270447377978441,-0.3035040641467084,62.62601,48.49427,167.969,0.398583,-0.4344873,0.7523166,19
22.36,6.375207,1.303012,-2.321425,-0.1893061119944705,-0.0184105479653825,-0.2500435745083738,65.74161,46.61893,165.8312,0.3912818,-0.4536541,0.7389694,19
22.38,6.488169,1.138294,-2.266545,-0.1506343437040043,-0.0094851470586448,-0.1964280539271954,60.97113,45.86423,166.785,0.3873072,-0.4254861,0.7656328,19
22.4,6.581446,1.322441,-2.220871,-0.109868527830595,-0.0034847446483289,-0.1429454171226869,64.03139,43.90137,164.517,0.3803011,-0.4445422,0.7525723,19
22.42,6.673844,1.503943,-2.175676,-0.0666521891493412,-0.0731802008301571,-0.0885949867227126,67.04783,41.38765,161.7019,0.3729939,-0.4632387,0.7389166,19
22.44,6.876962,1.213303,-2.084312,-0.0288497864076522,-0.037701442217574,-0.0397506343720061,48.35699,52.32627,173.1583,0.4234663,-0.3429591,0.8065695,19
22.46,6.976537,1.22974,-2.047164,0.0101618201784625,-0.0038339124891563,0.0080207289379325,43.40863,54.07815,173.8923,0.4393179,-0.3064252,0.817419,19
22.48,7.083333,1.401396,-1.994654,0.0460844361693517,0.0059480310678494,0.0469171856024385,46.91576,53.5163,173.0305,0.4338572,-0.3296854,0.8067099,19
22.5,7.18845,1.569583,-1.943029,0.0774494804978707,0.0162488796849776,0.0801786460460237,50.41563,52.83145,172.053,0.4279786,-0.3526248,0.7952242,19
22.52,7.247522,1.275923,-1.949801,0.1104177312920895,0.0259995510685077,0.1119367487306402,26.39807,59.30552,175.9928,0.4883158,-0.18147,0.8416152,19
22.54,7.359217,1.443615,-1.89642,0.1330731534305294,0.0320932634094733,0.140181763253219,30.01786,59.18485,175.6332,0.4852134,-0.2068539,0.8344136,19
22.56,7.468956,1.607551,-1.844042,0.154536241001411,0.0379456713515816,0.1654176440948685,33.63644,59.03186,175.2497,0.4816225,-0.2320255,0.8263743,19
22.58,7.544809,1.306662,-1.829978,0.1743356554374058,0.0406783456469949,0.1872254324899168,2.482885,65.41356,177.9487,0.5404528,-0.008557633,0.8409051,19
22.6,7.60349,1.311943,-1.804076,0.1990386486093576,0.1084241586349196,0.2159794015355895,358.4779,66.32484,178.2044,0.5467247,0.01968802,0.8370606,19
22.62,7.715685,1.477335,-1.751695,0.2171003023760915,0.1051102546859862,0.2418466014091979,2.065508,66.37452,178.3043,0.5474515,-0.006984111,0.8365126,19
22.64,7.843892,1.333873,-1.698625,0.2334619312288541,0.1010418916246654,0.2649827835625272,352.2474,68.00029,179.0542,0.5574343,0.06064762,0.8274235,19
22.66,7.95696,1.495841,-1.644582,0.24096979343711,0.0939723394095908,0.2855814558158108,355.8464,68.02448,179.2942,0.558807,0.03348147,0.8284829,19
22.68,8.067753,1.653973,-1.591696,0.2357999474976151,0.0615303521211998,0.2977525555791221,359.4442,68.06362,179.5351,0.5596256,0.006289947,0.8287215,19
22.7,8.069627,1.332631,-1.595525,0.2278253178530245,0.0281078104095749,0.3068622555576807,353.7701,68.60842,179.7646,0.5626606,0.04604371,0.8248976,19
22.72,8.091203,1.321041,-1.585242,0.2099400788151137,0.0127160912547921,0.3120883441328385,354.0669,68.77269,179.9973,0.5640125,0.04272247,0.8241429,19
22.74,8.200364,1.484641,-1.532415,0.1894749137377693,-0.002196441431945,0.3140368952929124,357.5806,68.79982,180.2961,0.564883,0.0159601,0.8248971,19
22.76,8.250367,1.306948,-1.518122,0.1659539076965446,-0.0193963682492974,0.3122819748625428,359.3813,69.24434,181.362,0.5681667,-0.002310195,0.8228102,19
22.78,8.361558,1.471615,-1.466008,0.132536689589799,-0.0364660324401605,0.3110136639886184,2.975204,69.29911,181.6518,0.567997,-0.02954677,0.822495,19
22.8,8.47063,1.632594,-1.414956,0.1049387404173698,-0.0269073507867294,0.3138614108643827,6.568408,69.37236,181.9463,0.5672646,-0.05674988,0.8213662,19
22.82,8.420756,1.300974,-1.435321,0.0616415123792977,-0.067916442244134,0.3083931446128508,6.140512,69.65451,182.5782,0.5691509,-0.05678541,0.8201802,19
22.84,8.533044,1.468078,-1.383351,0.0228633126004251,-0.0835391783327064,0.306330363823055,9.782417,69.74541,182.8831,0.5677329,-0.08426206,0.8184045,19
22.86,8.643312,1.631439,-1.33238,-0.0178545992250369,-0.0969213257421931,0.301805208288077,13.42274,69.85736,183.1979,0.5657379,-0.1116451,0.8157973,19
22.88,8.581238,1.280272,-1.350279,-0.0483476649508156,-0.0600445448602217,0.3030266418283407,13.42839,70.00111,183.545,0.5664157,-0.113346,0.8152136,19
22.9,8.691649,1.454662,-1.300664,-0.0962299418135843,-0.0754325467100925,0.2949086656669256,17.04004,70.1258,183.8347,0.56376,-0.140209,0.8118833,19
22.92,8.693706,1.260979,-1.291119,-0.1521107826960848,-0.1158162324801553,0.2824621563883492,17.39198,69.58549,183.9233,0.5594696,-0.1433968,0.8142586,19
22.94,8.737494,1.252659,-1.268371,-0.1944354244121355,-0.0992316476653055,0.2766045489656925,18.71622,69.11099,184.0631,0.5545564,-0.1536729,0.8153753,19
22.96,8.844685,1.435324,-1.220964,-0.2537629950618461,-0.1359690587850593,0.2613157153952902,22.27188,69.23255,184.2721,0.55107,-0.1796117,0.8110082,19
22.98,8.950783,1.614609,-1.174093,-0.312960108262611,-0.17036163168027,0.2448637198650636,25.82603,69.37184,184.4952,0.5470525,-0.2053694,0.8058596,19
23.0,8.859961,1.224829,-1.202367,-0.3723585528186766,-0.2055192169990556,0.2270077374158699,23.04195,66.87959,184.0531,0.5337262,-0.1856549,0.8210331,19
23.02,8.910053,1.208196,-1.171943,-0.423501889625258,-0.2191859761078606,0.2137958068435905,26.27087,65.23785,183.98,0.5179819,-0.2095232,0.823996,19
23.04,8.952408,1.20023,-1.149034,-0.4582587191631411,-0.2005354486907551,0.2078645231469675,27.98943,64.17422,183.9471,0.508079,-0.2225197,0.8260301,19
23.06,9.054372,1.394611,-1.103282,-0.4906969383420272,-0.1807374294542239,0.2021273329904805,31.45065,64.16634,183.8342,0.5033017,-0.2466093,0.8199254,19
23.08,9.15593,1.585906,-1.057759,-0.5212374996226046,-0.187345024394185,0.1950513012445241,34.91085,64.14978,183.7161,0.4980661,-0.270467,0.8130743,19
23.1,9.101583,1.184364,-1.066135,-0.5481320920230408,-0.1908262063787466,0.1887284056105767,34.67026,60.65307,183.2374,0.4745354,-0.2707007,0.8278767,19
23.12,9.123158,1.180299,-1.050364,-0.5745975963690364,-0.2508225750047587,0.1801159509282096,37.34313,59.74526,182.9808,0.4644797,-0.289786,0.8253666,19
23.14,9.222007,1.379112,-1.004329,-0.5759334619658951,-0.2220677326730088,0.1820146871182092,40.72804,59.53466,182.5705,0.4585571,-0.3124306,0.8174668,19
23.16,9.273879,1.171983,-0.9761878,-0.5801565307605008,-0.2491813536581798,0.1806531866666169,43.24402,58.92141,181.718,0.4523579,-0.3276532,0.812053,19
23.18,9.371049,1.372312,-0.9295094,-0.5802263558469793,-0.2748837322055738,0.1802437871978181,46.59492,58.64381,181.2573,0.4459758,-0.3497479,0.8028693,19
23.2,9.46815,1.569761,-0.8829095,-0.5616354388740799,-0.2138789592268473,0.1893053205207635,49.94307,58.30562,180.7404,0.4392103,-0.3715346,0.7929955,19
23.22,9.512945,1.16087,-0.8482956,-0.5363166450872217,-0.2398920348633658,0.2004776748104391,50.62534,57.30058,178.7145,0.4376099,-0.3703231,0.7909566,19
23.24,9.607961,1.360374,-0.8023826,-0.5070436593363488,-0.2652991345396386,0.2120967872013999,53.90553,56.81656,178.0425,0.4308236,-0.3913727,0.7802426,19
23.26,9.702868,1.557123,-0.7565655,-0.4697963491113364,-0.2043945742378044,0.226791274181786,57.18076,56.21967,177.2612,0.4236807,-0.4120905,0.7688826,19
23.28,9.814921,1.14745,-0.6905013,-0.4193797975475728,-0.1965363173384437,0.2480998032962541,59.60901,53.60192,174.0701,0.4136753,-0.4228179,0.7618848,19
23.3,9.908437,1.341249,-0.644972,-0.365635408288564,-0.1877144752741665,0.2696429026455887,62.82689,52.5178,172.7795,0.4062648,-0.4427195,0.7493187,19
23.32,10.00155,1.532386,-0.5996792,-0.3088911620192816,-0.1812504125629269,0.2912492057499055,66.02959,51.12149,171.1795,0.3985248,-0.4622529,0.7361443,19
23.34,10.21626,1.167024,-0.4715974,-0.2343339878838375,-0.1625688459196839,0.3233255781387098,60.96265,43.68087,166.6848,0.3730335,-0.4305035,0.7726656,19
23.36,10.30931,1.180681,-0.4189535,-0.1719304350214212,-0.1392511715480203,0.3484546475779153,58.42402,44.16002,167.808,0.3742653,-0.4148502,0.7847515,19
23.38,10.4011,1.362741,-0.3699119,-0.1087767940433999,-0.1154751767583624,0.3730199882901632,61.47491,42.44763,165.7757,0.3677506,-0.4342478,0.7721471,19
23.4,10.49193,1.542145,-0.3214297,-0.0482386618749635,-0.0417744564293321,0.3952729594490642,64.48912,40.29862,163.3113,0.3609483,-0.4532981,0.7589383,19
23.42,10.58593,1.226581,-0.2645192,0.0249242309420081,-0.0365403211368752,0.4190984530275415,48.36008,49.50887,173.1231,0.4036135,-0.3483866,0.8166577,19
23.44,10.67875,1.403113,-0.213325,0.0987928224270557,-0.0331408447243583,0.4424166954000318,51.48437,48.78035,172.1096,0.3983002,-0.3690318,0.8060852,19
23.46,10.77034,1.57689,-0.1628524,0.1517108025174653,-0.009459221193643,0.4530025364958404,54.59834,47.90219,170.9521,0.3926794,-0.3893848,0.7948908,19
23.48,10.91201,1.274638,-0.1162683,0.2033285052643159,0.0376877764587219,0.4638938885585075,26.30156,55.80748,175.9861,0.4624763,-0.1849799,0.8563024,19
