t,pX,pY,pZ,aX,aY,aZ,reX,reY,reZ,rtX,rtY,rtZ,ID
8.02,-41.30571,1.101702,-38.82837,2.8732618795935787,-0.0120011634518021,2.327762297082068,14.63772,356.356,163.6092,-0.01306312,-0.1305218,0.9818046,20
8.04,-41.30647,1.301531,-38.82785,2.9312114598171606,-0.0346033359191923,2.34710133064275,14.65492,356.3618,163.6321,-0.01301782,-0.1306595,0.9818144,20
8.06,-41.29903,1.155015,-38.81466,2.9859449677196235,-0.054394776256831,2.36170510084274,14.72266,358.6721,163.641,0.006852346,-0.1284495,0.9818143,20
8.08,-41.30008,1.354769,-38.81386,3.037844097666888,-0.0496412508186221,2.374504769730218,14.74787,358.6804,163.6735,0.006918044,-0.1286572,0.9818258,20
8.1,-41.26886,1.156085,-38.74383,3.0864609062352333,-0.0222634430492666,2.385184521885935,17.90697,0.5741607,165.4815,0.02457515,-0.1537577,0.9797866,20
8.12,-41.28265,1.351334,-38.72247,3.1244277745954294,-0.0406123343347409,2.382677072111816,18.55282,0.7149383,165.9315,0.02585138,-0.1592271,0.9793517,20
8.14,-41.17487,1.173872,-38.62601,3.159860121085333,-0.0348656605811303,2.378726056507678,16.73805,6.59304,167.8294,0.07197439,-0.1384576,0.9812613,20
8.16,-41.17196,1.368738,-38.59419,3.192297489608011,-0.0069423161050498,2.3730245260462235,17.70331,6.60059,167.8549,0.07281563,-0.1467419,0.979979,20
8.18,-41.08382,1.186414,-38.50959,3.2187326688198308,-0.0255020171065611,2.359695735999865,12.82967,12.08008,169.814,0.114015,-0.1013849,0.9832773,20
8.2,-41.06967,1.374948,-38.44865,3.236047680446629,-0.043143157405629,2.3396810600605225,14.71136,12.07206,169.7803,0.1152137,-0.1175242,0.9811535,20
8.22,-40.90804,1.210409,-38.3191,3.2508259615300004,-0.0370928767636291,2.318431413679578,3.671384,21.23908,173.0016,0.1857703,-0.02018404,0.9801766,20
8.24,-40.87663,1.38864,-38.22928,3.2649123307608727,-0.053189816183443,2.2961556578344293,6.505599,21.24776,173.0995,0.1870867,-0.04459049,0.9788671,20
8.26,-40.74461,1.225258,-38.13938,3.275980908777985,-0.0460936434593757,2.2728487566131363,0.9289994,26.16325,175.5064,0.2264671,0.0009826906,0.973196,20
8.28,-40.69608,1.390349,-38.02013,3.2836141706764286,-0.0176809368546203,2.2482127944447017,4.742299,26.17656,175.7752,0.2275898,-0.0319305,0.9721817,20
8.3,-40.64849,1.551381,-37.90316,3.2714634918735053,-0.0399706218196915,2.208838060569234,8.557469,26.20806,176.0471,0.2284596,-0.06482515,0.9700845,20
8.32,-40.45985,1.269774,-37.87603,3.247293299297424,-0.0626056561398006,2.1605501232660567,354.9914,32.56813,179.9916,0.2801289,0.04196215,0.9589676,20
8.34,-40.37658,1.262508,-37.85366,3.2211529548232365,-0.0612552297493602,2.111947785876421,355.7007,35.52945,180.6456,0.3050908,0.03400265,0.9515677,20
8.36,-40.31719,1.427059,-37.74985,3.1850648662884886,-0.0857546283185742,2.056467931494624,359.176,35.51378,180.9964,0.305019,0.004196006,0.9522794,20
8.38,-40.25945,1.250165,-37.76471,3.147463370559233,-0.0858525735499903,2.0010408608035384,359.446,38.24725,181.4261,0.3276352,0.0004900338,0.9447102,20
8.4,-40.19296,1.41476,-37.66157,3.1080060915931966,-0.0634535400715426,1.9454554870177256,3.03563,38.25468,181.7693,0.3271284,-0.03007984,0.9444827,20
8.42,-40.10954,1.237528,-37.65361,3.044735825388945,-0.0907229877473229,1.8742737714732345,6.205358,41.84543,182.6691,0.3553107,-0.05884779,0.932891,20
8.44,-40.03685,1.40456,-37.5537,2.973880325218732,-0.1186963470192871,1.7994544140377453,9.838666,41.89794,183.0451,0.3539657,-0.0895214,0.9309453,20
8.46,-40.01382,1.226144,-37.5738,2.9029159043905537,-0.1207690445803057,1.7255492493922011,10.34101,43.6203,183.2704,0.3674823,-0.09419387,0.9252214,20
8.48,-39.93935,1.396588,-37.47767,2.814870330844036,-0.1496806635548831,1.6410710051657151,13.93473,43.70053,183.6518,0.3656589,-0.1243033,0.9222765,20
8.5,-39.9395,1.208486,-37.52206,2.7275125936425395,-0.1518863593957412,1.5580843392803825,13.42669,45.59503,183.6813,0.3811588,-0.1200744,0.9165418,20
8.52,-39.86393,1.383007,-37.42934,2.6276602740302213,-0.182209106861808,1.468702182618114,16.9868,45.7054,184.1019,0.3789873,-0.1497615,0.9128692,20
8.54,-39.84099,1.182736,-37.4489,2.521190903221048,-0.2115875102361274,1.3762809687662925,17.38961,47.34133,184.1116,0.391643,-0.1526003,0.9069375,20
8.56,-39.76442,1.363244,-37.36052,2.416300440731036,-0.2127646315176438,1.2860210641350092,20.9113,47.48188,184.5398,0.389027,-0.1816679,0.9023635,20
8.58,-39.76873,1.167714,-37.38563,2.312909683608469,-0.1877636713702301,1.1979327230336336,20.12723,47.30866,184.2939,0.3887712,-0.1747474,0.9038833,20
8.6,-39.69208,1.352177,-37.29974,2.187265032050236,-0.218758751889135,1.0967038183042035,23.62398,47.44845,184.669,0.385855,-0.2032879,0.8987178,20
8.62,-39.71348,1.152393,-37.33813,2.0645232281724937,-0.2203644459822453,0.9987083185828912,23.05903,46.89318,184.3079,0.382698,-0.1978928,0.9012734,20
8.64,-39.63704,1.340829,-37.25429,1.9446889454867016,-0.1946406085213999,0.9040162460061154,26.53611,47.02418,184.6201,0.3794954,-0.2259323,0.8954644,20
8.66,-39.62929,1.132022,-37.26289,1.809957232452434,-0.2261454342752503,0.802528527274216,28.04941,45.79871,184.2015,0.3690776,-0.2369299,0.8965865,20
8.68,-39.55223,1.325842,-37.18226,1.6718714512872097,-0.255379876879991,0.7001334653807945,31.50906,45.87424,184.3535,0.3653122,-0.2641146,0.8897169,20
8.7,-39.55167,1.124473,-37.19592,1.538184146805719,-0.2539017587654961,0.6020998227818053,32.10707,44.65411,183.6601,0.3567234,-0.2673319,0.8918594,20
8.72,-39.47309,1.118599,-37.13447,1.405437179361928,-0.2802613901312619,0.505257516906445,37.42588,44.1757,183.0431,0.3481309,-0.3066329,0.88052,20
8.74,-39.39149,1.31728,-37.06238,1.2774800872507075,-0.2755350785794889,0.4132339858839975,40.81535,43.9599,182.7012,0.3430714,-0.331531,0.8719472,20
8.76,-39.31004,1.513027,-36.99043,1.1544729127468,-0.2418264991264548,0.3262175957812374,44.20268,43.70393,182.3226,0.3377115,-0.3561298,0.8626099,20
8.78,-39.29245,1.114948,-37.0027,1.036571766549936,-0.1811787855829698,0.2443938391622566,43.29309,45.21261,181.7616,0.352011,-0.3459902,0.8601421,20
8.8,-39.25401,1.114432,-36.97577,0.911095749502179,-0.2066029148319883,0.1588382233493872,44.6977,45.44139,181.141,0.3537174,-0.3542768,0.8545336,20
8.82,-39.17215,1.314928,-36.9071,0.7917330528099136,-0.2006472536462259,0.0794496162990849,48.02862,45.15343,180.7433,0.3482448,-0.3780443,0.8444391,20
8.84,-39.07318,1.109886,-36.83937,0.6867842678114577,-0.2229821412754794,0.0120933766773907,50.71825,44.71872,178.7314,0.348122,-0.3922603,0.8338472,20
8.86,-38.99104,1.30927,-36.77313,0.5886453474088063,-0.2423631314875792,-0.048553285647368,54.00647,44.22228,178.1048,0.3422801,-0.4150446,0.822515,20
8.88,-38.90901,1.505902,-36.70699,0.496646123785716,-0.2311860485879699,-0.1030206107351006,57.28957,43.61537,177.37,0.3361533,-0.4374725,0.810502,20
8.9,-38.80476,1.102158,-36.63666,0.4110313767027556,-0.1914693526465298,-0.1510536767487131,59.72451,42.26416,174.0355,0.3363906,-0.4475374,0.798471,20
8.92,-38.6356,1.109128,-36.50993,0.3361787246756975,-0.2039420829863854,-0.1886346912750758,62.67324,36.3166,167.8811,0.3168601,-0.4633062,0.7899473,20
8.94,-38.55426,1.297673,-36.44612,0.2679952101506124,-0.1869227252253651,-0.2192328750226835,65.79376,34.39831,165.7518,0.3107085,-0.4840449,0.775993,20
8.96,-38.47351,1.483596,-36.38278,0.2185132622413448,-0.1885033337430986,-0.2337749694377073,68.87564,31.89488,163.04,0.304308,-0.5043871,0.7614174,20
8.98,-38.3487,1.14452,-36.29486,0.1758251270657584,-0.1618684756542052,-0.2409542461889193,58.34229,34.61279,167.8824,0.3074179,-0.4353374,0.8136764,20
9.0,-38.26693,1.326417,-36.23047,0.1394841531625372,-0.1545775216016327,-0.2416160856452753,61.40417,32.89546,165.8976,0.3017238,-0.4560918,0.800665,20
9.02,-38.18605,1.505659,-36.16677,0.1108346617141826,-0.1197856011474502,-0.2339344368407783,64.43002,30.74629,163.4847,0.2957936,-0.4764804,0.7870259,20
9.04,-38.00528,1.212234,-36.05591,0.1002327408710614,-0.1026850560558196,-0.2157823646375689,42.97412,42.54836,173.9958,0.3550278,-0.3231798,0.8589408,20
9.06,-37.91444,1.227703,-36.00282,0.0994965441788382,-0.089364475625418,-0.1877599333253492,37.88354,44.22008,174.7182,0.3694834,-0.2840137,0.8697336,20
9.08,-37.81945,1.397715,-35.92917,0.1016881211320788,-0.076353726977738,-0.1582543239980021,41.41373,43.79822,174.0574,0.3654167,-0.3095474,0.8599022,20
9.1,-37.72604,1.564188,-35.85676,0.1148643636563715,-0.0678504583470475,-0.1179824138829577,44.9393,43.29369,173.3204,0.360996,-0.3347777,0.8492392,20
9.12,-37.68337,1.256773,-35.86181,0.1359720449556247,-0.0527354012959396,-0.0779355905255823,20.00488,49.50184,176.5896,0.4168218,-0.1453952,0.8917732,20
9.14,-37.58507,1.424278,-35.78769,0.1706305170849607,-0.0417934404807841,-0.0300679274029311,23.60133,49.41328,176.3513,0.4148459,-0.1726672,0.8860875,20
9.16,-37.48852,1.588071,-35.71489,0.1955223786297013,-0.0282846122992786,0.0100578727270317,27.19665,49.30508,176.0991,0.4124597,-0.1997616,0.8795273,20
9.18,-37.41196,1.275599,-35.68298,0.2318144233110617,-0.019333529269787,0.0564957797959051,358.3513,54.95911,178.1936,0.4611258,0.02003492,0.8870781,20
9.2,-37.35749,1.27911,-35.64627,0.2668226488623446,0.0380167951687116,0.1011688053508672,354.4049,55.86729,178.4293,0.4672555,0.0495294,0.8826684,20
9.22,-37.2579,1.443717,-35.57261,0.3018378911061461,0.0216661060164148,0.1397583344921962,357.9893,55.85752,178.5766,0.4680726,0.02131811,0.8834288,20
9.24,-37.14407,1.293721,-35.49691,0.323826847568875,0.0280335295091923,0.1687894072168489,352.8458,56.80363,179.2887,0.4743756,0.05782729,0.878087,20
9.26,-37.04477,1.45505,-35.42065,0.3525841579086615,0.0317293761069876,0.1948332417544858,356.4382,56.77821,179.5608,0.475119,0.02916124,0.8793641,20
9.28,-36.94751,1.612551,-35.34596,0.3728895142581301,0.0805420808783217,0.2171542762565375,0.02961377,56.76989,179.8308,0.4753928,0.0004747212,0.8797724,20
9.3,-36.96523,1.269609,-35.36578,0.3798755235386828,0.0535691753353389,0.2164203850490356,354.1005,57.40793,180.0138,0.4796533,0.04507854,0.8759478,20
9.32,-36.93437,1.261699,-35.3498,0.3916525656060532,0.0255487532474429,0.2074637209645988,355.8086,57.51876,180.5601,0.4809615,0.02970759,0.8759652,20
9.34,-36.83583,1.425228,-35.27623,0.3867946677660132,0.0595327165495418,0.2027992071117159,359.3921,57.50756,180.8275,0.4810609,0.001177031,0.8766415,20
9.36,-36.79311,1.245838,-35.24889,0.3664277924148456,0.0443846513146907,0.1935907885542418,1.447903,58.05126,181.5884,0.4849624,-0.01777168,0.874334,20
9.38,-36.69358,1.410772,-35.17519,0.3387899529598437,0.0049335430113972,0.1712813585821253,5.08361,58.06789,181.8801,0.4841488,-0.04672447,0.8737078,20
9.4,-36.59597,1.571955,-35.1029,0.3143070343652825,0.0156706756909712,0.1600305804489217,8.718629,58.10334,182.175,0.482845,-0.07562535,0.8721968,20
9.42,-36.65342,1.231933,-35.13991,0.278958026306265,-0.0257004102754222,0.1346931417935204,8.295422,58.1687,182.8767,0.4830843,-0.07535745,0.872224,20
9.44,-36.60523,1.217317,-35.09906,0.2431526779244848,-0.0157460281153333,0.1170355065268387,11.91502,58.28395,183.3488,0.4814898,-0.1047662,0.8698046,20
9.46,-36.5069,1.389868,-35.02803,0.2079636778708211,-0.0065625880408843,0.0933275486379576,15.52444,58.34811,183.6191,0.4790331,-0.1331216,0.8667902,20
9.48,-36.52843,1.19955,-35.03852,0.1577635933277923,-0.0259508451989837,0.065673226381052,14.78016,58.40107,183.6619,0.479981,-0.1276789,0.8672297,20
9.5,-36.43137,1.376242,-34.9689,0.097927959564549,-0.0700191381790529,0.0256130344680851,18.36403,58.47742,183.9294,0.4771334,-0.1556903,0.8635771,20
9.52,-36.42753,1.175597,-34.95549,0.0513091134994709,-0.0595322334348954,0.0016008091450636,18.76324,57.41204,184.067,0.4685194,-0.1597005,0.8675975,20
9.54,-36.38779,1.168162,-34.92221,-0.0075518254214257,-0.1037394079216196,-0.0346144186027599,20.15809,56.58709,184.0745,0.4609011,-0.1705911,0.8693427,20
9.56,-36.2936,1.353008,-34.85484,-0.0559436029201441,-0.0904102898299142,-0.0579630121714744,23.69007,56.64162,184.2204,0.4573377,-0.1976702,0.8645617,20
9.58,-36.20028,1.534552,-34.78809,-0.1017948870777178,-0.0769973935431398,-0.0842301009020367,27.2207,56.70773,184.3742,0.4533402,-0.2245512,0.8589605,20
9.6,-36.27547,1.145381,-34.83047,-0.1558233064816079,-0.0923036080023931,-0.1112593095339482,24.61707,54.32003,184.054,0.4389967,-0.205326,0.8721817,20
9.62,-36.1834,1.336355,-34.76446,-0.2168711771168006,-0.1329632970438294,-0.1472430866666618,28.11141,54.31874,184.0511,0.4348863,-0.2316026,0.8664806,20
9.64,-36.09187,1.524163,-34.69884,-0.2590641548383088,-0.1146900862276014,-0.1664194648984365,31.60449,54.3172,184.048,0.4303732,-0.2576547,0.8599766,20
9.66,-36.12701,1.124787,-34.70565,-0.305162023048946,-0.1524513960821737,-0.1915928337487624,32.11985,50.43586,183.5326,0.4015256,-0.2627779,0.8726062,20
9.68,-36.08892,1.121835,-34.67622,-0.3359986107054205,-0.1293385153195108,-0.2039690688022961,34.73859,49.82087,183.2236,0.3942195,-0.2819566,0.8688045,20
9.7,-35.99998,1.319879,-34.61275,-0.3616062228658379,-0.1060496799825216,-0.2165435369858448,38.13333,49.61158,182.8714,0.3889732,-0.3063701,0.8611006,20
9.72,-35.93649,1.115594,-34.57293,-0.3810368007037619,-0.1107103327696732,-0.2242698570193626,41.8826,49.30431,182.3421,0.3828371,-0.3327292,0.8516936,20
9.74,-35.84839,1.315616,-34.51017,-0.3947601481955729,-0.0827272003330707,-0.2288853422686063,45.24993,49.00261,181.9045,0.3769282,-0.3563696,0.8424598,20
9.76,-35.76038,1.512741,-34.44747,-0.4034480686724109,-0.0548395077659853,-0.2321824775218548,48.61435,48.64254,181.4118,0.3706929,-0.3796924,0.8324955,20
9.78,-35.6726,1.706981,-34.38493,-0.4137745864755446,-0.1148567570922878,-0.2392544699866539,51.97535,48.20931,180.849,0.3641369,-0.402678,0.8218095,20
9.8,-35.67598,1.112933,-34.38708,-0.4096376362299905,-0.0868685427368717,-0.2328515418583023,48.09881,48.08516,179.5232,0.3735949,-0.3706172,0.8332703,20
9.82,-35.58956,1.313366,-34.32472,-0.3938492838367624,-0.0291529859156276,-0.218399188284879,51.41521,47.65111,178.9548,0.3675741,-0.3934757,0.8226017,20
9.84,-35.44606,1.103701,-34.22251,-0.3585633531877823,-0.0580509955909517,-0.1917171457231248,56.55548,46.00487,176.1654,0.3585335,-0.4243199,0.8039912,20
9.86,-35.35467,1.102224,-34.15728,-0.3208005112268544,-0.0536148374691422,-0.1630054267499643,59.71455,44.49201,173.9973,0.3520103,-0.442962,0.7917453,20
9.88,-35.26964,1.295929,-34.09747,-0.2795184064315497,-0.0487672999169872,-0.1332286800861872,62.93528,43.35212,172.6986,0.3452881,-0.4640594,0.7787362,20
9.9,-35.18499,1.486977,-34.03793,-0.2349724661150762,-0.0468261150503572,-0.1026204536439028,66.13973,41.88955,171.0793,0.3382848,-0.484767,0.7650954,20
9.92,-35.07161,1.118172,-33.95213,-0.1874450020608762,-0.0352956902774407,-0.0691338771164913,61.79906,36.71712,167.2144,0.3228482,-0.4542749,0.7913238,20
9.94,-34.9878,1.30459,-33.89153,-0.1504199211975843,0.0043287434394923,-0.0442079122184422,64.87476,34.67511,164.9303,0.3164737,-0.4746068,0.7777165,20
9.96,-34.8214,1.161968,-33.76902,-0.1117989848606697,0.0428354051850493,-0.0192333907800152,55.73647,36.41045,168.7753,0.3182909,-0.4149021,0.821466,20
9.98,-34.73691,1.341717,-33.70664,-0.0605634823841043,0.0106297628903809,0.0116318487993476,58.8007,34.86759,166.9418,0.3125809,-0.4356412,0.8090761,20
10.0,-34.65837,1.195741,-33.65263,-0.0163914649539185,0.0310287250881419,0.0354124153197084,48.25084,41.85359,173.1953,0.3480596,-0.3617554,0.8422856,20
10.02,-34.57357,1.372098,-33.58867,0.029731067916134,0.0505539085031152,0.0596971042112235,51.38863,41.09653,172.2048,0.3431548,-0.3835462,0.8314922,20
10.04,-34.41848,1.23923,-33.5121,0.0801735350640475,0.0227130655096196,0.0820543967651357,31.99852,46.90245,175.3152,0.392568,-0.2370114,0.876644,20
10.06,-34.32093,1.408533,-33.44098,0.1170751555516096,0.0616584596207042,0.097436003743625,35.53288,46.60553,174.7812,0.3890916,-0.2628052,0.8682237,20
10.08,-34.2663,1.257304,-33.41789,0.1525255389680078,0.1216658399989494,0.1136490570877999,19.96708,50.16097,176.5724,0.4219815,-0.1444636,0.8894018,20
10.1,-34.16841,1.425497,-33.3466,0.1761510502912653,0.1096909419380417,0.1186218093601532,23.50131,50.06684,176.3183,0.4199927,-0.1711189,0.883847,20
10.12,-34.06059,1.271958,-33.28181,0.2020009585259234,0.0736002474602549,0.1240018921999546,2.296237,54.42493,177.9466,0.4574455,-0.009624309,0.8888316,20
10.14,-33.96101,1.438472,-33.21012,0.2333713674114754,0.1052036470349359,0.1388645106719357,5.860641,54.42569,177.9574,0.4574372,-0.03731555,0.8875934,20
10.16,-33.90099,1.279178,-33.16981,0.2574850691871173,0.089677302909947,0.1481590452082146,354.3978,56.15747,178.4239,0.4694846,0.04957945,0.8814805,20
10.18,-33.80107,1.443862,-33.09692,0.2788470794600703,0.0718638796772749,0.1558348570498067,357.9764,56.14803,178.5659,0.4703065,0.02146782,0.8822378,20
10.2,-33.70307,1.604805,-33.02541,0.299706683410184,0.1198260607326182,0.1674102741574854,1.55411,56.14745,178.7072,0.4706691,-0.00665675,0.8821335,20
10.22,-33.67201,1.293749,-33.00665,0.3097339002951997,0.1169711714173011,0.1720638988574547,352.8434,56.94632,179.2843,0.4754657,0.05783378,0.8774956,20
10.24,-33.58284,1.282679,-32.94138,0.3160625174516047,0.113420522634547,0.1748523127645045,353.7714,57.26588,179.7693,0.4783919,0.04864713,0.876462,20
10.26,-33.48536,1.444916,-32.86638,0.3158254483420042,0.1530184326539903,0.1748754678498514,357.3165,57.24256,180.0694,0.4788989,0.02026454,0.8775576,20
10.28,-33.38985,1.603459,-32.79291,0.2962946397500134,0.1179452423823638,0.1589943520397945,0.8606227,57.23781,180.3676,0.4789444,-0.008128962,0.8778073,20
10.3,-33.41236,1.254558,-32.82153,0.2730405050846776,0.0820650753251092,0.1406482044610255,357.4505,57.61601,181.1473,0.481928,0.01466905,0.8758714,20
10.32,-33.31499,1.418963,-32.7484,0.2625663223151533,0.1171086722033587,0.1334024721778899,1.010514,57.61223,181.4291,0.4816947,-0.01373527,0.8762062,20
10.34,-33.21952,1.579747,-32.67669,0.2439004568708083,0.1030748500318772,0.1224310646430772,4.56947,57.62598,181.7114,0.4809939,-0.04211815,0.8756903,20
10.36,-33.21929,1.23771,-32.67279,0.213885681549752,0.0651065561436648,0.1039511706799363,6.199046,58.14518,182.5957,0.4840117,-0.05823556,0.8730975,20
10.38,-33.18969,1.232297,-32.64767,0.1894476363745756,0.0781529259434082,0.0905851501829824,8.249413,58.09593,182.862,0.4825627,-0.07495459,0.8725495,20
10.4,-33.09128,1.40147,-32.57587,0.161842409546892,0.0901483168588563,0.0752368215179593,11.84842,58.1432,183.1328,0.4806607,-0.103387,0.8703915,20
10.42,-33.0819,1.20873,-32.55953,0.1055200363044619,0.0237119356422067,0.0400489086661539,13.44328,58.34884,183.548,0.4807235,-0.1171355,0.8684891,20
10.44,-32.98489,1.38346,-32.48909,0.0702167386988144,0.0322040599831391,0.0196748692633508,17.02326,58.42345,183.8319,0.478074,-0.1452514,0.8651413,20
10.46,-32.88927,1.554665,-32.41966,0.0253736221770064,0.0149076905689271,-0.0067100313626333,20.60182,58.51859,184.1268,0.4749563,-0.1732169,0.8609456,20
10.48,-32.95526,1.183135,-32.45856,-0.0202882472652738,-0.0002058410583646,-0.0335886741098629,17.41634,57.83258,183.9104,0.4731576,-0.1487559,0.8672308,20
10.5,-32.93982,1.175738,-32.44377,-0.0672173870667509,-0.0155662952362787,-0.060757708546141,18.7411,57.31451,184.0496,0.4678261,-0.1595032,0.868013,20
10.52,-32.84489,1.358609,-32.37613,-0.1137831178831105,-0.0285051192728809,-0.0875846102540416,22.28164,57.37984,184.236,0.4644364,-0.1867915,0.8635397,20
10.54,-32.8525,1.152964,-32.36765,-0.1601589833394774,-0.0414867625257266,-0.1138591825999055,23.08942,54.95045,184.0538,0.4454682,-0.1934364,0.8719831,20
10.56,-32.75964,1.341881,-32.30092,-0.1971131913245809,-0.0232306654140163,-0.1341426655455864,26.60373,54.96938,184.0988,0.4415432,-0.2200441,0.8665788,20
10.58,-32.66745,1.527576,-32.23466,-0.2327983726353668,-0.004600707872289,-0.1535782150399836,30.11651,54.99206,184.1466,0.4372047,-0.246433,0.8603624,20
10.6,-32.73518,1.132679,-32.27033,-0.2877888919614335,-0.0711255576730886,-0.1853331446734634,28.05014,52.31572,183.9444,0.4199647,-0.2321166,0.8739867,20
10.62,-32.72174,1.128745,-32.25608,-0.3175242769791446,-0.0802359510653705,-0.2003017451886291,30.04372,51.32364,183.6972,0.4105057,-0.2469939,0.8737314,20
10.64,-32.63225,1.32461,-32.19146,-0.3443617045825271,-0.0865851487207164,-0.2135543771336974,33.46969,51.21641,183.4936,0.4058022,-0.2721549,0.866971,20
10.66,-32.60435,1.118726,-32.16308,-0.3685885233238282,-0.0934904858278135,-0.2252915954015311,37.41926,49.13819,182.9964,0.3860564,-0.3019267,0.8645942,20
10.68,-32.5159,1.317501,-32.09915,-0.3830649572607596,-0.1001863685799942,-0.2344079993320433,40.81316,48.89047,182.604,0.3805401,-0.3261539,0.8562835,20
10.7,-32.4276,1.513328,-32.03533,-0.3859116165697878,-0.0746144313748519,-0.2359575951825281,44.20467,48.59661,182.1693,0.3746889,-0.3500864,0.8472182,20
10.72,-32.41229,1.114439,-32.03327,-0.3846224848011141,-0.0490076966008591,-0.2349658058265591,44.70238,49.77977,181.1436,0.3857934,-0.3488287,0.8405225,20
10.74,-32.32519,1.31492,-31.97076,-0.3768186932854771,-0.0512503956851594,-0.229029518594249,48.04465,49.49131,180.7453,0.3799229,-0.3721901,0.8306059,20
10.76,-32.23816,1.512553,-31.90831,-0.3672815499652246,-0.0801953084802659,-0.2222578979712599,51.38446,49.14523,180.2918,0.3737287,-0.3952266,0.819981,20
10.78,-32.19685,1.109927,-31.88005,-0.3542279504876604,-0.1087044569108151,-0.2133171203983694,50.72176,48.16603,178.7074,0.3731217,-0.3868512,0.822948,20
10.8,-32.11051,1.309348,-31.8192,-0.3379118922684605,-0.140186805516892,-0.2023842558383899,54.01134,47.64819,178.0538,0.3668889,-0.4092146,0.8118102,20
10.82,-32.02428,1.50601,-31.75844,-0.3007621952884971,-0.1435480311882898,-0.1768579499239595,57.29556,47.01552,177.2878,0.3603511,-0.4312272,0.7999985,20
10.84,-31.8376,1.10452,-31.62477,-0.2602082466897641,-0.1462872084755213,-0.1494461841900012,61.24194,41.96836,171.1522,0.343939,-0.4503878,0.7870195,20
10.86,-31.74562,1.109135,-31.55827,-0.2128775901518138,-0.1408745716093211,-0.1168790771080825,62.66445,38.59214,167.8512,0.3326096,-0.4581637,0.7834727,20
10.88,-31.66132,1.297767,-31.49836,-0.164666049980124,-0.1056706340539435,-0.0839132308375605,65.7784,36.62183,165.6639,0.3260831,-0.4785727,0.7696856,20
10.9,-31.57764,1.483774,-31.43888,-0.1136640928455112,-0.1189323140197698,-0.0490593476765313,68.85166,34.05259,162.8804,0.3192951,-0.4985896,0.7552816,20
10.92,-31.47112,1.144498,-31.35917,-0.0612735579610754,-0.1338422923391325,-0.0131336411710094,58.34818,36.37658,167.8505,0.3200218,-0.4316666,0.8087569,20
10.94,-31.38709,1.326447,-31.29774,-0.0016131436043989,-0.1134055946430915,0.0249663961313957,61.40483,34.6302,165.8322,0.3140673,-0.452161,0.7958592,20
10.96,-31.30396,1.505741,-31.23698,0.0591462390157406,-0.1160318293967791,0.0616529348594916,64.42424,32.44556,163.3794,0.3078668,-0.4722925,0.7823375,20
10.98,-31.14223,1.212202,-31.13408,0.1093469686832362,-0.072297310713612,0.0903045535907627,42.99321,43.79026,173.975,0.3643585,-0.3213093,0.8549505,20
11.0,-31.06699,1.227618,-31.09307,0.1600197615478884,-0.0312620409102177,0.1189936546539005,37.91059,45.36406,174.6968,0.3781806,-0.2825144,0.8658963,20
11.02,-30.97024,1.397676,-31.02176,0.2083272710537964,-0.0130507967418254,0.1415977086058233,41.43857,44.92866,174.0151,0.373976,-0.3078398,0.8561145,20
11.04,-30.85559,1.257486,-30.96639,0.2572098700504122,0.004016789599903,0.1643162511625284,19.94186,50.38602,176.5828,0.4237247,-0.1441087,0.8886178,20
11.06,-30.7582,1.425905,-30.8957,0.2894081638375212,0.0172480934555909,0.1793126742771496,23.45341,50.29605,176.3395,0.4217524,-0.1705959,0.883109,20
11.08,-30.66248,1.59076,-30.82623,0.3194468610253147,0.0298255367510332,0.1929884479081676,26.96553,50.18661,176.0827,0.4193813,-0.1969289,0.8767657,20
11.1,-30.63311,1.272017,-30.81911,0.3530411553490729,0.0864107648055351,0.2120093065902866,2.285869,54.64081,177.9489,0.4591184,-0.009505958,0.8879711,20
11.12,-30.50713,1.279176,-30.73216,0.3794241625818388,0.072273693417072,0.2264052498967768,354.4128,56.37908,178.4237,0.471193,0.04944326,0.8805758,20
11.14,-30.407,1.44388,-30.65967,0.401320085754969,0.1035327921139205,0.2406343587014121,357.9898,56.36963,178.5663,0.4720141,0.02136815,0.8813279,20
11.16,-30.3383,1.291344,-30.61181,0.4191241659916156,0.1315912223144505,0.253110369580622,352.2218,57.02332,179.0823,0.4757458,0.06341116,0.8769277,20
11.18,-30.23815,1.453165,-30.53622,0.4262573536107776,0.1337404982072023,0.2577503507117971,355.8268,56.99656,179.3392,0.4766236,0.03474766,0.8783343,20
11.2,-30.14005,1.611141,-30.46218,0.4293617782736865,0.1349833946841728,0.2607596816277437,359.4307,56.98603,179.5936,0.4770273,0.006057844,0.8788674,20
11.22,-30.13659,1.269797,-30.45944,0.4226155685299142,0.0832546547056614,0.2555325027133519,354.0904,57.15438,179.9884,0.4777017,0.04531687,0.8770084,20
11.24,-30.03999,1.433302,-30.38559,0.4164617544049283,0.0757627339259203,0.2521175855506024,357.6188,57.13406,180.2693,0.4781248,0.01712532,0.8780428,20
11.26,-29.9453,1.5932,-30.3132,0.4080657763147819,0.094095550131584,0.2479908553447156,1.145701,57.13104,180.5488,0.4780919,-0.01107085,0.8782397,20
11.28,-29.95203,1.250262,-30.33038,0.3823036315680368,0.0632286510487575,0.2313900847593775,359.4416,57.61848,181.3626,0.4819061,-0.001460214,0.8761289,20
11.3,-29.85371,1.414911,-30.25671,0.35328817548214,0.0317712675605508,0.2126348254527381,3.040854,57.62458,181.644,0.4813889,-0.03015769,0.8759883,20
11.32,-29.75729,1.575869,-30.18446,0.3211065024319031,0.0249200184436336,0.1943053465882136,6.639565,57.64846,181.927,0.4803941,-0.05882015,0.8749785,20
11.34,-29.76159,1.231963,-30.18217,0.2792380394576694,-0.0072494507876987,0.1699360812779025,8.282819,57.99302,182.8823,0.481749,-0.07530562,0.87297,20
11.36,-29.72347,1.226353,-30.15067,0.2349584293150495,-0.0390615203727273,0.1439862532854068,10.34389,57.94431,183.1581,0.4800561,-0.09212712,0.8721657,20
11.38,-29.62511,1.396934,-30.07872,0.1852456073760433,-0.0492985386776426,0.114542838070069,13.95471,58.00085,183.4266,0.477834,-0.1205861,0.8695117,20
11.4,-29.52837,1.563879,-30.00796,0.1437497333454658,-0.0319780613986177,0.0908655120278978,17.56418,58.07613,183.7036,0.4751359,-0.1489166,0.8659909,20
11.42,-29.61108,1.199578,-30.06244,0.0811753431251438,-0.0670331110783437,0.0530386699490668,14.77849,58.28316,183.6555,0.4790969,-0.1276759,0.8677227,20
11.44,-29.51406,1.376287,-29.99279,0.022623440247834,-0.0748088944248099,0.0180768933601966,18.36203,58.35769,183.9167,0.47625,-0.1556729,0.864072,20
11.46,-29.52734,1.175673,-29.99207,-0.0366268805580953,-0.0804059982528416,-0.0173213951836768,18.75246,57.31146,184.0575,0.4677813,-0.1596222,0.8680164,20
11.48,-29.43216,1.358429,-29.92394,-0.113322574399358,-0.1408007584884314,-0.0641734755944911,22.30757,57.37992,184.2527,0.4643816,-0.1870528,0.8635138,20
11.5,-29.46408,1.160703,-29.93855,-0.166378924865957,-0.1194291210391341,-0.0951666845669736,21.5899,55.7072,184.1049,0.452721,-0.1819264,0.8710753,20
11.52,-29.37045,1.347624,-29.87139,-0.2250908605940886,-0.1246708118272902,-0.1298099221631989,25.11785,55.74395,184.1976,0.448966,-0.2088014,0.8659872,20
11.54,-29.37386,1.138969,-29.8602,-0.288230420124,-0.1560407127522761,-0.1664792969819046,26.32643,53.27458,183.974,0.4292406,-0.2185699,0.8733934,20
11.56,-29.28239,1.331621,-29.79412,-0.3346353418840513,-0.1276590909521744,-0.1932992111263964,29.81709,53.24549,183.9122,0.4249264,-0.2446463,0.8673149,20
11.58,-29.19139,1.521131,-29.72838,-0.3908484209304115,-0.1549382521635553,-0.2267937004953815,33.30609,53.21085,183.846,0.4202203,-0.270484,0.8604351,20
11.6,-29.24413,1.124815,-29.75451,-0.4445752767684929,-0.1806678924034228,-0.2588135972309624,32.1041,50.39899,183.533,0.401264,-0.2626895,0.8727683,20
11.62,-29.16642,1.11874,-29.69417,-0.4843918703638694,-0.1777324131616092,-0.2835933424812733,37.42177,49.19027,182.9879,0.3864684,-0.3018663,0.8644043,20
11.64,-29.07783,1.317541,-29.63054,-0.509356914555342,-0.1712787725091376,-0.2995710222024397,40.81294,48.93679,182.5863,0.3809367,-0.3260431,0.856111,20
11.66,-28.9894,1.513397,-29.56703,-0.5298673827924101,-0.1626112395079789,-0.3128552121291665,44.2016,48.63614,182.1416,0.3750704,-0.3499253,0.8470643,20
11.68,-28.98248,1.11504,-29.57088,-0.54451886050443,-0.1517032916600803,-0.3237800164885231,43.28576,49.22156,181.7233,0.3820059,-0.3410991,0.8472772,20
11.7,-28.89494,1.315336,-29.50816,-0.55432618504042,-0.1388918724256371,-0.3317851990741696,46.63911,48.91019,181.2829,0.3761045,-0.3645782,0.8377083,20
11.72,-28.80748,1.512759,-29.44549,-0.5665431129011309,-0.1844131315475533,-0.3423064125319266,49.98962,48.5377,180.7843,0.3698801,-0.387736,0.8274188,20
11.74,-28.72812,1.109945,-29.38946,-0.5554286350912756,-0.1710508334959315,-0.335357027987532,50.7163,47.63976,178.7119,0.3693308,-0.3876677,0.8246789,20
11.76,-28.65646,1.107147,-29.33857,-0.5397461199522926,-0.1566170800691889,-0.3256920737708006,53.321,47.0037,177.6608,0.3647058,-0.4041218,0.8157246,20
11.78,-28.57122,1.305575,-29.27762,-0.5165628830106694,-0.1994387728038547,-0.3110211343753484,56.58427,46.37064,176.8879,0.3583786,-0.4261132,0.8040608,20
11.8,-28.48613,1.50129,-29.21679,-0.4827719268162624,-0.1549258867636779,-0.2891041045798648,59.84074,45.58928,175.969,0.3517574,-0.4477452,0.7917375,20
11.82,-28.37161,1.104546,-29.13418,-0.4442579406375313,-0.1636695109547675,-0.2637355157506706,61.22612,41.62473,171.1593,0.3415661,-0.4510252,0.7881308,20
11.84,-28.28714,1.295747,-29.07445,-0.3921873583651458,-0.1966533008528896,-0.2286543551503483,64.39375,40.1019,169.4479,0.3349292,-0.4717347,0.7747648,20
11.86,-28.11663,1.129007,-28.94819,-0.3523614811458082,-0.1441297633192373,-0.2025525862070041,60.93959,35.47729,166.7206,0.3166817,-0.4493729,0.7975491,20
11.88,-28.03279,1.313206,-28.88723,-0.310306208799636,-0.1117369133546294,-0.1755539888601602,63.98549,33.40295,164.3821,0.3104244,-0.4696395,0.784117,20
11.9,-27.94034,1.161871,-28.82015,-0.2665296860874124,-0.079724909841313,-0.1473495896081735,55.74743,36.56329,168.7993,0.3192932,-0.4147466,0.8210437,20
11.92,-27.85623,1.34166,-28.75776,-0.2222349407933599,-0.0965353701277748,-0.1212434247369351,58.8079,35.04853,166.9994,0.3136359,-0.4354713,0.8086715,20
11.94,-27.69858,1.211906,-28.65864,-0.1721923163139198,-0.0593350603480824,-0.0950574700478346,43.04307,43.6476,173.9522,0.3633185,-0.3218415,0.8552114,20
11.96,-27.60831,1.227538,-28.60674,-0.1198505932781155,-0.023587244989731,-0.0674425749203755,37.92954,45.22774,174.6727,0.3771956,-0.282777,0.8662584,20
11.98,-27.51115,1.397556,-28.5355,-0.0713035926614296,-0.0372788962222434,-0.0453292036746759,41.46347,44.77588,173.9656,0.3729479,-0.3081078,0.8564595,20
12.0,-27.41561,1.564017,-28.46545,-0.0322877219138884,0.0154163878407133,-0.0280613880867233,44.99227,44.23594,173.1776,0.3683389,-0.3331378,0.8458273,20
12.02,-27.34431,1.263374,-28.44584,0.0041999848236651,0.0438068096356087,-0.0119982623566556,13.87184,51.56027,177.1666,0.4342926,-0.09803275,0.8923081,20
12.04,-27.24526,1.430742,-28.37362,0.0400790067635283,0.0711310292363239,0.0036396286740068,17.44485,51.51902,177.0138,0.4329813,-0.1253384,0.8881905,20
12.06,-27.19134,1.271878,-28.34144,0.0719307033551928,0.1405046208216397,0.0206892165568213,2.312172,54.29783,177.9462,0.4564604,-0.00977427,0.8893347,20
12.08,-27.0917,1.438297,-28.26937,0.0946409389704445,0.1378051738638105,0.0307276010348789,5.885059,54.29861,177.9571,0.4564511,-0.03754719,0.8880886,20
12.1,-26.99387,1.601016,-28.19862,0.1158151049306979,0.1325846168566523,0.0403392352422762,9.456927,54.30008,177.9681,0.4559983,-0.0652758,0.88598,20
12.12,-26.92578,1.291391,-28.14783,0.1402541610578902,0.1498681484650966,0.0549851587152367,352.2215,56.17015,179.0659,0.4691945,0.06366774,0.8804489,20
12.14,-26.8265,1.453272,-28.07123,0.1582585700081997,0.189176397336816,0.0669582637927455,355.825,56.145,179.3073,0.4700733,0.0349828,0.8818549,20
12.16,-26.72926,1.611312,-27.99619,0.1726899351892412,0.224916024754726,0.0776611393344328,359.4275,56.13509,179.5464,0.4704852,0.006271081,0.882385,20
12.18,-26.71726,1.282617,-27.99482,0.1710894970186154,0.2298789491168374,0.0760407031617398,353.7801,56.75258,179.7712,0.4744641,0.04868067,0.8785994,20
12.2,-26.62023,1.444727,-27.9187,0.1662697352023565,0.2342587637973345,0.0728241210808859,357.3349,56.72912,180.0741,0.4749647,0.02015645,0.8796974,20
12.22,-26.56307,1.254558,-27.88793,0.1467531304864748,0.1871451829932227,0.0589732505569613,357.4456,57.1954,181.1472,0.4787097,0.01477828,0.8776335,20
12.24,-26.50223,1.24979,-27.84202,0.138518446366985,0.2123592644242098,0.054308295483469,359.4866,57.40621,181.3671,0.4802789,-0.001800004,0.8770233,20
12.26,-26.40284,1.413844,-27.76691,0.1276341340636775,0.2351857083764305,0.0481437986797215,3.137588,57.41278,181.6538,0.4797448,-0.03093897,0.8768624,20
12.28,-26.39878,1.240293,-27.76236,0.0946546810640933,0.1826000694298948,0.0259970668734514,4.049369,57.68551,182.0645,0.4814706,-0.03962752,0.8755652,20
12.3,-26.29935,1.406241,-27.68775,0.0749437953553253,0.2034053766882059,0.0160425322994748,7.708409,57.71576,182.3596,0.4802329,-0.06877308,0.8743216,20
12.32,-26.32121,1.232027,-27.70035,0.0342376727727318,0.1719747768321028,-0.0077047507669343,8.27475,57.74482,182.8726,0.4798675,-0.07523154,0.8740138,20
12.34,-26.27329,1.217379,-27.65944,-0.0079308878868893,0.1409081951882155,-0.0322323534415396,11.90328,57.88156,183.3504,0.4784386,-0.1047717,0.8714981,20
12.36,-26.17556,1.38993,-27.58768,-0.0371477581747092,0.182505326346222,-0.0475939221512327,15.51048,57.94632,183.6236,0.4759969,-0.133169,0.8684783,20
12.38,-26.19699,1.19961,-27.5988,-0.0818981995238501,0.1708611705828427,-0.0739123681020723,14.76987,58.02365,183.6644,0.4771274,-0.1277264,0.8688152,20
12.4,-26.1005,1.376299,-27.52849,-0.1273484492890002,0.1608660545949447,-0.1004840695326274,18.35142,58.10091,183.9353,0.4742972,-0.155778,0.8651561,20
12.42,-26.1391,1.183121,-27.54989,-0.1932331445546555,0.0957465257088733,-0.1399847646050407,17.41357,57.51657,183.923,0.4707502,-0.1489068,0.8685399,20
12.44,-26.09938,1.168153,-27.51279,-0.2328669700160111,0.1105869943930926,-0.1608427090516797,20.15863,56.22873,184.0819,0.4581687,-0.1707871,0.8707827,20
12.46,-26.00552,1.352921,-27.44448,-0.2722253581678262,0.1253260647592959,-0.1810407459884677,23.69894,56.28636,184.2361,0.4546181,-0.1980014,0.8659717,20
12.48,-26.02838,1.152938,-27.4528,-0.3165374181573814,0.1120372128872431,-0.2053339140259833,23.08935,54.6981,184.0701,0.4435195,-0.193634,0.8729709,20
12.5,-25.93597,1.341783,-27.38515,-0.3591414661121677,0.101042804994141,-0.2280510164044189,26.60912,54.72429,184.1324,0.4396179,-0.2203738,0.8675343,20
12.52,-25.97127,1.138993,-27.40292,-0.3908566910327096,0.0896959287588291,-0.2430295319601811,26.30755,53.01954,183.9787,0.4273085,-0.2186041,0.8743808,20
12.54,-25.92319,1.128728,-27.35941,-0.4249290602913183,0.0526063987607124,-0.2596559807272802,30.04436,51.10631,183.7095,0.4088205,-0.2472016,0.8745161,20
12.56,-25.83386,1.324526,-27.29395,-0.4421079352319537,0.0758991071577666,-0.2662564437433055,33.4824,51.00557,183.5182,0.4041311,-0.2725172,0.8677097,20
12.58,-25.82918,1.121796,-27.28519,-0.4658760379131923,0.0428463711874228,-0.2785944605261394,34.73801,49.55283,183.2431,0.3921392,-0.2822551,0.8697426,20
12.6,-25.74067,1.319776,-27.22074,-0.4863163280872822,0.0108171897141645,-0.2888348589235026,38.14135,49.35568,182.9113,0.3869314,-0.3068219,0.8619869,20
12.62,-25.73839,1.117179,-27.22175,-0.4929715213050754,0.0076021005867471,-0.2922551778257549,39.6281,49.00804,182.6592,0.3829405,-0.3174096,0.8590938,20
12.64,-25.6558,1.115031,-27.1671,-0.4929076993889105,0.0081472879153029,-0.2920572368437817,43.27493,49.0193,181.7283,0.380511,-0.341284,0.8479874,20
12.66,-25.56874,1.31533,-27.10416,-0.4884866159327719,0.0103081314982326,-0.2890269166787189,46.62034,48.71119,181.2923,0.3746475,-0.3647402,0.8384313,20
12.68,-25.53486,1.113737,-27.0804,-0.484611904932299,-0.046151733448855,-0.2871396337185388,46.38092,48.49725,180.35,0.3764146,-0.3601969,0.8385916,20
12.7,-25.44869,1.314253,-27.01792,-0.4645831065070465,-0.0150140488066041,-0.2727255618145134,49.69503,48.12659,179.8517,0.3704964,-0.3832081,0.8283473,20
12.72,-25.41187,1.109973,-26.99243,-0.4421574821627958,-0.041601039344608,-0.2571582249551758,50.68565,47.51912,178.7078,0.3685198,-0.3876245,0.8251668,20
12.74,-25.27126,1.103737,-26.89174,-0.4047249636396635,-0.0962925308809702,-0.2310435021179917,56.52315,45.97071,176.1752,0.3583021,-0.4241833,0.8042422,20
12.76,-25.18631,1.299809,-26.83122,-0.3629196329067268,-0.0639081313616332,-0.2020656774366118,59.76935,45.1455,175.204,0.3517736,-0.4457578,0.7919061,20
12.78,-25.07881,1.104544,-26.75326,-0.3128612512833038,-0.0547233249598048,-0.1672234844794342,61.22221,41.55246,171.1703,0.3410295,-0.4511829,0.7883866,20
12.8,-24.99462,1.295752,-26.69339,-0.2599548832621869,-0.0459033906819675,-0.1305556637853677,64.38639,40.04176,169.4725,0.3344281,-0.4718885,0.7750288,20
12.82,-24.90532,1.118146,-26.62667,-0.2040748092467716,-0.0893645321701904,-0.0920354705324637,61.79625,36.77602,167.2442,0.3231383,-0.4542094,0.7912359,20
12.84,-24.75163,1.144442,-26.51424,-0.141251083984482,-0.0691652593017271,-0.0490160772167649,58.35686,36.07684,167.848,0.3179099,-0.4323472,0.8095488,20
12.86,-24.66799,1.326416,-26.45242,-0.0769145152619672,-0.0499781545261418,-0.0047917344512762,61.41135,34.33149,165.8311,0.3119935,-0.4528607,0.7966434,20
12.88,-24.5746,1.17836,-26.38632,-0.0230805696172375,-0.0269509830482855,0.0287863769292426,52.03894,39.45033,171.24,0.3339511,-0.3885668,0.8321371,20
12.9,-24.4903,1.356432,-26.32318,0.0319438791440069,-0.0050329769130063,0.0631344148169708,55.14335,38.38047,169.9112,0.3286836,-0.4098249,0.8205554,20
12.92,-24.41354,1.211416,-26.28261,0.0828490410479512,0.0179659649286364,0.0904474508036123,43.11626,43.6557,173.9355,0.3633681,-0.3223309,0.85493,20
12.94,-24.27441,1.239249,-26.20529,0.1383539730374172,0.0181262127352577,0.1181543759792522,32.02673,47.01134,175.321,0.3933708,-0.2371107,0.8762121,20
12.96,-24.17723,1.408684,-26.13446,0.183840899799812,0.0613902578148085,0.1408225525627791,35.54789,46.71997,174.7973,0.389911,-0.2628146,0.8678184,20
12.98,-24.12176,1.257249,-26.11153,0.2216163272568581,0.0794588831239431,0.1584540204497284,19.99118,50.2833,176.5726,0.4229205,-0.1445454,0.8889154,20
13.0,-24.02368,1.425405,-26.04033,0.2577153383572419,0.0963857393732464,0.1749529273363852,23.52872,50.18977,176.3205,0.4209235,-0.1712164,0.8833507,20
13.02,-23.96057,1.271937,-26.00457,0.2823701205116351,0.063602699275974,0.1824814254746027,2.346055,54.19645,177.9394,0.4556759,-0.01003253,0.8897288,20
13.04,-23.8612,1.438464,-25.93261,0.3120704015049056,0.0749864893968479,0.1982605525021101,5.910233,54.19691,177.9459,0.4556647,-0.03773268,0.8884775,20
13.06,-23.76363,1.601307,-25.86197,0.3390009660633315,0.0845822040225662,0.2127959146619304,9.473536,54.19778,177.9523,0.455213,-0.06538936,0.8863674,20
13.08,-23.71616,1.285313,-25.83313,0.3626365226515382,0.0935195558388437,0.2260392886852371,353.3095,56.34647,178.7272,0.4707342,0.05667122,0.8802739,20
13.1,-23.61633,1.448687,-25.75905,0.3830288405811979,0.1004026520867907,0.2381689396857371,356.8951,56.33081,178.9104,0.471597,0.02836988,0.8813469,20
13.12,-23.54952,1.296154,-25.70986,0.3883707891107226,0.0539686759935777,0.2399691017121776,353.454,56.54163,179.5073,0.4726466,0.05231596,0.8793904,20
13.14,-23.4515,1.457204,-25.63322,0.394413401938539,0.0745046763383301,0.2432291667249759,357.0186,56.51798,179.7919,0.4732553,0.02377335,0.8805394,20
13.16,-23.35551,1.614475,-25.55817,0.3959532163996999,0.0920574469209282,0.2436363010991589,0.582323,56.51206,180.0747,0.4734032,-0.004784655,0.8808309,20
13.18,-23.37755,1.262118,-25.5846,0.3784844946559937,0.0333363749279487,0.2282037704103303,355.7502,57.11754,180.5769,0.4778892,0.03016114,0.877623,20
13.2,-23.28116,1.426081,-25.5105,0.3609045544803653,0.0207668530414364,0.2145722036556829,359.2906,57.10503,180.866,0.4779824,0.001825504,0.8783152,20
13.22,-23.26454,1.245797,-25.49891,0.3367071330249089,-0.0168913104048353,0.1963728428858178,1.436118,57.23255,181.5893,0.478705,-0.0176422,0.8777769,20
13.24,-23.16589,1.410621,-25.42355,0.3151480839160738,-0.0033703472862496,0.1824872581537375,5.08031,57.24933,181.8843,0.4778947,-0.04676709,0.8771449,20
13.26,-23.06915,1.571682,-25.34964,0.2810272634959476,-0.0152148781128341,0.1607309705889084,8.723317,57.2852,182.1826,0.4765984,-0.07583597,0.8756207,20
13.28,-23.10861,1.232037,-25.37679,0.2435665565457201,-0.0267402477828683,0.1367504249044029,8.270869,57.45962,182.8765,0.47769,-0.07525044,0.8752078,20
13.3,-23.01044,1.40085,-25.3029,0.1985426569541495,-0.0409751613370451,0.1080181133522732,11.90104,57.50991,183.1635,0.4757814,-0.1040585,0.8730059,20
13.32,-23.04599,1.20879,-25.31904,0.1441665462991039,-0.0816168989545537,0.0733044209664788,13.43927,57.27225,183.5297,0.4725646,-0.1173077,0.8729655,20
13.34,-22.94979,1.383479,-25.2471,0.1049356888900985,-0.0711296601678543,0.0494410951707418,17.02781,57.34229,183.7961,0.4699319,-0.1455413,0.8695958,20
13.36,-22.85497,1.55463,-25.1762,0.0556140068646455,-0.0862251227409539,0.018714085290961,20.61492,57.43164,184.0729,0.466837,-0.1736233,0.8653702,20
13.38,-22.91947,1.183162,-25.21824,0.0046668647489269,-0.0998673058627502,-0.0131183089707507,17.40777,56.94543,183.9191,0.4664259,-0.1490599,0.8708797,20
13.4,-22.82497,1.363937,-25.14826,-0.0482683505315937,-0.11455003604325,-0.0456916265537916,20.96503,57.02133,184.1499,0.4632599,-0.1767607,0.8666405,20
13.42,-22.86823,1.160783,-25.1665,-0.1083121444598216,-0.1561658475387359,-0.0822190628496986,21.57788,54.07809,184.096,0.4403182,-0.1825832,0.8774347,20
13.44,-22.77647,1.347729,-25.09696,-0.1489643241838001,-0.1414965089601032,-0.1055414273534305,25.10257,54.11133,184.1799,0.4366328,-0.2095943,0.8723088,20
13.46,-22.68546,1.531408,-25.028,-0.1950945719887271,-0.1530110359125134,-0.1329085295690792,28.62621,54.15148,184.2687,0.4325352,-0.2363994,0.8663591,20
13.48,-22.74526,1.138986,-25.06336,-0.2402929918878387,-0.1625117095663998,-0.1597536849584266,26.31853,51.9072,183.9757,0.4187942,-0.2193579,0.8784671,20
13.5,-22.65553,1.331646,-24.99516,-0.2819143284932539,-0.1716508096271778,-0.1844025076362343,29.80476,51.87898,183.9157,0.4145614,-0.2455711,0.8723464,20
13.52,-22.63263,1.124822,-24.9688,-0.3231728481202163,-0.2075444343408774,-0.2086569450731392,32.094,49.23127,183.5383,0.3923498,-0.2635433,0.8768371,20
13.54,-22.57903,1.121859,-24.92737,-0.3436472287964478,-0.1840983222824982,-0.2194545356831563,34.71011,48.6837,183.2293,0.3856013,-0.2827523,0.8727435,20
13.56,-22.49145,1.319891,-24.8621,-0.3631184169204049,-0.1867804976388127,-0.2324983383501315,38.10379,48.47681,182.8809,0.3804418,-0.3073092,0.8649938,20
13.58,-22.47249,1.117189,-24.85147,-0.3793956734296184,-0.1878420449128992,-0.2439391017868555,39.62022,48.24425,182.6575,0.3772216,-0.3181425,0.8616461,20
13.6,-22.38537,1.316628,-24.78707,-0.3897435334583714,-0.187641935952831,-0.2523744239027339,42.99014,47.96303,182.2316,0.3715824,-0.3420912,0.8528687,20
13.62,-22.37416,1.115029,-24.78478,-0.4038269632176994,-0.2144607880836198,-0.2641701471643927,43.27062,48.34865,181.7312,0.3755389,-0.3420764,0.8502157,20
13.64,-22.28537,1.113739,-24.72086,-0.401231713972614,-0.1814939996572032,-0.2640829534078825,46.3701,47.90073,180.3572,0.3720368,-0.3609648,0.8405836,20
13.66,-22.19989,1.31425,-24.65743,-0.3913656651176147,-0.1764028213788958,-0.2585897081953319,49.68448,47.53224,179.8618,0.366177,-0.3840527,0.8303083,20
13.68,-22.14695,1.109968,-24.6205,-0.378051485898415,-0.1989326460061325,-0.251188582303175,50.686,46.99281,178.7104,0.3647168,-0.388466,0.8268535,20
13.7,-22.06201,1.309427,-24.5582,-0.3532898495406527,-0.162328849418592,-0.2360437848423169,53.96574,46.47081,178.0512,0.3586036,-0.4108845,0.8157009,20
13.72,-21.9916,1.103758,-24.50821,-0.3238323572465829,-0.1821938978594728,-0.2177262043692338,56.50601,45.50706,176.1781,0.3550579,-0.4249234,0.8057575,20
13.74,-21.83077,1.104502,-24.39098,-0.2732785868495639,-0.1683419359356963,-0.1842460705191837,61.22265,41.16447,171.1922,0.3382713,-0.4520679,0.7895808,20
13.76,-21.74702,1.295683,-24.33027,-0.2281949297117527,-0.1243872725938599,-0.1549297062728443,64.39291,39.66658,169.5089,0.3317328,-0.4728706,0.77617,20
13.78,-21.64247,1.118093,-24.25277,-0.178573377893521,-0.1311967514857816,-0.1224095587698101,61.80178,36.42613,167.251,0.3206906,-0.4550341,0.7922089,20
13.8,-21.55946,1.304525,-24.19147,-0.1305925266959202,-0.0820408132477543,-0.0913159442684317,64.87579,34.42079,165.008,0.3144242,-0.4754125,0.7785903,20
13.82,-21.47392,1.14438,-24.12879,-0.0732301579633105,-0.078974921707143,-0.0562579755932506,58.36602,35.76488,167.8509,0.3156891,-0.4330687,0.810378,20
13.84,-21.32712,1.178295,-24.02288,-0.015671171910514,-0.0237789533667306,-0.0216073374854497,52.05127,39.17588,171.24,0.3319482,-0.3891661,0.8328876,20
13.86,-21.24317,1.356349,-23.95921,0.031937836563137,0.0526225133361934,0.0054106538624933,55.15798,38.11032,169.9167,0.3267183,-0.4104788,0.8212801,20
13.88,-21.15114,1.211406,-23.90742,0.0812025471575363,0.0573963382629459,0.0281285744266681,43.11486,43.4195,173.9419,0.3615883,-0.3227151,0.8556917,20
13.9,-21.06074,1.384694,-23.83938,0.1302505738905419,0.108329293380274,0.0506353636549912,46.4487,42.84132,173.1214,0.3570364,-0.3462984,0.8453091,20
13.92,-20.99655,1.239198,-23.81828,0.1758751589075582,0.1119856300019442,0.0676843269750802,32.04578,46.79647,175.3248,0.3917069,-0.2375443,0.8769082,20
13.94,-20.87836,1.257623,-23.75027,0.2231784589120273,0.1607133415509411,0.0880404245494164,19.96835,50.10373,176.5681,0.4215419,-0.1445078,0.8896067,20
13.96,-20.78161,1.426272,-23.6798,0.2622281777045701,0.2279167594941096,0.1059251290678497,23.45994,50.00944,176.3134,0.4195779,-0.170837,0.8841235,20
13.98,-20.73286,1.268176,-23.65508,0.2897760707005941,0.2221975415700309,0.115309520105435,8.098113,53.03096,177.5523,0.4465732,-0.05365739,0.8917035,20
14.0,-20.63393,1.435303,-23.58353,0.3146061844943788,0.2387558127597999,0.1257283601048064,11.65052,53.01911,177.4832,0.4459297,-0.0810501,0.8890294,20
14.02,-20.60215,1.275674,-23.56595,0.3420242772459394,0.2321785690845474,0.1384517192482381,358.3872,55.2904,178.1868,0.4636937,0.01980627,0.8857426,20
14.04,-20.47991,1.285204,-23.48065,0.3716701124748067,0.2702896523230841,0.1552645275993014,353.317,56.52175,178.7435,0.4720905,0.05651961,0.8795531,20
14.06,-20.37998,1.44846,-23.40628,0.3908286928102655,0.2599611088462332,0.1651405463262412,356.9091,56.50474,178.943,0.4729447,0.02812058,0.8806311,20
14.08,-20.3278,1.293723,-23.37179,0.4064725561686311,0.246593997206458,0.1737874367148788,352.8365,56.99049,179.2971,0.4758082,0.05782383,0.8773065,20
14.1,-20.22856,1.455083,-23.29565,0.4103512809913878,0.2500136422834734,0.1757201354102324,356.4245,56.96411,179.5789,0.4765474,0.0291722,0.8785875,20
14.12,-20.21091,1.269925,-23.28306,0.4007914041013447,0.2279437256972967,0.1678695865060775,354.0829,57.19407,179.9951,0.4780065,0.0453378,0.8768386,20
14.14,-20.11455,1.433453,-23.20911,0.3926232192074721,0.250672749342094,0.1618768350321873,357.6065,57.17308,180.2846,0.4784254,0.01715123,0.8778765,20
14.16,-20.02009,1.593382,-23.13663,0.3725470559657622,0.2225754488924595,0.1473380947503879,1.128802,57.16991,180.5724,0.4783889,-0.01103966,0.8780788,20
14.18,-20.0268,1.250303,-23.15453,0.3398708286057257,0.1689727089211464,0.1240953093067847,359.4245,57.66721,181.3634,0.4822798,-0.001338733,0.8759221,20
14.2,-19.99287,1.245848,-23.12819,0.3217042869372539,0.189197166404016,0.1136932750999282,1.423378,57.86001,181.5985,0.4835048,-0.01761705,0.8751426,20
14.22,-19.92007,1.237937,-23.07178,0.2833488488805971,0.1592291401610729,0.0898598058020896,6.159565,58.00651,182.5934,0.4829718,-0.05793313,0.873695,20
14.24,-19.82183,1.405394,-22.99843,0.2472799290245713,0.1533733171715782,0.0695541178946221,9.769822,58.04873,182.8979,0.4813818,-0.08666035,0.8720037,20
14.26,-19.82587,1.226548,-22.99476,0.2089680253042125,0.1480492036351521,0.0475805690263091,10.30809,57.95566,183.1667,0.4801567,-0.09188958,0.8721402,20
14.28,-19.72838,1.397341,-22.923,0.1510134511489114,0.0895592254254519,0.0124610976274435,13.89288,58.01413,183.4454,0.4779607,-0.1201937,0.8695112,20
14.3,-19.75797,1.208955,-22.94088,0.1112790419569509,0.105123682784952,-0.00931226560269,13.40525,58.28816,183.5476,0.4802918,-0.1168626,0.8687723,20
14.32,-19.70862,1.191097,-22.89977,0.0503979304305999,0.0675696987172116,-0.0449416877682091,16.04661,58.24038,183.7868,0.4775879,-0.1377884,0.8668214,20
14.34,-19.61357,1.370072,-22.83086,0.0002067431222569,0.0564220730751501,-0.0725307170880507,19.58142,58.32446,184.0615,0.4746234,-0.1654175,0.862921,20
14.36,-19.62664,1.175843,-22.83293,-0.0501214975830444,0.0467011500690859,-0.1004373909650522,18.70367,57.29482,184.0748,0.4676774,-0.1593325,0.8681451,20
14.38,-19.53289,1.35879,-22.765,-0.1176021896842494,-0.0186022814448257,-0.1393915191020207,22.21801,57.36967,184.2888,0.4643429,-0.1865354,0.8636931,20
14.4,-19.56449,1.160811,-22.77974,-0.1613283138672212,-0.0029086082225636,-0.1617718656461004,21.54562,55.71066,184.1284,0.4527557,-0.1816831,0.8711304,20
14.42,-19.51846,1.14542,-22.73822,-0.2224827654060321,-0.042855255143111,-0.1954500141577173,24.58047,54.24541,184.0883,0.4384081,-0.2052241,0.8725425,20
14.44,-19.42758,1.336364,-22.6716,-0.2678724488632773,-0.0534654311807035,-0.2183340384253789,28.05561,54.26059,184.1225,0.434371,-0.2314959,0.8668483,20
14.46,-19.43445,1.132715,-22.66807,-0.3107558939753341,-0.0622756258780728,-0.2400272957008491,28.02124,52.3439,183.9556,0.4201914,-0.2319199,0.8739418,20
14.48,-19.34459,1.327161,-22.6025,-0.3635520588003209,-0.1284512785375712,-0.2686480821084638,31.47091,52.28986,183.8467,0.41572,-0.2575456,0.8675649,20
14.5,-19.35671,1.12486,-22.60408,-0.3913568235714915,-0.1088274835195779,-0.2806782228724005,32.07102,50.40741,183.5324,0.4013711,-0.2624309,0.8728068,20
14.52,-19.27947,1.118777,-22.54427,-0.4250474958940069,-0.1463114135802021,-0.2986762525440327,37.38582,49.21412,182.9905,0.3866902,-0.3015829,0.8644144,20
14.54,-19.19098,1.317578,-22.48077,-0.445168718467428,-0.123774239760021,-0.3088674989673508,40.77216,48.96129,182.5896,0.3811685,-0.3257249,0.8561426,20
14.56,-19.1589,1.115624,-22.46649,-0.4561542039377648,-0.0721154434406403,-0.3134661587191032,41.85034,49.33541,182.3382,0.3831263,-0.3324426,0.8516747,20
14.58,-19.07084,1.315669,-22.40408,-0.4734726279560635,-0.1073740820686383,-0.3232699380690924,45.20914,49.02851,181.8928,0.3772168,-0.3560003,0.8424823,20
14.6,-19.0506,1.114493,-22.39002,-0.4828427234465227,-0.1114324955627585,-0.3273596665736433,44.67725,49.23223,181.125,0.3818662,-0.3493035,0.8424069,20
14.62,-19.01646,1.113782,-22.36643,-0.481546945953297,-0.1435679763295681,-0.3246438313122213,46.34982,48.74283,180.3375,0.3782949,-0.3595868,0.8378628,20
14.64,-18.93006,1.314358,-22.30497,-0.4650609175674964,-0.1164577004818799,-0.310663299335566,49.64918,48.35594,179.8171,0.3723375,-0.3824185,0.8277055,20
14.66,-18.82781,1.107171,-22.23252,-0.4407526392239573,-0.1168930363912558,-0.2915065370002869,53.30852,47.09765,177.6627,0.3653855,-0.4038776,0.8154741,20
14.68,-18.74482,1.10382,-22.17422,-0.4127054335896336,-0.1172363156934859,-0.270577622863867,56.49031,46.17761,176.152,0.3598847,-0.4234934,0.8036791,20
14.7,-18.65954,1.299994,-22.11477,-0.3742288954732558,-0.1139925539957852,-0.2420153277423304,59.72166,45.32077,175.1432,0.3532866,-0.4448903,0.7914444,20
14.72,-18.56757,1.104557,-22.04749,-0.3352945708586072,-0.1366637447584952,-0.2134162853709411,61.21239,41.77681,171.1703,0.3425825,-0.4506385,0.7877601,20
14.74,-18.40939,1.118089,-21.93273,-0.2911764868629107,-0.1012111465003811,-0.1812863036691689,61.80359,36.99228,167.234,0.3246668,-0.4537583,0.7905692,20
14.76,-18.32555,1.304534,-21.87243,-0.2437704672775196,-0.0849318412711711,-0.1472931716318122,64.87727,34.96748,164.9692,0.3182946,-0.4740575,0.7769849,20
14.78,-18.22466,1.144403,-21.79887,-0.1948017651531763,-0.0695631611136066,-0.1125124916791771,58.3643,36.27958,167.8338,0.3193912,-0.4319405,0.8089236,20
14.8,-18.14061,1.326378,-21.73745,-0.1478115715592971,-0.0033675029127187,-0.0797835311760604,61.41968,34.52139,165.8022,0.3134237,-0.4524258,0.7960241,20
14.82,-18.00001,1.195456,-21.65464,-0.089648414009972,-0.0071214886768011,-0.0456427504503786,48.30098,43.7899,173.2162,0.3621314,-0.3588265,0.8361467,20
14.84,-17.91368,1.371769,-21.59286,-0.029933847750396,0.0373025851412043,-0.0108060954541961,51.44294,43.06591,172.2697,0.3571295,-0.3804986,0.8253929,20
14.86,-17.82852,1.545317,-21.53192,0.0215115052372103,0.1002515591362624,0.0177751952848002,54.57525,42.19821,171.1838,0.3518506,-0.4018678,0.8139988,20
14.88,-17.72937,1.239114,-21.49654,0.0666646044991552,0.0915884116107752,0.0376326853170585,32.04553,48.59188,175.3386,0.4053695,-0.2352823,0.870682,20
14.9,-17.63034,1.408409,-21.42775,0.1042965161768965,0.1051121081551861,0.0533865471109837,35.57863,48.31122,174.8345,0.4018162,-0.2609241,0.8622941,20
14.92,-17.56028,1.263848,-21.39697,0.1443010003488847,0.0945183128818847,0.069627077788843,13.8562,52.9683,177.1637,0.4452305,-0.09697598,0.886919,20
14.94,-17.46108,1.431859,-21.32836,0.187294810580828,0.128480417259085,0.0915728323300366,17.36936,52.92742,177.0119,0.4438961,-0.123643,0.8828973,20
14.96,-17.36361,1.596301,-21.26095,0.2193086493147913,0.1360066905317555,0.1083587836264605,20.88227,52.87571,176.8542,0.4421439,-0.1501924,0.8780445,20
14.98,-17.32753,1.275794,-21.24021,0.2489867904583971,0.1417303398527135,0.1236644749608659,358.3862,56.41421,178.178,0.4723561,0.0199229,0.8811519,20
15.0,-17.27372,1.279139,-21.20318,0.275847439116069,0.1468789490311661,0.1391094129440673,354.4515,57.22778,178.4211,0.4777126,0.04907587,0.8770742,20
15.02,-17.13877,1.291293,-21.10822,0.3022732079065251,0.1276282227306645,0.1548087535805913,352.2312,57.79923,179.0779,0.4816735,0.06318543,0.8736918,20
15.04,-17.03756,1.453124,-21.03405,0.3349960898463489,0.1535687175796931,0.1769475339920481,355.8365,57.77273,179.3327,0.4825618,0.03461635,0.875089,20
15.06,-16.98615,1.296039,-20.99876,0.3601991618382676,0.1988074492769646,0.1951908009229366,353.459,57.97417,179.5273,0.4836134,0.05189813,0.873411,20
15.08,-16.88643,1.456964,-20.92391,0.3630269420463339,0.1669278390143966,0.1970123831382535,357.0296,57.94893,179.8318,0.4842232,0.02338589,0.8745593,20
15.1,-16.8945,1.26998,-20.9293,0.3686915410590305,0.1801638271763183,0.2022504580593929,354.0771,58.2622,180.0031,0.4861608,0.04511594,0.8723411,20
15.12,-16.8647,1.261873,-20.9129,0.3697284968391263,0.1905281964801824,0.2043652497784327,355.7784,58.31517,180.5489,0.4870312,0.02983239,0.8725946,20
15.14,-16.76528,1.425476,-20.8409,0.3661667483170385,0.1756989961415291,0.2039571275841183,359.3555,58.30394,180.8133,0.4871426,0.001454642,0.8732756,20
15.16,-16.72487,1.245921,-20.81185,0.3593029502867333,0.1603505024686333,0.2011541122740481,1.419339,58.68634,181.5815,0.4898061,-0.01755797,0.8716343,20
15.18,-16.69119,1.2406,-20.78498,0.3486306517604722,0.1416393686482265,0.1955510579651482,4.002253,58.70044,182.0504,0.4892248,-0.0391963,0.8712753,20
15.2,-16.59113,1.406893,-20.71294,0.3485415723213934,0.1917271307653868,0.2000848908458716,7.630808,58.72932,182.3351,0.4879962,-0.06795038,0.8700692,20
15.22,-16.6143,1.232226,-20.72318,0.3245998240631804,0.1667302066297968,0.1896249410816124,8.2417,58.66124,182.8644,0.4868637,-0.07484039,0.8701621,20
15.24,-16.56673,1.217454,-20.68168,0.3019818146893931,0.1682710551749588,0.1798757420040528,11.89752,58.70871,183.344,0.4847264,-0.1045201,0.8680243,20
15.26,-16.46834,1.3902,-20.61185,0.2604311273533799,0.116160105245014,0.1579127747193225,15.48695,58.77148,183.6091,0.4822743,-0.132655,0.8650444,20
15.28,-16.49112,1.199782,-20.6217,0.2211051650598101,0.0896122435199479,0.1374645828412912,14.74556,58.76789,183.6542,0.4827906,-0.1272733,0.8657154,20
15.3,-16.39404,1.376624,-20.5532,0.1800631896458058,0.0644296299416284,0.1154951977246083,18.30957,58.84218,183.9152,0.4799503,-0.1550687,0.862106,20
15.32,-16.434,1.183281,-20.57322,0.1423246593678799,0.037132677088147,0.0975262037949251,17.38747,58.18954,183.9113,0.4758816,-0.148406,0.8657821,20
15.34,-16.39506,1.168299,-20.53632,0.1107262156856954,0.0406810986064842,0.0830321895733714,20.13114,56.83717,184.0698,0.4628309,-0.1702554,0.8683649,20
15.36,-16.30075,1.353184,-20.4696,0.0629251888668327,-0.010873767731093,0.0581045488938349,23.65378,56.89016,184.2119,0.4592674,-0.197222,0.8636144,20
15.38,-16.32467,1.153076,-20.47719,0.0307582457304655,-0.0058298393805213,0.0431589363999811,23.05987,55.24525,184.0576,0.4477356,-0.1930692,0.8708777,20
15.4,-16.23186,1.342018,-20.41106,-0.0180255961031858,-0.0564638049187082,0.0174985645375294,26.56181,55.2659,184.1067,0.4438193,-0.2195654,0.8655071,20
15.42,-16.26802,1.139063,-20.42757,-0.0476525402367853,-0.0492355501971775,0.0041473913276819,26.289,53.51672,183.9745,0.4311277,-0.2181366,0.8725461,20
15.44,-16.21994,1.128722,-20.38387,-0.0782324000503091,-0.0679935549239788,-0.0098837199502299,30.04923,51.54519,183.7065,0.4121673,-0.2469059,0.8729324,20
15.46,-16.13013,1.324536,-20.31919,-0.1070396471371204,-0.084771516615066,-0.0233642753158829,33.48507,51.44306,183.5126,0.4074506,-0.2721434,0.8661499,20
15.48,-16.12591,1.121802,-20.31013,-0.1299648711272636,-0.1003587536368829,-0.0347039692510051,34.73571,49.95205,183.2416,0.3951735,-0.2818807,0.868375,20
15.5,-16.03694,1.319787,-20.24635,-0.1503843613915456,-0.1141376238140207,-0.0451101654960037,38.13837,49.75389,182.9081,0.3899373,-0.3063888,0.8606413,20
15.52,-16.01406,1.115616,-20.23635,-0.1555953642165788,-0.1267578882105347,-0.0469994874950137,41.84491,49.69278,182.3464,0.3857646,-0.3320177,0.8505,20
15.54,-15.92563,1.315639,-20.17429,-0.156324120130429,-0.1072403611294425,-0.0469590725454907,45.20763,49.39111,181.9086,0.3798341,-0.355579,0.8413089,20
15.56,-15.8373,1.51277,-20.1123,-0.160386831370153,-0.144888626669876,-0.0499979763787639,48.56747,49.03123,181.4158,0.3735754,-0.3788247,0.83139,20
15.58,-15.82182,1.113746,-20.1009,-0.1535218938770033,-0.122679199473587,-0.0446582056798288,46.37099,49.01239,180.3596,0.380165,-0.3594373,0.8369356,20
15.6,-15.77991,1.112974,-20.07132,-0.1439819430229814,-0.1012653849339371,-0.0379836810029359,48.05001,48.46623,179.5194,0.3764458,-0.3696842,0.8321766,20
15.62,-15.65083,1.107179,-19.98029,-0.1240154920660878,-0.1094070654069526,-0.0244184703985035,53.29731,47.32389,177.6648,0.3670033,-0.4034165,0.8147957,20
15.64,-15.56523,1.30563,-19.91994,-0.0826525162482352,-0.1142173493765273,0.0040213958611095,56.55805,46.68681,176.8867,0.3606379,-0.4253466,0.8031687,20
15.66,-15.45175,1.102262,-19.83932,-0.039035490924917,-0.1189692366440658,0.0334242753266673,59.66802,44.87048,174.0203,0.3545944,-0.4419411,0.7908185,20
15.68,-15.36657,1.296044,-19.78037,0.0041186186036581,-0.0662579849363694,0.0619042892332379,62.87611,43.7313,172.7217,0.3478435,-0.4629092,0.7778987,20
15.7,-15.26643,1.109136,-19.7065,0.053912928417265,-0.0633249651352455,0.0953337349761969,62.63465,38.56665,167.8804,0.3323405,-0.4580922,0.7837466,20
15.72,-15.20184,1.11804,-19.65862,0.1048497022773944,-0.060718893562926,0.1293092584565873,61.80243,37.1704,167.2744,0.325736,-0.4534718,0.7901579,20
15.74,-15.1184,1.304497,-19.59828,0.155560097417402,-0.003353862428171,0.1623975918472977,64.87315,35.18841,165.0575,0.3194292,-0.4737623,0.7765937,20
15.76,-14.95133,1.16178,-19.47758,0.1956784490583953,0.0772445362752069,0.1871406952267378,55.76286,36.78392,168.7657,0.3209862,-0.4143274,0.8202974,20
15.78,-14.86653,1.341588,-19.41586,0.2496261233803529,0.0630172391308714,0.2195491025437568,58.82283,35.23985,166.9313,0.3152373,-0.4349909,0.8079387,20
15.8,-14.78273,1.518699,-19.35487,0.3003741225092069,0.0982134724606587,0.2492822591832304,61.8509,33.33873,164.7443,0.309242,-0.4553061,0.7949474,20
15.82,-14.62554,1.227221,-19.28403,0.3586117555243493,0.0875147193757555,0.2787842582123598,37.99542,46.84967,174.716,0.3892612,-0.2810564,0.8607156,20
15.84,-14.52743,1.397255,-19.21465,0.4045988885037797,0.0977911963381294,0.3011051719142337,41.52646,46.43192,174.0631,0.3849734,-0.3062758,0.8509481,20
15.86,-14.43096,1.563759,-19.14644,0.4489041871090147,0.1068368806609879,0.3222435261837018,45.05246,45.93244,173.335,0.380314,-0.3311917,0.8403592,20
15.88,-14.38067,1.257393,-19.13577,0.4911114620912125,0.1115983037764572,0.3418763578277861,20.02681,51.61822,176.5775,0.4332255,-0.1436612,0.8838803,20
15.9,-14.3306,1.264062,-19.10632,0.5197223266042474,0.1124853789774097,0.3549107055229847,13.84395,53.0813,177.1738,0.4460998,-0.09684541,0.8864989,20
15.92,-14.21184,1.272355,-19.028,0.5445583570376742,0.1124078493226731,0.3658370006081881,2.306397,55.68227,177.9427,0.4671713,-0.00941069,0.8837556,20
15.94,-14.11203,1.4394,-18.95945,0.5692035454285791,0.155031220254856,0.3798206596822742,5.822763,55.68299,177.9528,0.4671523,-0.03657243,0.882537,20
15.96,-14.05204,1.279278,-18.91838,0.5890639389493499,0.1264442480510677,0.3904693670430115,354.4227,57.31288,178.4193,0.4783542,0.04929543,0.8767104,20
15.98,-13.95102,1.444132,-18.84785,0.5981654707473059,0.0725799197850017,0.3947319871942203,357.9877,57.30368,178.5584,0.4791803,0.02143902,0.8774508,20
16.0,-13.90052,1.291317,-18.81164,0.6114450334265666,0.0872143251729988,0.4040329232843889,352.2303,57.86155,179.0761,0.4821473,0.06318588,0.8734298,20
16.02,-13.78212,1.296039,-18.72706,0.6209421139170126,0.0740765184454384,0.411658174673025,353.4557,58.02339,179.5259,0.4839867,0.05191907,0.8732021,20
16.04,-13.68236,1.456978,-18.65233,0.6197816789128883,0.0827649808953378,0.4131351807402672,357.0255,57.99816,179.8297,0.484598,0.02342088,0.8743506,20
16.06,-13.58468,1.614123,-18.57915,0.6119629244503404,0.0888194544180756,0.410773555657141,0.5942892,57.99189,180.1314,0.4847357,-0.005092088,0.8746446,20
16.08,-13.61066,1.262153,-18.60242,0.6041774056357503,0.136833520616244,0.4097707349296069,355.7395,58.37297,180.5742,0.4874733,0.03000989,0.872332,20
16.1,-13.51264,1.426087,-18.53037,0.56995537872145,0.0859481554663643,0.388237825784866,359.2816,58.36035,180.8649,0.4875755,0.001793807,0.8730259,20
16.12,-13.41655,1.586406,-18.45973,0.5461925064319189,0.0857736337880393,0.375047162629444,2.822774,58.36568,181.155,0.4872088,-0.02641628,0.8728801,20
16.14,-13.40314,1.240621,-18.44916,0.5166847381222406,0.0610000303283213,0.3601689232349851,3.996158,58.79546,182.0642,0.4899441,-0.03920794,0.8708706,20
16.16,-13.30338,1.406948,-18.37701,0.4740107557611064,0.0120169876779676,0.3368374678735497,7.61807,58.82569,182.3628,0.488717,-0.0679592,0.8696675,20
16.18,-13.20547,1.569565,-18.3062,0.4357224146768363,0.0138129796986422,0.317212795811848,11.23945,58.87542,182.6662,0.4869985,-0.09663867,0.8675901,20
16.2,-13.1096,1.72863,-18.23687,0.4026076908972078,0.0398391073256836,0.3014382471976202,14.85949,58.9457,182.9773,0.484791,-0.125213,0.8646412,20
16.22,-13.21713,1.217365,-18.30118,0.3390452222859645,-0.0120574350984067,0.2649475307359017,11.90017,58.83798,183.3557,0.4856929,-0.1045609,0.8674778,20
16.24,-13.11803,1.38978,-18.23066,0.2903471264055468,-0.0126023523828245,0.2384676451688068,15.51841,58.90447,183.6362,0.4832209,-0.13296,0.8644652,20
16.26,-13.13295,1.190919,-18.23169,0.2462881023991874,0.0137296925863777,0.2144482086734691,16.08609,58.84071,183.776,0.4821021,-0.1378315,0.8642675,20
16.28,-13.10975,1.183264,-18.2109,0.1757603449118394,-0.0408873544124407,0.1738557196701173,17.39298,58.32142,183.9082,0.4768766,-0.1483839,0.865227,20
16.3,-13.01365,1.36411,-18.14363,0.1095967823819545,-0.0673515806751597,0.1358532349556349,20.94222,58.3938,184.1286,0.4736628,-0.1758252,0.8610474,20
16.32,-13.01319,1.160741,-18.12971,0.0425452167170941,-0.0915785657094718,0.097302044885156,21.58456,56.18032,184.1102,0.4563106,-0.181673,0.869208,20
16.34,-12.91885,1.347575,-18.06298,-0.0053997016468432,-0.0616490986336953,0.0710808550905368,25.12228,56.21966,184.2094,0.4525304,-0.2085888,0.8641163,20
16.36,-12.9335,1.14544,-18.0644,-0.0663621784484966,-0.0865070846321806,0.0365579259272608,24.60712,54.66258,184.065,0.4415934,-0.2050938,0.8708869,20
16.38,-12.84085,1.336296,-17.99837,-0.1265775678629621,-0.1087156897017121,0.0024752766571873,28.1163,54.66703,184.075,0.4374634,-0.2314856,0.8651632,20
16.4,-12.86634,1.132765,-18.00641,-0.1687625061169322,-0.0742447649393323,-0.0203509622773991,28.01937,52.70072,183.947,0.4229303,-0.2316344,0.8726268,20
16.42,-12.77569,1.327192,-17.94141,-0.221730602269798,-0.1248687421000427,-0.0494966058537551,31.47839,52.64241,183.8296,0.418416,-0.2572596,0.8662533,20
16.44,-12.74953,1.121817,-17.91138,-0.258333827412432,-0.1437199171090343,-0.0695576904887937,34.71566,50.10223,183.251,0.3963146,-0.2816291,0.86791,20
16.46,-12.66028,1.319757,-17.84748,-0.2859706171907912,-0.1295155080901786,-0.0852574115174509,38.1277,49.90867,182.9251,0.3910688,-0.306211,0.8601577,20
16.48,-12.64287,1.117191,-17.83714,-0.310869903492933,-0.115196151511458,-0.0998045803976896,39.61132,49.50907,182.6627,0.3867072,-0.316766,0.8574588,20
16.5,-12.55428,1.316611,-17.77451,-0.3330247772327397,-0.1284909779387044,-0.1147401270648651,42.98642,49.23016,182.2403,0.3809701,-0.3406084,0.8487285,20
16.52,-12.48136,1.114524,-17.7275,-0.3516054081970572,-0.1395920095724223,-0.1277494160006269,44.68231,49.3915,181.1158,0.3830574,-0.3491007,0.8418481,20
16.54,-12.3941,1.315073,-17.66507,-0.3570026139941851,-0.0920218691203396,-0.1309992078558672,48.02486,49.0736,180.6767,0.3771459,-0.37242,0.8319507,20
16.56,-12.34847,1.112976,-17.63259,-0.358799460269342,-0.1315822315243707,-0.1321817690017721,48.05327,48.36255,179.5204,0.3756849,-0.3698654,0.8325078,20
16.58,-12.2619,1.313468,-17.57129,-0.3579333148598473,-0.1992292935178368,-0.1320298400453263,51.35235,47.91498,178.9338,0.3696316,-0.3925335,0.8219388,20
16.6,-12.1754,1.511173,-17.51005,-0.3432225103699342,-0.1790745452903005,-0.1228141006530154,54.64709,47.37373,178.2564,0.3632699,-0.4148657,0.810683,20
16.62,-12.10371,1.103759,-17.45918,-0.3035069168802606,-0.1837787719950964,-0.0957453826447178,56.49628,46.2911,176.1896,0.3605335,-0.4234433,0.8033688,20
16.64,-11.94246,1.104484,-17.34372,-0.2674894322077628,-0.1572754086090709,-0.0718615627950209,61.21721,41.86989,171.1995,0.3431025,-0.4505629,0.7875225,20
16.66,-11.85778,1.295676,-17.28406,-0.2293143417404226,-0.1321255193768584,-0.047029960845569,64.39104,40.36193,169.5048,0.336455,-0.4713027,0.7741421,20
16.68,-11.7736,1.484232,-17.22475,-0.1884720813579061,-0.1256792289454158,-0.0201392534995683,67.53901,38.41101,167.3695,0.3295367,-0.4916519,0.7601383,20
16.7,-11.65675,1.128874,-17.13692,-0.1482061543654458,-0.1423251404240568,0.0060388851595156,60.94998,35.67065,166.7274,0.3179949,-0.4490477,0.7969825,20
16.72,-11.57272,1.313087,-17.07618,-0.1089523683929165,-0.1038450412719373,0.0307978262163708,63.99747,33.59859,164.3918,0.3117188,-0.4693055,0.7835519,20
16.74,-11.4895,1.494666,-17.01602,-0.0559675752534092,-0.083281437824212,0.062623988558464,66.99744,30.95711,161.49,0.3051967,-0.4891842,0.7695022,20
16.76,-11.4072,1.673671,-16.95653,-0.0017345016319587,-0.0632744416934165,0.0950010023877678,69.92895,27.50867,157.7841,0.2984357,-0.5086684,0.754845,20
16.78,-11.2248,1.212131,-16.83694,0.0408017666150677,0.0020256906042231,0.1185451766224412,43.04347,43.51735,173.9499,0.3623524,-0.3220435,0.855619,20
16.8,-11.13708,1.386498,-16.77152,0.0828383731026591,0.0636454545794797,0.1412398495734381,46.26478,42.95277,173.1469,0.35793,-0.3448038,0.845624,20
16.82,-10.98866,1.250203,-16.69928,0.1209295753696504,0.0292397927682942,0.153904920478006,26.21166,48.57105,175.9874,0.4075618,-0.1925342,0.8839561,20
16.84,-10.91431,1.257789,-16.65143,0.1490885633415326,0.0613979848296483,0.1655512935676326,19.98848,50.16615,176.568,0.4220185,-0.1446099,0.8893473,20
16.86,-10.81822,1.426705,-16.58153,0.1739903120829339,0.0465416806098504,0.1728795460958938,23.45468,50.07322,176.317,0.4200672,-0.1707458,0.8839028,20
16.88,-10.72375,1.592152,-16.51282,0.1915441867450606,0.0072307158754546,0.1749570936564681,26.92067,49.96058,176.0525,0.4177297,-0.1967264,0.8776454,20
16.9,-10.69339,1.272075,-16.50541,0.2140114118513588,0.0357578862395499,0.1846456236173936,2.37484,54.4628,177.9402,0.4577443,-0.01020003,0.8886608,20
16.92,-10.59428,1.43881,-16.43421,0.2445175980210844,0.0418725343691256,0.2005197912740086,5.91967,54.4635,177.9499,0.4577285,-0.03773028,0.887412,20
16.94,-10.49696,1.601901,-16.36429,0.2694632226806231,0.0706211321015435,0.2142633997867729,9.463495,54.46482,177.9598,0.457275,-0.06521662,0.8853148,20
16.96,-10.39953,1.291609,-16.29938,0.2840720887642518,0.0516094686279427,0.2209976871503918,352.212,56.74181,179.0306,0.4735581,0.06376204,0.8781003,20
16.98,-10.34272,1.293922,-16.25525,0.3010257759376333,0.078800947398893,0.2309277344098157,352.8093,56.81286,179.3008,0.4744413,0.05805479,0.8780296,20
17.0,-10.24446,1.455551,-16.17907,0.2990492850275309,0.0542818153029316,0.2274710212342121,356.3745,56.78581,179.5878,0.4751741,0.02953729,0.8793157,20
17.02,-10.18406,1.269888,-16.1333,0.2999707086947286,0.0501090775265826,0.2253770594108195,354.0879,57.19822,180.0103,0.4780454,0.045235,0.8768199,20
17.04,-10.08779,1.433286,-16.05877,0.2947571950246755,0.0695069085718239,0.219831189860993,357.6183,57.17611,180.316,0.478454,0.01692961,0.8778625,20
17.06,-9.993428,1.593064,-15.98571,0.2852993231952092,0.0870822174733606,0.2116368812810682,1.147765,57.17283,180.62,0.4784051,-0.0113837,0.8780655,20
17.08,-9.901145,1.749378,-15.91425,0.2544203552298825,0.0300302182128955,0.1881031738269305,4.676209,57.18831,180.9247,0.4778992,-0.03967824,0.8774298,20
17.1,-9.944635,1.246129,-15.95528,0.2387631724927365,0.0476268942711344,0.1769247198878527,1.387598,57.66734,181.5923,0.4820393,-0.01730705,0.8759559,20
17.12,-9.846484,1.411325,-15.88117,0.2200629089769394,0.0635819914656066,0.1640656310092383,4.996393,57.68401,181.8916,0.4812417,-0.04613083,0.8753487,20
17.14,-9.825802,1.232097,-15.8568,0.1800829679788272,0.0030014721344041,0.1371116706217547,8.24951,57.64902,182.8709,0.4791502,-0.0750433,0.8744258,20
17.16,-9.789179,1.226415,-15.82492,0.1407267020552417,-0.0081198732953994,0.1109792604075714,10.3186,57.55923,183.1509,0.4771432,-0.09197057,0.8737875,20
17.18,-9.691144,1.396949,-15.75232,0.099111487192806,-0.0176625185936241,0.0834689876783987,13.93311,57.61504,183.4165,0.4749304,-0.1204907,0.8711302,20
17.2,-9.594728,1.563839,-15.68093,0.0368424511800975,-0.0798930869388673,0.0416313416065305,17.54624,57.68938,183.6904,0.4722436,-0.1488819,0.8676029,20
17.22,-9.680494,1.199713,-15.73556,-0.0271409862556019,-0.1416320309360656,-0.001305226464918,14.7599,57.77885,183.6507,0.4752933,-0.1276678,0.8698369,20
17.24,-9.583995,1.376389,-15.66511,-0.0770496409988821,-0.1590424688102373,-0.034940271579948,18.34494,57.85241,183.9088,0.472462,-0.1557231,0.8661786,20
17.26,-9.488793,1.549561,-15.59561,-0.1350758859135016,-0.2011017326178281,-0.0763322308786815,21.92857,57.94504,184.1777,0.4691671,-0.1836171,0.8616699,20
17.28,-9.559558,1.168257,-15.63006,-0.1766232696638784,-0.1861435867175742,-0.1073541637401742,20.14914,55.95697,184.0625,0.4561403,-0.1707597,0.8718694,20
17.3,-9.54748,1.160853,-15.61738,-0.2069952936738347,-0.1431942843344494,-0.131056423457863,21.56653,55.12662,184.0916,0.448347,-0.1819805,0.8733818,20
17.32,-9.454431,1.3478,-15.54965,-0.2619114627893383,-0.1832553556043425,-0.1704808070727195,25.08994,55.15826,184.1715,0.4446138,-0.2088454,0.8682976,20
17.34,-9.362141,1.531484,-15.48248,-0.3012495214667197,-0.1643252075067228,-0.2009645459091948,28.61205,55.19649,184.2561,0.4404617,-0.2355032,0.8623946,20
17.36,-9.418738,1.13276,-15.50414,-0.3387642153975797,-0.1452577894285354,-0.2303239056030344,28.03521,51.70177,183.939,0.4153047,-0.2323919,0.8762472,20
17.38,-9.328741,1.327167,-15.43748,-0.3758041175888359,-0.1541553906106978,-0.2591119497415677,31.50792,51.63921,183.8131,0.4108156,-0.2582129,0.8698109,20
17.4,-9.239117,1.518475,-15.3711,-0.4184109698217572,-0.1887505306215585,-0.2919658313604376,34.97945,51.56482,183.6775,0.4059504,-0.2837889,0.8625774,20
17.42,-9.234013,1.118748,-15.35341,-0.4401568868178032,-0.1630209196821669,-0.311977406761289,37.39734,48.55357,183.007,0.3816419,-0.3023589,0.8666165,20
17.44,-9.176216,1.11723,-15.31545,-0.461744909812026,-0.1933197672996525,-0.3337461127581171,39.5984,48.56827,182.6474,0.3797146,-0.31761,0.8606225,20
17.46,-9.088631,1.316701,-15.25189,-0.4697908648644232,-0.162698931972259,-0.3480742922922513,42.96324,48.27808,182.2078,0.3740358,-0.3414496,0.8518927,20
17.48,-9.001165,1.513272,-15.18842,-0.481555695659337,-0.1883866811012559,-0.365501654959983,46.32524,47.93331,181.7174,0.3680332,-0.3649854,0.8424242,20
17.5,-9.002269,1.114532,-15.19325,-0.4782095352294836,-0.1534706835049225,-0.3723845034390209,44.6789,48.49023,181.1117,0.3764417,-0.3502364,0.8448398,20
17.52,-8.916009,1.315094,-15.12958,-0.4772492675293981,-0.1754206771907556,-0.3813354633551287,48.01842,48.16909,180.6681,0.3706048,-0.3736292,0.8349105,20
17.54,-8.829814,1.512808,-15.06597,-0.469078920140592,-0.1369320796159782,-0.3851079388322647,51.35508,47.78387,180.1631,0.3644524,-0.3966954,0.8242691,20
17.56,-8.743879,1.107174,-15.00329,-0.4455581724918749,-0.1558354030436944,-0.3816374150237525,53.30705,46.31229,177.6734,0.3597522,-0.405234,0.8179826,20
17.58,-8.662713,1.103816,-14.9445,-0.4118183113555755,-0.1150350429391497,-0.3716670530532358,56.48255,45.39445,176.1663,0.3543413,-0.4249257,0.806176,20
17.6,-8.578078,1.299968,-14.88359,-0.3724013161723487,-0.1285999421189603,-0.3595056692963561,59.72469,44.54233,175.163,0.3478208,-0.4464937,0.7938518,20
17.62,-8.3891,1.109139,-14.74311,-0.3292324341499507,-0.1431909771505048,-0.3452316793616901,62.64045,37.57613,167.8486,0.3256772,-0.4602373,0.7864937,20
17.64,-8.305487,1.297873,-14.68229,-0.2686863946231033,-0.1197927487497084,-0.3214389248720894,65.7463,35.56264,165.6129,0.319187,-0.480666,0.7727013,20
17.66,-8.222476,1.483984,-14.62192,-0.2170446460393477,-0.0906064943732704,-0.3049931940625823,68.80963,32.94055,162.7713,0.3124422,-0.5007011,0.7582904,20
17.68,-8.104853,1.144268,-14.53121,-0.1631691433263299,-0.0614050425604694,-0.2870724019833739,58.38562,35.3826,167.8244,0.3130741,-0.4339283,0.8112884,20
17.7,-8.034966,1.161673,-14.47905,-0.1073836599807399,-0.0353764134268527,-0.2678367159933117,55.77506,35.88432,168.7933,0.3144297,-0.4162784,0.8227964,20
17.72,-7.951681,1.341494,-14.41568,-0.0577297114334248,-0.0024331143853558,-0.2571986279126901,58.8344,34.3712,166.996,0.3088522,-0.4370736,0.8103896,20
17.74,-7.799467,1.211692,-14.31787,-0.0058576198267729,0.0301337102297171,-0.2450870215493015,43.11243,42.96604,173.9446,0.3581935,-0.3234205,0.8571278,20
17.76,-7.711254,1.385602,-14.25049,0.0478643747884354,0.0592070573702572,-0.231702121094663,46.38221,42.39721,173.1369,0.3537635,-0.3465986,0.8469371,20
17.78,-7.624337,1.556492,-14.1841,0.1034096244875731,0.0156555973413296,-0.2274430949636297,49.64465,41.72031,172.2266,0.3490381,-0.3694792,0.8360388,20
17.8,-7.538851,1.724455,-14.11879,0.1387472177842935,0.0398245455039946,-0.2374530031503419,52.89877,40.9087,171.1867,0.3440225,-0.3920507,0.8244393,20
17.82,-7.47726,1.257127,-14.11784,0.1757361719338441,0.0630602959208404,-0.2469583348942767,20.06905,49.63041,176.5755,0.417814,-0.1457339,0.8911974,20
17.84,-7.380093,1.425242,-14.04525,0.2021850809880735,0.083177294342556,-0.2646138531588395,23.60951,49.53994,176.3324,0.4158493,-0.1725367,0.8855955,20
17.86,-7.291616,1.27187,-13.99512,0.2316340323652072,0.1266319845859957,-0.2795680536045983,2.400457,53.94501,177.944,0.4537254,-0.01052932,0.890715,20
17.88,-7.231166,1.275513,-13.95184,0.2512455258103696,0.122225385673678,-0.3031856092493794,358.4315,54.83882,178.203,0.4602103,0.01936834,0.8875661,20
17.9,-7.132108,1.440988,-13.87811,0.2707675805857948,0.1155242991743941,-0.327090305258674,2.012317,54.83919,178.2969,0.4606132,-0.008742487,0.887303,20
17.92,-7.010817,1.291376,-13.79574,0.2973266324361398,0.1318595370385592,-0.348562869134148,352.2313,56.43656,179.0549,0.4712374,0.06358045,0.8793629,20
17.94,-6.911218,1.453365,-13.71993,0.3227881410370257,0.1465820554640166,-0.3704066443169482,355.8287,56.41222,179.2888,0.4721235,0.03500237,0.8807592,20
17.96,-6.860999,1.296056,-13.686,0.3294716152953429,0.1082862334203607,-0.4035375396451959,353.4519,56.72464,179.5216,0.4740563,0.0522361,0.8786305,20
17.98,-6.762933,1.457024,-13.60916,0.3348711226361264,0.1376340522399354,-0.4365382800390547,357.0201,56.69969,179.8219,0.4746574,0.02362035,0.8797852,20
18.0,-6.770986,1.270051,-13.61758,0.3441886694393403,0.1885148502854745,-0.466638402844038,354.0746,57.12319,180.0027,0.4774653,0.04538431,0.8771293,20
18.02,-6.681251,1.254555,-13.56062,0.3274891177023006,0.1639452971279887,-0.5140845632225055,357.4385,57.3381,181.125,0.4797992,0.01490124,0.8770388,20
18.04,-6.583525,1.418789,-13.48705,0.3156541049891461,0.1900260728811812,-0.5584613335665913,1.015448,57.33446,181.3948,0.4795728,-0.01361338,0.8773731,20
18.06,-6.487702,1.579364,-13.41492,0.3026861123303562,0.2140664120093258,-0.6042571233112028,4.591806,57.34768,181.6648,0.4788766,-0.04210893,0.8768479,20
18.08,-6.512344,1.240421,-13.43157,0.2608273447288575,0.1630516120141898,-0.6653546394020622,4.024558,57.85259,182.0634,0.4827542,-0.03943156,0.8748671,20
18.1,-6.413104,1.406508,-13.35744,0.2192376921313741,0.1108599852844103,-0.7275506679712123,7.669726,57.88284,182.3599,0.481524,-0.06845912,0.873637,20
18.12,-6.31572,1.568845,-13.28469,0.1780050871461366,0.1025469672036198,-0.7834492835323941,11.31382,57.93258,182.6615,0.4798037,-0.09740955,0.871518,20
18.14,-6.346153,1.217341,-13.29875,0.137132379201426,0.0956696311547667,-0.8403324567155048,11.90104,58.14002,183.3591,0.4803966,-0.1047352,0.8704202,20
18.16,-6.313933,1.20879,-13.27383,0.0860565362087695,0.0871083887084199,-0.8995347521592254,13.4333,58.32217,183.5366,0.4805404,-0.1170192,0.8686055,20
18.18,-6.216269,1.383339,-13.20322,0.0450702274122619,0.1064690178324404,-0.953297608170712,17.03307,58.39467,183.8124,0.4778728,-0.1452545,0.8652444,20
18.2,-6.2472,1.190961,-13.22317,0.0046739309579265,0.12536039677616,-1.0076740178276664,16.07712,58.50019,183.7809,0.4795333,-0.1379036,0.8657061,20
18.22,-6.150652,1.369645,-13.15416,-0.0696184606170461,0.0633513132007543,-1.0747458338042577,19.65217,58.58294,184.0505,0.4765143,-0.1657817,0.861762,20
18.24,-6.154918,1.16818,-13.15109,-0.1148876128035644,0.081189437418659,-1.123502032953594,20.14953,57.12757,184.0944,0.4649753,-0.1703603,0.8671787,20
18.26,-6.112299,1.160728,-13.1356,-0.157645757007481,0.0988592957808516,-1.1718619217694468,21.60598,56.48723,184.0948,0.458639,-0.1816191,0.8679475,20
18.28,-6.0165,1.347359,-13.06872,-0.230783053889677,0.0323268008694517,-1.229986164519251,25.17473,56.62718,184.2086,0.4555404,-0.2087237,0.8624211,20
18.3,-5.92144,1.530629,-13.00249,-0.2898402730039477,0.0215893856373514,-1.2762005338145683,28.74226,56.77901,184.3346,0.4519981,-0.2356139,0.8560606,20
18.32,-6.003173,1.139038,-13.05092,-0.3314378197660604,0.0422469886049584,-1.3129574339477534,26.2984,54.58247,183.9894,0.4391845,-0.2175838,0.868493,20
18.34,-5.910192,1.331611,-12.98652,-0.3827037819705253,0.0071115055249544,-1.352885653782877,29.78951,54.65632,183.9499,0.4355276,-0.24351,0.8620982,20
18.36,-5.817776,1.521069,-12.92281,-0.4281789215461665,-0.0262577483050567,-1.3916139755014114,33.2728,54.69487,183.9045,0.431237,-0.2691469,0.8550429,20
18.38,-5.847737,1.121775,-12.93358,-0.446115238421732,0.025749364085223,-1.4159371182668787,34.72366,51.43549,183.269,0.4063309,-0.2805497,0.8632388,20
18.4,-5.817889,1.118782,-12.91254,-0.4818462215143462,-0.0079203211300137,-1.4456628846756134,37.37203,50.88006,182.9975,0.3992169,-0.2998603,0.8587423,20
18.42,-5.727475,1.317549,-12.85133,-0.5103368279707792,-0.0404483900419884,-1.47371871852856,40.76176,50.69546,182.6077,0.3940449,-0.3237813,0.8503248,20
18.44,-5.664945,1.115031,-12.81888,-0.5194432976697275,0.0129979044161273,-1.492891669804284,43.26703,51.07767,181.7393,0.3956601,-0.3386911,0.8410525,20
18.46,-5.575415,1.315296,-12.75872,-0.5338790754851059,0.0102072624735788,-1.5105877615151162,46.6211,50.83705,181.3125,0.3900717,-0.3618994,0.8313628,20
18.48,-5.542652,1.113739,-12.7379,-0.5472537430489597,-0.0194587326810498,-1.5267254869381397,46.35486,50.67739,180.3693,0.3922789,-0.3569809,0.8313876,20
18.5,-5.454082,1.314231,-12.67841,-0.5530442825255394,-0.0486919401251528,-1.5402133305826071,49.67226,50.37748,179.8841,0.3866232,-0.3796937,0.8210369,20
18.52,-5.415975,1.109964,-12.65463,-0.5314111271197732,-0.0491444428568639,-1.5388517186932595,50.65474,50.49398,178.744,0.3897412,-0.3826774,0.8154888,20
18.54,-5.327512,1.309384,-12.59708,-0.5027724988651774,-0.048791841291739,-1.5346133391157366,53.93748,50.05845,178.1169,0.3837737,-0.4046651,0.8042966,20
18.56,-5.165039,1.102149,-12.50838,-0.4674979933449692,-0.1044289686252618,-1.5263290686555608,59.65588,48.5155,174.1078,0.3792515,-0.4345621,0.779378,20
18.58,-5.076519,1.295809,-12.45372,-0.4261554157976734,-0.0726052149192225,-1.5149886584866494,62.88103,47.51518,172.8983,0.372628,-0.4552058,0.7663679,20
18.6,-4.977286,1.109035,-12.3999,-0.3837181955765208,-0.0623331855460975,-1.498698343561367,62.63354,42.66852,167.942,0.3599361,-0.4488292,0.7715018,20
18.62,-4.889203,1.297714,-12.34592,-0.3303688762642472,-0.0735104176896417,-1.4752057570097392,65.74433,40.80606,165.8067,0.3534068,-0.4686443,0.7577851,20
18.64,-4.718596,1.14414,-12.24976,-0.2874823259873038,-0.0292919774275677,-1.460155498985669,58.40237,41.1735,167.8656,0.3534918,-0.4217223,0.7944595,20
18.66,-4.632983,1.161507,-12.20168,-0.2483405139191838,-0.0325744955994308,-1.4403733874221536,55.79569,41.89724,168.8373,0.3569808,-0.4041658,0.8051833,20
18.68,-4.543585,1.341201,-12.14663,-0.2049913208902419,-0.0377179040293648,-1.417496033724461,58.87064,40.49341,167.0986,0.3512829,-0.4242956,0.7928187,20
18.7,-4.455218,1.518193,-12.09229,-0.1632119007723477,0.0306101760373524,-1.3963291628969117,61.91792,38.7542,165.0297,0.34531,-0.4440856,0.7798339,20
18.72,-4.387376,1.211671,-12.07707,-0.1335148280096816,0.0523455221590566,-1.372023412790203,43.10661,49.2824,173.9942,0.4047409,-0.31314,0.8361956,20
18.74,-4.292803,1.385555,-12.01918,-0.1052315210382204,0.0516705279034925,-1.344010600943634,46.37505,48.81591,173.2463,0.4003107,-0.3355548,0.8260297,20
18.76,-4.199586,1.556426,-11.96219,-0.0821395991104602,0.0946012936242681,-1.3179798205383435,49.6377,48.25325,172.4087,0.3955473,-0.3576833,0.8151771,20
18.78,-4.10557,1.257027,-11.97843,-0.0560091736778651,0.1347755152725906,-1.290112463271506,20.08192,58.42203,176.631,0.4848183,-0.1379874,0.8565869,20
18.8,-4.059232,1.263817,-11.97066,-0.0507143642397657,0.1009241688301218,-1.266365101385123,13.88919,60.42454,177.2361,0.501888,-0.09240851,0.8561103,20
18.82,-3.953422,1.431882,-11.91397,-0.0412018850735293,0.0637067972642956,-1.2400010452193784,17.38497,60.46562,177.1661,0.5008079,-0.1182275,0.8519198,20
18.84,-3.8663,1.275714,-11.90968,-0.0247286680031175,0.1149636297151025,-1.2019265378828632,358.4129,65.50909,178.2277,0.5407445,0.02001276,0.8409308,20
18.86,-3.756214,1.441455,-11.85563,-0.0240968878690891,0.0951132545576557,-1.1601323413301554,1.964154,65.56931,178.3492,0.541555,-0.00660899,0.8403674,20
18.88,-3.711257,1.285124,-11.85815,-0.0328894274800106,0.0977756480671382,-1.1148922179460306,353.3224,67.77708,178.772,0.5560827,0.05430838,0.8290153,20
18.9,-3.599042,1.448395,-11.80428,-0.0349930044510754,0.1232689290914147,-1.062332524226808,356.9069,67.81685,179.0059,0.5574487,0.02723617,0.8297275,20
18.92,-3.500433,1.295909,-11.79443,-0.0367948678413148,0.1453818849900884,-1.0076106816827626,353.4577,69.81213,179.5468,0.5711108,0.04905449,0.8188779,20
18.94,-3.387234,1.45671,-11.74137,-0.0748666671200514,0.1366013738150416,-0.9577101259504224,357.0334,69.84444,179.8757,0.5722488,0.02184535,0.8196709,20
18.96,-3.396747,1.270026,-11.76497,-0.11295203022234,0.1273951001037192,-0.9058743107298624,354.0739,71.14597,180.0276,0.580972,0.04190525,0.8122806,20
18.98,-3.285621,1.433508,-11.71586,-0.1445176518901643,0.1623241783913318,-0.8467723060119636,357.5917,71.18166,180.3546,0.5819144,0.01528852,0.8129727,20
19.0,-3.176659,1.593383,-11.66778,-0.1771891591665577,0.1931746456482226,-0.7874274166401181,1.108198,71.23732,180.6836,0.5823033,-0.01133516,0.8128923,20
19.02,-3.234011,1.245827,-11.72883,-0.2390784427237078,0.1760934797360851,-0.7329342000426089,1.404159,72.94385,181.6281,0.5941842,-0.01829725,0.8041103,20
19.04,-3.119076,1.410635,-11.6822,-0.2985493334735696,0.1860200009147589,-0.6732311929057979,5.037881,73.02224,181.9681,0.5937096,-0.0455274,0.8032955,20
19.06,-3.006333,1.571687,-11.63654,-0.3575445487489561,0.1941859166496807,-0.6116814496962066,8.670049,73.12296,182.3156,0.5926328,-0.07270363,0.8016667,20
19.08,-3.087764,1.232081,-11.68865,-0.4545211523630716,0.1254418752266898,-0.5677256140783742,8.231129,74.59525,182.9206,0.6027416,-0.0724756,0.7942979,20
19.1,-2.972702,1.400847,-11.64591,-0.5467552323444728,0.1049860562295985,-0.5193766769573698,11.84945,74.71362,183.2603,0.6009573,-0.09918428,0.7920882,20
19.12,-2.996808,1.208722,-11.66841,-0.651007137843432,0.0587549784673372,-0.4768386767267303,13.40968,76.32821,183.6181,0.6104861,-0.1111253,0.7827552,20
19.14,-2.883142,1.383196,-11.62932,-0.753348318357846,0.0138277560477781,-0.4314447412737943,16.98887,76.48267,183.982,0.6077848,-0.1372147,0.7795025,20
19.16,-2.921885,1.190921,-11.65068,-0.8352761130705095,0.0438118990080481,-0.3711936447763886,16.04109,77.29551,183.8707,0.6143889,-0.1297944,0.7758625,20
19.18,-2.809634,1.369557,-11.6141,-0.9364436713883194,0.0205910236366731,-0.3268687945300752,19.58542,77.46664,184.2374,0.6112531,-0.1553814,0.7721099,20
19.2,-2.698759,1.544769,-11.57804,-1.0345631174363106,-0.0003738169079191,-0.2790233612146262,23.12758,77.66647,184.6245,0.6075277,-0.1808105,0.7676129,20
19.22,-2.829246,1.168125,-11.62714,-1.133137745504494,-0.0216708186811978,-0.2362243177465919,20.11803,76.935,184.1653,0.6071341,-0.1589228,0.7743652,20
19.24,-2.718259,1.352736,-11.59415,-1.239133234173878,-0.06923999161791,-0.1999196301676171,23.64001,77.08557,184.4117,0.6032683,-0.1835683,0.769904,20
19.26,-2.608294,1.534046,-11.56153,-1.3257241652572884,-0.0582200996801159,-0.1499130649765481,27.16031,77.25748,184.6757,0.5988309,-0.2080323,0.7647141,20
19.28,-2.728189,1.138899,-11.60046,-1.3995890449977015,-0.0180600783952905,-0.0884065262587212,26.29137,76.06075,184.0509,0.5932286,-0.200233,0.7715159,20
19.3,-2.71941,1.132593,-11.59935,-1.4932626907118054,-0.0624825777840087,-0.0497452734972356,28.01142,75.67652,184.0314,0.5881071,-0.2119499,0.7710155,20
19.32,-2.610895,1.326784,-11.5725,-1.5920992507556004,-0.133419375804189,-0.0182547635096401,31.47466,75.72275,184.0067,0.5828999,-0.2346543,0.7652589,20
19.34,-2.609384,1.121683,-11.57905,-1.6655575812574257,-0.1464931335797374,0.0276429687535759,34.70257,74.65657,183.3138,0.5716884,-0.2537803,0.7639008,20
19.36,-2.501828,1.319459,-11.55634,-1.732447013887163,-0.1570433700140044,0.0788756071516301,38.11855,74.56297,183.0579,0.5653894,-0.2750065,0.7570617,20
19.38,-2.394509,1.514245,-11.53374,-1.793083967739612,-0.1684093571838233,0.1346905098869157,41.53315,74.44424,182.7816,0.5585878,-0.2959814,0.7495497,20
19.4,-2.457723,1.115486,-11.56229,-1.842501897693671,-0.1797626253775768,0.1846516190760672,41.84297,75.64313,182.4124,0.5667115,-0.2940677,0.7422912,20
19.42,-2.350923,1.315343,-11.54347,-1.8813157035459995,-0.1873631447670377,0.2345012382470079,45.21838,75.45129,182.0496,0.5593284,-0.3141295,0.7342547,20
19.44,-2.244237,1.512287,-11.52472,-1.910993595772697,-0.1930265871820958,0.2886458631606556,48.59184,75.21471,181.6462,0.551459,-0.3339114,0.7255798,20
19.46,-2.258086,1.112917,-11.53926,-1.9297052831493264,-0.1975990507676895,0.3416246322254477,48.06459,74.22059,179.5589,0.5522967,-0.3226494,0.7273961,20
19.48,-2.200813,1.11001,-11.5292,-1.93940425909776,-0.200670223161913,0.3979215717138069,50.64185,73.60844,178.7234,0.545308,-0.3363903,0.7208632,20
19.5,-2.097004,1.309487,-11.51152,-1.9320457532386188,-0.1457967892165758,0.4627128716319262,53.91552,73.15025,178.0711,0.5371815,-0.3550701,0.7111667,20
19.52,-1.943501,1.102237,-11.47951,-1.916361373904916,-0.1769028300319657,0.5243810019515143,59.64049,70.17715,174.0602,0.5191397,-0.3805209,0.6941538,20
19.54,-1.840953,1.295994,-11.46234,-1.876508802785736,-0.1736438820355104,0.593873406788795,62.85797,69.11739,172.786,0.510085,-0.3981287,0.6827201,20
19.56,-1.738107,1.10912,-11.43646,-1.8279594683580127,-0.1705090085253148,0.6640687717279101,62.6232,63.0254,167.884,0.4908236,-0.3934482,0.6956227,20
19.58,-1.636578,1.297894,-11.41749,-1.7816129454136107,-0.1587362737132833,0.7236462504923464,65.72324,61.09336,165.6743,0.4818499,-0.4104271,0.6833748,20
19.6,-1.572432,1.128903,-11.3886,-1.727906991040623,-0.1470191302113833,0.7830444090689073,60.94169,58.81362,166.679,0.4715751,-0.3896967,0.7168911,20
19.62,-1.434855,1.161779,-11.34047,-1.6599913887668132,-0.125605431502849,0.8377511965666009,55.76815,58.39698,168.6809,0.4693563,-0.3637443,0.7453225,20
19.64,-1.332811,1.341777,-11.31619,-1.584922544027119,-0.127584108725225,0.8864931352093568,58.80768,56.84058,166.7634,0.4616289,-0.3811268,0.7341495,20
19.66,-1.285797,1.195732,-11.27732,-1.514770168698502,-0.0812473336999199,0.9281295206068954,48.30098,60.95202,173.009,0.4834239,-0.3237373,0.7722936,20
19.68,-1.183681,1.3725,-11.24853,-1.4383736603614976,-0.0128372870984577,0.9687568920818972,51.40514,60.12356,171.8506,0.4769012,-0.3423387,0.7624438,20
19.7,-1.082902,1.546506,-11.22017,-1.3643968450103523,-0.0142214860551887,0.9856121850069528,54.49615,59.12612,170.5295,0.4700102,-0.3606696,0.7520051,20
19.72,-1.10229,1.239523,-11.19514,-1.283844732760587,-0.0180325546263514,1.000007958507778,32.08713,61.97473,175.1527,0.5043732,-0.2157892,0.8171374,20
19.74,-1.037302,1.258145,-11.15345,-1.1997639469638537,0.0005475194575852,1.0029687987665612,20.00992,63.1709,176.3756,0.5202267,-0.131611,0.8356084,20
19.76,-0.9251937,1.42744,-11.11298,-1.1105542306926877,0.0179778642624837,1.0021081143828634,23.4638,63.06306,175.9302,0.5178739,-0.15502,0.8302448,20
19.78,-0.8149382,1.593225,-11.07321,-1.0286125977489915,-0.0141529150633087,0.9842314184893936,26.91853,62.92325,175.4677,0.5150464,-0.1783107,0.824111,20
19.8,-0.871155,1.272187,-11.07392,-0.9418857686471842,0.0203271388529911,0.9723970999918656,2.405981,66.8033,177.8756,0.5506138,-0.007321087,0.8342903,20
19.82,-0.7579689,1.439045,-11.02787,-0.8465252897240865,0.0321651416709785,0.9536566014417244,5.951073,66.85677,177.827,0.5508741,-0.0328828,0.8327578,20
19.84,-0.646794,1.602247,-10.98272,-0.7488161839137404,0.0424267357915549,0.930170228218432,9.495201,66.90759,177.7814,0.5506068,-0.0584058,0.8304289,20
19.86,-0.6568729,1.291869,-10.91905,-0.6472757378105958,0.0963595353250788,0.9092133269886188,352.218,63.5678,178.9111,0.5249311,0.06267274,0.8483828,20
19.88,-0.6335973,1.29405,-10.8766,-0.5465137542567421,0.1451963189177736,0.8831926353706283,352.8051,62.20195,179.2408,0.5151628,0.05714126,0.8547671,20
19.9,-0.527308,1.455826,-10.81213,-0.4675882045832786,0.1426138558170947,0.8389724045240041,356.3702,62.23666,179.4747,0.5164183,0.02948098,0.8557385,20
19.92,-0.4231505,1.613828,-10.74904,-0.3887452117463045,0.139461625202828,0.7900406121728576,359.9341,62.28579,179.7103,0.5171713,0.001799992,0.8558781,20
19.94,-0.5498012,1.262418,-10.7216,-0.324491268371107,0.1314073177161109,0.7307058533114728,355.7382,56.83607,180.4588,0.4756992,0.03079741,0.8788129,20
19.96,-0.4511523,1.426579,-10.65033,-0.2719444152737563,0.0995300259606644,0.6619902561378239,359.285,56.88467,180.6432,0.4762881,0.002812968,0.8792495,20
19.98,-0.3543844,1.587121,-10.58051,-0.202171441685999,0.1184810410507525,0.5995160147673604,2.830534,56.94469,180.8309,0.4764192,-0.02516638,0.8788415,20
20.0,-0.2596741,1.7442,-10.51225,-0.1336412915039422,0.1354121067158559,0.5326212469067801,6.374856,57.01664,181.0232,0.4760928,-0.05311364,0.8775905,20
20.02,-0.4725257,1.240942,-10.56538,-0.103040414012143,0.0765520247053703,0.4481798505112944,3.983254,51.98685,181.9347,0.4374134,-0.03862811,0.8984305,20
20.04,-0.3789645,1.407566,-10.48542,-0.0480845505734398,0.0924188393137309,0.3752889667627104,7.607412,52.06095,182.11,0.4367107,-0.06766155,0.8969655,20
20.06,-0.2870852,1.570479,-10.40697,0.0054611613047097,0.1071915997422571,0.2984406337283689,11.23095,52.14722,182.2929,0.4355701,-0.09662746,0.8946011,20
20.08,-0.4652981,1.217741,-10.462,0.0209625167969046,0.0436237963028603,0.2078633275968291,11.88973,47.378,183.2318,0.3967778,-0.1060753,0.9116262,20
20.1,-0.4814624,1.209241,-10.45824,0.0644392651938923,0.0548614155245199,0.1278934524254229,13.42163,46.53614,183.3893,0.3889807,-0.1189091,0.9133387,20
20.12,-0.494533,1.191527,-10.43472,0.1067681054734014,0.0655811456071797,0.0449126384102511,16.06333,44.59438,183.5921,0.371453,-0.1409844,0.9173642,20
20.14,-0.4129415,1.370735,-10.34892,0.1322784977373479,0.0487182313888592,-0.0392374874532699,19.63242,44.67453,183.6704,0.3692513,-0.1696076,0.9130285,20
20.16,-0.3323018,1.546498,-10.2642,0.1443547530039293,0.0070090496482959,-0.1279652254755183,23.20033,44.76194,183.7563,0.3666919,-0.1980581,0.9078085,20
20.18,-0.4698982,1.16875,-10.35523,0.1788974085855822,0.0214203613962618,-0.2099579194622254,20.13418,40.19245,183.8857,0.3325477,-0.175534,0.9261628,20
20.2,-0.3939133,1.354046,-10.26779,0.2133532453968407,0.0359239820610129,-0.2935015504387013,23.66321,40.23105,183.8393,0.3299693,-0.2036965,0.9208979,20
20.22,-0.4756054,1.153708,-10.33094,0.2103841602955712,-0.0333572547719803,-0.3841968555774315,23.03712,37.09881,183.8399,0.3051978,-0.1996489,0.930563,20
20.24,-0.4851805,1.139651,-10.31852,0.2436470096013394,-0.0192543852617285,-0.4638852899262979,26.27094,35.43665,183.7621,0.2891096,-0.2260859,0.9294114,20
20.26,-0.41352,1.332843,-10.23166,0.2557422623273471,-0.0607731089502036,-0.546433879279828,29.73884,35.35979,183.4797,0.2859702,-0.2532958,0.9228048,20
20.28,-0.3421825,1.522895,-10.14523,0.2690628691050338,-0.1001970193880785,-0.6295307678950173,33.20541,35.26132,183.1845,0.2825739,-0.2802724,0.9153484,20
20.3,-0.4445809,1.12517,-10.24461,0.2977584855338863,-0.1109169394097788,-0.704185970022891,32.05014,30.41322,183.4284,0.2440262,-0.2738145,0.929239,20
20.32,-0.451316,1.122003,-10.23921,0.3437468172908137,-0.0892878622530624,-0.7739897065359029,34.66619,29.49641,183.1936,0.2348885,-0.2947706,0.9248939,20
20.34,-0.4308406,1.117195,-10.20181,0.3808595847265986,-0.1237441907528469,-0.8434809794496108,39.58607,29.90078,182.6703,0.2350525,-0.3327282,0.9108601,20
20.36,-0.3685186,1.316597,-10.11298,0.4356628131188224,-0.0974041666305017,-0.9062764767891808,42.95685,29.684,182.2577,0.2313467,-0.3585619,0.9011816,20
20.38,-0.3062453,1.513083,-10.02431,0.4921864234778494,-0.0710387302581945,-0.9664428919172772,46.32533,29.41916,181.8021,0.2274399,-0.3840754,0.8907198,20
20.4,-0.3359182,1.114273,-10.08269,0.5494636054447536,-0.0479922113001881,-1.0238979934811294,44.67499,34.72273,181.2404,0.2720633,-0.3657131,0.8839978,20
20.42,-0.3168022,1.113635,-10.07438,0.6122035278233363,-0.0545222004213159,-1.0702656605448158,46.34216,35.89886,180.4194,0.281946,-0.3753614,0.8750272,20
20.44,-0.2474698,1.314047,-9.993913,0.6762360935639106,-0.0591443105763638,-1.112131328922045,49.64863,35.63432,179.9892,0.2777452,-0.3996748,0.8640569,20
20.46,-0.1916447,1.107064,-9.977388,0.7478905395022164,-0.1224124548950803,-1.1436383767142069,53.28177,36.13057,177.756,0.2854726,-0.4207836,0.8468863,20
20.48,-0.1203755,1.305365,-9.900183,0.8344817474690922,-0.1252160974238104,-1.1638739700051333,56.55569,35.62947,177.0766,0.2808471,-0.4440122,0.8344636,20
20.5,-0.04920841,1.500939,-9.823166,0.92722232650386,-0.0968570221673393,-1.177514200018998,59.82444,35.00151,176.2731,0.2759869,-0.466863,0.8213558,20
20.52,0.01911706,1.104212,-9.784839,1.029624725709794,-0.1199381140572273,-1.1746265844727493,61.22017,35.8011,171.4043,0.3001037,-0.4633565,0.8049575,20
20.54,0.1489295,1.117514,-9.704485,1.1216476044308394,-0.0840695784315331,-1.1680407668104715,61.85653,33.98308,167.5526,0.3024882,-0.4614556,0.7992483,20
20.56,0.2262682,1.303538,-9.635872,1.2095459898830263,-0.0495516533094954,-1.1556758701837335,64.98223,32.35365,165.6699,0.2975065,-0.4825613,0.7850863,20
20.58,0.3084604,1.143598,-9.610153,1.2894324536319055,-0.0330626288216652,-1.1274253863403905,58.45631,36.03344,168.1832,0.316281,-0.4340947,0.8099366,20
20.6,0.3881584,1.325069,-9.543224,1.3578871821655742,-0.0392900180654448,-1.0915549662315702,61.57238,34.70225,166.5836,0.3115159,-0.4552727,0.7965465,20
20.62,0.531357,1.194733,-9.50519,1.4258578725095885,0.0062128852517294,-1.0508110033715494,48.37149,45.68044,173.5251,0.3748487,-0.3569724,0.8303729,20
20.64,0.6209684,1.209245,-9.473881,1.4842793581815628,0.029276892394878,-0.9989500163876364,43.40255,48.45991,174.2405,0.3977717,-0.31761,0.8385798,20
20.66,0.7169717,1.380363,-9.40414,1.5363549282711166,0.0516074943585578,-0.9411434857916892,46.93732,48.17766,173.7656,0.3936055,-0.342669,0.8273178,20
20.68,0.8114601,1.548035,-9.335589,1.589195296162551,0.1185984619304741,-0.8798836712894005,50.46964,47.8281,173.2279,0.3890597,-0.367393,0.8152643,20
20.7,0.853102,1.248954,-9.417003,1.617358000790801,0.1138737561646375,-0.8125983472115943,26.35426,56.82407,176.2113,0.4696557,-0.18508,0.8523368,20
20.72,0.9587605,1.416369,-9.353327,1.637975085000357,0.1069952419282924,-0.7394556364242459,29.97416,56.81663,176.0802,0.4670792,-0.2116099,0.8449554,20
20.74,1.0264,1.267442,-9.390754,1.6679307498041194,0.1666194547779034,-0.6603896791717543,8.216481,64.40034,177.7594,0.5325933,-0.05021844,0.8431097,20
20.76,1.135458,1.433852,-9.333657,1.6832364063660537,0.1773072685906955,-0.5709617170437313,11.79544,64.48059,177.9081,0.5321457,-0.07720932,0.8402006,20
20.78,1.161265,1.275372,-9.36707,1.6810129582699496,0.1645076577900955,-0.4785478792864566,358.4457,68.52419,178.2845,0.5626968,0.01963522,0.8264168,20
20.8,1.273973,1.44074,-9.316782,1.6677682376439662,0.1494911270108043,-0.3815254879839431,2.018684,68.57919,178.4618,0.5634333,-0.00699178,0.825865,20
20.82,1.369442,1.291234,-9.333755,1.6548902215096744,0.1575226659728105,-0.2785748123338611,352.2298,72.82418,179.1272,0.5917922,0.05903681,0.8032024,20
20.84,1.485663,1.453125,-9.287291,1.6306154828304835,0.1641721694154457,-0.1717883650711964,355.8193,72.84621,179.4358,0.5931967,0.03227118,0.804216,20
20.86,1.599539,1.611191,-9.241838,1.5820475729866623,0.1181782855895963,-0.0638862585555761,359.4076,72.88747,179.7449,0.5940146,0.0054814,0.8044349,20
20.88,1.710853,1.765599,-9.197483,1.530591439260486,0.1157362146834775,0.038708170361895,2.994527,72.94808,180.0569,0.5942452,-0.02130624,0.8038595,20
20.9,1.611012,1.269732,-9.303282,1.4802801039033526,0.1369704829418283,0.1445987036185285,354.0899,77.00951,180.09,0.6217833,0.03985396,0.7814907,20
20.92,1.726623,1.432838,-9.263552,1.409238386790166,0.1080328271545476,0.2481920599844385,357.6249,77.03542,180.4781,0.6226851,0.01361755,0.7821872,20
20.94,1.732666,1.250209,-9.308148,1.3267326507793733,0.078302656764578,0.3512187555437691,359.3958,79.53995,181.4263,0.6396991,-0.003909708,0.7685068,20
20.96,1.774642,1.245739,-9.304799,1.266366040540097,0.1208385645815176,0.4580677352447052,1.393244,80.31115,181.6716,0.6446134,-0.01869706,0.7642729,20
20.98,1.894311,1.410425,-9.271791,1.1953433653168224,0.1594883987254121,0.5615138069506749,5.026454,80.38647,182.0558,0.6440421,-0.04505693,0.7635223,20
21.0,2.011683,1.571344,-9.239491,1.0847905647766185,0.0985984742675159,0.6440156890349259,8.658704,80.48689,182.4472,0.6428159,-0.07136455,0.7619964,20
21.02,1.874803,1.226265,-9.299157,0.9522391027883176,0.0115594629991676,0.7134160366653484,10.30797,82.21723,183.2113,0.6526766,-0.08600783,0.7517787,20
21.04,1.994198,1.396573,-9.272379,0.85615836496552,0.0216899045127677,0.7979375576923857,13.92574,82.34078,183.5442,0.6503111,-0.1114172,0.7493142,20
21.06,2.111623,1.563215,-9.246109,0.7360163409855556,-0.0212127474029114,0.8672238557111009,17.54168,82.48847,183.8911,0.6472928,-0.136707,0.746098,20
21.08,1.975453,1.19953,-9.288483,0.6086597473618693,-0.0628921342450807,0.9319169812201112,14.74532,84.11224,183.7545,0.6608425,-0.1169889,0.7387713,20
21.1,2.092777,1.375949,-9.2651,0.5138586496761344,-0.029475529220786,1.011029511148136,18.32318,84.27094,184.1241,0.6576504,-0.1418258,0.7354702,20
21.12,2.20852,1.548855,-9.242094,0.402700796894556,-0.0501114889903777,1.0777287727933134,21.89892,84.45805,184.5126,0.6538116,-0.1665155,0.7314466,20
21.14,2.07357,1.168057,-9.274183,0.3023390117580032,-0.0392664684517735,1.1485963195708375,20.12986,84.16698,184.1767,0.6547337,-0.1536655,0.7345303,20
21.16,2.092884,1.160635,-9.271266,0.1988911287369626,-0.0283829078512818,1.2138226021648229,21.54776,83.74088,184.2144,0.6501215,-0.163216,0.7356227,20
21.18,2.20653,1.347272,-9.25276,0.0720554179982597,-0.1015569372473694,1.255156541126965,25.06475,83.87852,184.4275,0.6456965,-0.1864908,0.7311906,20
21.2,2.319239,1.530644,-9.234464,-0.0249379057747389,-0.0911741945756132,1.316655678305094,28.57999,84.03512,184.6565,0.6406624,-0.2095795,0.72607,20
21.22,2.17391,1.138996,-9.255865,-0.1226626631137051,-0.0805157284434507,1.3721232523611864,26.27472,82.38945,184.0302,0.6349725,-0.1934745,0.7375925,20
21.24,2.285481,1.331515,-9.241102,-0.2119227044179653,-0.0982914908854871,1.4324928035653004,29.75179,82.44329,184.0318,0.6297009,-0.2153847,0.7324578,20
21.26,2.239903,1.124844,-9.242314,-0.2933042276648222,-0.1111603010103595,1.4928203673610834,32.06423,79.52322,183.5544,0.6078395,-0.2312621,0.7439377,20
21.28,2.349643,1.321884,-9.22847,-0.3730288761636637,-0.1215311380940684,1.5474446801064607,35.49734,79.44366,183.3161,0.6016046,-0.2519836,0.7378767,20
21.3,2.322987,1.118832,-9.226944,-0.451298051736574,-0.1327445484413854,1.59552862082491,37.34935,77.7713,182.9896,0.5880133,-0.2646685,0.7424117,20
21.32,2.431354,1.317615,-9.213491,-0.5137279653421655,-0.1439771654209589,1.650157108630855,40.73943,77.57188,182.5892,0.5809606,-0.2845212,0.7354868,20
21.34,2.461374,1.115137,-9.206832,-0.5617997922053366,-0.1513901406133971,1.7113605722382057,43.24986,76.07045,181.6981,0.5684152,-0.2987208,0.73548,20
21.36,2.568101,1.315501,-9.191278,-0.5989085904840908,-0.126169823835859,1.7738434982863749,46.60059,75.78457,181.2187,0.5607376,-0.3181366,0.7273486,20
21.38,2.674741,1.512982,-9.175784,-0.6352653659848917,-0.1578318809896043,1.8248828383711493,49.94847,75.43587,180.6811,0.5525777,-0.3372723,0.7185915,20
21.4,2.781127,1.707592,-9.160372,-0.6666091651795029,-0.1888576080054815,1.8684014744152184,53.29287,75.00805,180.0684,0.5439429,-0.3561116,0.7092168,20
21.42,2.746662,1.110179,-9.140538,-0.6792484437135916,-0.1337942354489217,1.9255907343177816,50.65157,71.43045,178.6396,0.531738,-0.3410261,0.7308782,20
21.44,2.850831,1.309775,-9.120489,-0.6697836108513928,-0.1351675613594687,2.0010484700113924,53.94188,70.88871,177.8888,0.5235582,-0.3599041,0.7211034,20
21.46,3.006261,1.102377,-9.059642,-0.6557977730189049,-0.1622119520920891,2.0698885015873616,59.63218,65.914,173.9654,0.4933031,-0.3917817,0.7127595,20
21.48,3.095204,1.104613,-9.025781,-0.6359182575262441,-0.1295893801547122,2.1397377150066923,61.18221,62.13128,171.1392,0.4765474,-0.4003022,0.7148703,20
21.5,3.195568,1.295999,-9.000757,-0.6125057416290346,-0.0982793036016532,2.201257205990639,64.33433,60.59066,169.3481,0.4678476,-0.4180647,0.7028135,20
21.52,3.373272,1.129133,-8.898301,-0.5840310300253889,-0.14550366855671,2.25770421899575,60.9179,51.38499,166.4606,0.4249513,-0.4095662,0.7454487,20
21.54,3.47254,1.31376,-8.867209,-0.5519684608672843,-0.1074623708232812,2.3103925317733416,63.91426,49.08748,163.8104,0.4167171,-0.4270371,0.7331345,20
21.56,3.57089,1.495733,-8.836449,-0.5257178073467734,-0.0441462907572483,2.352549931950819,66.85123,46.16654,160.5412,0.408153,-0.4441628,0.7202389,20
21.58,3.647794,1.17855,-8.725201,-0.4898833790410203,-0.0499281411867234,2.394572763702862,52.06508,50.59227,170.953,0.4140441,-0.3652809,0.7950641,20
21.6,3.703583,1.195911,-8.67465,-0.4546132381520104,-0.028336669475302,2.4294344706045536,48.29465,51.79834,172.9149,0.4205451,-0.3426671,0.80824,20
21.62,3.800302,1.372988,-8.632069,-0.4177206241247729,-0.0074226830738072,2.455928594488668,51.3698,50.89149,171.6605,0.4146352,-0.3621864,0.7980745,20
21.64,3.914154,1.239812,-8.52387,-0.3865058253890552,0.0127443150651859,2.4765748180773164,32.08703,53.06908,175.04,0.4396345,-0.2284471,0.8536722,20
21.66,4.021865,1.410075,-8.471409,-0.3563271800116763,0.056359568994919,2.4931425982990816,35.55045,52.66945,174.2289,0.4356745,-0.2519878,0.8455341,20
21.68,4.127828,1.576812,-8.419846,-0.3286875282623871,0.0978790206545359,2.499282301675462,39.00882,52.18886,173.3502,0.431304,-0.2752957,0.8365929,20
21.7,4.115087,1.263678,-8.358712,-0.3108518633566772,0.0665972885407178,2.483555813978145,13.98479,54.66173,176.982,0.4584033,-0.09610979,0.879985,20
21.72,4.221168,1.431481,-8.297222,-0.2933942992250566,0.0793493023486106,2.472285410781332,17.54286,54.6244,176.6539,0.457235,-0.1221958,0.8757108,20
21.74,4.325399,1.595594,-8.236843,-0.2795692113193594,0.0916033992317427,2.452552484518963,21.10003,54.56537,176.3191,0.4556259,-0.1481691,0.8705857,20
21.76,4.348089,1.279445,-8.125742,-0.2636851914210928,0.1033807625763014,2.439304478707526,354.5019,55.40288,178.2866,0.4636425,0.04940257,0.8845976,20
21.78,4.399256,1.284981,-8.062432,-0.2527758294397886,0.1140280118529135,2.4185284895723367,353.3525,54.95913,178.7261,0.4600558,0.05655407,0.8859259,20
21.8,4.498034,1.448135,-7.985731,-0.2351395882314417,0.1689035935572867,2.402948144844545,356.9569,54.9945,178.9186,0.4613005,0.02790736,0.8867965,20
21.82,4.507064,1.293703,-7.939265,-0.2348746402346525,0.1506844950626279,2.365138170243408,352.83,53.94893,179.2641,0.4523386,0.05863307,0.8896287,20
21.84,4.603244,1.455082,-7.858978,-0.2382161568820464,0.1773468417084882,2.330989199178405,356.4229,53.97642,179.5208,0.4534658,0.02970925,0.8907174,20
21.86,4.612377,1.270029,-7.794996,-0.2489370247141274,0.2015681884576699,2.290810846334531,354.0947,52.4489,179.9647,0.4412879,0.04634467,0.8958861,20
21.88,4.645243,1.261961,-7.753983,-0.2770792110915449,0.1488886233281105,2.229764353849752,355.7621,51.96006,180.5229,0.4379054,0.03123984,0.8982489,20
21.9,4.737003,1.425528,-7.672054,-0.3122769846667385,0.0946745628015544,2.1631711532389906,359.345,52.00078,180.7726,0.4383948,0.00218189,0.8987392,20
21.92,4.762644,1.24604,-7.602595,-0.3296657338500657,0.0852684924115338,2.106072209820932,1.391316,50.78863,181.5458,0.4286269,-0.01675167,0.9032994,20
21.94,4.853237,1.411029,-7.518051,-0.3594548842099985,0.0519691511410268,2.0381445546624923,5.028169,50.85439,181.8046,0.4282736,-0.04636582,0.9024471,20
21.96,4.942129,1.57226,-7.435171,-0.3797262212523383,0.0698983569114047,1.9789582402286323,8.66408,50.93729,182.0701,0.4274867,-0.07593048,0.9006814,20
21.98,5.029149,1.729901,-7.35412,-0.3957545100892284,0.111956632813239,1.9215202057627017,12.29852,51.03833,182.3441,0.4262673,-0.1054098,0.8980051,20
22.0,4.914639,1.226374,-7.393367,-0.4375345041366159,0.0774485236927894,1.839401051528589,10.32464,48.94376,183.1182,0.4101855,-0.09308927,0.9071516,20
22.02,4.914491,1.217783,-7.380782,-0.4914238729135994,0.0166722872170554,1.750014672599419,11.86397,48.67714,183.2804,0.4070578,-0.1058574,0.9070951,20
22.04,5.001086,1.390522,-7.296216,-0.5204720202754606,0.0056448070561314,1.6657326786661533,15.46481,48.77749,183.4891,0.4052508,-0.1349399,0.9037566,20
22.06,4.970281,1.191196,-7.287194,-0.55507005726364,-0.0032471235418389,1.5816991509558558,16.07344,47.62726,183.7021,0.3954573,-0.1407524,0.9072293,20
22.08,5.054223,1.370004,-7.202922,-0.595725003226546,-0.0129761351922912,1.4977329358591789,19.65674,47.73726,183.8947,0.3931677,-0.1695567,0.9028812,20
22.1,5.137163,1.545336,-7.119728,-0.6239142219199891,-0.0258777748708218,1.4022589373742207,23.2386,47.86304,184.0994,0.3904933,-0.1981864,0.8976495,20
22.12,5.033441,1.161119,-7.166288,-0.6659136185187138,-0.0638075045371067,1.297443827650781,21.54868,42.42683,184.0215,0.3491303,-0.186639,0.9176143,20
22.14,5.111059,1.348211,-7.08119,-0.7120436729576396,-0.0999267575532152,1.1953930216564073,25.07088,42.48194,184.0325,0.3463185,-0.2146159,0.9120497,20
22.16,5.188087,1.532032,-6.996809,-0.7368514577338376,-0.1106521160685076,1.092170414301424,28.59204,42.53953,184.0477,0.3431801,-0.2423821,0.9056252,20
22.18,5.12341,1.139324,-7.036329,-0.7500444923428482,-0.0898173149698924,0.9957472108445768,26.27589,39.42663,183.8988,0.3210163,-0.2250252,0.9188296,20
22.2,5.198055,1.332148,-6.951838,-0.7655908462929337,-0.0685596220104201,0.9038999881439904,29.75633,39.4124,183.7608,0.317785,-0.2522904,0.9122228,20
22.22,5.272351,1.52183,-6.867795,-0.7976009082643074,-0.1331833140483858,0.8013056986179345,33.23538,39.38849,183.6183,0.3142642,-0.2793162,0.904775,20
22.24,5.246703,1.121927,-6.85984,-0.7936797561833706,-0.1110168570257563,0.7101111038871744,34.69073,35.26574,183.224,0.2810344,-0.2921451,0.9118593,20
22.26,5.279933,1.118861,-6.814249,-0.790719381133886,-0.0884132952703797,0.6252878392934318,37.34138,34.53649,182.9813,0.2731764,-0.312911,0.9068377,20
22.28,5.349819,1.317666,-6.730406,-0.7741128543761346,-0.0921850740473421,0.5367289569060311,40.7294,34.32859,182.5713,0.2691373,-0.3386196,0.8978217,20
22.3,5.419616,1.513521,-6.646736,-0.7575742977791975,-0.0937006939417144,0.4556969233485879,44.11516,34.07545,182.1216,0.2648617,-0.3640225,0.8880166,20
22.32,5.408449,1.115078,-6.661515,-0.7211931985042317,-0.0367865724324756,0.3841767566545709,43.25314,34.14188,181.7248,0.2675571,-0.3563854,0.890177,20
22.34,5.474277,1.113778,-6.576216,-0.6856632894025347,-0.0648842246591483,0.3193245725783573,46.34082,33.36284,180.3597,0.2627116,-0.3777349,0.8809992,20
22.36,5.541399,1.314302,-6.493307,-0.6403732898429046,-0.0608221589722819,0.2613650532397733,49.65732,33.03907,179.8567,0.2585631,-0.4022504,0.8699558,20
22.38,5.578819,1.11004,-6.442954,-0.5950354345553861,-0.0551909474216592,0.211418347546918,50.63734,32.17583,178.7178,0.2550756,-0.408076,0.8671625,20
22.4,5.645226,1.309526,-6.360949,-0.5501527914367155,-0.0513923898960037,0.1696735712131865,53.91762,31.70076,178.0541,0.2508167,-0.431916,0.8552165,20
22.42,5.711576,1.506258,-6.27908,-0.5033921915617745,-0.135014812332424,0.1404349021435269,57.1929,31.11444,177.2827,0.2463503,-0.4553886,0.8425636,20
22.44,5.848665,1.104457,-6.097086,-0.4371363630377496,-0.1036761283212453,0.1187710534628165,61.20124,25.77673,171.2175,0.2294203,-0.4800692,0.8278949,20
22.46,5.916749,1.109027,-6.007736,-0.3715042405165432,-0.07376145789932,0.1047990202514891,62.62566,22.3604,167.9272,0.2183502,-0.4896004,0.822885,20
22.48,5.981149,1.297745,-5.926726,-0.3047239165389737,-0.0608767322194427,0.1073493310506861,65.73724,20.44519,165.745,0.2141803,-0.5114769,0.808246,20
22.5,6.045116,1.483835,-5.846325,-0.2397864422090263,-0.0424198829936852,0.1132314599546026,68.80931,17.94106,162.9772,0.2098389,-0.532935,0.7929602,20
22.52,6.120597,1.144073,-5.738348,-0.1772834910001546,-0.0242268243959916,0.1259330058373357,58.41614,19.89392,167.8165,0.2009288,-0.461933,0.8459328,20
22.54,6.184131,1.326089,-5.655763,-0.1211557650922181,0.0015344163197439,0.1421869760087508,61.47149,18.18864,165.7896,0.1972362,-0.4839748,0.8322194,20
22.56,6.24702,1.505443,-5.574089,-0.0688834758701639,0.0265362995177717,0.1643299999342032,64.49036,16.04745,163.3312,0.1933889,-0.5056283,0.8178532,20
22.58,6.367537,1.211818,-5.426419,-0.0209522246353925,0.047666674548422,0.1923452181036407,43.11782,27.06813,173.9518,0.2361955,-0.3452738,0.8984181,20
22.6,6.426084,1.227018,-5.365838,0.025227345805934,0.1363562614682796,0.2140972488749549,38.06606,28.59302,174.6724,0.2478745,-0.304823,0.9113221,20
22.62,6.498653,1.397134,-5.269921,0.0718674648720898,0.1556713396637075,0.2290853784131939,41.59329,28.20183,173.9846,0.2455117,-0.331929,0.9008901,20
22.64,6.588881,1.257299,-5.182055,0.1146891823665066,0.1736258871744267,0.2495819092198897,20.11339,33.48402,176.5643,0.2885222,-0.1586428,0.9409668,20
22.66,6.662023,1.425723,-5.086342,0.1499688232660472,0.1893894621612812,0.2623631167523914,23.62542,33.44202,176.3189,0.2877702,-0.1869112,0.9350594,20
22.68,6.733957,1.590575,-4.992305,0.1748049816106085,0.1813407263053993,0.273019400256236,27.13822,33.38176,176.0632,0.286746,-0.2150108,0.9282681,20
22.7,6.755877,1.271908,-4.975767,0.1930319415424615,0.1710389151419868,0.2878468279161801,2.461248,37.65534,177.936,0.3229622,-0.01451321,0.945997,20
22.72,6.788315,1.275504,-4.932245,0.2170554930409389,0.1828344608016353,0.2945941043856734,358.4676,38.491,178.1994,0.3293481,0.01780231,0.9439834,20
22.74,6.863007,1.441013,-4.833894,0.2346350914633683,0.1930426068304028,0.3044180407484603,2.04568,38.5407,178.2944,0.3301876,-0.0119377,0.9436294,20
22.76,6.941497,1.291315,-4.732656,0.2451741370012692,0.1988306595363002,0.3169940201339354,352.2434,39.95243,179.0491,0.3403085,0.06639381,0.9378418,20
22.78,7.01596,1.453326,-4.631976,0.2633034026405592,0.2053453473842972,0.3113576217996268,355.8399,39.97722,179.2839,0.3413883,0.03624354,0.9392006,20
22.8,7.088959,1.611507,-4.53338,0.282321232664553,0.2340876185274599,0.3077245282503991,359.4352,40.01662,179.5196,0.3421299,0.006066055,0.9396305,20
22.82,7.08257,1.282986,-4.541836,0.2960847407400797,0.2177155922043247,0.2912390827041184,353.7705,40.36381,179.7601,0.3443846,0.05172076,0.9372526,20
22.84,7.154727,1.445089,-4.441746,0.3137645371034838,0.2119987386229083,0.2723631433968693,357.324,40.38944,180.0612,0.3451293,0.02173008,0.9382645,20
22.86,7.225465,1.603474,-4.343728,0.3259903752212718,0.205812262693761,0.2528277217793113,0.8763916,40.43367,180.3636,0.3455393,-0.008273119,0.9383678,20
22.88,7.227164,1.25049,-4.348901,0.3449238974141471,0.2477816569775638,0.2345165896380986,359.374,40.83536,181.3693,0.3488924,0.0009508398,0.9370709,20
22.9,7.299725,1.415275,-4.25032,0.3547181930915624,0.2402557577571452,0.1996705980629046,2.955767,40.89026,181.666,0.3488058,-0.02924053,0.9367276,20
22.92,7.32858,1.237772,-4.201931,0.3573679120897175,0.207152894843783,0.1583304314391531,6.139982,41.08288,182.5779,0.3491645,-0.05801964,0.9352611,20
22.94,7.361097,1.232404,-4.152568,0.3653299611215674,0.2248399407613958,0.1178903664160688,8.196922,41.03188,182.8534,0.3477967,-0.07562059,0.9345137,20
22.96,7.434627,1.401451,-4.054995,0.3560710288034294,0.1904096012682795,0.0613715738286351,11.80342,41.1282,183.1274,0.3466362,-0.1057688,0.9319562,20
22.98,7.506935,1.566845,-3.959136,0.3426829692093323,0.1565704266883407,0.0037520896471922,15.40837,41.24379,183.4117,0.3451305,-0.1358029,0.9284714,20
23.0,7.449555,1.208887,-4.019172,0.3246308732230276,0.1204329882728832,-0.0551426779392345,13.41868,41.24384,183.5297,0.3462542,-0.1200672,0.9303416,20
23.02,7.483323,1.191157,-3.964794,0.3095596357166372,0.099606626738957,-0.119094829365124,16.05257,41.11684,183.7613,0.3432446,-0.1420763,0.9282526,20
23.04,7.511285,1.183428,-3.921582,0.3047117179436893,0.1079218071433459,-0.1725075826536019,17.36685,40.62511,183.8988,0.3381472,-0.1531775,0.9283097,20
23.06,7.582722,1.364272,-3.828511,0.2971232341095702,0.1162297695215393,-0.2259326093881579,20.9129,40.74475,184.1157,0.3360088,-0.1823192,0.9235561,20
23.08,7.653389,1.541731,-3.736523,0.2843595617971677,0.0965559480560093,-0.286816023700478,24.45745,40.88219,184.3463,0.3335481,-0.2112773,0.9179169,20
23.1,7.590764,1.160968,-3.798703,0.2703416327341112,0.0793940018499674,-0.3466466729990005,21.54354,38.52401,184.0916,0.3175707,-0.1878913,0.9289958,20
23.12,7.592298,1.153241,-3.788828,0.2447709765251327,0.004990617508105,-0.4148637417761369,23.03084,37.70945,184.0406,0.3098077,-0.1999659,0.9289904,20
23.14,7.661237,1.342239,-3.698321,0.2454776356833241,0.0154489305581401,-0.4627519766333312,26.52287,37.77237,184.0756,0.3071406,-0.2281107,0.9229907,20
23.16,7.648888,1.132873,-3.693897,0.2355784781490579,-0.02990451018285,-0.5188023293356603,27.99454,35.02419,183.9407,0.283869,-0.2405677,0.9272922,20
23.18,7.7158,1.327276,-3.604393,0.226232726126683,-0.0733809621969845,-0.5733938782307149,31.45532,35.01294,183.8208,0.2807725,-0.2680192,0.920186,20
23.2,7.78247,1.518594,-3.515286,0.2381905482652548,-0.0322428692329183,-0.6081711847135137,34.91509,34.99237,183.6953,0.2774203,-0.2952183,0.9122424,20
23.22,7.752607,1.118855,-3.535165,0.2401882712242853,-0.0775730116417917,-0.6527337307739605,37.3471,31.51615,182.9844,0.2491682,-0.3147378,0.9137087,20
23.24,7.81804,1.317638,-3.447509,0.2437844021394761,-0.1212024458873308,-0.6951667161941588,40.74295,31.30767,182.5774,0.2453462,-0.340798,0.9045689,20
23.26,7.883391,1.513459,-3.360031,0.2635204302254239,-0.0784962294918468,-0.7242342531620294,44.13653,31.05404,182.1306,0.2413077,-0.3665489,0.8946307,20
23.28,7.889348,1.119533,-3.361873,0.2816685373548104,-0.0923325562712989,-0.7533830008237944,43.25018,31.57246,181.7388,0.247491,-0.3584283,0.8959716,20
23.3,7.953843,1.319813,-3.275381,0.3025035845945398,-0.1037965537847003,-0.779585328755058,46.60564,31.31146,181.3016,0.2435011,-0.3837049,0.8855093,20
23.32,8.018313,1.517208,-3.188993,0.3256548793927631,-0.1162969466852127,-0.8029758949961581,49.95853,30.99304,180.8111,0.2393018,-0.4086425,0.8742846,20
23.34,8.075094,1.125495,-3.112003,0.3702094219686478,-0.1308368214608112,-0.8058357352006353,50.64627,30.02146,178.7384,0.2386468,-0.4105254,0.8717937,20
23.36,8.127065,1.125258,-3.042493,0.418081985809845,-0.1416006227981139,-0.8059368468537932,53.25058,29.39679,177.6946,0.2354989,-0.4288372,0.8622394,20
23.38,8.189885,1.323702,-2.958429,0.4677724075361813,-0.1509621053198657,-0.8034511267569515,56.51481,28.82104,176.9327,0.2314038,-0.452507,0.8496577,20
23.4,8.252618,1.519424,-2.874548,0.5233722578124596,-0.1019860829603487,-0.7936368833637453,59.77275,28.104,176.0328,0.2271186,-0.4757947,0.836379,20
23.42,8.335193,1.130705,-2.761861,0.5996088952968779,-0.1338601011160196,-0.769096840487398,61.18814,24.10466,171.2431,0.2172127,-0.482559,0.8312505,20
23.44,8.397755,1.321958,-2.67928,0.675970418256703,-0.1669256678668692,-0.7425409850360707,64.35833,22.65021,169.5546,0.2130542,-0.5049011,0.8169413,20
23.46,8.459985,1.510575,-2.597206,0.7452599344441719,-0.1627741239289242,-0.7272440076113295,67.50371,20.76158,167.4349,0.2087236,-0.526826,0.8019753,20
23.48,8.592535,1.180408,-2.411025,0.8130898911120183,-0.1301085433503067,-0.712049389226031,58.42258,18.39379,167.7858,0.1899631,-0.4641826,0.8484177,20
23.5,8.644226,1.199595,-2.33973,0.8792089520472306,-0.1442538062775121,-0.6975938544521146,55.81387,18.91386,168.7787,0.1896401,-0.4452682,0.8600044,20
23.52,8.705734,1.379423,-2.254809,0.9441040435837866,-0.1595363465532418,-0.6819400097586934,58.87596,17.44708,166.981,0.1863071,-0.4676894,0.8468133,20
23.54,8.824669,1.257095,-2.112274,1.016226322687761,-0.1438926636241271,-0.6687072335370511,43.17788,25.97839,173.9339,0.2276772,-0.3469694,0.9004101,20
23.56,8.889742,1.431009,-2.022171,1.0878382522130798,-0.128823000632699,-0.6542879969103721,46.44857,25.45622,173.1263,0.2251662,-0.3718118,0.8895656,20
23.58,8.953899,1.601896,-1.933418,1.152462907397039,-0.1622393944708263,-0.6457585305542687,49.71249,24.82879,172.2199,0.2224667,-0.3963353,0.8779776,20
