t,pX,pY,pZ,aX,aY,aZ,reX,reY,reZ,rtX,rtY,rtZ,ID
3.74,-42.31343,1.104166,-36.85756,2.31591004104041,-0.1440120466931858,1.274941016952547,13.38211,356.4897,163.841,-0.01374908,-0.1195804,0.983371,12
3.76,-42.33004,1.306041,-36.90142,2.362158308928332,-0.1607111494132807,1.2920724268382404,11.96868,355.5109,164.2464,-0.02430728,-0.1085318,0.9849707,12
3.78,-42.37652,1.496058,-36.85644,2.4028073384229094,-0.1497859823106192,1.3063135505508183,13.65202,352.9992,165.2325,-0.04487407,-0.1254402,0.9837738,12
3.8,-42.32554,1.157609,-36.62397,2.437865126326216,-0.1128608611291697,1.317333542898414,15.0362,356.1362,162.84,-0.01353933,-0.1342878,0.9804093,12
3.82,-42.31768,1.157331,-36.59975,2.483419988208744,-0.1256476083361583,1.3362084415247866,16.45042,356.2695,164.0658,-0.01208421,-0.1460734,0.9802867,12
3.84,-42.3235,1.356766,-36.6004,2.5236536252217725,-0.1115788494614129,1.3518642503952565,16.75952,353.7176,163.9386,-0.03335144,-0.1516612,0.9792657,12
3.86,-42.25196,1.170774,-36.50593,2.5613857522323027,-0.1221784188129803,1.3609619285810624,17.19883,358.0754,166.7555,0.000746045,-0.1504217,0.9823121,12
3.88,-42.21884,1.177383,-36.46484,2.59319616771132,-0.1062270861297414,1.3680404348326205,16.11838,359.4363,167.6107,0.01028586,-0.1399013,0.9844051,12
3.9,-42.22735,1.375855,-36.45863,2.61903522277615,-0.0653275494884692,1.3727144362133297,16.55122,356.8251,167.4406,-0.0115115,-0.146015,0.9837081,12
3.92,-42.1207,1.203714,-36.34789,2.64643498045604,-0.0789094762705264,1.3807286188423378,8.192429,3.693033,170.648,0.03785306,-0.06853676,0.9934218,12
3.94,-42.0744,1.212454,-36.28992,2.668577960602196,-0.0656359278991272,1.3846190638548306,5.552282,4.324939,171.4121,0.04120701,-0.0454416,0.9951769,12
3.96,-42.07113,1.408047,-36.26367,2.684879170677508,-0.0274506821615325,1.3855554624632935,6.553109,1.389978,170.7708,0.01666843,-0.05599178,0.9950002,12
3.98,-41.97574,1.233551,-36.17517,2.6972330928201336,-0.042579506837262,1.3890553510015409,0.5169912,5.846649,173.4154,0.05117359,-0.001569407,0.9970273,12
4.0,-41.96589,1.426346,-36.13779,2.704363759913133,-0.0303083581918435,1.386298799218447,1.826627,2.925133,172.5457,0.02650243,-0.01424179,0.9974069,12
4.02,-41.87925,1.255583,-36.00544,2.711317050330651,-0.0481297622911346,1.3736089796939197,357.7228,7.600485,176.533,0.06563494,0.02182243,0.9971876,12
4.04,-41.73236,1.300827,-35.92796,2.711646644683607,-0.0392063359108043,1.358988395134043,352.2312,10.04374,178.371,0.08636678,0.06871809,0.9938569,12
4.06,-41.70432,1.292635,-35.93105,2.7054034366963107,-0.0050842868412488,1.3420908475837257,351.9001,10.3006,178.9278,0.08888245,0.07117543,0.9934916,12
4.08,-41.69321,1.483372,-35.89409,2.692429909760528,-0.0298589656797793,1.3200690720195096,353.1311,7.551486,178.0025,0.06468128,0.06091313,0.9959548,12
4.1,-41.6825,1.674122,-35.85847,2.674283214451345,-0.0267168757711883,1.2940055273441056,354.3018,4.793933,177.0069,0.0404598,0.05073633,0.9976041,12
4.12,-41.56347,1.257338,-35.83636,2.654799402278025,-0.0527375971180235,1.2640304267500833,0.2182201,11.71272,181.2891,0.1020069,-0.003042056,0.9947183,12
4.14,-41.54233,1.447529,-35.79613,2.6305123762024545,-0.0768029797556608,1.222801004550294,1.634372,8.892924,180.1652,0.07749906,-0.01433093,0.9968895,12
4.16,-41.52274,1.636972,-35.75508,2.601065316419355,-0.0728583687897106,1.1802363905789024,3.034396,6.063876,179.0025,0.05310222,-0.02597869,0.9982002,12
4.18,-41.45485,1.24303,-35.78725,2.562663283754649,-0.0986841700163219,1.1284164969961576,6.967416,10.71485,182.5173,0.0918446,-0.06253186,0.993677,12
4.2,-41.41982,1.236755,-35.78497,2.519513903425397,-0.0960800318469368,1.0763420696790655,9.045972,11.76948,182.7937,0.1002657,-0.0809117,0.9915348,12
4.22,-41.3289,1.225063,-35.81764,2.469034465418771,-0.1254497607387307,1.0152440463987045,11.29239,13.28152,182.1883,0.1131956,-0.09990501,0.9885089,12
4.24,-41.29763,1.419319,-35.78189,2.415753476268989,-0.1252876738561427,0.9521739092878984,12.66685,10.38962,181.0119,0.08901611,-0.1106514,0.9898642,12
4.26,-41.27322,1.198123,-35.78416,2.35931788239549,-0.0975865568569495,0.8886747498345402,14.83252,13.08645,183.4465,0.1090921,-0.1315764,0.9851723,12
4.28,-41.23187,1.397422,-35.76906,2.292070732209337,-0.1296851090022847,0.8155308714832348,15.68395,10.12461,181.8843,0.08516728,-0.1373282,0.9868488,12
4.3,-41.1847,1.187757,-35.81642,2.218019532971716,-0.160729324617452,0.7382577166977331,16.4641,12.6404,182.7521,0.1055015,-0.1448877,0.983776,12
4.32,-41.1586,1.178027,-35.82164,2.1447893278838315,-0.1912109977704902,0.6524524342848848,18.07117,13.56979,182.9486,0.1126252,-0.1588983,0.9808275,12
4.34,-41.12352,1.376172,-35.79034,2.0705747416622247,-0.1909868528260129,0.5677840102751208,19.35774,10.6024,181.7725,0.08847599,-0.1687954,0.9816722,12
4.36,-41.07418,1.148683,-35.81016,1.9876519182548016,-0.2209013732329384,0.4840634891653295,23.31417,13.74476,183.7451,0.1105727,-0.2043243,0.9726087,12
4.38,-41.04723,1.141695,-35.80483,1.9015201677296911,-0.2484457594248427,0.394964808594799,25.00418,13.70959,183.6791,0.1095641,-0.2185576,0.9696394,12
4.4,-40.99868,1.344226,-35.79371,1.8158010295679787,-0.2446962143960956,0.3078428990880217,25.82436,10.43824,182.0095,0.08474892,-0.2240515,0.97088,12
4.42,-40.96697,1.133028,-35.81974,1.72899763592192,-0.2707212032456382,0.2272235067661885,27.92763,12.67621,182.4719,0.1019348,-0.2420892,0.9648671,12
4.44,-40.91338,1.122979,-35.76945,1.642847844186603,-0.2939104332480232,0.1438103553424845,33.71096,13.68503,182.8558,0.106813,-0.2906454,0.9507886,12
4.46,-40.85433,1.32739,-35.75758,1.5578246762501229,-0.2853901796806902,0.0628446742512416,34.66547,9.827786,180.753,0.07981673,-0.2973563,0.9512296,12
4.48,-40.80904,1.119646,-35.75458,1.4682474735269713,-0.3054793939704803,-0.0098329650146773,37.82893,12.81397,181.3869,0.1016582,-0.3233857,0.9404641,12
4.5,-40.75403,1.323828,-35.72802,1.3813589654300404,-0.2935972498166026,-0.0835280992340052,39.17379,8.863585,179.4509,0.0744017,-0.333881,0.9391824,12
4.52,-40.6989,1.115246,-35.66356,1.291416288124016,-0.3097048785120823,-0.1542183181702139,44.11514,16.90553,180.6471,0.1341354,-0.3722221,0.9170366,12
4.54,-40.63202,1.320483,-35.64277,1.206689775495561,-0.3237492776407452,-0.209292543468285,45.49842,12.24447,178.055,0.104865,-0.382768,0.9161146,12
4.56,-40.56767,1.524271,-35.61514,1.1249857421567837,-0.3058254341141876,-0.2638039520620001,46.88187,7.494496,175.3916,0.07587262,-0.3942214,0.9137237,12
4.58,-40.52155,1.111228,-35.54408,1.0473519199509689,-0.3161028305288722,-0.3075432451803745,50.19625,14.28155,178.0201,0.1198258,-0.418872,0.8975137,12
4.6,-40.4754,1.108516,-35.49889,0.9720962398998428,-0.2947162691999796,-0.3478893120543356,52.83279,14.74218,176.9599,0.1265628,-0.4380117,0.8863568,12
4.62,-40.3371,1.108119,-35.39666,0.9083425844086132,-0.3003759039241616,-0.3592396526852308,58.10001,12.04927,171.7309,0.1263293,-0.4750189,0.8634312,12
4.64,-40.27398,1.309502,-35.36914,0.8466241638515619,-0.2747812893513389,-0.368811476800829,59.44523,5.788854,167.8678,0.09593438,-0.4877623,0.8598259,12
4.66,-40.19088,1.115896,-35.25153,0.7869207120671788,-0.2199104319629146,-0.3749028475027156,61.23954,5.034385,166.0454,0.0993282,-0.5004874,0.8506516,12
4.68,-40.13954,1.121706,-35.16407,0.736133180429956,-0.2165003694261074,-0.3578906134409445,61.14301,4.955009,166.4196,0.0970365,-0.5001733,0.8515574,12
4.7,-40.07863,1.321165,-35.14668,0.6873393181767486,-0.182305111493689,-0.3393248930767978,61.83047,357.7809,161.6047,0.0657068,-0.509724,0.8483294,12
4.72,-39.998,1.155904,-35.06672,0.6547654017331661,-0.1666859265026594,-0.3050363591405824,56.50402,3.765583,165.9912,0.08641683,-0.4660349,0.8719317,12
4.74,-39.87915,1.188611,-34.95264,0.6235007332902569,-0.1216954629503072,-0.2660700798741864,50.65779,8.729014,169.8145,0.10638,-0.4187833,0.894798,12
4.76,-39.81519,1.206685,-34.89902,0.5939444032997496,-0.0490091983786737,-0.22220114415137,46.89409,11.07383,171.7614,0.1167407,-0.388663,0.9080312,12
4.78,-39.76683,1.398014,-34.86128,0.5775411478971018,-0.0562647542883475,-0.1561401928249282,48.26746,5.978731,168.9228,0.08677884,-0.4018118,0.9050394,12
4.8,-39.71854,1.589208,-34.82599,0.5719648272724678,-0.0645972859709849,-0.0927903055803724,49.37666,0.620786,165.7776,0.05659051,-0.4138539,0.9013112,12
4.82,-39.55663,1.255929,-34.71265,0.5649783142293625,-0.0480795509593342,-0.0619735008844868,25.56438,19.07647,175.357,0.1703046,-0.2114619,0.9594617,12
4.84,-39.50005,1.443706,-34.67331,0.5671666244367151,-0.0299577306390953,-0.0220728149278457,27.2123,14.97912,173.094,0.1405055,-0.2251857,0.9600476,12
4.86,-39.42347,1.278084,-34.65783,0.5755082492902215,-0.0135061796587534,0.0200898505105957,12.36273,20.49639,175.7477,0.1806874,-0.09932314,0.9769411,12
4.88,-39.3699,1.46444,-34.61196,0.5795367338062807,0.0045734675121322,0.0510377568375108,14.18816,16.95879,173.8832,0.1526336,-0.114168,0.979128,12
4.9,-39.31697,1.650429,-34.56873,0.5834259117018243,0.0489266154197267,0.0812892688533502,15.82758,13.32725,171.8363,0.1243778,-0.1282248,0.9801527,12
4.92,-39.21115,1.285252,-34.48499,0.5920666549879829,0.0369290770879382,0.1211909786131348,353.9055,25.34523,177.7692,0.2180187,0.05611857,0.9743025,12
4.94,-39.15084,1.472883,-34.4518,0.601225367261268,0.0530479079030593,0.1471136899590801,355.6403,22.56782,175.7693,0.1940191,0.04449287,0.979567,12
4.96,-39.09481,1.657802,-34.41122,0.6084173057583788,0.0942788988776568,0.1693596398538961,357.4348,19.72639,173.8341,0.1698195,0.03123134,0.9837536,12
4.98,-39.02585,1.299997,-34.33209,0.6198687347390592,0.1308152952928553,0.1925069597257644,352.3727,24.22141,178.6374,0.2085486,0.06751564,0.975676,12
5.0,-38.96568,1.491027,-34.31357,0.6172254738395626,0.1335078378766393,0.2039801413100761,353.7003,21.62524,176.436,0.1855453,0.05977124,0.9806083,12
5.02,-38.87019,1.286577,-34.32301,0.6162279186300363,0.1069059512173861,0.2094594328143149,352.7065,26.91936,178.3575,0.2313793,0.06518064,0.9706774,12
5.04,-38.81863,1.471461,-34.27949,0.6091191823423197,0.1314482843199134,0.1974105945780842,354.6212,24.18154,176.7479,0.2078442,0.05179934,0.9766257,12
5.06,-38.76779,1.656279,-34.23888,0.5903932449284639,0.1212875171581037,0.1695251327023808,356.3831,21.40604,174.9875,0.1840924,0.03909699,0.9814306,12
5.08,-38.71925,1.256847,-34.2191,0.572628841989026,0.1385807671855604,0.1461678355220765,358.9183,25.53403,180.6387,0.2210252,0.007974545,0.9752067,12
5.1,-38.66108,1.446902,-34.19365,0.5519536451146658,0.0983145328808056,0.1173071167831265,0.4465967,22.66348,178.6201,0.1965197,-0.001455042,0.9804184,12
5.12,-38.57664,1.244392,-34.16895,0.5397085750908026,0.0280618220300491,0.0773736502782798,5.612539,25.84887,181.833,0.2226057,-0.05128599,0.9735478,12
5.14,-38.51608,1.249447,-34.19794,0.5169440984717717,0.0439589625436453,0.0379889593819946,6.569271,25.32151,180.9777,0.218333,-0.05776811,0.9741539,12
5.16,-38.45894,1.438947,-34.16176,0.4885209771761891,0.0006940291114083,-0.0075205244618734,8.350666,22.21306,179.2091,0.1926111,-0.07011743,0.9785463,12
5.18,-38.42982,1.2309,-34.18266,0.4655311687721841,-0.0442689840088644,-0.0583927807337953,10.46005,25.01408,181.7419,0.2142804,-0.09225912,0.972393,12
5.2,-38.37386,1.421676,-34.14441,0.4325741229247954,-0.0626051344714267,-0.1131962062505449,12.29756,21.78315,180.0476,0.1878204,-0.1052592,0.976346,12
5.22,-38.33752,1.196446,-34.16914,0.4006792466867557,-0.0818319115751809,-0.1638458346057154,15.42675,26.91951,182.9188,0.227257,-0.1363633,0.9642172,12
5.24,-38.27174,1.392411,-34.14876,0.3649429086325852,-0.0699374515409416,-0.2078380644968724,16.99062,23.51711,180.8507,0.2004728,-0.1461207,0.9684702,12
5.26,-38.20933,1.585925,-34.1195,0.3252801999288168,-0.1164202410249169,-0.2620264567798473,18.62849,20.0791,178.8409,0.1736327,-0.1576227,0.9713702,12
5.28,-38.20224,1.172863,-34.15696,0.2912002656646812,-0.1018109633638544,-0.3105327211698823,19.44086,24.21199,183.2022,0.2020166,-0.1707973,0.9643372,12
5.3,-38.17135,1.164917,-34.16097,0.2487342229438871,-0.1474467361929951,-0.3592459274419717,20.87735,24.65243,183.2479,0.2048436,-0.1828851,0.9614893,12
5.32,-38.08965,1.152932,-34.19964,0.2102274256621923,-0.1624979292620454,-0.4028693320440091,22.88236,24.28987,182.18,0.2024785,-0.1978098,0.9588127,12
5.34,-38.02084,1.353389,-34.1755,0.1743178489820751,-0.1744369424666215,-0.4409118247570189,24.52537,20.63561,180.1603,0.1747289,-0.2092042,0.9614348,12
5.36,-38.00766,1.135398,-34.15447,0.1442511115830154,-0.185010300316399,-0.4768114092899749,27.38444,22.33056,183.1357,0.1817126,-0.2372866,0.9540892,12
5.38,-37.95999,1.133994,-34.18018,0.1180395044143063,-0.1340568157617739,-0.5028173476908142,28.40316,21.58755,181.9533,0.1774171,-0.244053,0.9529316,12
5.4,-37.88906,1.337076,-34.15868,0.0871387572864286,-0.1416802207064952,-0.5225963929854052,29.95876,17.64961,179.7612,0.1487326,-0.2551022,0.9544986,12
5.42,-37.82974,1.120306,-34.10712,0.0548774460610834,-0.1770710808090677,-0.5368669071299275,36.89405,20.64026,182.3602,0.1634951,-0.3147426,0.9342397,12
5.44,-37.75993,1.120934,-34.1215,0.0312752037694448,-0.1505457171362074,-0.5412560350775344,37.91761,19.67697,180.8129,0.1593272,-0.3212486,0.9322141,12
5.46,-37.68802,1.325834,-34.103,0.0110707507141878,-0.1507166712675988,-0.5399871154957312,39.35317,15.23678,178.3157,0.1297252,-0.3318675,0.9325399,12
5.48,-37.6575,1.116309,-34.04539,-0.0039823285515092,-0.1492219450959544,-0.5354755355541831,42.76183,20.30829,181.0469,0.1608784,-0.3603413,0.9171414,12
5.5,-37.57952,1.322495,-34.05349,-0.0180310775155101,-0.1459757502594511,-0.5238076103379194,43.51612,15.26324,177.8145,0.1303263,-0.3649856,0.9194248,12
5.52,-37.54313,1.11687,-34.03703,-0.0226109798232885,-0.1713697347178627,-0.4943682252229449,44.63247,19.68266,178.3252,0.1635698,-0.3717799,0.9104435,12
5.54,-37.45179,1.111239,-33.93377,-0.0221527195483579,-0.135080466641996,-0.4685399899151319,50.23303,21.32094,178.0061,0.1747298,-0.4141572,0.8883182,12
5.56,-37.37627,1.316804,-33.93422,-0.0154659734893911,-0.1571205309282652,-0.4287104912599355,51.20911,15.67634,174.4413,0.1435979,-0.4216528,0.8894643,12
5.58,-37.2947,1.109053,-33.86602,-0.0068721383777452,-0.1798754884057383,-0.3850626378966542,54.79139,18.01251,173.7885,0.1634042,-0.4462627,0.8717135,12
5.6,-37.22619,1.312068,-33.84947,0.0071473101118897,-0.1706395905441071,-0.3284806496007588,56.04662,12.11439,170.1909,0.1327527,-0.4575332,0.8703756,12
5.62,-37.09511,1.11194,-33.65444,0.0380034708279248,-0.1540025505122908,-0.2635006407489184,62.10389,14.70229,167.0589,0.1665674,-0.4959636,0.8368083,12
5.64,-37.0293,1.311972,-33.64389,0.0581715493148111,-0.1067567654540584,-0.2068746100704839,62.95847,7.301903,162.0419,0.1349753,-0.5062677,0.835479,12
5.66,-36.96601,1.510004,-33.62455,0.081064899186618,-0.1122333959269284,-0.1334535629400504,63.73509,359.7258,156.8599,0.1038995,-0.5176352,0.8322647,12
5.68,-36.85651,1.148529,-33.46913,0.1012670596082347,-0.0598974836378103,-0.0745307588949648,57.72771,10.92069,167.1621,0.1365359,-0.4682104,0.8611948,12
5.7,-36.79589,1.346685,-33.46075,0.1225222687956257,0.0198297781232031,-0.0238694129202619,58.28909,4.244233,162.7547,0.1049418,-0.4763309,0.8602263,12
5.72,-36.63761,1.207493,-33.35574,0.1602517758982244,0.0234637554843892,0.0446106806630544,46.7992,19.73789,171.5801,0.185598,-0.3786615,0.8967403,12
5.74,-36.582,1.398837,-33.32668,0.1950559245027019,0.0787204117039817,0.1059871244181938,48.16474,14.56993,168.6527,0.155215,-0.3913279,0.8960387,12
5.76,-36.52711,1.589684,-33.29853,0.2204634041427207,0.1553900349769915,0.1557319849693703,49.29944,9.151491,165.441,0.1246012,-0.403202,0.8944594,12
5.78,-36.41254,1.244424,-33.19721,0.2459797410419506,0.1798901562912365,0.2024270242619676,31.44798,23.2243,174.7302,0.2057517,-0.2562689,0.9393724,12
5.8,-36.3473,1.435771,-33.17875,0.2729462552261887,0.2034059946540556,0.2462702184043648,32.71035,18.63825,171.9527,0.1744956,-0.2662865,0.9413369,12
5.82,-36.27136,1.273131,-33.17286,0.3006786872357736,0.222202174214902,0.2891878422626837,18.34394,26.13092,174.8725,0.2298958,-0.1451337,0.9590834,12
5.84,-36.16587,1.274105,-33.08316,0.3204871949283729,0.2363388764345249,0.3227773782579559,7.516463,30.46638,176.9437,0.2637765,-0.05622903,0.961988,12
5.86,-36.09679,1.463755,-33.0654,0.3377316052631496,0.2234126175036636,0.3554946519841646,9.057821,27.00886,174.628,0.2361337,-0.06578543,0.967387,12
5.88,-36.02333,1.291405,-33.04527,0.3521355976326896,0.2608159100887766,0.3863219388819017,356.9729,31.78881,176.4693,0.2728573,0.03382497,0.961199,12
5.9,-35.95979,1.475707,-33.00456,0.3658113798310864,0.2949161517234484,0.4133031427133229,359.0312,28.69088,174.6727,0.2471103,0.01969592,0.9678355,12
5.92,-35.9075,1.290454,-32.92686,0.3773275234500373,0.2468907044328598,0.4401882187137831,352.9106,33.00987,178.1454,0.2825579,0.06386131,0.95712,12
5.94,-35.76793,1.310338,-32.90453,0.3812764134846409,0.2770100071398292,0.4550196227565077,351.5754,34.92581,177.4259,0.2976284,0.07677112,0.9515899,12
5.96,-35.70261,1.491474,-32.86135,0.3829603160268329,0.3032795795568091,0.4671527426932709,353.7717,32.09574,175.6775,0.273867,0.06258094,0.9594958,12
5.98,-35.6398,1.671331,-32.81741,0.3827884833095414,0.3227859523242976,0.4754606908495917,355.8807,29.20854,173.8334,0.2497432,0.04828187,0.9661529,12
6.0,-35.61282,1.274905,-32.79625,0.3815034279050486,0.3058414967708035,0.4646917007581432,353.7159,33.73404,179.3707,0.2894228,0.05404417,0.9556152,12
6.02,-35.56549,1.265438,-32.78654,0.3752669684509673,0.2600531585994651,0.4485811108299247,355.5386,35.07658,180.0479,0.3011303,0.03698803,0.9527884,12
6.04,-35.4958,1.450602,-32.75882,0.3614302169860144,0.2692400670961388,0.4384221206304817,357.5177,32.20045,177.9745,0.2768422,0.02570846,0.9605088,12
6.06,-35.39929,1.258353,-32.7715,0.3484803471846298,0.2228103664733059,0.4175683827723926,0.4239384,36.22427,180.049,0.3108742,-0.003649097,0.950444,12
6.08,-35.3327,1.440152,-32.72548,0.3359069961887275,0.1738503080745462,0.3934313365720445,2.792184,33.15969,178.4247,0.2855607,-0.01942725,0.9579526,12
6.1,-35.3134,1.242116,-32.70918,0.3178949357022631,0.1541878857786318,0.3563668491409952,5.853518,36.05618,181.9761,0.3081964,-0.05387509,0.949796,12
6.12,-35.22017,1.238992,-32.7343,0.2914694701973745,0.104793479890298,0.3163892168831896,9.199478,36.56726,181.326,0.3118086,-0.07975926,0.9466847,12
6.14,-35.14751,1.424711,-32.69469,0.2625326961659207,0.1119497536273247,0.2745603198301598,11.5373,33.2721,179.5595,0.2852096,-0.09520908,0.9531729,12
6.16,-35.14039,1.21227,-32.68309,0.2282834197248142,0.0875864396545778,0.2312724836221891,13.12238,35.87072,182.9508,0.3030265,-0.1165525,0.945766,12
6.18,-35.06248,1.404461,-32.66583,0.1912848206644284,0.0359221835088016,0.1770066215705474,15.04593,32.3809,180.6873,0.275672,-0.1273869,0.952276,12
6.2,-35.04412,1.201571,-32.71632,0.160014793319001,0.0422377804597022,0.1311791530441315,14.87072,35.41437,181.8736,0.2995393,-0.1281911,0.9451306,12
6.22,-34.9851,1.178935,-32.68184,0.1245168891596621,-0.0109006683937516,0.0779588261571051,18.35925,35.53835,183.3977,0.2966383,-0.1607845,0.941128,12
6.24,-34.9035,1.375304,-32.66825,0.0951064935227181,-0.0023036397017327,0.0324718111505539,20.26734,31.85715,181.0597,0.2685814,-0.1716808,0.9470096,12
6.26,-34.88303,1.168234,-32.70626,0.0567041678532573,-0.0525047569579484,-0.0169852416363962,20.39649,32.50968,182.3767,0.2719033,-0.1756539,0.9456833,12
6.28,-34.80718,1.364932,-32.67616,0.0221420548743651,-0.1027891645820347,-0.0682118785776291,22.53254,28.8638,180.438,0.2437014,-0.1901367,0.9499617,12
6.3,-34.81387,1.147819,-32.67135,-0.0117400146575601,-0.1235746923067094,-0.118086682448677,24.19801,31.31694,183.4,0.2578037,-0.2095631,0.9427628,12
6.32,-34.73271,1.138453,-32.69789,-0.0374126087587969,-0.1122348280518675,-0.1608180572423467,26.70002,29.75649,182.0723,0.2457512,-0.2276391,0.9412758,12
6.34,-34.68351,1.133572,-32.68454,-0.0673911371656075,-0.1286583629810306,-0.1908556132538459,28.82552,28.20019,182.037,0.2316212,-0.2455624,0.9402772,12
6.36,-34.60506,1.336095,-32.66006,-0.0936357536318333,-0.1434109508040623,-0.2188645603506742,30.78225,24.15013,179.8182,0.2021021,-0.2592143,0.9427154,12
6.38,-34.52649,1.537087,-32.63538,-0.1149002310219229,-0.1553914067023093,-0.2471475851123346,32.55554,19.91642,177.3566,0.1723216,-0.272169,0.9440827,12
6.4,-34.53223,1.120366,-32.6135,-0.1293755169286203,-0.135246393000481,-0.2638019087400094,36.98824,25.69812,182.3319,0.204562,-0.3134916,0.9258528,12
6.42,-34.4981,1.118026,-32.59276,-0.1500451261510793,-0.1737707027986801,-0.2752459414928374,39.49228,27.24107,182.2861,0.215049,-0.332708,0.9161344,12
6.44,-34.41378,1.323586,-32.58244,-0.1640213684355402,-0.1493476976769229,-0.2885471059896312,41.15246,22.37912,179.3286,0.183693,-0.3437018,0.9179934,12
6.46,-34.3443,1.115183,-32.52589,-0.1758490814752593,-0.1530426273069501,-0.2861488912966212,44.54878,28.10639,180.762,0.2222531,-0.3691841,0.8982756,12
6.48,-34.25705,1.321639,-32.52459,-0.1831982478596372,-0.1551172270856045,-0.2805079768340146,46.01951,22.74632,177.3391,0.1903576,-0.3788944,0.9003313,12
6.5,-34.21278,1.116475,-32.50813,-0.1842590372623962,-0.1555749776008025,-0.2729466270382628,46.79075,25.64387,177.4192,0.2123442,-0.3824876,0.8926898,12
6.52,-34.10083,1.108189,-32.39432,-0.1828536648576726,-0.1548884662883358,-0.2561523028314485,53.07427,26.3242,177.1123,0.2146139,-0.4297695,0.8683025,12
6.54,-34.01794,1.313077,-32.387,-0.1646135438724303,-0.1530686588078726,-0.2102132834583434,54.56428,20.17564,173.1469,0.1823677,-0.4411749,0.8686572,12
6.56,-33.91381,1.107675,-32.30101,-0.1467067629030558,-0.1188401327570936,-0.1735289945268889,58.40939,21.14972,171.6421,0.1947181,-0.4666955,0.8492503,12
6.58,-33.84061,1.30855,-32.27731,-0.1244952042258247,-0.1392483222910682,-0.1220400540851671,60.01779,14.57975,167.4574,0.1634133,-0.4811201,0.8468758,12
6.6,-33.7616,1.11123,-32.14394,-0.1027856457770961,-0.0994391129292409,-0.0734062272529989,62.28296,16.0498,167.1127,0.1762004,-0.4954446,0.8340554,12
6.62,-33.60237,1.138048,-32.06172,-0.0791993019913834,-0.112426113970864,-0.0121802183014754,59.39728,12.89353,164.4943,0.163052,-0.4746481,0.8477566,12
6.64,-33.53582,1.332934,-32.03384,-0.0557403869965402,-0.089224928432548,0.0373731962061825,60.63955,5.862627,159.8001,0.1318732,-0.4886108,0.8442054,12
6.66,-33.44987,1.164096,-31.90345,-0.032783473087028,-0.0665232793984279,0.0907267305887096,55.45005,14.20521,168.2728,0.1560414,-0.4480619,0.8679253,12
6.68,-33.38018,1.360188,-31.89336,-0.0099517158964856,-0.0475401165475909,0.1467290612615261,56.21346,7.422777,163.6377,0.1234168,-0.457218,0.8669242,12
6.7,-33.31661,1.552558,-31.8674,0.0129776649913586,-0.0244604537840545,0.190822721341374,57.08509,0.6966875,159.1105,0.09187187,-0.4689171,0.8633641,12
6.72,-33.13503,1.229985,-31.72836,0.0438113080358228,-0.0269664058926877,0.2462424977564983,37.68036,25.03716,174.2304,0.2207492,-0.304528,0.9192289,12
6.74,-33.06333,1.416409,-31.69379,0.0611464855855943,0.0179420888973981,0.2885965149971796,39.51286,20.03287,171.2412,0.1886329,-0.3193986,0.9195977,12
6.76,-32.99593,1.600194,-31.65212,0.0805927965787307,0.0105547459655039,0.3266584094219089,41.28139,14.87835,168.1272,0.1566637,-0.3351336,0.9182361,12
6.78,-32.91648,1.260678,-31.60837,0.1003558585502601,-0.0001303754592597,0.3652565016697302,19.67052,27.36414,176.0722,0.2386085,-0.1578843,0.9553964,12
6.8,-32.84368,1.447367,-31.5781,0.1113433744920109,0.0628554993989298,0.3932730420444921,21.48248,23.3334,173.5817,0.2085814,-0.1711152,0.9585628,12
6.82,-32.77677,1.630568,-31.53662,0.1181134778301347,0.0438583165281586,0.4233046779893454,23.35484,19.25734,171.1523,0.1787044,-0.1863209,0.9600191,12
6.84,-32.65212,1.280485,-31.47104,0.123225243718327,0.0746064275471403,0.454063793306914,357.9813,30.71975,177.5483,0.2644158,0.02264871,0.9640108,12
6.86,-32.59216,1.28301,-31.41715,0.121023401318181,0.1298080930306526,0.4749734025431444,354.1364,31.41457,177.875,0.269409,0.0542425,0.9614888,12
6.88,-32.51417,1.469825,-31.39402,0.1239981345424872,0.104852677900332,0.502967973559326,356.0186,28.59352,175.4605,0.2452684,0.04340889,0.9680248,12
6.9,-32.44457,1.651829,-31.35407,0.1251465769138393,0.1304518243655228,0.5288023174163472,358.0806,25.67532,173.3154,0.2208283,0.02925512,0.9734256,12
6.92,-32.38663,1.29817,-31.28909,0.1282223496539054,0.0978431132659706,0.550639895805817,352.5443,31.16481,178.6701,0.2673109,0.06573456,0.9613451,12
6.94,-32.31243,1.48353,-31.26306,0.1336539113708497,0.0920931751653648,0.5557686354073148,354.4321,28.45255,176.3419,0.2438341,0.05489149,0.9680766,12
6.96,-32.24636,1.664257,-31.22168,0.1261267677370008,0.1092767823039196,0.560891162794281,356.4801,25.63866,174.2598,0.2199952,0.04101345,0.9737334,12
6.98,-32.18257,1.843812,-31.17978,0.1138514539691808,0.0706499852724178,0.5552814619041242,358.4201,22.76206,172.0816,0.19591,0.02710714,0.978092,12
7.0,-32.10085,1.259495,-31.20373,0.099656743235946,0.0292744042534342,0.5471193684246423,357.0836,31.13777,180.4832,0.2684108,0.0233818,0.9629592,12
7.02,-32.05478,1.2538,-31.19525,0.0902900352915789,0.0149485706420892,0.5357746008810786,359.2039,32.83001,180.7829,0.2826248,0.00473281,0.9591811,12
7.04,-31.99184,1.432989,-31.13868,0.0830774605218169,0.0289395104556587,0.5247484065997412,1.764165,29.79146,179.2442,0.2571229,-0.01318183,0.9662337,12
7.06,-31.91412,1.241289,-31.14464,0.0704342501699231,-0.0120755048379896,0.5000586532154969,5.924874,33.97041,182.0312,0.2908124,-0.05459013,0.9552198,12
7.08,-31.84123,1.424915,-31.10276,0.0522257865479707,0.0011731933042409,0.4812466366625769,8.308694,30.75154,180.1321,0.2643711,-0.0701554,0.9616958,12
7.1,-31.81274,1.236514,-31.14996,0.0226063423077236,-0.0428768384550754,0.4505662051128571,9.457541,33.73959,181.6117,0.2880718,-0.08295098,0.9539516,12
7.12,-31.79873,1.220148,-31.1257,0.000646838818834,-0.030591267293733,0.4189061687493876,11.66565,35.5206,182.9054,0.3009051,-0.104445,0.947892,12
7.14,-31.71899,1.408461,-31.0954,-0.0293130983514084,-0.0486321467671754,0.3848276146918272,13.93702,32.09208,180.7796,0.2735683,-0.1184609,0.9541469,12
7.16,-31.68267,1.192964,-31.11966,-0.0592659374388553,-0.065434363853533,0.3471031743437445,15.88772,36.7517,183.3773,0.3082234,-0.1402994,0.9407779,12
7.18,-31.6342,1.190232,-31.14909,-0.0871784979696181,-0.0809847806313619,0.2996800336858531,16.64316,36.40462,182.4394,0.3060879,-0.1440346,0.9407072,12
7.2,-31.5573,1.380632,-31.10498,-0.1163595257240133,-0.095860793532481,0.2543130392479544,19.23995,32.97512,180.79,0.278705,-0.1621662,0.9457021,12
7.22,-31.52419,1.162274,-31.1124,-0.1425865730432876,-0.1132548700903373,0.214199530752607,21.38025,34.81116,183.7298,0.2880264,-0.1864755,0.93896,12
7.24,-31.44178,1.358371,-31.08144,-0.1665290640942354,-0.0968087448381776,0.1735632375402001,23.75527,31.12932,181.6889,0.2596301,-0.2021226,0.9434146,12
7.26,-31.43589,1.146806,-31.08876,-0.1990743046262841,-0.1390247248028218,0.1299154664238497,24.3905,32.55939,183.6695,0.267368,-0.2114425,0.939658,12
7.28,-31.3467,1.347334,-31.074,-0.2224085409625162,-0.1206812774083972,0.0953125829487615,26.39485,28.58772,181.1087,0.2382227,-0.2235546,0.9439504,12
7.3,-31.33761,1.137831,-31.10896,-0.2451418211438012,-0.1026010421718514,0.0616799247085904,26.98013,29.87807,182.2445,0.2462161,-0.2302587,0.9405413,12
7.32,-31.25733,1.338756,-31.07558,-0.2656223215068238,-0.1129299451363925,0.0297322947656932,29.24992,26.01421,180.1823,0.2173879,-0.2463585,0.942862,12
7.34,-31.21324,1.123341,-31.04166,-0.2817364000763112,-0.1192403092967372,0.0061627978959788,34.41101,28.1254,182.6521,0.2254077,-0.2922297,0.928037,12
7.36,-31.12659,1.327708,-31.02065,-0.2913523591022899,-0.0928569400060667,-0.0117693185595659,36.42939,23.69051,179.9879,0.195016,-0.3059018,0.9296581,12
7.38,-31.089,1.120614,-31.02029,-0.3054490914482519,-0.1248662274853577,-0.0249123847222563,38.72326,26.21801,181.0726,0.2109457,-0.3248787,0.9195227,12
7.4,-31.00729,1.325009,-30.98782,-0.3156629095176835,-0.1565092311917825,-0.0361614793633049,40.90966,21.69856,178.5696,0.1806285,-0.3409942,0.9193081,12
7.42,-30.99325,1.116315,-30.95411,-0.3097654831103074,-0.1571820473597513,-0.0364314686694964,42.96823,27.02004,181.0844,0.2140039,-0.3581502,0.9055401,12
7.44,-30.90352,1.322314,-30.939,-0.2933324980071461,-0.1251765957580511,-0.0335856523917375,44.81077,21.89529,177.8552,0.1825485,-0.3708691,0.9061716,12
7.46,-30.83408,1.113915,-30.86943,-0.2749969011693518,-0.15198623931521,-0.0219659041804742,47.84829,25.85831,179.0034,0.2079521,-0.393452,0.8900861,12
7.48,-30.7458,1.319952,-30.85365,-0.2525898680617038,-0.117297622994983,-0.0104153170828906,49.63849,20.33849,175.4789,0.1764213,-0.4065203,0.8897596,12
7.5,-30.68725,1.111333,-30.80756,-0.2285697350375595,-0.1415396017331197,0.0186542369312996,52.17537,22.57843,175.3679,0.1931013,-0.4237805,0.8765467,12
7.52,-30.60837,1.314939,-30.77705,-0.1969548428230463,-0.1051649515610776,0.0527065456458957,54.11933,16.95948,171.9524,0.1625669,-0.4396213,0.87392,12
7.54,-30.47083,1.106542,-30.58222,-0.1547917104618803,-0.0917689989161258,0.0933469614864415,60.87557,17.60206,170.2923,0.1738048,-0.4876802,0.8424141,12
7.56,-30.39435,1.306294,-30.55817,-0.1128457811459098,-0.0784737057374657,0.1401228118299191,62.35689,10.51667,165.2572,0.1439033,-0.501206,0.8388303,12
7.58,-30.30013,1.126053,-30.47028,-0.0708575580517898,-0.0579943633429169,0.18729950636971,60.39054,10.2014,164.7108,0.1428014,-0.4862823,0.847294,12
7.6,-30.23168,1.32146,-30.43331,-0.0279661272753655,-0.0375324623555586,0.2366505462709396,61.84626,3.206511,159.8434,0.1135233,-0.5015598,0.8417737,12
7.62,-30.15964,1.152301,-30.3396,0.0158990833461944,-0.0099180899245969,0.2770360042913444,57.16853,9.535912,165.8489,0.1311642,-0.4641733,0.863513,12
7.64,-30.03534,1.187067,-30.22564,0.0477049375467082,0.04311191101953,0.3096611391634836,50.91125,13.73495,169.6283,0.1460933,-0.4152229,0.8881257,12
7.66,-29.97588,1.376744,-30.18324,0.0938633180905945,0.0484334429442826,0.3493444395894687,52.54037,7.966865,166.1588,0.1150415,-0.4308124,0.8843282,12
7.68,-29.91731,1.565304,-30.14061,0.1373198693425585,0.104999469592636,0.376215268020093,53.93396,1.916401,162.2979,0.08449239,-0.4457208,0.8793645,12
7.7,-29.80921,1.238989,-30.05698,0.1809629866525175,0.1103510437563362,0.4016453749942061,36.64702,18.05908,173.311,0.1668459,-0.3012654,0.9330573,12
7.72,-29.69298,1.254378,-29.95453,0.2327249843828682,0.0888954434847148,0.4290488954718978,25.75426,22.3775,175.5136,0.1975739,-0.2110536,0.9538962,12
7.74,-29.6223,1.441358,-29.91955,0.2674147112082123,0.1389761251679624,0.4423357909804495,27.51497,18.21533,172.9096,0.1679747,-0.2248581,0.9549025,12
7.76,-29.54464,1.276394,-29.8987,0.3001870269891444,0.1852416999550241,0.4560301241487412,12.63649,23.7797,175.5555,0.2088012,-0.09966829,0.9709913,12
7.78,-29.48081,1.45928,-29.84576,0.3315555896021189,0.1526784792126189,0.4601033364385496,14.82967,20.29465,173.6096,0.1815156,-0.1170984,0.9733419,12
7.8,-29.41924,1.640758,-29.79304,0.3576154785721512,0.1691348929579343,0.4590527002498334,16.89331,16.68677,171.4938,0.1539145,-0.134289,0.9744083,12
7.82,-29.37547,1.280081,-29.73384,0.3804562075336668,0.181786085033168,0.4640907831557999,358.0243,26.5508,177.6067,0.2291972,0.02157091,0.9730034,12
7.84,-29.30402,1.465424,-29.69651,0.4115683378785846,0.1430526256221199,0.4647611445951343,0.03312845,23.58989,175.4107,0.2042571,0.007901574,0.9780982,12
7.86,-29.24064,1.646638,-29.64663,0.4328528552509625,0.1778028460182323,0.4627657934323901,2.173351,20.55679,173.3904,0.1791782,-0.008345303,0.9819444,12
7.88,-29.1256,1.298758,-29.54892,0.4533955505827465,0.2345303870761667,0.4584656678172791,352.4931,28.09676,178.632,0.2414451,0.0663923,0.9681311,12
7.9,-29.05263,1.481893,-29.51129,0.4630099357791009,0.2104670116923677,0.4380560917368599,354.5638,25.68733,176.4861,0.2205197,0.05302136,0.9737489,12
7.92,-28.96312,1.274551,-29.46556,0.4742413139140358,0.1557678486578464,0.4132965526761789,353.7464,28.75232,179.4102,0.247642,0.05411334,0.9673014,12
7.94,-28.88163,1.275631,-29.4695,0.4835932816636061,0.1749329007141646,0.3889052263362087,354.7387,28.71595,178.759,0.247222,0.04714372,0.967811,12
7.96,-28.81618,1.455382,-29.41372,0.4906291617222265,0.1891630542263744,0.3653321731428445,357.1796,26.17806,177.0912,0.225715,0.02970926,0.9735522,12
7.98,-28.76732,1.261262,-29.41114,0.4873552680849746,0.1233566766440123,0.3225043158282306,358.6021,28.71924,179.8225,0.2479702,0.01220156,0.9686898,12
8.0,-28.70253,1.440629,-29.35127,0.483266052767076,0.0522505961616052,0.2804257847312867,1.156926,25.99732,178.2134,0.2250429,-0.006329395,0.974172,12
8.02,-28.62863,1.241502,-29.31788,0.4757209887232476,0.0871128303004964,0.2476386559326959,5.900663,29.35067,182.0132,0.252092,-0.05422824,0.9661747,12
8.04,-28.55434,1.425569,-29.27275,0.4631110789601109,0.0693782429925359,0.1986587399514086,8.24519,26.58042,180.0651,0.2292488,-0.07009573,0.9707091,12
8.06,-28.51103,1.237246,-29.30832,0.444067915934494,0.024707417886038,0.1406704171327955,9.398884,28.55239,181.4479,0.2447446,-0.08249753,0.9660385,12
8.08,-28.44176,1.421451,-29.25319,0.4221779727996742,0.0334070267675428,0.0930048630274309,11.91117,25.41363,179.7141,0.2190269,-0.1006702,0.9701834,12
8.1,-28.44388,1.212713,-29.26297,0.3986880018722543,0.0392420567868218,0.046448900749286,13.0401,29.28534,182.9766,0.2482168,-0.116349,0.9616848,12
8.12,-28.36568,1.40337,-29.22924,0.3635978583633048,0.0165350751520501,-0.0101571079384279,15.16342,26.22211,180.8354,0.2239135,-0.1301364,0.9656105,12
8.14,-28.32226,1.187172,-29.2508,0.3362981969294294,0.023667523405441,-0.0597983416220317,16.8637,29.87689,183.3317,0.2507685,-0.1490301,0.9564547,12
8.16,-28.24402,1.381307,-29.21943,0.3084241022669451,0.0285110645271161,-0.1062586472756645,18.95105,26.89396,181.267,0.2275883,-0.1626394,0.9596804,12
8.18,-28.22008,1.176307,-29.26047,0.2720744967181456,0.0068905381398099,-0.163980926071221,18.92684,28.91133,182.4538,0.242768,-0.1644484,0.9558228,12
8.2,-28.15091,1.371114,-29.2183,0.2318101567490087,-0.0131083827117279,-0.2166422281809046,21.15434,25.95078,180.8058,0.2194542,-0.1804203,0.9581754,12
8.22,-28.11444,1.147802,-29.22595,0.1921960679843368,-0.0321096062207146,-0.2644772478336583,23.92776,28.65708,183.6486,0.2355894,-0.2084522,0.9489998,12
8.24,-28.0446,1.346954,-29.19208,0.1527898892168089,-0.0488943367497365,-0.3127922572329034,25.98107,25.78942,181.9012,0.2137836,-0.2226988,0.9505361,12
8.26,-28.02834,1.134753,-29.19803,0.1136594621820856,-0.0645331542579878,-0.3539436339354167,27.29416,26.81633,183.4608,0.2183067,-0.2362095,0.946501,12
8.28,-27.95328,1.337118,-29.17719,0.0858885745850135,-0.021650291557096,-0.3822354042889477,29.02337,23.84979,181.3055,0.1972312,-0.2474328,0.9477329,12
8.3,-27.88291,1.537212,-29.14652,0.0458104022903675,-0.0659922559362876,-0.4178159931873679,30.86249,20.81292,179.2568,0.1758121,-0.2605703,0.947763,12
8.32,-27.88789,1.123139,-29.13819,0.0110975872052558,-0.0778858964139841,-0.4440707303115778,34.24751,25.52195,182.762,0.2041107,-0.292168,0.9333628,12
8.34,-27.7938,1.120318,-29.11926,-0.0216866046919408,-0.0885648829876858,-0.4619570000921875,38.6663,25.9759,181.2125,0.2086475,-0.3248169,0.9202055,12
8.36,-27.71623,1.324382,-29.08219,-0.0475536982545223,-0.0959826925013614,-0.480373019021338,40.87857,22.38218,178.9504,0.1849932,-0.3408943,0.918566,12
8.38,-27.68597,1.116158,-29.04059,-0.0724436552685254,-0.1024124611492705,-0.4885900680249033,42.96085,26.65471,181.1594,0.2108874,-0.3584736,0.9062901,12
8.4,-27.59815,1.32189,-29.0196,-0.0893642585224649,-0.0499912132849072,-0.4834050963581529,44.8881,22.37032,178.1045,0.1854573,-0.3715126,0.9053482,12
8.42,-27.51151,1.113748,-28.9389,-0.1091304458779287,-0.0855059223800316,-0.4808474990792928,47.86983,27.19088,179.0918,0.2179694,-0.3926157,0.8876125,12
8.44,-27.42556,1.319194,-28.91321,-0.1074751301464802,-0.0890546644044335,-0.466685201353251,49.92325,22.60942,175.9173,0.1923442,-0.4072305,0.8854907,12
8.46,-27.34864,1.110227,-28.86017,-0.1057376599974384,-0.0923165261702797,-0.4413537221744876,52.55172,25.41561,176.0005,0.2121985,-0.4247035,0.870778,12
8.48,-27.27082,1.313109,-28.82126,-0.0954604064011603,-0.0920641154352028,-0.4134413218539192,54.80082,20.73499,172.9499,0.1873031,-0.4420128,0.8665733,12
8.5,-27.19109,1.103748,-28.71521,-0.0858742413312239,-0.0921990211587847,-0.3746367315148529,59.39908,24.74119,173.2976,0.214063,-0.4722426,0.8408123,12
8.52,-27.113,1.303339,-28.6798,-0.0548223937135667,-0.0847290260439099,-0.3233855464306066,61.51518,18.94671,169.2049,0.1882602,-0.4888916,0.8359432,12
8.54,-26.94331,1.119935,-28.53119,-0.021344579056036,-0.1023978337013745,-0.2643255356322807,61.50675,18.8365,166.5897,0.1985662,-0.4845808,0.8322234,12
8.56,-26.87205,1.312846,-28.48741,0.0019302818395123,-0.0617006667830836,-0.2209860449156351,63.52094,12.56736,162.0476,0.1735548,-0.5022796,0.8258088,12
8.58,-26.77564,1.146235,-28.40231,0.0233420009668883,-0.0239233959663376,-0.1693327982089099,58.09827,18.73485,167.379,0.1940868,-0.4605416,0.8486328,12
8.6,-26.70234,1.337008,-28.36502,0.0495395961690174,-0.0048458335841699,-0.1254334422538843,59.87838,12.74933,162.9859,0.1685278,-0.4763046,0.8435252,12
8.62,-26.62206,1.179871,-28.29116,0.0744523321598569,0.0125126181376432,-0.0748968006399888,51.85794,23.33068,170.9246,0.2151502,-0.4124966,0.871006,12
8.64,-26.54775,1.368006,-28.25504,0.0972849692213944,0.0792947746799689,-0.0265292774228251,53.741,18.24829,167.3146,0.1898873,-0.4278983,0.8674346,12
8.66,-26.37921,1.230093,-28.16913,0.1296541687341319,0.0982496940154233,0.0047208744341693,37.65722,30.77345,174.4472,0.2659122,-0.2986405,0.907344,12
8.68,-26.30501,1.409801,-28.11272,0.1604727460230366,0.0914861903092545,0.0329522224119172,40.24611,27.09018,172.2722,0.2419521,-0.318889,0.9053349,12
8.7,-26.22649,1.252346,-28.09669,0.1918433056946447,0.0803157673560495,0.067046885733164,25.97149,34.64015,175.7006,0.2979384,-0.203487,0.9270782,12
8.72,-26.09795,1.266095,-28.04267,0.2262930504978042,0.092975203659476,0.0894414849875033,13.62872,38.9836,176.9001,0.334219,-0.1028504,0.9346166,12
8.74,-26.01937,1.44203,-27.98221,0.2524336494234487,0.1279411033905122,0.1083074221237549,16.51734,36.28213,175.5055,0.3132443,-0.1243149,0.9379609,12
8.76,-25.94289,1.615847,-27.9222,0.2761736330734239,0.1574586605431443,0.1327564841059128,19.32531,33.46124,173.9138,0.2919215,-0.1454495,0.940186,12
8.78,-25.8669,1.278023,-27.92438,0.295946789144017,0.2308777869503593,0.1644606133994721,358.2239,42.14872,177.79,0.3591903,0.02139316,0.9329365,12
8.8,-25.80561,1.280232,-27.89464,0.3192005579817709,0.2066498681561972,0.1750257175969118,354.386,43.8962,178.1546,0.3725383,0.05142841,0.9265846,12
8.82,-25.7366,1.4465,-27.79989,0.3416654141190176,0.1772098314055185,0.1893973200912473,357.9081,41.58957,177.893,0.354589,0.02358811,0.9346634,12
8.84,-25.59249,1.294094,-27.76414,0.3709213979697883,0.1736466130619835,0.1914260446655924,352.8286,45.70242,179.1715,0.3871525,0.06043398,0.9198643,12
8.86,-25.51093,1.461377,-27.69062,0.3935022625668125,0.1410974077131217,0.1891186682968753,356.1312,43.53457,178.3067,0.3701227,0.03682188,0.9282523,12
8.88,-25.42978,1.627085,-27.62302,0.4149769374471894,0.1036427693023913,0.190467608159448,359.3265,41.33172,177.1396,0.3526642,0.01430555,0.9353989,12
8.9,-25.4016,1.271258,-27.68288,0.4271391462437184,0.137168280677058,0.1877047070835171,354.027,46.17397,179.6628,0.3914528,0.04908017,0.9187174,12
8.92,-25.2957,1.25502,-27.64845,0.4293230236834078,0.0922677981959144,0.1620464650742477,357.4573,47.33482,180.9161,0.4014777,0.01711207,0.9155653,12
8.94,-25.22483,1.420195,-27.55402,0.4270414240214415,0.1009019408220555,0.140189356462173,1.029882,45.094,180.8309,0.3833554,-0.01108045,0.9235288,12
8.96,-25.14059,1.58827,-27.49251,0.4188796081254016,0.0837344643656722,0.1110857085188383,4.24456,42.83585,179.601,0.3650354,-0.03320404,0.9302503,12
8.98,-25.12052,1.241664,-27.55592,0.410101525291386,0.0642880722393069,0.0844323127395267,3.955219,47.34449,181.8181,0.4007131,-0.0379676,0.9154164,12
9.0,-25.03907,1.412864,-27.48306,0.3914326981002589,0.0466819394958222,0.0487795769919192,7.329105,45.06712,181.1151,0.3818484,-0.06275409,0.9219614,12
9.02,-24.95704,1.582541,-27.41711,0.3730317543508317,0.0275540008595819,0.0149256898898886,10.59347,42.70279,180.047,0.3624969,-0.08612654,0.9274018,12
9.04,-24.92286,1.21879,-27.49904,0.3453729145090736,0.0085229983018722,-0.0324108027542133,11.83124,48.22906,182.9909,0.403793,-0.1046429,0.9086599,12
9.06,-24.88419,1.210192,-27.48809,0.3169897506644186,-0.0114805653040594,-0.0763305028338852,13.36453,48.43543,183.1673,0.40433,-0.1173414,0.9067711,12
9.08,-24.80686,1.386807,-27.40704,0.2798252029703376,-0.0321277745709614,-0.1218767433517138,16.87481,46.18096,182.9208,0.3843737,-0.144817,0.9111017,12
9.1,-24.72496,1.562814,-27.34033,0.2434041205422659,-0.0530248103053737,-0.1650401579227587,20.21421,43.71923,182.0325,0.3636094,-0.1693465,0.9147114,12
9.12,-24.76007,1.184225,-27.44501,0.210257351553543,-0.0728170719987048,-0.211802070835946,17.35128,48.22943,183.6048,0.3993602,-0.1503118,0.9037782,12
9.14,-24.68233,1.366551,-27.36728,0.1774845422908955,-0.092581613387168,-0.2530449267035042,20.84639,45.97713,183.367,0.3790441,-0.1777617,0.9070769,12
9.16,-24.59702,1.548789,-27.30822,0.13840652969234,-0.1096818928897055,-0.2948511544422194,24.11989,43.4324,182.3018,0.3578714,-0.2013353,0.9098938,12
9.18,-24.61221,1.153995,-27.40835,0.1002735970386861,-0.1263668242040825,-0.3302657235975959,23.0093,46.82095,183.7292,0.3831715,-0.1956004,0.9013468,12
9.2,-24.58952,1.146359,-27.41061,0.0708556655253458,-0.0865021848560807,-0.3485296550735479,24.53019,46.82609,183.7434,0.381713,-0.2075221,0.8989974,12
9.22,-24.50855,1.338682,-27.34296,0.0268348839497334,-0.1325644969410879,-0.3823379319606617,27.93906,44.48647,183.2697,0.3608194,-0.233831,0.900452,12
9.24,-24.47606,1.129326,-27.36525,-0.0101613179548367,-0.1450557248759897,-0.4089880909799772,30.01617,44.67307,183.481,0.3596381,-0.250564,0.8959934,12
9.26,-24.3953,1.32608,-27.2991,-0.0434749034538994,-0.1563288166911666,-0.429055037423363,33.41504,42.23966,182.8963,0.3382211,-0.2768115,0.8957819,12
9.28,-24.31589,1.520183,-27.23192,-0.0652904910663707,-0.108488392557377,-0.4365765368605672,36.78796,39.66224,182.1077,0.3164024,-0.3027068,0.8944537,12
9.3,-24.31891,1.119066,-27.28485,-0.0936521884582632,-0.1478147939296672,-0.4507769620430242,37.38477,42.27849,182.8696,0.3340214,-0.3073805,0.8861264,12
9.32,-24.28516,1.11739,-27.27994,-0.1175925727879967,-0.187333680055861,-0.457309796651459,39.60512,43.36568,182.5704,0.3404719,-0.3225267,0.8768807,12
9.34,-24.2061,1.317415,-27.21576,-0.1260062476792041,-0.1387771082079272,-0.4527792348002952,42.94155,40.79251,181.8798,0.3186544,-0.3483523,0.8742352,12
9.36,-24.12895,1.114661,-27.21266,-0.133241532030012,-0.1465987544216628,-0.4483954391963256,44.68294,44.16405,181.0438,0.3444912,-0.3553948,0.8583539,12
9.38,-24.04982,1.315718,-27.14974,-0.138975053126289,-0.18204456799217,-0.4405528416869786,48.00038,41.54506,180.3449,0.3228502,-0.3812734,0.8545904,12
9.4,-23.97172,1.514284,-27.08563,-0.134289692242993,-0.1563575451208357,-0.4264647641185046,51.29007,38.67995,179.3558,0.3008409,-0.4066873,0.8498024,12
9.42,-23.92485,1.110151,-27.10166,-0.1119665407388166,-0.1891647546824543,-0.3991111392643396,50.68405,42.50411,178.6149,0.3323883,-0.3949244,0.8403712,12
9.44,-23.77884,1.103868,-27.0194,-0.0888688054941417,-0.1615772776880384,-0.3716309200830525,56.50998,41.91397,176.1037,0.3298974,-0.431115,0.8163492,12
9.46,-23.70241,1.300419,-26.95763,-0.0651972187466745,-0.1358134198916351,-0.3361885197608312,59.72985,38.70634,174.8053,0.3083774,-0.4563135,0.809881,12
9.48,-23.58624,1.104704,-26.89894,-0.0288497833178293,-0.1325893620775151,-0.2968568001810867,61.20082,37.0622,171.0627,0.3103332,-0.459873,0.8010241,12
9.5,-23.5128,1.296468,-26.8355,0.008725647840384,-0.1548072396334042,-0.2544929852730679,64.31412,33.08506,168.9527,0.2890397,-0.4846401,0.7931954,12
9.52,-23.31304,1.12911,-26.72892,0.0464497866162876,-0.1179156601270813,-0.2158710868182187,60.9255,31.05511,166.6149,0.2861032,-0.458254,0.809023,12
9.54,-23.21952,1.144544,-26.66728,0.101771558942016,-0.1282716329602292,-0.1695192828771157,58.34787,31.30769,167.7564,0.2843086,-0.4415811,0.8219375,12
9.56,-23.15149,1.327086,-26.59705,0.142582846238632,-0.0846116299239454,-0.1337584823539188,61.33522,27.18422,165.4103,0.2634551,-0.4660921,0.8140638,12
9.58,-23.08555,1.507372,-26.52664,0.1825421417113029,-0.0436398263186835,-0.0940646577458341,64.22101,22.35439,162.3326,0.2423238,-0.4900719,0.8052787,12
9.6,-22.95389,1.195797,-26.50125,0.2270301159227283,-0.0225530754105837,-0.0674155242431249,48.26834,36.73199,173.0979,0.3103819,-0.3700353,0.8567805,12
9.62,-22.8876,1.372796,-26.42597,0.2685278782060907,-0.0262459983864897,-0.0443622828824574,51.35281,33.67959,171.8357,0.2899499,-0.3950698,0.8514847,12
9.64,-22.82378,1.547433,-26.35076,0.3091962768563232,0.0182098463127715,-0.0206275459022062,54.38582,30.29085,170.2021,0.2692142,-0.4196573,0.8452449,12
9.66,-22.6229,1.250377,-26.3543,0.3568928072175312,0.0142253657973313,-0.0027330197277053,26.16954,44.17809,175.9537,0.3734609,-0.1967135,0.8989744,12
9.68,-22.55834,1.257981,-26.33198,0.3904449191391657,0.0547382688866123,0.013853999339715,19.93836,46.27053,176.5456,0.3915933,-0.1474604,0.9032337,12
9.7,-22.48125,1.427378,-26.24729,0.4226456546324586,0.0914071099569,0.0327520204953231,23.37992,44.03784,176.1311,0.3732679,-0.1753369,0.9047499,12
9.72,-22.33443,1.27221,-26.24026,0.4559307449918401,0.1037674137771159,0.0422481097387397,2.33974,51.37191,177.9028,0.4336119,-0.0104656,0.9006827,12
9.74,-22.253,1.439373,-26.15453,0.4799990593047121,0.1384035898733114,0.0549854817054979,5.877627,49.28501,177.7439,0.4172435,-0.03839352,0.907135,12
9.76,-22.17503,1.603242,-26.06903,0.5012918527759402,0.1689860536593807,0.0694340287874863,9.406367,47.17292,177.4534,0.4003565,-0.06626393,0.9124169,12
9.78,-22.10066,1.764007,-25.98399,0.5198968075032298,0.1259461572939577,0.0702460220370917,12.92092,45.01885,177.0265,0.3829733,-0.09404056,0.9165235,12
9.8,-21.988,1.291746,-26.06402,0.5361872517960893,0.1541844324350076,0.0825844911781081,352.21,53.93051,178.9783,0.451845,0.06457422,0.8894622,12
9.82,-21.90622,1.454369,-25.97406,0.5517561993247417,0.2037476068278341,0.1015079274966135,355.7979,51.86048,179.0051,0.4366798,0.03676382,0.8988279,12
9.84,-21.79004,1.282864,-25.98736,0.5648954435747009,0.1765876749865622,0.0954131992345161,353.7757,55.39064,179.7153,0.4639635,0.04922318,0.8841859,12
9.86,-21.73915,1.270121,-25.96896,0.5616183363094196,0.1707408385039423,0.0859642734738459,354.0763,55.59913,179.9408,0.4657332,0.04594821,0.8834152,12
9.88,-21.65911,1.434145,-25.88181,0.5547576088317601,0.1639558238802627,0.0761868405620855,357.599,53.53022,180.0496,0.4502431,0.01851205,0.8926601,12
9.9,-21.58271,1.594896,-25.79503,0.5437450512652977,0.1531128763073794,0.0661816084569233,1.122283,51.47147,180.0311,0.4341978,-0.008939926,0.9007643,12
9.92,-21.55309,1.250448,-25.89814,0.5249085551085133,0.1428245416486702,0.0505419653949159,359.4227,56.22724,181.3039,0.4712357,-0.0009181141,0.8819196,12
9.94,-21.46973,1.415522,-25.81219,0.4999084368785311,0.1597041834392353,0.0407754362005694,3.026773,54.17441,181.3993,0.4548662,-0.02907013,0.8900844,12
9.96,-21.40339,1.23779,-25.85347,0.4731541952064817,0.17477613255305,0.0274493594467277,6.184747,57.60278,182.5399,0.4799076,-0.05792301,0.8753803,12
9.98,-21.31685,1.405299,-25.76993,0.43164658984854,0.1119015438091942,-0.0110546825622819,9.836931,55.56877,182.6602,0.4625432,-0.0866133,0.8821407,12
10.0,-21.31331,1.226508,-25.81973,0.3879312597204607,0.0984580950953906,-0.0412470598810865,10.32919,57.58048,183.1117,0.4773305,-0.09188403,0.8736863,12
10.02,-21.22683,1.397498,-25.73959,0.342953575201542,0.0857776888194688,-0.0717833879285412,13.94586,55.55283,183.2021,0.4593941,-0.120294,0.8794669,12
10.04,-21.19787,1.199775,-25.79146,0.2868970669236348,0.0180008728454655,-0.11819630734729,14.75688,58.45442,183.6318,0.4804365,-0.1273611,0.8670164,12
10.06,-21.11084,1.376895,-25.71673,0.236872992557318,0.0293017966842804,-0.1427492052412873,18.33873,56.44135,183.7353,0.4620022,-0.1555512,0.8718672,12
10.08,-21.11283,1.183325,-25.76029,0.1921253621688863,0.0675697155092879,-0.1586125968345872,17.3948,57.60525,183.881,0.4714935,-0.1485588,0.8681783,12
10.1,-21.02633,1.364561,-25.68838,0.128190972442066,0.0245474066250569,-0.1986587519355551,20.94893,55.58535,183.9375,0.4527079,-0.1764819,0.8722976,12
10.12,-20.99714,1.160822,-25.72421,0.060493796956381,-0.0462019685123429,-0.2457097003199835,21.5775,55.76324,184.0829,0.4531946,-0.1817179,0.8708589,12
10.14,-20.9106,1.348121,-25.65645,0.0106280993643199,-0.0337183311994411,-0.2674491958000713,25.1039,53.70186,184.0147,0.4338132,-0.2092178,0.8737648,12
10.16,-20.90717,1.145514,-25.68851,-0.0490422608755984,-0.0764103516864703,-0.3019136893653638,24.60513,53.66281,184.0266,0.4340497,-0.2055098,0.8746875,12
10.18,-20.82162,1.336863,-25.6228,-0.1077384540243469,-0.1177038518817225,-0.3348290797050945,28.09951,51.5563,183.855,0.4142868,-0.2326718,0.8766037,12
10.2,-20.7377,1.525391,-25.55624,-0.1507468014039239,-0.0747236819629585,-0.3426455423907675,31.58404,49.36429,183.5261,0.3940245,-0.259528,0.8774252,12
10.22,-20.7732,1.128883,-25.63559,-0.1946861353716205,-0.087635684242571,-0.3557520189436332,30.04238,50.7732,183.6521,0.4064031,-0.2472246,0.8756629,12
10.24,-20.69729,1.121943,-25.61383,-0.2353957397415489,-0.0980067656682462,-0.3676563955606466,34.71651,50.14995,183.1953,0.3968118,-0.2814001,0.8676933,12
10.26,-20.61172,1.320398,-25.55559,-0.2658617346562963,-0.0493395709933243,-0.3651970105587345,38.10519,47.8082,182.6571,0.3759872,-0.3072359,0.8669777,12
10.28,-20.52722,1.516245,-25.4962,-0.3008982908533344,-0.0866815722122919,-0.3746700363878634,41.47165,45.30839,181.9079,0.3547286,-0.3326945,0.8652179,12
10.3,-20.51089,1.115778,-25.54559,-0.3320436301160168,-0.1230306706572606,-0.3828581533149435,41.85388,49.18599,182.2697,0.3822092,-0.3324116,0.8520849,12
10.32,-20.42538,1.316303,-25.48921,-0.3471540457835118,-0.0729076202311443,-0.3720617381508742,45.20145,46.69501,181.5804,0.3609717,-0.3578516,0.8496316,12
10.34,-20.34077,1.514268,-25.43162,-0.3476272570109904,-0.0795760175106207,-0.3570944184606146,48.52196,43.98602,180.6285,0.3393246,-0.3828597,0.8461711,12
10.36,-20.2568,1.113085,-25.44254,-0.3446362920093193,-0.113040440994661,-0.342734827447285,48.07413,48.52685,179.4613,0.377039,-0.3695781,0.831812,12
10.38,-20.18631,1.110137,-25.41267,-0.337177307104556,-0.0861063990182175,-0.3173512945194385,50.66079,48.28679,178.6312,0.3743337,-0.3859684,0.8226417,12
10.4,-20.10301,1.310105,-25.35863,-0.3257076064508917,-0.0596238569604696,-0.2896661125232294,53.9069,45.52888,177.6836,0.3532894,-0.4109015,0.8182271,12
10.42,-19.9098,1.102381,-25.27541,-0.3019634504818942,-0.120684437490254,-0.2616723117153912,59.66237,45.23264,173.937,0.3574199,-0.4409079,0.7895478,12
10.44,-19.82925,1.296618,-25.21993,-0.2702555052727966,-0.0938423178699544,-0.2201616940631314,62.84023,41.7843,172.2903,0.3363742,-0.4654737,0.7829598,12
10.46,-19.74993,1.488552,-25.16357,-0.2284734598495024,-0.0876735422545282,-0.1767175449651947,65.95837,37.69639,169.9782,0.3149664,-0.4895059,0.7754924,12
10.48,-19.59377,1.118278,-25.10652,-0.1848012485393266,-0.0813310945888595,-0.1314360924909712,61.78562,36.62437,167.0865,0.3227226,-0.4540212,0.7913646,12
10.5,-19.51277,1.129067,-25.06834,-0.140183409827995,-0.0668346333493592,-0.0883258205842807,60.92822,35.93365,166.6315,0.32021,-0.4480489,0.7961376,12
10.52,-19.43706,1.313801,-25.00666,-0.0939246314658519,-0.0523518796770773,-0.0437704569953951,63.9089,31.55842,163.9482,0.2995742,-0.4720987,0.7884047,12
10.54,-19.23954,1.178384,-24.93302,-0.0493122407579167,-0.0311090738430945,-0.0079680909221386,52.05688,40.1676,171.1197,0.3395462,-0.3870081,0.8297365,12
10.56,-19.16462,1.35695,-24.86672,-0.0071806869400781,0.0152256496349653,0.0284956014208157,55.11594,36.85756,169.4825,0.3193081,-0.411386,0.8241341,12
10.58,-19.09199,1.533155,-24.80021,0.0361504308661508,0.0595673503955615,0.0638297056478953,58.10872,33.10999,167.3783,0.2987396,-0.4353076,0.8176343,12
10.6,-18.95523,1.228507,-24.80767,0.0856529953430289,0.0311319668514955,0.0823732227637585,37.83973,45.44566,174.6446,0.3789777,-0.2816816,0.8657467,12
10.62,-18.89139,1.239548,-24.79863,0.1355998132686544,0.0503953704905457,0.101929712107708,32.02498,48.03518,175.2796,0.4012699,-0.2356392,0.8726129,12
10.64,-18.80593,1.409753,-24.72201,0.1870807269225656,0.0683597912330209,0.1218651833818631,35.48809,45.6553,174.5677,0.3824001,-0.2630693,0.8712405,12
10.66,-18.67055,1.263611,-24.72669,0.240005358049272,0.0819257885809,0.1413988397743164,13.89633,53.36424,177.1159,0.4483214,-0.0968374,0.8853016,12
10.68,-18.58166,1.431605,-24.64882,0.2719517020268684,0.0909149343829733,0.152400501333946,17.43732,51.29498,176.7862,0.4314952,-0.1245967,0.888867,12
10.7,-18.49608,1.59629,-24.5709,0.305135177141959,0.1232317685506848,0.1710135556719456,20.96379,49.16102,176.3127,0.4141406,-0.1521934,0.8913049,12
10.72,-18.38837,1.279262,-24.61476,0.3371901898961984,0.15264242566437,0.1875689139490619,354.4539,57.99175,178.3699,0.4835282,0.04919882,0.8738758,12
10.74,-18.29855,1.444381,-24.53479,0.3666200497868148,0.1585371224156001,0.1976812906921488,358.0323,56.01963,178.3374,0.4692843,0.02197047,0.8827612,12
10.76,-18.21227,1.60609,-24.45486,0.3955237399844862,0.1405717309878205,0.1961984913556755,1.606371,54.04786,178.1819,0.4544589,-0.005277973,0.8905163,12
10.78,-18.12697,1.293889,-24.47966,0.4223133872530322,0.1201006321360735,0.1922215011380794,352.8416,57.76088,179.204,0.4816501,0.05801147,0.87411,12
10.8,-18.03912,1.45568,-24.39447,0.4468668454543389,0.0942591704056616,0.1849348818422163,356.4401,55.78627,179.2711,0.4674141,0.03042647,0.8834699,12
10.82,-17.95506,1.613956,-24.30956,0.4487541900996949,0.0833638498627558,0.1721121692454175,0.0377662,53.82165,179.2142,0.4525945,0.002809896,0.8916901,12
10.84,-17.87551,1.262157,-24.37655,0.4478415771365027,0.0721704283504169,0.1560335348257444,355.7571,58.35381,180.5146,0.487314,0.03013283,0.8724305,12
10.86,-17.81564,1.254556,-24.35535,0.437309399132842,0.059249048633918,0.1350481915741048,357.4603,58.30514,181.0587,0.4871753,0.01485371,0.8729742,12
10.88,-17.72831,1.41906,-24.27331,0.4284016042985274,0.0727271827694337,0.1216106864871875,1.056746,56.34364,181.1373,0.4719933,-0.01281415,0.8814981,12
10.9,-17.64453,1.580184,-24.19146,0.4082371832304687,0.0367729944037092,0.0873467529550415,4.65305,54.38288,181.0924,0.4562235,-0.0404592,0.8888879,12
10.92,-17.64228,1.240541,-24.27813,0.3863663325246156,0.0002604693076796,0.0502599740315816,4.02722,58.47495,181.9914,0.4875223,-0.03913823,0.8722305,12
10.94,-17.55335,1.407004,-24.19643,0.3613061397548907,-0.0142301416894557,0.0208919535630509,7.685893,56.53047,182.0908,0.4713334,-0.06764097,0.8792172,12
10.96,-17.46786,1.570021,-24.11486,0.3308244253926906,-0.0531506176319692,-0.0205938829132183,11.34492,54.57349,182.0648,0.4545423,-0.09604813,0.8850443,12
10.98,-17.45997,1.217414,-24.21455,0.2997432610226573,-0.0403115260700422,-0.0456644704974045,11.91321,59.23841,183.3036,0.4887601,-0.1043469,0.8657549,12
11.0,-17.4351,1.20885,-24.21621,0.2646574988770367,-0.0278607500101399,-0.0727010813543822,13.44471,59.84085,183.4892,0.4920492,-0.1164908,0.8621391,12
11.02,-17.34497,1.383807,-24.14252,0.2243800131044679,-0.0456150228674673,-0.1097559904432294,17.05349,57.9198,183.5871,0.4745506,-0.1446545,0.8671109,12
11.04,-17.32249,1.18322,-24.18112,0.1822396674308111,-0.0610015612357523,-0.1472201817510101,17.41813,59.46923,183.8783,0.4855349,-0.1479948,0.8603699,12
11.06,-17.2326,1.364298,-24.11195,0.1337551633550342,-0.0756042091932956,-0.1819332118775567,20.99497,57.54585,183.9376,0.4675175,-0.1758633,0.8643677,12
11.08,-17.14502,1.542277,-24.04227,0.0837326422565274,-0.0877475054760942,-0.2162069070940435,24.57061,55.57736,183.8665,0.4489261,-0.203501,0.8672689,12
11.1,-17.19112,1.160956,-24.12998,0.0451893873027993,-0.0453703212413934,-0.2329011787484964,21.57945,56.64792,184.0251,0.4599937,-0.1810587,0.8673024,12
11.12,-17.13058,1.145641,-24.11577,-0.0071692460476908,-0.0874785818675708,-0.2745883574606718,24.59911,55.53388,183.9869,0.4483509,-0.2042126,0.8674692,12
11.14,-17.04194,1.33706,-24.05379,-0.0505673282888134,-0.0701500143163548,-0.2995796872618452,28.09308,53.50703,183.7802,0.4293073,-0.2310136,0.8693835,12
11.16,-17.03512,1.132978,-24.07403,-0.0934382778623759,-0.0523186330628669,-0.3229690890232817,28.01427,52.81884,183.8622,0.424007,-0.2312021,0.8721415,12
11.18,-16.94811,1.327962,-24.01358,-0.136049315950786,-0.0622346900312135,-0.3477836581444053,31.45873,50.71698,183.5183,0.4045282,-0.2575126,0.8729613,12
11.2,-16.86239,1.520213,-23.95215,-0.176443343931552,-0.0694347442456589,-0.3704299459028126,34.88856,48.50792,183.0073,0.3845827,-0.283507,0.8727338,12
11.22,-16.85911,1.11894,-24.00839,-0.2150605277516022,-0.1339004427287006,-0.4007715311750006,37.38282,50.33127,182.9263,0.3952712,-0.3002434,0.8605468,12
11.24,-16.77233,1.318227,-23.95222,-0.2360281510702044,-0.1389051353453075,-0.4126196902913417,40.75743,48.01378,182.3045,0.3749086,-0.3257063,0.8589978,12
11.26,-16.68649,1.514908,-23.89492,-0.2524646984942391,-0.1110012250513654,-0.415611692803957,44.10784,45.51984,181.4594,0.3541249,-0.3507803,0.856443,12
11.28,-16.65642,1.115243,-23.93185,-0.2712819522927341,-0.1396249468181741,-0.4242780517299804,43.26509,49.619,181.638,0.385226,-0.3401698,0.8459005,12
11.3,-16.57052,1.316056,-23.87648,-0.2867081191241676,-0.1673738158798381,-0.429870110650318,46.59678,47.20098,180.9326,0.364749,-0.3654187,0.842898,12
11.32,-16.48546,1.514319,-23.81993,-0.2936656049926944,-0.165647985387022,-0.4249763925520824,49.90225,44.55951,179.9629,0.3438707,-0.3902403,0.8389278,12
11.34,-16.37574,1.110125,-23.81077,-0.2871232014662364,-0.1912991123500903,-0.4139314476806643,50.68413,48.45661,178.6401,0.3754884,-0.3858918,0.8220201,12
11.36,-16.29778,1.107332,-23.77586,-0.2772753780202908,-0.2169925053330214,-0.3996965893005044,53.28746,47.80914,177.5831,0.3707516,-0.4022451,0.8131284,12
11.38,-16.21472,1.30625,-23.72159,-0.2588502485284829,-0.2117374633810816,-0.373662041813763,56.52262,45.02007,176.5115,0.3503671,-0.4269524,0.8077967,12
11.4,-16.13258,1.502775,-23.66626,-0.2357903443085007,-0.1753223054746563,-0.3404906835585839,59.72038,41.85016,175.0284,0.3296115,-0.4511777,0.8015723,12
11.42,-15.9928,1.104677,-23.62075,-0.2062881011087571,-0.1921272581286879,-0.3070509638013434,61.20348,42.54053,171.0756,0.3482057,-0.4486586,0.7852944,12
11.44,-15.91299,1.296381,-23.56434,-0.1783888268866398,-0.1722954963117303,-0.2718714298571192,64.32501,38.78872,169.0006,0.3279386,-0.472863,0.7778878,12
11.46,-15.715,1.128988,-23.48738,-0.1497502837062434,-0.1524550354238353,-0.2337704724169897,60.93708,37.38162,166.6534,0.3301538,-0.4449718,0.7920376,12
11.48,-15.63746,1.313656,-23.42738,-0.1151218796893789,-0.182317851202844,-0.1981121952814581,63.92786,33.13008,164.0044,0.3101231,-0.468825,0.7842621,12
11.5,-15.52478,1.161819,-23.39583,-0.0914618323597091,-0.1317192781530768,-0.1599241220480927,55.75914,38.56755,168.7321,0.3338372,-0.4105888,0.8151481,12
11.52,-15.44829,1.342057,-23.33238,-0.0642710881568149,-0.101943982890825,-0.1264318679112053,58.77087,34.93306,166.6692,0.3140912,-0.4345384,0.808451,12
11.54,-15.2616,1.211824,-23.29177,-0.0253733188824738,-0.0934104610920433,-0.0954309791301333,43.08791,46.251,173.9082,0.382736,-0.3178201,0.8465251,12
11.56,-15.17966,1.386936,-23.22741,-0.0032000144589583,-0.0398514571333935,-0.0636258857139062,46.25932,43.09759,172.6253,0.3605675,-0.3428785,0.8442923,12
11.58,-15.09774,1.559155,-23.16306,0.0182313599748931,-0.0341003749435051,-0.0444140067875826,49.41319,39.73009,170.9341,0.3388021,-0.3674737,0.8405055,12
11.6,-14.98345,1.249685,-23.20523,0.0408029058216365,-0.0307539943317153,-0.0238355665906544,26.30257,50.17664,175.7882,0.4201871,-0.1907458,0.8777618,12
11.62,-14.83872,1.262902,-23.17153,0.0506006674367207,-0.0068402527005554,-0.0075682611051273,13.95192,53.90802,177.1965,0.4524333,-0.09722072,0.8831605,12
11.64,-14.74857,1.429643,-23.08979,0.0687385828844648,0.0176762303583728,0.0128453322245514,17.60036,51.87068,176.9549,0.4357109,-0.1260487,0.8866102,12
11.66,-14.66197,1.592924,-23.00808,0.0859141036918071,0.0411645058849547,0.0335110818377581,21.23034,49.77513,176.5764,0.418444,-0.1546742,0.8888975,12
11.68,-14.58922,1.275006,-23.0619,0.092799910490648,0.0625923327338887,0.053591468802796,358.4955,56.88064,178.1159,0.4759479,0.01937206,0.8792219,12
11.7,-14.49697,1.440121,-22.98158,0.0975177554904129,0.0827172122121278,0.073970682909207,2.14947,55.03885,178.0026,0.4621878,-0.00857964,0.8864125,12
11.72,-14.40833,1.601705,-22.90125,0.0966928931640893,0.0540830062729732,0.0782537911172425,5.790527,53.18463,177.7875,0.4478566,-0.03652731,0.8924701,12
11.74,-14.25592,1.293111,-22.92831,0.0934903855917927,0.0692320151201753,0.0917544618581818,352.9333,59.11728,179.1238,0.4919522,0.05737177,0.8684051,12
11.76,-14.14953,1.295731,-22.91354,0.0872069365729761,0.0831835966004264,0.1051807350966096,353.554,59.15896,179.2385,0.492514,0.05216919,0.8684617,12
11.78,-14.05637,1.456484,-22.83241,0.0705653183848662,0.0447169547620554,0.0997483046462441,357.2018,57.4013,179.2306,0.4799357,0.02463982,0.8769383,12
11.8,-13.96726,1.613727,-22.75126,0.0517032091585021,0.074196417871132,0.1089147738345635,0.8283587,55.6461,179.1532,0.4667648,-0.002943817,0.8843212,12
11.82,-13.98189,1.262563,-22.85478,0.0223033539816555,0.0536688809940844,0.0975757704310691,355.7561,59.41038,180.3437,0.4952918,0.03067552,0.8679322,12
11.84,-13.89246,1.426939,-22.7769,-0.0089864032065298,0.0073107640002021,0.0750332106353961,359.3317,57.48198,180.3175,0.4808552,0.00378116,0.8767765,12
11.86,-13.814,1.246669,-22.81388,-0.0409940460039506,0.0352071433868555,0.0729167131489729,1.397203,60.09796,181.3483,0.5005441,-0.01644422,0.8655453,12
11.88,-13.72304,1.412365,-22.73604,-0.0809674305497283,0.0390800825654121,0.0617960419727801,5.032119,58.03341,181.351,0.4841107,-0.04409971,0.8738256,12
11.9,-13.6933,1.238401,-22.78399,-0.122384078496661,0.0433624616885333,0.049508893212204,6.162447,59.54802,182.3338,0.4948095,-0.05674417,0.8671,12
11.92,-13.6028,1.406329,-22.70633,-0.1784775259339364,-0.0043167185081847,0.0157635112496721,9.808634,57.33408,182.311,0.4763527,-0.08463593,0.8748594,12
11.94,-13.57189,1.218215,-22.74929,-0.2267920881154683,-0.0051946052688781,-0.0053438787583077,11.84846,59.20485,183.1645,0.4886753,-0.1032736,0.8659085,12
11.96,-13.50571,1.20965,-22.7447,-0.2754191022446524,-0.0045222598789988,-0.0280151104731491,13.36458,58.76053,183.3765,0.4840721,-0.1157089,0.8667696,12
11.98,-13.42398,1.386092,-22.67146,-0.3369028617285559,-0.0572269906033571,-0.069042657545427,16.82047,56.07885,183.3592,0.4610405,-0.142667,0.874773,12
12.0,-13.34551,1.559753,-22.59769,-0.3862718588795848,-0.0327155375448588,-0.0854681830220087,20.26578,53.34502,183.1727,0.4373673,-0.1693831,0.8814982,12
12.02,-13.36308,1.175688,-22.7166,-0.4397157364769521,-0.0355511035400634,-0.110044611253063,18.79142,56.08479,183.9924,0.4585173,-0.1601552,0.8729045,12
12.04,-13.27958,1.358844,-22.64373,-0.491682276449064,-0.0361198163222504,-0.1348518124186446,22.34435,53.74264,184.0007,0.4371197,-0.1882093,0.8776432,12
12.06,-13.28805,1.161238,-22.68298,-0.5325286662279884,0.0183695720226398,-0.1436234885582821,21.43751,53.47448,184.095,0.4358331,-0.1817897,0.8799263,12
12.08,-13.20923,1.34912,-22.61358,-0.5886775885445483,-0.0109039374528087,-0.1723253661703836,24.84599,51.22433,184.0372,0.415061,-0.2087387,0.8833568,12
12.1,-13.13222,1.53428,-22.5434,-0.6421701272901603,-0.0386920688073496,-0.2009142776029189,28.25555,48.91559,183.8247,0.3938623,-0.2354571,0.8856153,12
12.12,-13.14532,1.132915,-22.65411,-0.684242339936904,-0.0409681195420638,-0.2212392532758422,28.03298,50.38998,183.8801,0.4053693,-0.2330161,0.8809104,12
12.14,-13.06318,1.327928,-22.5903,-0.7181067292884837,-0.0102932087328783,-0.232835100182069,31.46423,47.99655,183.5281,0.3836631,-0.2596357,0.8823139,12
12.16,-12.98264,1.520277,-22.52542,-0.7481057336720889,0.0204014236943855,-0.2428062777681172,34.86745,45.49444,183.0062,0.3615298,-0.285881,0.882593,12
12.18,-12.99157,1.12204,-22.58356,-0.7717078083855706,0.0229784495009074,-0.2537103756022474,34.6985,46.87179,183.1618,0.3719359,-0.2839651,0.8787023,12
12.2,-12.90944,1.320623,-22.52181,-0.7902194187413571,0.0276569009554186,-0.262665292795861,38.07526,44.31072,182.5736,0.3496183,-0.3100345,0.8780496,12
12.22,-12.83148,1.115788,-22.52489,-0.8074242548446458,-0.025514521983563,-0.2804599746055825,41.8417,46.57093,182.27,0.3626819,-0.3352426,0.8606189,12
12.24,-12.76764,1.115333,-22.49734,-0.8071168189325935,0.0096049761455761,-0.2795713451943711,43.28231,46.08069,181.6011,0.3590145,-0.3444233,0.8572974,12
12.26,-12.68634,1.316177,-22.43764,-0.801397601094199,0.0443386386894431,-0.2761344740943467,46.61015,43.3566,180.8672,0.3364646,-0.3702019,0.854536,12
12.28,-12.64377,1.113947,-22.44088,-0.7931727436855782,-0.0094828904080697,-0.2796197055415605,46.348,45.2224,180.2625,0.3526209,-0.3640852,0.8489955,12
12.3,-12.56332,1.315036,-22.38142,-0.7712789173811925,0.0246907445453756,-0.2671802405784764,49.63274,42.42439,179.4593,0.330254,-0.3897206,0.8454351,12
12.32,-12.51885,1.110167,-22.38147,-0.7328045261670992,0.0008782759769858,-0.2523898623402365,50.65585,44.62746,178.6244,0.347907,-0.3916163,0.834181,12
12.34,-12.37134,1.10386,-22.3068,-0.6896439402912686,-0.0236702946996129,-0.2358553716553064,56.52625,44.18725,176.1019,0.3460117,-0.4272299,0.8095774,12
12.36,-12.2924,1.300349,-22.24763,-0.6457823851180777,0.0376673350085343,-0.2107505770524982,59.76149,40.96266,174.8143,0.32419,-0.452501,0.8035364,12
12.38,-12.17659,1.104649,-22.19697,-0.5857507392350492,0.0470930954886371,-0.1812719927006458,61.20678,39.45748,171.073,0.3269614,-0.4551442,0.7943578,12
12.4,-12.10054,1.296532,-22.13751,-0.5224535345859957,0.0563669312103017,-0.1495803675129661,64.30437,35.28857,168.8984,0.3044724,-0.4799343,0.7874231,12
12.42,-11.99894,1.118182,-22.09949,-0.4400040225588308,0.0157700019000078,-0.1182304723864011,61.79053,34.93484,167.1407,0.3108009,-0.4578687,0.7961305,12
12.44,-11.83612,1.144391,-22.01841,-0.3637832070735334,0.0597615604504967,-0.0837406116356387,58.37128,35.16296,167.7655,0.3117491,-0.4341132,0.8118275,12
12.46,-11.76428,1.326896,-21.9523,-0.2856450077024959,0.1014631641631235,-0.0480693129238321,61.36551,30.9004,165.4183,0.2896719,-0.4587921,0.8049737,12
12.48,-11.65705,1.178317,-21.91972,-0.2145033463347621,0.1229015822767813,-0.0227837832286454,52.068,37.99463,171.1405,0.3236737,-0.391168,0.8360212,12
12.5,-11.58663,1.356936,-21.84972,-0.1419486812451985,0.1435693286059551,0.0034864334560693,55.12172,34.45704,169.5131,0.3018609,-0.4160849,0.8306755,12
12.52,-11.48924,1.211431,-21.84703,-0.0595130064955553,0.1669890851447157,0.0264837871605996,43.14722,42.44386,173.8653,0.3544819,-0.3242573,0.8585179,12
12.54,-11.33843,1.239212,-21.80521,0.0230931197366994,0.1661434277920011,0.0443832687135441,32.09101,46.69024,175.2703,0.3909781,-0.2378429,0.8770956,12
12.56,-11.25543,1.409121,-21.72493,0.0905032127734143,0.2088266554808478,0.0662272023930414,35.58517,44.05789,174.5315,0.3702409,-0.2659045,0.8761832,12
12.58,-11.18198,1.257357,-21.74168,0.1548753290541288,0.2025429040331735,0.0756517770606448,20.03833,49.44048,176.4949,0.416451,-0.1453661,0.8918642,12
12.6,-11.09824,1.426033,-21.66021,0.2190363219666695,0.1937214761165387,0.0853644730589877,23.55501,47.04666,176.0171,0.3969875,-0.1734589,0.8942217,12
12.62,-11.04499,1.268168,-21.69215,0.273331619257656,0.2053063891481047,0.0964565702755262,8.160944,52.57186,177.4841,0.4430226,-0.05408644,0.8934151,12
12.64,-10.91772,1.275726,-21.65294,0.3251469795772237,0.21694133008366,0.1081341500837926,358.4181,55.71973,178.1335,0.4670054,0.01981328,0.8839968,12
12.66,-10.83128,1.441748,-21.57042,0.3742609812115293,0.2272083763199794,0.1182012198975392,1.991979,53.50963,178.0192,0.4503066,-0.00773904,0.8925377,12
12.68,-10.75699,1.285299,-21.57418,0.4185933810420208,0.1887130639674989,0.1135824961747951,353.3297,56.42341,178.6662,0.4713015,0.05675506,0.8799751,12
12.7,-10.67134,1.449025,-21.48842,0.462332763004185,0.2183092354921337,0.1270570415162475,356.9277,54.21923,178.6532,0.4552187,0.02921448,0.8898987,12
12.72,-10.61198,1.293817,-21.5124,0.494250329203969,0.1976580461584646,0.1211037205988008,352.8341,57.10012,179.2275,0.4766113,0.05810858,0.8768644,12
12.74,-10.50743,1.283004,-21.48695,0.5239127989632077,0.1487726553920896,0.1034848990364243,353.769,58.31771,179.7178,0.4863943,0.04865937,0.8720441,12
12.76,-10.4234,1.445584,-21.40074,0.5408699530166867,0.1670732064637599,0.0994052295046605,357.3246,56.11,179.8345,0.4701605,0.02128115,0.882271,12
12.78,-10.39351,1.262265,-21.44108,0.5437806772987026,0.1590202443143171,0.0871515244082634,355.7484,58.00734,180.4935,0.4846672,0.03035478,0.8739013,12
12.8,-10.30946,1.426583,-21.35711,0.5424238478978713,0.1505985687658375,0.0728532399253549,359.3062,55.80983,180.5686,0.468018,0.003028579,0.8836845,12
12.82,-10.28065,1.250289,-21.40491,0.5255996055078718,0.0915100898151418,0.0379754965827681,359.4393,58.49623,181.2928,0.4886037,-0.001243323,0.8724192,12
12.84,-10.19695,1.240651,-21.38854,0.5189414044507631,0.08163527232197,0.0186252363140049,4.00093,59.52658,182.0093,0.4955078,-0.03899692,0.8677251,12
12.86,-10.10888,1.407272,-21.30696,0.5097137567287989,0.0718321933561633,-0.0023261680783051,7.643152,57.34955,182.1146,0.4776098,-0.06729987,0.8758478,12
12.88,-10.09212,1.232427,-21.34281,0.4860687554496836,0.0610015190837118,-0.0245485405154401,8.228735,58.96632,182.8092,0.4892209,-0.07447044,0.8688617,12
12.9,-10.00475,1.40192,-21.2632,0.4598405905143805,0.050834733501668,-0.048411736086853,11.84391,56.79708,182.89,0.4706246,-0.1026583,0.8759255,12
12.92,-10.01343,1.217817,-21.32109,0.4239688752731625,0.0379221656886336,-0.0738698387217766,11.85839,59.21445,183.2895,0.4886283,-0.1038794,0.8658901,12
12.94,-9.954431,1.199979,-21.31863,0.3813908178671811,-0.0012471940514539,-0.1100635965898715,14.72891,60.12642,183.6186,0.4930725,-0.1265674,0.8599335,12
12.96,-9.866254,1.377286,-21.2467,0.3461279827601372,0.0133457304323132,-0.1304554107570212,18.29175,57.97314,183.7012,0.4737042,-0.1544157,0.8656499,12
12.98,-9.868943,1.183457,-21.28787,0.2989341871955271,0.001508861765435,-0.1559578907594501,17.37556,59.02115,183.8661,0.4822212,-0.1478038,0.8622999,12
13.0,-9.781475,1.364846,-21.21846,0.2522848876567589,-0.008833450706816,-0.182332810375934,20.91448,56.85972,183.8996,0.4624736,-0.1754493,0.8672338,12
13.02,-9.793984,1.160994,-21.2822,0.1900193019034322,-0.074922862817646,-0.225642425746388,21.54242,57.368,184.0694,0.4654035,-0.1805908,0.8644652,12
13.04,-9.706467,1.348442,-21.21751,0.138670446515298,-0.0865878190048705,-0.2492392937141523,25.04561,55.16453,183.9799,0.4450603,-0.2077647,0.8682251,12
13.06,-9.620912,1.533032,-21.15199,0.0890304329993607,-0.0961999418962021,-0.2735061958469895,28.54189,52.88797,183.7345,0.4241595,-0.234661,0.870856,12
13.08,-9.653458,1.139221,-21.22855,0.0421712793512683,-0.1059074883790038,-0.2936397280465974,26.28453,53.89442,183.9197,0.4341105,-0.2176566,0.8710929,12
13.1,-9.56709,1.332422,-21.16673,-0.0013377776652434,-0.1136042339530468,-0.3139198594292316,29.74931,51.60595,183.6496,0.4131189,-0.24439,0.8732442,12
13.12,-9.559126,1.125028,-21.20971,-0.0506095420490304,-0.1791251927879386,-0.3463824777641631,32.05722,52.07489,183.4785,0.4141693,-0.2607842,0.8668581,12
13.14,-9.472305,1.322674,-21.15278,-0.0825391318955039,-0.157035967274867,-0.35308176648233,35.46475,49.64988,182.9969,0.3925349,-0.2867902,0.8675231,12
13.16,-9.386645,1.517698,-21.09465,-0.110925120408709,-0.1353860720454809,-0.3589911426855106,38.85066,47.07901,182.3087,0.3704278,-0.3124288,0.8670983,12
13.18,-9.368515,1.117403,-21.1381,-0.1446799429498078,-0.2014345457392253,-0.377393751078837,39.60324,49.89785,182.5741,0.38987,-0.315989,0.8560674,12
13.2,-9.282294,1.317396,-21.08299,-0.1674231984861076,-0.208452734394184,-0.3825202383135284,42.95832,47.28962,181.8809,0.3676562,-0.3415036,0.854726,12
13.22,-9.222896,1.114581,-21.09964,-0.1813516056043828,-0.2426515871178356,-0.3880917303570879,44.66881,51.84089,181.0909,0.4010586,-0.3456167,0.833474,12
13.24,-9.136723,1.315562,-21.04718,-0.1905714270154374,-0.2166260721448647,-0.3831089730864825,47.98805,49.21937,180.4343,0.3790456,-0.3711437,0.8312388,12
13.26,-9.051423,1.514063,-20.99339,-0.1929305945427053,-0.2185971913013251,-0.3756599152166937,51.28088,46.35543,179.4902,0.3565935,-0.3962139,0.8279979,12
13.28,-8.986504,1.110197,-21.00225,-0.1915435276521367,-0.2196230354334259,-0.3667470784732751,50.66177,49.23247,178.6099,0.3811797,-0.3843663,0.8194861,12
13.3,-8.901904,1.310214,-20.95003,-0.1765273815486732,-0.2196577980473241,-0.3489096753726213,53.91872,46.30861,177.6195,0.3590613,-0.4094698,0.8156514,12
13.32,-8.73984,1.102331,-20.89856,-0.1428468680090546,-0.2459083480309342,-0.3257112561589048,59.63972,48.40671,173.9945,0.3789637,-0.4343071,0.7795624,12
13.34,-8.657122,1.296557,-20.8472,-0.1017843851759762,-0.2135159104148135,-0.2923724491200246,62.81971,44.85521,172.3799,0.3569001,-0.4590364,0.7739519,12
13.36,-8.575645,1.488507,-20.79484,-0.061883426347942,-0.2028051732645711,-0.2615470915985485,65.93926,40.65649,170.0905,0.3344379,-0.4832215,0.7674389,12
13.38,-8.416194,1.118189,-20.74473,-0.0208785521026856,-0.1926017061445863,-0.2293462978469742,61.79325,39.41298,167.0957,0.3418418,-0.4478393,0.7832644,12
13.4,-8.337639,1.305229,-20.68783,0.0208216727741568,-0.1749640191891394,-0.1992423240001568,64.79801,34.8719,164.3969,0.3200455,-0.472119,0.7762928,12
13.42,-8.147332,1.161643,-20.64475,0.0761360618086998,-0.1787647719371732,-0.1682390551981156,55.78252,42.21064,168.7541,0.3594844,-0.4031323,0.8040773,12
13.44,-8.068405,1.34186,-20.5851,0.1275982711364244,-0.1302042750251152,-0.1330260561712219,58.79882,38.35441,166.6974,0.3379649,-0.4273849,0.7986565,12
13.46,-7.991711,1.519776,-20.52498,0.1723267187955646,-0.105413911437072,-0.1084334955445087,61.7262,33.90874,164.0233,0.3160803,-0.4511442,0.7923305,12
13.48,-7.852682,1.211825,-20.52143,0.2180091956383322,-0.0821836719939383,-0.0833141766451626,43.09681,47.88166,173.8845,0.3948003,-0.3150765,0.8409253,12
13.5,-7.770887,1.386179,-20.45411,0.2569339373700589,-0.0588811661008572,-0.0669231597593649,46.33562,45.02392,172.8345,0.3740237,-0.3407394,0.8382283,12
13.52,-7.59168,1.250238,-20.44291,0.3035040845046927,-0.0591765276472909,-0.0568986458859219,26.23726,52.68151,175.9176,0.4390997,-0.1878814,0.8686424,12
13.54,-7.51132,1.257854,-20.41173,0.3465081679798401,-0.0142574931681726,-0.037491794578305,20.01644,53.7777,176.4941,0.449912,-0.1413037,0.8754983,12
13.56,-7.422737,1.427175,-20.33857,0.3751635932025339,0.003208976037287,-0.0260083235584303,23.47104,51.49289,176.0289,0.4314015,-0.1683565,0.8783066,12
13.58,-7.351961,1.268344,-20.35258,0.4017232457982821,0.0193594901749373,-0.0165446250469729,8.15547,56.20456,177.4727,0.4711236,-0.05234953,0.8789225,12
13.6,-7.261349,1.436026,-20.27711,0.4235390688425838,0.033296789301767,-0.0081092695182727,11.69221,54.04821,177.1933,0.4540889,-0.07963867,0.8847833,12
13.62,-7.20362,1.275796,-20.3019,0.4386783321121286,0.0230746415016057,-0.0106950800696186,358.4225,58.67232,178.1196,0.4896235,0.0200372,0.8716711,12
13.64,-7.060241,1.285221,-20.25941,0.4563376503569125,0.0584358796813921,0.0017382326505681,353.3348,60.72413,178.6874,0.5040002,0.05593593,0.8616695,12
13.66,-6.968142,1.448896,-20.18034,0.4709233132064449,0.0699127333347768,0.0061353342681957,356.9318,58.62091,178.7032,0.4890706,0.02888111,0.87176,12
13.68,-6.892801,1.293831,-20.18748,0.4751883984528227,0.0547434375074215,-0.0012856131377905,352.8338,60.68249,179.223,0.5037844,0.05735361,0.8615395,12
13.7,-6.802032,1.455606,-20.10542,0.4779583150218487,0.0847547110790977,0.0017303617891997,356.4316,58.5774,179.3022,0.4887989,0.03013187,0.8718197,12
13.72,-6.769432,1.283071,-20.14829,0.4662034795439999,0.0628808389974295,-0.0163569203827553,353.7684,61.20817,179.7054,0.5082282,0.04808938,0.8595018,12
13.74,-6.674712,1.262247,-20.13738,0.4565074575717183,0.0613957157563787,-0.0300801016671972,355.7407,62.2743,180.5155,0.5168692,0.02948223,0.8552458,12
13.76,-6.584394,1.426498,-20.0599,0.441619419224743,0.0850790108705847,-0.0377618901201715,359.2976,60.17839,180.6203,0.5013596,0.002589485,0.8652005,12
13.78,-6.546841,1.250314,-20.09202,0.413403135032069,0.0586263273669389,-0.0633456241075323,359.4315,62.03809,181.2879,0.515332,-0.001539653,0.856903,12
13.8,-6.454556,1.415191,-20.01484,0.3913325034114922,0.0822037008381525,-0.0735475403585455,3.056664,59.95256,181.366,0.499153,-0.02905541,0.8660218,12
13.82,-6.44366,1.240515,-20.06248,0.3548926895842895,0.0548068070653953,-0.1052006585544398,4.016582,62.44701,181.99,0.517461,-0.03895952,0.854813,12
13.84,-6.36452,1.232255,-20.05188,0.3255205159020332,0.0772991720643168,-0.1206704805223717,8.244531,63.26316,182.8158,0.5214369,-0.07403952,0.8499053,12
13.86,-6.270326,1.401496,-19.97903,0.2947782736309557,0.1242825356491038,-0.1292118575041532,11.88125,61.19866,182.91,0.5038725,-0.1019124,0.8571873,12
13.88,-6.269585,1.21767,-20.0199,0.2418254547625289,0.09268700402284,-0.1624272675660107,11.88174,62.84161,183.2846,0.5157752,-0.1031491,0.8499761,12
13.9,-6.17616,1.390701,-19.94969,0.1984868252399409,0.1120844006157268,-0.1812554362195642,15.49203,60.78194,183.357,0.4976611,-0.1308953,0.856353,12
13.92,-6.195509,1.199921,-20.00696,0.1377679663751646,0.0773652522588576,-0.2199376448173375,14.74698,63.1235,183.6015,0.5153962,-0.1256107,0.8467241,12
13.94,-6.138053,1.183363,-20.0054,0.0914366689964096,0.0961301786658319,-0.2411257953285788,17.39169,63.38832,183.8745,0.5147002,-0.1461242,0.8432884,12
13.96,-6.044637,1.364563,-19.94254,0.0496166636948978,0.1430421297981275,-0.2533088151725242,20.95206,61.33379,183.9232,0.4958969,-0.1734714,0.8484883,12
13.98,-6.051454,1.16842,-19.97934,-0.0122348284788925,0.1074114867795128,-0.2856173652736973,20.13345,61.56809,184.0244,0.4983411,-0.167768,0.8484962,12
14.0,-5.958919,1.353666,-19.91863,-0.0696489871706199,0.1001957798575917,-0.3105537164188048,23.67042,59.48518,183.9802,0.479081,-0.194833,0.8528261,12
14.02,-5.982547,1.15321,-19.96612,-0.128527559322542,0.0661162667663622,-0.3420371634499624,23.05957,60.18184,184.0157,0.4848956,-0.1900456,0.850762,12
14.04,-5.925966,1.139099,-19.96042,-0.1700485595379334,0.0908085831710469,-0.3548751671247236,26.30395,59.27768,183.9568,0.4744452,-0.214271,0.8497419,12
14.06,-5.833892,1.332122,-19.90566,-0.2197261041342216,0.0595028125882758,-0.3771752235152665,29.79085,57.11166,183.7319,0.4543553,-0.2407071,0.8523871,12
14.08,-5.830112,1.128938,-19.93141,-0.2658939014393819,0.0293004602570975,-0.3999575134518571,30.02379,56.81627,183.6435,0.4520379,-0.2423214,0.8530508,12
14.1,-5.738999,1.325244,-19.87945,-0.3018529336361581,0.0268834830653751,-0.4117100013791339,33.45222,54.54373,183.2321,0.4314381,-0.2680801,0.8546173,12
14.12,-5.712924,1.118932,-19.90769,-0.3414713906560649,-0.0020679773576516,-0.4295705475708185,37.35913,55.82207,182.9417,0.4360319,-0.2943088,0.8407002,12
14.14,-5.621713,1.31821,-19.86009,-0.3644958981896476,0.0293417520790273,-0.4316785479197129,40.73104,53.38163,182.3253,0.4147031,-0.3194058,0.8405951,12
14.16,-5.531382,1.514911,-19.8112,-0.3841766905978543,0.0035312092885965,-0.440087485044125,44.07758,50.75885,181.4761,0.3928923,-0.3441095,0.8394737,12
14.18,-5.504368,1.115262,-19.85161,-0.4033641651420122,-0.0505490778663327,-0.451709912278305,43.25272,54.75492,181.6354,0.4227661,-0.3333404,0.8278223,12
14.2,-5.458906,1.114642,-19.84202,-0.4071530404887198,-0.0168208384804295,-0.4476540301052574,44.65524,55.28965,181.063,0.4260622,-0.3404999,0.8210266,12
14.22,-5.339244,1.113109,-19.80856,-0.4110948314125484,-0.0409517804152849,-0.4482906814346141,48.04153,54.72525,179.4542,0.4215339,-0.3595193,0.8103026,12
14.24,-5.249879,1.314084,-19.76355,-0.3947236885587001,-0.0344478407009255,-0.4360528697037109,51.31268,52.03521,178.6041,0.4001102,-0.3842493,0.8076845,12
14.26,-5.159222,1.107394,-19.74403,-0.3735397456641423,-0.0274017540534254,-0.4219528980274876,53.27096,52.78233,177.5605,0.4057845,-0.3930408,0.796294,12
14.28,-5.071833,1.306391,-19.69794,-0.3419955323621893,-0.0783372982360572,-0.4078847165091663,56.49899,49.83186,176.4449,0.3842472,-0.4175413,0.7923379,12
14.3,-4.954537,1.102452,-19.66271,-0.3034200490285951,-0.0422056697962288,-0.3831182053063622,59.62027,50.27456,173.9295,0.3918925,-0.4298982,0.7732188,12
14.32,-4.760957,1.109209,-19.58756,-0.2570888324060927,-0.0600467936287713,-0.3597083711761883,62.61803,44.57449,167.8117,0.3732379,-0.4437161,0.7651604,12
14.34,-4.678055,1.298425,-19.5369,-0.2051477025164191,-0.0419835512108688,-0.333652131057597,65.6692,40.23283,165.2455,0.3519646,-0.4678181,0.7585055,12
14.36,-4.54795,1.128951,-19.49681,-0.1510214756875826,-0.0246645898458574,-0.305630516217652,60.93889,41.09092,166.635,0.3556834,-0.4364005,0.7808861,12
14.38,-4.467076,1.313685,-19.44204,-0.0901665197179849,-0.0577965953365258,-0.2808785310248369,63.92266,36.67996,163.9471,0.3344982,-0.4602621,0.7741659,12
14.4,-4.349668,1.161721,-19.41729,-0.0390948207891074,-0.0112159984704416,-0.2540772192546177,55.77671,42.13291,168.6819,0.3591971,-0.4030322,0.8041881,12
14.42,-4.178277,1.195468,-19.36076,0.015646631525729,-0.0126397345619266,-0.235590294891137,48.32684,48.16629,173.0917,0.3941478,-0.3505987,0.8213856,12
14.44,-4.097786,1.372315,-19.29983,0.0660243820906082,0.0116668523217767,-0.2197110536260518,51.42874,45.19132,171.845,0.3737822,-0.3749508,0.8178499,12
14.46,-3.971143,1.227286,-19.29545,0.1181485091549268,0.0342026670111848,-0.2028426095001028,38.02028,50.8234,174.58,0.4191729,-0.2747084,0.8464216,12
14.48,-3.87848,1.397861,-19.22617,0.1683066001896038,0.006831284955789,-0.1973992539138245,41.51896,48.18891,173.6158,0.3991626,-0.3018057,0.8442251,12
14.5,-3.802303,1.25016,-19.25296,0.2112344544635975,0.0474566224467064,-0.1829824318775421,26.25916,54.29874,175.9205,0.451296,-0.1861814,0.8623208,12
14.52,-3.661595,1.264019,-19.22621,0.253824412071281,0.0393672027965739,-0.1832981873251618,13.90044,58.1027,177.1104,0.484539,-0.09359524,0.8660038,12
14.54,-3.568259,1.432589,-19.15674,0.2826242196348338,0.0742766961159815,-0.1758771482480972,17.388,56.00228,176.7802,0.467661,-0.1203715,0.8704548,12
14.56,-3.492436,1.272147,-19.16701,0.3109133699835987,0.1299378290196794,-0.1638601044535006,2.410213,60.22145,177.8684,0.5018134,-0.008861076,0.8645204,12
14.58,-3.397534,1.439264,-19.09597,0.3338987327508783,0.1127324834994027,-0.1683473924170302,5.957273,58.2006,177.6828,0.4865016,-0.03557466,0.8718998,12
14.6,-3.330134,1.279264,-19.11481,0.3534740233276121,0.1187981308693945,-0.1687464657338315,354.4919,62.06918,178.355,0.514316,0.04855851,0.856134,12
14.62,-3.266382,1.28496,-19.10547,0.3769935316545003,0.100325566308541,-0.1761390876345228,353.352,63.36076,178.7318,0.5237187,0.05514137,0.8498444,12
14.64,-3.170394,1.448335,-19.02981,0.4030091113635154,0.1270997296472051,-0.1700961303976265,356.9644,61.35383,178.7983,0.5097505,0.02812813,0.8598508,12
14.66,-3.035835,1.29596,-19.04229,0.4074564561039715,0.1244521445288987,-0.1747039495461981,353.4684,64.7261,179.4773,0.534188,0.0505566,0.8434321,12
14.68,-2.989397,1.283323,-19.03709,0.4087422099383344,0.1203981827363753,-0.1815410327405322,353.7461,65.17359,179.7027,0.5376536,0.04735626,0.8413954,12
14.7,-2.894793,1.446162,-18.96372,0.3986086445238112,0.1113877465414127,-0.1940967426233268,357.2797,63.16917,179.819,0.5235767,0.02104736,0.8516465,12
14.72,-2.879497,1.262324,-19.01737,0.3767980537414143,0.0774778186839779,-0.2192573383516767,355.7353,65.65498,180.5064,0.541869,0.02887183,0.8396274,12
14.74,-2.778053,1.250293,-19.00835,0.3617460028409928,0.0913411123520074,-0.2290256726951089,359.4247,66.73645,181.3109,0.5500228,-0.002099123,0.8350564,12
14.76,-2.679598,1.415123,-18.93896,0.3367205992158092,0.0820615238848803,-0.2460893556482082,3.047221,64.74941,181.4187,0.5349458,-0.02908074,0.8443775,12
14.78,-2.657537,1.240521,-18.97175,0.3101662137735375,0.0722461334080827,-0.2654743935238031,4.017908,66.51737,181.9877,0.5474921,-0.03881592,0.8358969,12
14.8,-2.55809,1.406938,-18.90306,0.2891955904556162,0.1096046097183065,-0.2714896626692127,7.680976,64.54187,182.0846,0.5316062,-0.06631413,0.8441451,12
14.82,-2.547871,1.226553,-18.96435,0.2438520960202139,0.0690008383188929,-0.3033575362069984,10.31004,67.50069,183.1012,0.5511041,-0.08965351,0.8291509,12
14.84,-2.448266,1.397478,-18.90076,0.2095413692322087,0.0787040208301765,-0.3198844704538324,13.93228,65.53764,183.1885,0.53421,-0.1168899,0.8361576,12
14.86,-2.351733,1.565085,-18.83661,0.1760112502953987,0.1133119939347401,-0.3293859571530588,17.55427,63.54703,183.1474,0.5166377,-0.143966,0.8420704,12
14.88,-2.396466,1.199896,-18.92498,0.1188346355342494,0.0679450773744365,-0.3597622163666414,14.75358,66.87192,183.5958,0.5428136,-0.1242364,0.8294076,12
14.9,-2.29844,1.377032,-18.86495,0.0638068136723865,0.0488581910158976,-0.3834589972383218,18.34159,64.91687,183.6674,0.5252532,-0.151365,0.8353062,12
14.92,-2.318862,1.176,-18.92614,0.0037428072171764,0.0030876168139878,-0.415699343203241,18.71753,66.11012,183.9966,0.5331048,-0.1549793,0.8295807,12
14.94,-2.221705,1.359242,-18.87075,-0.0388930049834153,0.0124013154882528,-0.4314441012884482,22.26587,64.13969,183.9995,0.5149342,-0.181701,0.8345263,12
14.96,-2.12662,1.539467,-18.81449,-0.0899998956093889,-0.0043800035060115,-0.4491481281160214,25.81111,62.11625,183.8673,0.4961333,-0.2081859,0.8384176,12
14.98,-2.174244,1.153288,-18.89002,-0.139288282332998,-0.0193561867611162,-0.4676319013934242,23.05883,63.02688,183.9892,0.5059107,-0.1881159,0.8384457,12
15.0,-2.152044,1.145659,-18.89413,-0.1883883798033523,-0.0350319215818865,-0.4827587493152174,24.58828,62.90961,184.0049,0.5032009,-0.1993452,0.8368628,12
15.02,-2.084077,1.132886,-18.88503,-0.2373076858576184,-0.0774507269689935,-0.5029298897873575,28.02674,61.57543,183.906,0.4892475,-0.2248263,0.8372431,12
15.04,-1.988875,1.327683,-18.83704,-0.2661321554933507,-0.0612711534433945,-0.508001051386664,31.49808,59.46435,183.6051,0.4696784,-0.2505901,0.8395758,12
15.06,-1.972411,1.125089,-18.85552,-0.2862904250064936,-0.0147712520540547,-0.5053565713475603,32.05598,58.97763,183.4564,0.4656549,-0.2544968,0.8403332,12
15.08,-1.878511,1.322744,-18.80963,-0.3158088099926394,-0.0546520058918587,-0.5137592097267651,35.46552,56.74716,182.9658,0.4455532,-0.2796119,0.8415282,12
15.1,-1.860952,1.118995,-18.8291,-0.328231290035344,-0.0348893530132073,-0.5099919389391601,37.34898,57.81188,182.9188,0.4506378,-0.2918717,0.8329993,12
15.12,-1.825667,1.117376,-18.83174,-0.3362503120206552,-0.0157190739921584,-0.5052859751960193,39.5733,58.75853,182.5907,0.4548376,-0.3053424,0.8234891,12
15.14,-1.732249,1.317332,-18.79016,-0.3326698881601792,-0.0246479546300801,-0.4978163016153005,42.91162,56.3714,181.9306,0.4341042,-0.3297697,0.8231332,12
15.16,-1.652161,1.114657,-18.80158,-0.3245697912227471,-0.0322222338169943,-0.488694106985799,44.66381,59.36422,181.0572,0.4549826,-0.3343256,0.8053277,12
15.18,-1.592731,1.113941,-18.78995,-0.3121326942443574,-0.0418764260209084,-0.4783173397259608,46.32728,59.11055,180.2727,0.4526831,-0.3432533,0.8002145,12
15.2,-1.50009,1.314991,-18.751,-0.2861871299926307,0.032075410767568,-0.4535287949091833,49.60643,56.58865,179.4976,0.4318916,-0.3674928,0.79842,12
15.22,-1.447959,1.110179,-18.75473,-0.2496087193249051,0.0183843861539696,-0.4300547816026725,50.63542,58.32615,178.6352,0.4449087,-0.3681556,0.7868246,12
15.24,-1.280544,1.103869,-18.71002,-0.213106847628607,0.0357702316774145,-0.402669504525563,56.50721,57.54358,176.1038,0.4378384,-0.4002811,0.7639213,12
15.26,-1.190107,1.300407,-18.67105,-0.1546470047708367,-0.0026202095654545,-0.3734124103409781,59.72048,54.52021,174.8285,0.4167866,-0.4242178,0.7598501,12
15.28,-1.060175,1.104665,-18.64135,-0.0931997727326836,-0.0074697527436435,-0.3408208810567186,61.18279,52.66545,171.1024,0.4160735,-0.4251107,0.7516592,12
15.3,-0.9719326,1.29643,-18.59997,-0.0293686616938394,-0.0127584641104982,-0.3062514215407881,64.29794,48.88274,169.026,0.3950354,-0.4487193,0.746209,12
15.32,-0.8580189,1.118112,-18.57997,0.0516260753952199,-0.0080333851491459,-0.2700121279940859,61.79679,48.0728,167.1492,0.3997991,-0.4269291,0.7553425,12
15.34,-0.6746778,1.144281,-18.5309,0.1174938831225815,0.0238215041661707,-0.2362370206146944,58.38871,48.14231,167.7589,0.4015138,-0.4048548,0.7713011,12
15.36,-0.5883999,1.326745,-18.48348,0.1877358444920352,0.0077056821327966,-0.2078039877054758,61.38949,44.20766,165.4429,0.3808803,-0.4281416,0.7659446,12
15.38,-0.4707328,1.178188,-18.46885,0.2510107250660328,0.0427100212588848,-0.176917208850531,52.09614,51.02726,171.1262,0.416474,-0.3651782,0.7937518,12
15.4,-0.3847593,1.35676,-18.4177,0.3172006015730841,0.0302043881141884,-0.15681484481633,55.1553,47.81167,169.5258,0.3963261,-0.388682,0.7898371,12
15.42,-0.2841786,1.211306,-18.42928,0.3795769464202918,0.0649205443100485,-0.1316495961383967,43.18643,55.4617,173.8616,0.449483,-0.3021128,0.8126747,12
15.44,-0.1206308,1.239249,-18.41512,0.4352938741053374,0.0749733884865277,-0.1195645563951171,32.06971,59.6042,175.2725,0.4871485,-0.2197861,0.8276148,12
15.46,-0.020127,1.409099,-18.35713,0.4911303453626718,0.0834799618166199,-0.1081861935445571,35.56755,57.28461,174.5564,0.468649,-0.2460738,0.8277978,12
15.48,0.05297321,1.257335,-18.38196,0.5341521335029221,0.0896095230308792,-0.1014887999331479,20.04117,62.41313,176.5028,0.5145249,-0.1331866,0.8391145,12
15.5,0.154403,1.425939,-18.32296,0.5752847772821367,0.0946105984096923,-0.0969161207920166,23.56128,60.32914,176.0535,0.4976877,-0.159476,0.8423402,12
15.52,0.2488655,1.27196,-18.36282,0.6219591637353307,0.0975520695128258,-0.0915872049763835,2.446415,67.58845,177.895,0.5563171,-0.007523157,0.8304929,12
15.54,0.3526092,1.438864,-18.30414,0.6589052937894975,0.1222710751369746,-0.0819719339118743,6.006929,65.664,177.7428,0.542195,-0.03335389,0.8383874,12
15.56,0.4530855,1.602401,-18.24479,0.6898209654368889,0.0990602883815436,-0.0844696459903393,9.559419,63.71546,177.4678,0.5274118,-0.05913408,0.8452293,12
15.58,0.5297969,1.285342,-18.28724,0.7199074375526748,0.1216867115321402,-0.0771159320352974,353.3331,68.83363,178.65,0.5636486,0.05461232,0.823882,12
15.6,0.6014861,1.291253,-18.27713,0.7456225566925035,0.1405234042248263,-0.072137176592645,352.2538,69.69001,179.0274,0.5695624,0.06027243,0.8191243,12
15.62,0.7453301,1.296071,-18.25321,0.7583597580593983,0.132886790592017,-0.0773293637154091,353.4554,70.44269,179.4792,0.5755785,0.04924795,0.8157395,12
15.64,0.8486805,1.457295,-18.18754,0.7703307483751484,0.1217554672369488,-0.085501096365542,357.0375,68.52737,179.6197,0.5627404,0.02323147,0.8262231,12
15.66,0.8727915,1.270192,-18.22092,0.7784468962751919,0.1097411381912515,-0.096801210671674,354.0801,70.12939,179.9357,0.5737109,0.04258777,0.8174285,12
15.68,0.9733295,1.434105,-18.15782,0.7761146047356293,0.1408970120881811,-0.0987587719332139,357.6096,68.22115,180.0518,0.5606776,0.01701641,0.8277715,12
15.7,0.9998339,1.254724,-18.20464,0.7607927230394447,0.1233036618907963,-0.1139690893670311,357.4308,70.28437,181.0585,0.5756076,0.01301605,0.8173666,12
15.72,1.037555,1.250075,-18.21122,0.7422057491075967,0.1052724585991358,-0.1322314632914718,359.4398,71.32823,181.3221,0.5830325,-0.002755345,0.8123522,12
15.74,1.142323,1.414609,-18.15,0.7314340660497853,0.1354752235358239,-0.1352049199746408,3.084758,69.43681,181.447,0.5690125,-0.02931173,0.8217915,12
15.76,1.19347,1.237828,-18.1935,0.715434793992639,0.1879203879551791,-0.1319204781666743,6.159269,72.22247,182.534,0.5874002,-0.05640407,0.8072105,12
15.78,1.299073,1.405308,-18.13552,0.6727583666774175,0.1397288197406745,-0.1599718929597902,9.810454,70.35024,182.6647,0.5721872,-0.08322071,0.8153266,12
15.8,1.401434,1.569346,-18.07689,0.6384035462019216,0.1419552831066013,-0.1760749624329411,13.46287,68.46373,182.6746,0.5562515,-0.109922,0.8223839,12
15.82,1.348893,1.208974,-18.18055,0.5880740424859713,0.0909404035204113,-0.208455138485947,13.42739,72.55524,183.4766,0.5845117,-0.1120288,0.8023615,12
15.84,1.453416,1.383929,-18.12911,0.5398969164366866,0.0660097653680741,-0.2301859209302614,17.03572,70.69447,183.5677,0.5681109,-0.1385656,0.8089406,12
15.86,1.555329,1.555634,-18.0768,0.4895299348301702,0.0427698314946177,-0.2544295608853599,20.64393,68.80127,183.5356,0.5510075,-0.1649189,0.8144907,12
15.88,1.501902,1.183395,-18.15434,0.4367842646769011,0.0182296763083398,-0.2817528914479958,17.39999,71.3024,183.8486,0.5716909,-0.1421883,0.8057381,12
15.9,1.524853,1.175967,-18.16014,0.3776923850386062,-0.0097794214889347,-0.3057556969255723,18.72489,71.36607,183.9988,0.5705701,-0.1521365,0.804259,12
15.92,1.587337,1.160916,-18.16086,0.3181544858200574,-0.0357457688661054,-0.3320827531035029,21.57366,70.2998,184.0626,0.5597655,-0.1729771,0.8065156,12
15.94,1.689191,1.348163,-18.11765,0.2753856208510198,-0.0065151316390482,-0.3429543256976628,25.11039,68.39359,183.9846,0.542015,-0.1987609,0.8110929,12
15.96,1.684832,1.145635,-18.14571,0.2122304400448009,-0.0621151163376898,-0.3700696614459851,24.59848,68.19794,183.9991,0.5412688,-0.1953981,0.8127392,12
15.98,1.785191,1.336972,-18.10425,0.1407919248017659,-0.1442942606370444,-0.4035995581249625,28.10089,66.24239,183.8099,0.5230126,-0.2208366,0.8164209,12
16.0,1.77002,1.132987,-18.13513,0.0918137624546764,-0.1413775348125501,-0.4202454677187734,27.99917,66.31707,183.8839,0.523544,-0.2203892,0.816312,12
16.02,1.849403,1.125054,-18.12834,0.0501849781424742,-0.1653811679856903,-0.4369915472382084,32.04307,64.98119,183.4787,0.508993,-0.2483628,0.8148437,12
16.04,1.947444,1.322649,-18.09191,0.0151945987690014,-0.1563709625962192,-0.4488360472222035,35.44962,62.85943,183.0182,0.489685,-0.2727685,0.8166742,12
16.06,2.0447,1.517575,-18.05422,-0.0173351547514863,-0.1474387382772701,-0.4614694461988815,38.83813,60.60707,182.3754,0.4698243,-0.2968494,0.8175519,12
16.08,2.051858,1.117376,-18.09685,-0.035942586363597,-0.0826935944025171,-0.4651332057787289,39.58733,63.20928,182.5932,0.4864404,-0.2994932,0.805176,12
16.1,2.148984,1.317276,-18.06213,-0.0673324487242043,-0.1333789831298549,-0.4826976792449131,42.94642,60.91911,181.9417,0.466329,-0.3234923,0.8051848,12
16.12,2.245507,1.51458,-18.02611,-0.0838088295236373,-0.1235175964771974,-0.4911673386037853,46.2813,58.43999,181.0584,0.4457011,-0.3471137,0.8042704,12
16.14,2.325723,1.113901,-18.05915,-0.084707351644568,-0.1408318249588699,-0.4983782255976816,46.36067,63.10925,180.2968,0.4801942,-0.3366705,0.7838797,12
16.16,2.421742,1.314847,-18.02556,-0.0835780440190742,-0.1851212885425789,-0.5075915232838093,49.67463,60.70269,179.5548,0.4599679,-0.3606889,0.7822939,12
16.18,2.517246,1.513265,-17.99067,-0.0767882825909207,-0.1692230346109609,-0.5087001812655378,52.96256,58.04764,178.5276,0.439243,-0.3842956,0.7798299,12
16.2,2.612056,1.709163,-17.95455,-0.0613746972366849,-0.1237112721840037,-0.5048349089587614,56.21411,55.06729,177.1424,0.4180433,-0.4074644,0.776492,12
16.22,2.70372,1.103902,-17.97918,-0.0351676322986256,-0.164486392500148,-0.5056037902443786,56.47092,60.5144,176.1263,0.4574839,-0.39341,0.7525011,12
16.24,2.796867,1.300426,-17.94469,4.785399156592707e-05,-0.1456582510909183,-0.4990656044440742,59.70303,57.58706,174.8544,0.4369078,-0.4170204,0.7485562,12
16.26,3.0169,1.10916,-17.91047,0.0270567489275922,-0.0971875249206423,-0.492264662785085,62.62479,53.72321,167.8189,0.4330373,-0.4200539,0.7329464,12
16.28,3.113024,1.117951,-17.89035,0.0769998136158245,-0.1260396146698812,-0.4923764329569824,61.81554,52.69402,167.2331,0.4296001,-0.4151102,0.7387568,12
16.3,3.202817,1.304759,-17.85145,0.1212996852942985,-0.1214375954731006,-0.4938328601530886,64.85192,48.61327,164.7286,0.4092941,-0.4381781,0.7331135,12
16.32,3.429716,1.161529,-17.82329,0.16692039528333,-0.1169446938985335,-0.494210897956866,55.80151,52.71252,168.7263,0.4316339,-0.3787343,0.7676591,12
16.34,3.52005,1.341649,-17.78036,0.2096658284402817,-0.0605889153737932,-0.4905483960698986,58.83048,49.14162,166.6682,0.4116115,-0.4015973,0.7631436,12
16.36,3.638224,1.19529,-17.77874,0.2540387484081611,-0.0492065987583512,-0.5034849769924095,48.35321,57.70169,173.1163,0.4609488,-0.3316417,0.7857479,12
16.38,3.72849,1.372006,-17.73212,0.2991368509102875,-0.0384800818462374,-0.5160655048910012,51.46777,54.95213,171.9205,0.4417241,-0.3549798,0.7831129,12
16.4,3.839875,1.227047,-17.7604,0.3397530085548779,0.0177859853944111,-0.5236917312486584,38.06382,61.24707,174.6224,0.4941837,-0.2577162,0.8048057,12
16.42,3.944132,1.397456,-17.70885,0.3855707889077107,0.0031050756129705,-0.551698273479126,41.57611,58.8405,173.7237,0.4754684,-0.2835392,0.8035705,12
16.44,4.08906,1.257269,-17.74932,0.426184384075043,0.0112150552859817,-0.575652621798036,20.10302,67.06319,176.5263,0.5480779,-0.1289351,0.8174877,12
16.46,4.19482,1.425882,-17.69856,0.4559531563551637,0.0403655791904565,-0.5942678402587549,23.61833,65.08214,176.1131,0.5320671,-0.1545684,0.8209558,12
16.48,4.259409,1.268121,-17.73103,0.4830382910670792,0.067141793390975,-0.6141379629078036,8.208473,69.89445,177.4943,0.5724989,-0.04615914,0.8164862,12
16.5,4.366955,1.435531,-17.68016,0.501316526623343,0.0682411210564656,-0.6394745002737023,11.7639,68.02959,177.2559,0.5583363,-0.07159574,0.8229203,12
16.52,4.511833,1.279239,-17.70538,0.5176768094962754,0.0684963573168137,-0.6660497169044537,354.5078,73.5752,178.3612,0.5975528,0.04691923,0.80027,12
16.54,4.620625,1.444378,-17.65387,0.5323547735005423,0.1129294218397147,-0.6794456290256519,358.0846,71.75724,178.332,0.5857289,0.02207066,0.810204,12
16.56,4.710537,1.291324,-17.67015,0.543234353400263,0.0866424079298696,-0.7138521659100849,352.2511,73.94929,179.0108,0.5995986,0.05915993,0.7973973,12
16.58,4.81984,1.453551,-17.61422,0.5405608206643329,0.0334473563002067,-0.7555667551302623,355.8627,72.12488,179.0897,0.5880327,0.03385204,0.8079926,12
16.6,4.925589,1.612214,-17.55758,0.5388853985704265,0.0488786759027534,-0.7835944596711522,359.474,70.31194,179.0534,0.5757475,0.008509119,0.8175731,12
16.62,4.943463,1.283004,-17.64552,0.5297877196391769,0.0357890672559956,-0.8203368166595535,353.7772,74.83763,179.7173,0.6066328,0.04460518,0.7931233,12
16.64,5.039043,1.262234,-17.661,0.5118453974686272,0.0462748578967389,-0.8530704917974927,355.7327,76.23574,180.5282,0.6169819,0.0264474,0.786083,12
16.66,5.146669,1.426375,-17.60928,0.4899568718513407,0.054950815383978,-0.8881399296379144,359.2912,74.42078,180.6664,0.6047505,0.001408921,0.79637,12
16.68,5.250966,1.587147,-17.5568,0.4533093846411533,0.0403827897064818,-0.9233655792731108,2.851356,72.61411,180.692,0.5917974,-0.02362412,0.8056805,12
16.7,5.248348,1.24613,-17.64475,0.4020685899248906,0.0022122312171645,-0.9643107243301664,1.388332,76.76473,181.5364,0.6206778,-0.01782004,0.7838575,12
16.72,5.358333,1.411484,-17.59495,0.3605679641626949,0.0145861768070406,-0.9913535045647932,5.02295,74.96848,181.667,0.6073884,-0.04361196,0.7930625,12
16.74,5.465058,1.573378,-17.54432,0.3080708756188675,0.0011574815674421,-1.0136369993334418,8.659477,73.16864,181.6831,0.5933497,-0.06934428,0.8012635,12
16.76,5.568293,1.73201,-17.49304,0.2546688333586533,-0.010757468922467,-1.0376758126950958,12.29366,71.3504,181.5826,0.5785801,-0.09498188,0.8084511,12
16.78,5.519033,1.217467,-17.64178,0.2076579855862572,0.026653846852173,-1.0482016551137248,11.88971,78.50538,183.3342,0.6267391,-0.09847641,0.7717789,12
16.8,5.629359,1.390115,-17.59919,0.1585815640377403,0.0614181019184564,-1.0599850507576694,15.521,76.74274,183.4764,0.6115764,-0.1244742,0.7790083,12
16.82,5.647994,1.191065,-17.64964,0.0637286531898142,-0.009281684907743,-1.0776553297787483,16.06821,79.20102,183.7634,0.6272982,-0.128355,0.765459,12
16.84,5.697452,1.183401,-17.64795,-0.0076056823568295,-0.000969748202937,-1.0727929263482108,17.37524,78.53663,183.8926,0.6213582,-0.1381221,0.7681134,12
16.86,5.804709,1.364532,-17.61209,-0.1024434708187342,-0.0468308210320933,-1.0680727210324257,20.92941,76.77448,183.9803,0.6053321,-0.1634879,0.7742463,12
16.88,5.910029,1.542574,-17.57512,-0.2091920382226078,-0.118453357671824,-1.064768342907561,24.48337,74.97375,183.9504,0.5885895,-0.1886477,0.7794374,12
16.9,5.839711,1.16105,-17.65007,-0.2906917995351374,-0.1077576135400149,-1.042537582995496,21.54746,76.65658,184.051,0.6036713,-0.1680832,0.7742585,12
16.92,5.945603,1.348377,-17.61901,-0.3781122534594787,-0.1245201289120553,-1.010743840514443,25.06783,74.83826,183.9682,0.5868365,-0.1927913,0.7793849,12
16.94,6.050066,1.532747,-17.58675,-0.4558655195628069,-0.108268679609501,-0.9699893533010044,28.58288,72.95862,183.7559,0.5693192,-0.2172623,0.7835789,12
16.96,6.011467,1.1329,-17.65841,-0.5481474488979574,-0.1474089561442936,-0.9286086104294796,28.01403,74.59995,183.9112,0.5810569,-0.2124895,0.776377,12
16.98,6.049891,1.12894,-17.66208,-0.6206242326414559,-0.1264658815684182,-0.8737917126917378,29.99758,74.03288,183.6597,0.5746385,-0.2251046,0.775842,12
17.0,6.152614,1.325186,-17.63897,-0.7057614332261835,-0.1615339542808872,-0.8181458522747334,33.41614,72.05724,183.2845,0.5564623,-0.2485541,0.7791089,12
17.02,6.215819,1.118912,-17.66494,-0.7727454296841063,-0.1647046210620135,-0.7463956981045468,37.34787,72.56787,182.958,0.5537848,-0.2724813,0.7682946,12
17.04,6.317648,1.318095,-17.64484,-0.8316428448682422,-0.1347325557229838,-0.6650802841530843,40.72649,70.42879,182.3799,0.5345803,-0.2954576,0.769944,12
17.06,6.419035,1.514647,-17.62344,-0.8853311256038034,-0.1044524817418547,-0.5790097107907726,44.08421,68.12628,181.5952,0.514789,-0.3180932,0.7707219,12
17.08,6.519787,1.708586,-17.60077,-0.9475582286967692,-0.1615386792822276,-0.4939416917101806,47.41378,65.61591,180.5639,0.4944339,-0.3403632,0.7706286,12
17.1,6.510686,1.114654,-17.67284,-0.9913904443284096,-0.1298754606473998,-0.3925695119450827,44.67197,72.80029,181.0638,0.546034,-0.3109713,0.7465637,12
17.12,6.611515,1.315613,-17.65458,-1.0297262629759687,-0.0980896202986583,-0.2864867566107283,48.00585,70.55549,180.4046,0.5264217,-0.3339432,0.7465919,12
17.14,6.732832,1.110114,-17.67539,-1.0626662341861153,-0.1552856919617928,-0.1674807692044315,50.64356,72.47029,178.6804,0.538245,-0.3388073,0.7261404,12
17.16,6.819199,1.107277,-17.67518,-1.0893520425442444,-0.1522163404806696,-0.0333103684407758,53.26637,72.03118,177.6482,0.5329452,-0.3517291,0.7174716,12
17.18,6.917757,1.306078,-17.65851,-1.1119690266584374,-0.147922864788157,0.1042259028905334,56.51963,69.45142,176.6496,0.5129135,-0.3743054,0.7157333,12
17.2,7.015903,1.502448,-17.64059,-1.1308988190380267,-0.1995499067613444,0.2486376384672874,59.74012,66.51531,175.266,0.4923475,-0.3964673,0.7132294,12
17.22,7.163852,1.104556,-17.66123,-1.146410669794792,-0.2534890098378434,0.3947166258634622,61.1893,67.33884,171.1624,0.5084389,-0.3855559,0.6925231,12
17.24,7.260409,1.296197,-17.64289,-1.1514936107845088,-0.2416258211203417,0.5658718870206543,64.3239,63.80224,169.1617,0.4880416,-0.4076451,0.688907,12
17.26,7.356073,1.485516,-17.62343,-1.1538194397694796,-0.2533519008385363,0.7384266819061902,67.38792,59.53118,166.406,0.4671462,-0.4292937,0.6845685,12
17.28,7.595973,1.144162,-17.65821,-1.1727436745687585,-0.2092226021291104,0.9109568164159264,58.40812,63.45383,167.7602,0.5006543,-0.3637069,0.7108614,12
17.3,7.685199,1.161481,-17.66441,-1.1908697749001096,-0.1394512457244789,1.0846918969485304,55.80339,64.73956,168.7758,0.5095282,-0.3470759,0.7183477,12
17.32,7.782262,1.341609,-17.64082,-1.2053240488540735,-0.1413869197887438,1.2561594489007688,58.83171,61.3152,166.7874,0.4898261,-0.368592,0.7155398,12
17.34,7.877616,1.519362,-17.61615,-1.238592203282322,-0.0958732645682816,1.4274512605491108,61.78384,57.3451,164.2307,0.4696386,-0.3897226,0.7119989,12
17.36,8.080721,1.228574,-17.70507,-1.2714990727528388,-0.052030915513272,1.5954153856309352,37.8598,74.7618,174.7151,0.58555,-0.2310328,0.7417619,12
17.38,8.187481,1.400853,-17.67924,-1.3004310249714903,-0.0311096643076258,1.7656040481294153,41.17934,72.52178,173.9374,0.5679026,-0.253889,0.7427706,12
17.4,8.291895,1.570261,-17.65217,-1.3304189003152944,-0.0339237622222704,1.923765923140424,44.47084,70.09775,172.9362,0.5496449,-0.2764573,0.7429575,12
17.42,8.43415,1.263593,-17.764,-1.3631618474255576,0.0091465139372698,2.089099840598432,13.96712,82.35745,177.1396,0.6556059,-0.07517207,0.7448449,12
17.44,8.521576,1.268442,-17.77407,-1.3948049705614136,0.004395148509466,2.248746535993265,8.16923,83.6823,177.5328,0.6663617,-0.03872877,0.7419097,12
17.46,8.636756,1.436244,-17.74984,-1.4352488607528395,0.044126958098193,2.4167542211135977,11.68116,81.9111,177.3401,0.6536789,-0.06169669,0.7495475,12
17.48,8.749212,1.600745,-17.7242,-1.4791400806001391,0.0360104521300628,2.571465949853568,15.18447,80.10336,177.0325,0.6402422,-0.08458488,0.7562981,12
17.5,8.791677,1.279336,-17.81189,-1.5210366006633576,0.0743123745838736,2.7331121430279923,354.4951,87.46202,178.3751,0.6899148,0.04448668,0.7221577,12
17.52,8.90942,1.444583,-17.78829,-1.5660917321616656,0.0650964234913344,2.876879228759979,358.0583,85.72987,178.3653,0.6799285,0.02212004,0.7329441,12
17.54,9.02424,1.606401,-17.7632,-1.621465328544741,0.1016321852342703,3.026143833975511,1.618656,83.99915,178.248,0.6691406,-0.0002667168,0.7428443,12
17.56,9.136114,1.296026,-17.87703,-1.6785710672739742,0.0865906100887501,3.157932205559661,353.4563,90.39989,179.4786,0.7082233,0.04343861,0.7036634,12
17.58,9.178067,1.283397,-17.89711,-1.7384680432936863,0.1172102584899126,3.2926938050776964,353.7412,91.17588,179.7141,0.7131627,0.0399831,0.6988653,12
17.6,9.295879,1.446192,-17.87472,-1.8023129182723407,0.0976790170733666,3.402133867873242,357.2717,89.43861,179.8597,0.7034135,0.01777723,0.7103811,12
17.62,9.350077,1.254865,-17.95675,-1.8710813396604709,0.0772112666147109,3.5031932282353258,357.4027,92.812,181.1041,0.724175,0.008650245,0.6891764,12
17.64,9.467886,1.419604,-17.93891,-1.928558961466063,0.0776551305899147,3.605446446703943,0.963006,91.08752,181.25,0.7136537,-0.01367126,0.7003635,12
17.66,9.582818,1.580976,-17.91947,-1.9889346476926173,0.0820192781697228,3.7005861756968175,4.525022,89.36867,181.2886,0.702292,-0.03596825,0.7107047,12
17.68,9.539945,1.24067,-17.98484,-2.05369358300935,0.0868244046561002,3.788094067548237,3.984685,91.79063,181.9823,0.7171094,-0.03660641,0.6958785,12
17.7,9.567695,1.238082,-17.99351,-2.122658445143776,0.0892126431372875,3.866582907580176,6.127831,91.96149,182.5023,0.7170963,-0.05281263,0.6945807,12
17.72,9.686451,1.405818,-17.97689,-2.180738813346218,0.0886522839888651,3.926709465067432,9.757962,90.26163,182.6157,0.704598,-0.07610489,0.7041271,12
17.74,9.668781,1.218003,-17.98437,-2.2424225916612626,0.0893936822006437,3.9792611234314457,11.85157,89.24215,183.2263,0.6963161,-0.09312207,0.7097253,12
17.76,9.784415,1.391222,-17.96712,-2.307570076883815,0.0885522639069021,4.022951578998988,15.44746,87.53925,183.2653,0.6824411,-0.1165425,0.7179341,12
17.78,9.897775,1.561164,-17.94841,-2.374833488404871,0.0065292822255228,4.028722579856915,19.04185,85.80715,183.1922,0.667754,-0.1398149,0.7252666,12
17.8,10.00862,1.727968,-17.92831,-2.4232667949565485,-0.0016839787065099,4.0416330036805554,22.63187,84.03033,183.0008,0.6522736,-0.1629192,0.7317137,12
17.82,9.809504,1.183859,-17.93574,-2.473665857564136,-0.0077338122164166,4.047831892558593,17.3868,81.18584,183.6909,0.6391753,-0.1354274,0.7534057,12
17.84,9.920086,1.365431,-17.91139,-2.512982355376128,-0.0139414257818852,4.043766252128184,20.94785,79.44237,183.5745,0.6237376,-0.1593558,0.7596028,12
17.86,9.857874,1.16181,-17.88803,-2.5443881791966634,0.0103387548632492,4.0389905412618266,21.52702,73.23051,183.7657,0.5807036,-0.169072,0.7917711,12
17.88,9.867302,1.154239,-17.86847,-2.5786819932154392,-0.0202492579357462,4.00970175972804,22.99308,70.59219,183.678,0.5606976,-0.1807576,0.8030856,12
17.9,9.97149,1.344522,-17.83866,-2.6130877366738594,-0.0490531846448081,3.9741202515486567,26.44216,68.69785,183.2137,0.5437652,-0.2041543,0.8070363,12
17.92,9.929078,1.13405,-17.80226,-2.6209328973749724,-0.0519916639296295,3.9372970235376696,27.9279,60.09028,183.4895,0.4793006,-0.2235836,0.8433392,12
17.94,10.02751,1.329984,-17.76329,-2.6276683602702207,-0.0520716418017747,3.895091759321926,31.30201,58.03767,182.7697,0.4612733,-0.2471295,0.8449547,12
17.96,9.996179,1.126081,-17.7348,-2.633712776790701,-0.1088951880056258,3.8353126720471176,31.96481,52.28643,183.0822,0.4167843,-0.2584758,0.8659469,12
17.98,10.08926,1.324669,-17.6874,-2.617211153013248,-0.0777725333929328,3.784919040736513,35.28909,50.1144,182.2181,0.3982081,-0.2823441,0.8655914,12
18.0,10.05905,1.119516,-17.65478,-2.588762261093799,-0.0167005483817525,3.734098965867791,37.2924,46.39631,182.7124,0.3661762,-0.3026246,0.8736396,12
18.02,10.11848,1.116129,-17.58688,-2.553928377562686,-0.0416968953322663,3.665238662647286,41.78135,42.75309,182.1248,0.3343192,-0.3383117,0.8722506,12
18.04,10.19963,1.316931,-17.52366,-2.5104233691520794,-0.0056602520048836,3.5991879699138263,45.0934,40.49881,181.3019,0.3155457,-0.3633464,0.867938,12
18.06,10.27993,1.515141,-17.45946,-2.463981701684377,0.0303010541485758,3.5290977784274946,48.37712,38.03294,180.2322,0.2964464,-0.3879808,0.8626873,12
18.08,10.26296,1.114302,-17.42926,-2.412442255535315,-0.0219089079955547,3.4463195168777574,46.32182,35.64913,180.0915,0.2811337,-0.3746594,0.8753667,12
18.1,10.33586,1.315643,-17.35847,-2.3581540944519443,-0.0748656317090471,3.358662127495176,49.58793,33.26131,179.143,0.2628173,-0.3998603,0.8689252,12
18.12,10.40785,1.514454,-17.28678,-2.277571390093557,-0.0714778219400618,3.2938143897231056,52.82214,30.61203,177.9018,0.2442379,-0.42463,0.861563,12
18.14,10.47883,1.104348,-17.15004,-2.194387423638676,-0.0672393931000351,3.223897993743102,56.41811,26.62851,175.8798,0.2193442,-0.4523923,0.8530754,12
18.16,10.53885,1.102908,-17.06122,-2.10779943551376,-0.0585379680174912,3.159960807620138,59.55939,23.75078,173.6611,0.2052078,-0.4754179,0.8424154,12
18.18,10.59881,1.297658,-16.98295,-2.0176688688306053,-0.0191403641794373,3.09320903678343,62.68536,20.33922,171.6803,0.1875387,-0.499696,0.8317772,12
18.2,10.65516,1.109724,-16.87289,-1.9259689122844184,0.0187954947691093,3.021043186846038,62.54354,14.99941,167.4934,0.1669534,-0.4994438,0.8349813,12
18.22,10.7083,1.299475,-16.79085,-1.8258857148727377,-0.0223096124577761,2.9472950658888832,65.52036,10.70178,164.5752,0.1500156,-0.523368,0.8229324,12
18.24,10.80694,1.144973,-16.60186,-1.7327166939729406,0.0218968260901335,2.873471944284881,58.31263,9.78454,167.3423,0.1275329,-0.4742507,0.8602294,12
18.26,10.85471,1.162419,-16.50923,-1.6394444289109138,0.0645439603923722,2.7937483968301904,55.69888,9.329589,168.3189,0.1189135,-0.4558681,0.8728089,12
18.28,10.89907,1.343597,-16.42092,-1.5317232602777793,0.0356494308765976,2.71894309334151,58.5931,5.571273,165.8315,0.1023369,-0.4797935,0.8614856,12
18.3,10.94163,1.522446,-16.33318,-1.4420155833136363,0.0595247710662423,2.642259547202768,61.38424,1.220379,162.7325,0.08567376,-0.5032372,0.8493138,12
18.32,10.9968,1.212553,-16.24536,-1.3534531348357817,0.1071554648894826,2.565520235064783,43.09172,13.64116,173.5283,0.1308689,-0.3578303,0.9196072,12
18.34,11.03783,1.387914,-16.14833,-1.2558365320561424,0.1086238916579155,2.48306586626982,46.23936,11.00004,172.1376,0.1147369,-0.3838825,0.9107186,12
18.36,11.07676,1.560629,-16.05229,-1.16104377413958,0.1075908946974548,2.395800656025191,49.33464,8.081354,170.4407,0.09850055,-0.4095282,0.900885,12
18.38,11.16955,1.257891,-15.9544,-1.0856333273553438,0.1708631778366791,2.3202108049212926,20.09328,17.984,176.2428,0.1594658,-0.167168,0.9711483,12
18.4,11.20092,1.264678,-15.90569,-1.0079149057701766,0.1615536519097849,2.225632161163108,13.90935,19.4119,176.8497,0.1705688,-0.1147056,0.9775029,12
18.42,11.24107,1.433955,-15.79703,-0.9362761853304682,0.150123096261415,2.127352554790143,17.36102,17.60167,176.2795,0.1560096,-0.1441592,0.9756421,12
18.44,11.30123,1.276262,-15.69208,-0.876933500262411,0.2045741200045678,2.0456416375533406,358.4348,21.59805,177.9852,0.1870823,0.01670854,0.9820921,12
18.46,11.33566,1.442854,-15.57827,-0.8093766415782699,0.2123944395579411,1.963658898445594,1.978297,19.94407,177.7638,0.1734405,-0.01362042,0.9844999,12
18.48,11.36859,1.285383,-15.51899,-0.7494004953342999,0.1960892195156612,1.872017418192488,353.3396,21.46713,178.6162,0.185225,0.05931474,0.980904,12
18.5,11.39612,1.449259,-15.40083,-0.6996110215554074,0.1772023484756155,1.7786767177603475,356.928,19.81904,178.595,0.1716943,0.02851249,0.9847094,12
18.52,11.42977,1.293856,-15.36734,-0.6419569407275645,0.1766484695297536,1.691955218083248,352.8237,21.21627,179.2073,0.1833001,0.06278392,0.9810386,12
18.54,11.45247,1.455636,-15.24687,-0.5957519755137468,0.17518701704527,1.6045911058867302,356.4184,19.56074,179.3026,0.1695983,0.0318291,0.9849989,12
18.56,11.49946,1.270135,-15.20464,-0.5559326561175184,0.1220361863425534,1.5018002194308626,354.0945,21.00846,179.9346,0.1820371,0.05075343,0.9819414,12
18.58,11.52012,1.433798,-15.08692,-0.5275306608066264,0.1366886853731534,1.4196859888758595,357.6409,19.3556,180.0672,0.1680837,0.0201937,0.9855578,12
18.6,11.55169,1.254739,-15.08965,-0.4970187711539202,0.1280082665888435,1.328224697972348,357.4253,20.38231,181.0469,0.1770828,0.02049488,0.9838973,12
18.62,11.57305,1.419253,-14.97159,-0.4748028026695883,0.0946600061203039,1.2341688440716772,1.015806,18.74097,181.144,0.1627159,-0.01037108,0.9865829,12
18.64,11.61558,1.240601,-14.93167,-0.4560754844494836,0.1132009949993178,1.158781215074611,3.989757,20.10104,181.9814,0.173792,-0.03728639,0.9840155,12
18.66,11.63581,1.238036,-14.87985,-0.4488804720584638,0.0814787999928382,1.0698905593042878,6.131004,19.80251,182.492,0.1705184,-0.05640241,0.9836633,12
18.68,11.65741,1.405689,-14.76153,-0.454670825194303,0.0495351918399039,0.9861646347415024,9.769845,18.18255,182.6016,0.1554844,-0.08763725,0.9839033,12
18.7,11.67675,1.569885,-14.64526,-0.4505401246885092,0.0892449667008846,0.9200893578819987,13.40927,16.55013,182.6069,0.1402761,-0.1187572,0.9829489,12
18.72,11.68916,1.217728,-14.73731,-0.4436547148168706,0.0761785308739786,0.8325630906921457,11.87731,18.85518,183.2643,0.1599487,-0.1066653,0.9812838,12
18.74,11.71137,1.390609,-14.62141,-0.4473098790768657,0.0372510847598631,0.7435970316076523,15.4989,17.24449,183.3468,0.1445935,-0.1375986,0.9798414,12
18.76,11.7315,1.560142,-14.50719,-0.4434962687323884,0.0523923953786477,0.6668496601257654,19.12027,15.6089,183.3233,0.129079,-0.168358,0.977221,12
18.78,11.75763,1.183432,-14.59143,-0.4518389607400463,0.0670808825026307,0.5988047993861125,17.39629,18.11241,183.8424,0.1504987,-0.1544759,0.9764259,12
18.8,11.77052,1.176071,-14.57472,-0.472488756587722,-0.0002765911659255,0.5106870618556314,18.71235,17.8611,183.9813,0.147501,-0.1658241,0.9750238,12
18.82,11.79585,1.35924,-14.46475,-0.5051954614957916,-0.0670553642745346,0.4326307413748971,22.26626,16.2415,183.9929,0.131858,-0.1958657,0.9717031,12
18.84,11.81701,1.153356,-14.47311,-0.5042398442607443,-0.0301614341333756,0.3688196560973056,23.05185,15.15611,183.982,0.1222581,-0.202436,0.9716059,12
18.86,11.8434,1.34262,-14.366,-0.5125956657081148,-0.0778426252679098,0.2909611737899018,26.57352,13.47631,183.8406,0.1064792,-0.2319357,0.9668705,12
18.88,11.85193,1.139347,-14.38833,-0.5067612441448976,-0.0945273151532327,0.2143101957280642,26.26391,12.78515,183.9012,0.1006806,-0.2293417,0.9680947,12
18.9,11.8778,1.332474,-14.28367,-0.4953719301992121,-0.0795322953771254,0.149960953265239,29.73148,11.04989,183.6498,0.08487745,-0.2581969,0.9623383,12
18.92,11.90676,1.12511,-14.25737,-0.4924953700989083,-0.0645302087035811,0.0965969546723293,32.03975,9.471039,183.4653,0.07099841,-0.2773021,0.958136,12
18.94,11.93279,1.322662,-14.15495,-0.4731163908246198,-0.0767734257722899,0.0406627595966233,35.45686,7.60331,183.0086,0.05515588,-0.305389,0.9506171,12
18.96,11.95516,1.119039,-14.13353,-0.4609358425870544,-0.0869666929002596,-0.0049037299478551,37.32555,7.457347,182.9141,0.05347282,-0.3207836,0.9456365,12
18.98,11.98092,1.318302,-14.03258,-0.4371195946001778,-0.0389314524830129,-0.0384055221601915,40.69611,5.460502,182.3009,0.03767881,-0.3481542,0.9366773,12
19.0,12.00542,1.51491,-13.93149,-0.4198265694667289,0.006703189022257,-0.0624794263524408,44.0463,3.305648,181.4914,0.02185808,-0.3751415,0.9267091,12
19.02,12.05544,1.11459,-13.92514,-0.3880456780709043,-0.0043803267536496,-0.0936938440535255,44.65581,8.510058,181.0964,0.06500529,-0.379499,0.9227027,12
19.04,12.08189,1.315475,-13.82608,-0.3573574801820205,0.0169320939230268,-0.1174187592920561,47.98186,6.462311,180.4856,0.04977439,-0.4061603,0.9122466,12
19.06,12.10714,1.513785,-13.72676,-0.3312999592386145,0.0379683786194581,-0.1330381833132974,51.28886,4.215472,179.6426,0.03450461,-0.4323866,0.9008335,12
19.08,12.14797,1.110203,-13.68468,-0.3029542323186973,-0.0301836869012006,-0.1364970902548126,50.62874,5.941772,178.6398,0.05191686,-0.4264238,0.9024339,12
19.1,12.17327,1.31011,-13.5869,-0.2642856467279977,-0.0382732881800043,-0.1292234385607216,53.8946,3.615211,177.7227,0.03711374,-0.452297,0.8905203,12
19.12,12.24942,1.102376,-13.39128,-0.2231118046150604,-0.0719957066240202,-0.1013317327710765,59.60149,2.690668,173.9953,0.04636889,-0.4950992,0.8657181,12
19.14,12.27177,1.296567,-13.29464,-0.1868752354984091,-0.1070345171584158,-0.0679841588075258,62.79153,359.7045,172.4116,0.03227615,-0.5199487,0.8518047,12
19.16,12.32222,1.109185,-13.15956,-0.1558046544254649,-0.0557710788214331,-0.0390949150287927,62.59651,355.7561,167.8326,0.02355833,-0.5195664,0.8511185,12
19.18,12.3403,1.298397,-13.06286,-0.1210270116126412,-0.0519971158740251,-0.0017689507647631,65.65107,351.8865,165.3052,0.01019066,-0.5438873,0.8362414,12
19.2,12.35706,1.48528,-12.96674,-0.090942872130725,-0.0482913176528547,0.038895190920666,68.61387,347.1411,161.8852,-0.003175026,-0.567659,0.8205358,12
19.22,12.42205,1.144176,-12.84097,-0.0599688935221451,-0.0372984546315436,0.0763457412298143,58.40763,353.2474,167.724,0.0009669055,-0.4897753,0.8694517,12
19.24,12.43511,1.326645,-12.74248,-0.0246595259206217,-0.0470608009689767,0.1245007456223059,61.40966,349.6575,165.4132,-0.01231112,-0.5142608,0.8552241,12
19.26,12.44674,1.50675,-12.64503,-0.0008799317990224,-0.0080033550759,0.1596168349582574,64.32504,345.4132,162.4298,-0.02556472,-0.5382347,0.8401623,12
19.28,12.55924,1.211833,-12.46883,0.018350164825696,0.0535500983276941,0.1947350037710997,43.13918,1.1538,173.8984,0.02891506,-0.3665931,0.9284098,12
19.3,12.6016,1.227012,-12.39254,0.0450224140037867,0.0440845358091357,0.2224121875945648,38.08916,3.178371,174.6273,0.04147367,-0.3245911,0.9434388,12
19.32,12.6146,1.397503,-12.27687,0.0699772964137859,0.0093311904574656,0.2413532128506961,41.59241,1.038856,173.76,0.02778593,-0.3540429,0.93325,12
19.34,12.70835,1.257379,-12.16945,0.0959675530636634,0.0214071503093046,0.2626688799685195,20.12477,8.371617,176.5204,0.0771258,-0.171992,0.9811519,12
