t,pX,pY,pZ,aX,aY,aZ,reX,reY,reZ,rtX,rtY,rtZ,ID
2.76,-41.21171,1.099453,-38.6727,2.3726065530671496,-0.0848838118822643,1.555594390970966,18.78574,354.9926,160.4681,-0.01481671,-0.1679951,0.9725767,8
2.78,-41.12756,1.291127,-38.5282,2.4212876393368346,-0.0572241773294316,1.5347750965915017,22.58946,353.4309,157.4649,-0.01689687,-0.2027435,0.9623442,8
2.8,-40.97047,1.154429,-38.12592,2.447956386165853,-0.0702139697981134,1.5094613536238055,15.33908,356.2423,163.2832,-0.01275769,-0.1366941,0.9806364,8
2.82,-40.97168,1.152545,-38.09605,2.4689256895496365,-0.0813654145256833,1.4779506194550116,16.99562,356.4045,164.6419,-0.01101289,-0.1505203,0.9802892,8
2.84,-40.97941,1.349804,-38.07945,2.4841956694316494,-0.0665089141126481,1.444357068780702,17.61827,355.1653,164.71,-0.02095491,-0.1571921,0.979408,8
2.86,-40.90852,1.167091,-37.99068,2.5034319234396785,-0.0753214722959372,1.4057158919845207,17.67321,358.8445,167.1259,0.007320633,-0.1537579,0.9820247,8
2.88,-40.88721,1.173529,-37.95113,2.5162996910845337,-0.0834182918579637,1.362000421351255,16.4269,0.1870315,168.2157,0.01627241,-0.1419405,0.9844888,8
2.9,-40.90174,1.369247,-37.93126,2.524356669540788,-0.0657600915719154,1.3152608958852552,17.09652,358.907,168.4388,0.005586127,-0.1488298,0.9839606,8
2.92,-40.82763,1.193233,-37.87642,2.5372189403481302,-0.0738249355777336,1.2669138675787623,11.35852,4.064435,170.1323,0.04366235,-0.095496,0.9904791,8
2.94,-40.74472,1.211547,-37.77895,2.5476189757828207,-0.0811376050514197,1.2152925086981616,5.363437,8.984711,172.0272,0.08129371,-0.0410919,0.9931721,8
2.96,-40.75523,1.404865,-37.74862,2.555202379754294,-0.0634251303487805,1.1599214558875506,6.335993,7.416328,172.1547,0.06819703,-0.05060134,0.9938028,8
2.98,-40.64835,1.229524,-37.64573,2.5585818424863884,-0.0713068458761306,1.1016465187422266,0.7849656,12.25184,174.0726,0.1069208,-0.00128454,0.9928989,8
3.0,-40.59327,1.237568,-37.5741,2.560608381519513,-0.0547326694978994,1.0400128964993094,359.4434,14.08369,175.3512,0.1222964,0.009788772,0.9916528,8
3.02,-40.57652,1.422288,-37.50906,2.5505992418276886,-0.0659626207340289,0.974402338870182,1.434849,12.92221,174.9749,0.1129571,-0.007496969,0.9925538,8
3.04,-40.2844,1.237598,-37.19108,2.537192105568651,-0.0800796505980664,0.907389562492595,358.4621,18.75882,177.719,0.1626609,0.01648188,0.9863902,8
3.06,-39.93319,1.249523,-36.9356,2.5177055552574163,-0.0948638356413579,0.8368121315341863,356.9607,20.60538,175.5984,0.1776516,0.03293846,0.9829874,8
3.08,-39.82897,1.421454,-36.86817,2.4994251546873523,-0.0850702737608979,0.7639912891986533,359.7728,19.49732,173.0454,0.1688958,0.0122209,0.983764,8
3.1,-39.92292,1.281576,-36.97317,2.4819418409647573,-0.0525160443231056,0.6888414266966949,354.744,21.4921,179.838,0.1861964,0.04530988,0.9814413,8
3.12,-39.86271,1.27146,-36.95203,2.443945981413071,-0.0723984546657968,0.6155291383004826,358.782,23.1587,180.3553,0.2007449,0.009789865,0.9795812,8
3.14,-39.82943,1.465441,-36.9305,2.4087489717064106,-0.0672675005652473,0.5410828110292725,359.7467,22.03247,179.4043,0.1910729,0.003162723,0.9815597,8
3.16,-39.80112,1.261412,-36.93539,2.3759143444401323,-0.0389996163524961,0.4654005974623967,3.570394,23.80442,181.3844,0.2057586,-0.03297098,0.9780325,8
3.18,-39.76712,1.455803,-36.91416,2.318368543600802,-0.0633599436473626,0.3884044786614788,4.556684,22.60212,180.4508,0.1956545,-0.03975328,0.9798591,8
3.2,-39.7497,1.24778,-36.93433,2.250528579707176,-0.0877372084155321,0.3099962826163116,7.741794,24.70899,181.923,0.2123348,-0.06951813,0.9747193,8
3.22,-39.73023,1.237443,-36.94613,2.177665035785634,-0.113361870624757,0.2338019978537149,9.314719,26.00742,182.0615,0.2228117,-0.0831361,0.9713098,8
3.24,-39.69149,1.433439,-36.92868,2.109005930012139,-0.1119034697589713,0.1579237058554552,10.29842,24.69589,181.0122,0.2122022,-0.08955141,0.9730563,8
3.26,-39.66074,1.206596,-36.97351,2.025813403449348,-0.1382528752592028,0.0825676776769421,13.56318,28.16833,182.4236,0.2391681,-0.11962,0.9635456,8
3.28,-39.63942,1.197575,-36.98207,1.947465294794936,-0.1368233941329069,0.0081565598089969,14.88044,28.49161,182.5505,0.2411568,-0.1309092,0.9615598,8
3.3,-39.59568,1.395826,-36.96903,1.8522463705609944,-0.1635081875979766,-0.0652710713607165,15.87211,27.04977,181.3722,0.2300039,-0.1370029,0.9632746,8
3.32,-39.59407,1.179849,-37.00107,1.7479429636354844,-0.1894209239315771,-0.1379456734868744,17.64679,28.7167,182.7153,0.2414615,-0.1543624,0.9579319,8
3.34,-39.55839,1.161974,-37.02386,1.649910786916947,-0.1865206346450813,-0.2080792939305578,20.58269,29.07215,182.6987,0.2428108,-0.1787022,0.9532087,8
3.36,-39.53458,1.153046,-37.03461,1.54020190083701,-0.2130537357850072,-0.2731172783115356,22.11517,28.96373,182.7081,0.2409742,-0.1914493,0.9511198,8
3.38,-39.48441,1.353757,-37.01702,1.427414459328734,-0.2379619907738427,-0.3355520740469897,23.19307,27.98043,181.4866,0.234271,-0.1981117,0.9510804,8
3.4,-39.43347,1.553462,-36.99646,1.3224480100852647,-0.2329444759441183,-0.3942044544192677,24.42286,27.0826,180.2578,0.2283851,-0.2061543,0.9503133,8
3.42,-39.45345,1.127283,-37.02957,1.2078043895267312,-0.2560495219141647,-0.4495937754758561,29.59259,28.96822,182.7956,0.2357141,-0.2530917,0.9373906,8
3.44,-39.41314,1.329494,-37.01337,1.0981331220001778,-0.2774686577455092,-0.4982482411509084,30.56065,28.19193,181.7993,0.2308945,-0.2592637,0.9364942,8
3.46,-39.39493,1.11909,-36.99148,0.9979934846783588,-0.2683864530373178,-0.5417728731686369,35.03868,29.61252,182.7363,0.2366796,-0.2967677,0.923525,8
3.48,-39.35969,1.320842,-36.96762,0.8944133128405118,-0.2870381399650057,-0.5809978687692983,36.1357,29.34106,182.1202,0.2351799,-0.3044351,0.9209915,8
3.5,-39.32396,1.11453,-36.94056,0.8009292688335776,-0.2750172913924271,-0.61442992927973,39.90815,31.69218,182.4388,0.2496173,-0.3336858,0.9060247,8
3.52,-39.24901,1.113743,-36.88361,0.7068003385219095,-0.2907648797149395,-0.6401640389557075,43.06121,32.76451,181.0471,0.2591356,-0.3544811,0.8933646,8
3.54,-39.20723,1.315739,-36.84116,0.6231652111599288,-0.2757489695573889,-0.6595590347088551,44.84809,32.37881,180.5321,0.2560275,-0.3675246,0.8882141,8
3.56,-39.15343,1.112393,-36.79769,0.5500642006019776,-0.2321074968435841,-0.6725201432126173,46.72525,32.83566,179.5141,0.261078,-0.3792766,0.8800994,8
3.58,-39.10744,1.314214,-36.75031,0.4839971758526893,-0.2467052432258746,-0.6748931594976924,48.73974,32.1723,178.914,0.2561406,-0.3940599,0.8741128,8
3.6,-39.04402,1.107216,-36.69297,0.4253633704390314,-0.2588258887855766,-0.6696554992382726,52.11924,32.72977,177.8102,0.2611179,-0.416595,0.8594205,8
3.62,-38.98869,1.104488,-36.63697,0.3896292333473443,-0.2672728524425371,-0.6501922805006224,55.32042,32.50045,176.4991,0.2613509,-0.4379016,0.8459658,8
3.64,-38.94516,1.303083,-36.5882,0.3640784478290664,-0.2464946008309685,-0.6243298313202184,57.36627,31.43161,175.8624,0.2541515,-0.4531433,0.8392484,8
3.66,-38.7836,1.112536,-36.43691,0.3502008162052563,-0.2484665110145619,-0.5864341579721861,61.54686,26.03862,168.5499,0.2423209,-0.4766973,0.8214377,8
3.68,-38.72168,1.122163,-36.37443,0.3443550391660848,-0.2457412896631864,-0.5395333976506196,60.68457,25.13662,168.196,0.2375011,-0.4711353,0.8265744,8
3.7,-38.68185,1.314277,-36.32316,0.3492673587818204,-0.215006971542625,-0.4856894649992123,62.68005,23.38672,167.0032,0.2296334,-0.486458,0.8190663,8
3.72,-38.51834,1.168383,-36.17785,0.3603827284569902,-0.2042520730944702,-0.4196723178818917,54.62454,25.34171,169.659,0.234447,-0.4282798,0.8542826,8
3.74,-38.3437,1.177721,-36.11107,0.3896256873045187,-0.1866870920960847,-0.3400753818890294,52.33902,27.73022,168.6381,0.2564011,-0.4047851,0.8566012,8
3.76,-38.16867,1.34812,-36.05283,0.428430294778388,-0.164968119970431,-0.2516416533077095,56.21523,25.86501,163.3733,0.2617254,-0.4258109,0.8354115,8
3.78,-38.00421,1.511341,-35.99925,0.4809062165567592,-0.1175528871850157,-0.1549422060928691,59.9096,22.63408,157.0193,0.2641482,-0.4459261,0.8130274,8
3.8,-38.05588,1.239075,-35.96601,0.5342065380223513,-0.0751505457515571,-0.071487431717677,36.30825,42.52155,175.6686,0.3552898,-0.2771402,0.8806474,8
3.82,-37.99914,1.250534,-35.94606,0.5639031221867503,-0.0572113706233062,-0.0326064185449919,30.45191,44.87095,176.1419,0.3762088,-0.2302148,0.8879853,8
3.84,-37.94282,1.433488,-35.89909,0.6065553634245466,-0.0143046690736524,0.0063321100880058,32.45507,47.25538,176.5758,0.3923018,-0.2444139,0.8759296,8
3.86,-37.81864,1.275819,-35.87358,0.6519889427619523,-0.0236888097721313,0.0510070461710014,12.27064,53.62279,177.6273,0.4503504,-0.08608153,0.8861959,8
3.88,-37.76408,1.280784,-35.85009,0.7005115854316406,0.0171593835280661,0.0869494513766655,6.478641,56.11989,177.9477,0.4704612,-0.0414459,0.8804286,8
3.9,-37.69934,1.462962,-35.81408,0.758691304602876,0.079505784016204,0.1208761056068867,8.453238,58.32341,178.3476,0.4868284,-0.05734587,0.8702646,8
3.92,-37.56687,1.291693,-35.76931,0.8201543072709576,0.0670327369399365,0.1697783864688986,352.9903,63.2112,178.5182,0.5223721,0.05882479,0.8504262,8
3.94,-37.48212,1.296994,-35.73711,0.8847956831732269,0.1029289817328919,0.2149234957827621,352.0406,65.13939,178.7989,0.5363846,0.06411377,0.8410507,8
3.96,-37.39921,1.474088,-35.70986,0.9503855959623309,0.1576485452654895,0.249491993180797,354.3579,67.24426,179.1395,0.5527189,0.04513537,0.8318796,8
3.98,-37.32566,1.303485,-35.67855,1.0101742401608114,0.1348372851274806,0.2897494775243121,351.857,68.12444,179.2929,0.5583057,0.06226621,0.8265688,8
4.0,-37.23215,1.476248,-35.65217,1.068203210961964,0.1601862874463315,0.318381146230851,354.4537,70.22078,179.6673,0.5743628,0.04124597,0.8171649,8
4.02,-37.21331,1.28944,-35.63221,1.1113461880237825,0.1566018425369629,0.3462132786731553,353.0737,70.04982,179.7825,0.5727894,0.05055483,0.8174714,8
4.04,-37.13706,1.267231,-35.5965,1.1662094259180744,0.1491820849701153,0.3673337468021342,355.2061,71.05379,180.5906,0.5807444,0.031044,0.8129947,8
4.06,-37.08005,1.259163,-35.57763,1.19113083125107,0.1897873062289639,0.3432772443500838,356.9503,72.00436,181.1539,0.5877949,0.01560907,0.8085096,8
4.08,-36.97302,1.428991,-35.55201,1.1498928116752491,0.1788025994487477,0.2871336271328664,-0.00552653,74.12622,181.5551,0.6026394,-0.008140211,0.7978983,8
4.1,-36.86747,1.595961,-35.52921,1.1035448673434305,0.1662401919230149,0.2193327391057087,3.023437,76.27019,182.0693,0.6168275,-0.03189353,0.7864491,8
4.12,-36.91147,1.240601,-35.47935,1.0645256330384818,0.1471036856396038,0.1728098983579284,5.836395,73.57267,182.6303,0.5969627,-0.05448849,0.8003247,8
4.14,-36.79847,1.411202,-35.45133,1.016790417483767,0.1288689891830938,0.123236035203436,9.095707,75.75882,183.0911,0.6101575,-0.07907128,0.7878464,8
4.16,-36.68699,1.578594,-35.42622,0.9753422355439056,0.1066706691797622,0.0696757782639752,12.3343,77.99313,183.6836,0.6226252,-0.103557,0.7744594,8
4.18,-36.76569,1.219686,-35.40406,0.9175571877644116,0.0857729109573367,0.0187866433767665,11.53813,76.24847,183.4276,0.6116022,-0.09741043,0.7841955,8
4.2,-36.75261,1.210837,-35.3852,0.8667666772456322,0.061629976389751,-0.0353749938035488,13.08276,76.24575,183.6105,0.6102034,-0.108897,0.7833949,8
4.22,-36.70685,1.192607,-35.34352,0.7973736751241436,0.0381733123052951,-0.0807078463349348,15.72089,76.47871,183.8529,0.6091751,-0.1279668,0.7804581,8
4.24,-36.59847,1.373559,-35.31675,0.7381305106592038,0.0433453829389715,-0.1230015774213617,18.90287,78.73277,184.3179,0.6204402,-0.1504331,0.7659937,8
4.26,-36.6216,1.176955,-35.29095,0.6859715172041163,0.0442140317398877,-0.1665157109592234,18.37791,77.0102,184.166,0.6096464,-0.147223,0.7756137,8
4.28,-36.51463,1.361445,-35.26468,0.6108767575854106,0.0214208441687033,-0.1992534624614022,21.53975,79.26882,184.5973,0.6203744,-0.1689283,0.7607371,8
4.3,-36.56042,1.16152,-35.24066,0.5320705548634397,0.0007806260635109,-0.2286117932116527,21.22093,76.08242,184.2379,0.5999159,-0.1673111,0.7777679,8
4.32,-36.55957,1.153625,-35.22096,0.4528680726505998,-0.0493849394365012,-0.2530166414635166,22.71202,74.67335,184.1863,0.588509,-0.1781698,0.7833616,8
4.34,-36.45568,1.343544,-35.19159,0.3884618776050894,-0.0393889326113752,-0.2686183712538534,25.84324,76.90649,184.4977,0.5987895,-0.1987684,0.768154,8
4.36,-36.47816,1.132755,-35.14657,0.3169008117326362,-0.0546536235007956,-0.2758117799150881,27.78009,72.18151,184.0463,0.5646358,-0.2140554,0.7889585,8
4.38,-36.44693,1.12873,-35.1207,0.2475428399559751,-0.0665248820144263,-0.2768835561389986,29.81163,71.22737,183.7856,0.5555081,-0.2275912,0.7901245,8
4.4,-36.34246,1.324625,-35.08921,0.1870516192176676,-0.0780200170219295,-0.2750811408889131,33.01301,73.34222,183.8165,0.5647019,-0.2468305,0.7742454,8
4.42,-36.36128,1.121602,-35.06381,0.1266177494457592,-0.1491641574496813,-0.2676499700162686,34.68144,69.93695,183.3265,0.539757,-0.2600212,0.7868508,8
4.44,-36.2835,1.116991,-35.01667,0.0796441106198493,-0.157389850864254,-0.2491159678439283,39.63622,68.99454,182.7301,0.5260156,-0.2920307,0.7796959,8
4.46,-36.17468,1.315918,-34.98243,0.0435125288722897,-0.1649505574203459,-0.2265026988071383,43.00154,70.9725,182.5566,0.5333193,-0.3104106,0.762151,8
4.48,-36.15707,1.114801,-34.95644,0.0097066465707271,-0.1700765604261299,-0.2000856284878809,43.28619,69.9388,181.8271,0.5278459,-0.3106908,0.7649595,8
4.5,-36.04875,1.314524,-34.9228,-0.0118277310246641,-0.1743570367318987,-0.1704165267976067,46.63805,71.92612,181.6842,0.5345259,-0.3282911,0.7466166,8
4.52,-36.01604,1.112798,-34.87817,-0.0325890678665441,-0.1771187698155433,-0.1373578477144068,48.07795,68.54893,179.5949,0.5155011,-0.3347997,0.7538632,8
4.54,-35.90883,1.312765,-34.84502,-0.0398088512383694,-0.177723925962226,-0.1003410677954068,51.39217,70.40527,179.2965,0.5216262,-0.3511049,0.7347625,8
4.56,-35.8012,1.50959,-34.81381,-0.0360621027771159,-0.1780095298509994,-0.0633171666617364,54.70983,72.37817,179.16,0.5271304,-0.3669966,0.7148156,8
4.58,-35.7183,1.103481,-34.75598,-0.0222764583646295,-0.1758008475892845,-0.0219947591496856,56.5462,68.04253,176.3189,0.5051073,-0.376567,0.7210619,8
4.6,-35.63416,1.102018,-34.72042,0.0015733823590471,-0.1739385031024084,0.0179605422056496,59.71686,66.11542,174.1451,0.4937682,-0.3925609,0.7120497,8
4.62,-35.44222,1.108927,-34.64068,0.0394267327997122,-0.1649521453004366,0.0642689737341424,62.68664,59.60799,167.9982,0.4693615,-0.4045106,0.7100094,8
4.64,-35.33548,1.297,-34.61631,0.0853841360785967,-0.1267780456517497,0.1070531399291638,65.85589,60.12711,166.2732,0.4736911,-0.4168354,0.6886887,8
4.66,-35.21879,1.12867,-34.55551,0.1409726361050287,-0.0915601725509045,0.1471043343689952,60.97803,57.96008,166.9242,0.4653318,-0.39342,0.7209367,8
4.68,-35.12798,1.144164,-34.5174,0.1889893084175833,-0.0742624912979127,0.1780872102122526,58.38377,58.46762,168.0393,0.4683703,-0.3788788,0.7328387,8
4.7,-35.0197,1.325462,-34.49658,0.2432980022795448,-0.0308954552225164,0.2027983418051171,61.51247,59.18174,166.4763,0.4737572,-0.3916311,0.7123381,8
4.72,-34.94452,1.178111,-34.44255,0.3087661398985641,-0.0336883987087558,0.2298875427297986,52.05191,61.79679,171.3891,0.4884078,-0.340802,0.7519748,8
4.74,-34.78798,1.211155,-34.38039,0.367051383614231,0.0096449199743416,0.2380223182290262,43.12192,65.32626,174.0469,0.5173222,-0.2828937,0.7715957,8
4.76,-34.69024,1.227297,-34.35318,0.4150133325789831,0.0751157217089989,0.2378049249877207,37.93365,67.14555,174.7893,0.5347411,-0.2467495,0.7789634,8
4.78,-34.56535,1.396663,-34.33358,0.4371671059231543,0.0704876293737798,0.235450700416175,41.50779,68.94271,174.3792,0.5429546,-0.2658312,0.7601533,8
4.8,-34.44245,1.562205,-34.31686,0.4490763685227126,0.0649231847796923,0.2262472123917422,45.08966,70.8104,174.1028,0.5504476,-0.2845668,0.7403643,8
4.82,-34.41038,1.26322,-34.24344,0.4662902969400937,0.0748968005593178,0.2171000506739053,13.86864,72.91341,177.2323,0.5920417,-0.082831,0.7964575,8
4.84,-34.28405,1.430175,-34.22509,0.4890928641756842,0.0848669230712844,0.2128635507817007,17.44786,74.97971,177.2809,0.6042657,-0.1060398,0.7818703,8
4.86,-34.23706,1.271702,-34.18239,0.5183503396090972,0.0912395545091851,0.2027105106347484,2.316516,76.61631,178.0275,0.6199453,-0.005191623,0.784196,8
4.88,-34.11023,1.43772,-34.16655,0.5324861880883072,0.0967197130333191,0.1951624377235212,5.883286,78.6812,178.2483,0.6336265,-0.03000746,0.7717848,8
4.9,-33.98569,1.599851,-34.15366,0.5529740212805487,0.1246748860491923,0.1853056056668087,9.438714,80.77525,178.6009,0.6464757,-0.05477828,0.7583887,8
4.92,-33.94371,1.291295,-34.04285,0.5628975204836433,0.1022374395632529,0.176580123181373,352.2162,77.86401,179.1249,0.626527,0.05758552,0.7764015,8
4.94,-33.81516,1.452882,-34.02416,0.562630570030743,0.1024349987823398,0.1688560580849731,355.8022,79.8623,179.5525,0.6413214,0.03058919,0.7663879,8
4.96,-33.68914,1.610485,-34.00864,0.5634708990664778,0.1248047632288009,0.1576866178970828,359.3701,81.87999,180.1035,0.6552619,0.003560832,0.7553815,8
4.98,-33.70577,1.282476,-33.94696,0.5648141279067933,0.1416132161757525,0.1435638286906879,353.7722,79.60198,179.8546,0.6391245,0.04254396,0.7671816,8
5.0,-33.57944,1.444289,-33.92974,0.5413403964673948,0.1305394540308342,0.1309577254189804,357.3032,81.59908,180.365,0.6532871,0.01573244,0.756738,8
5.02,-33.59523,1.25426,-33.86626,0.5035132356816026,0.0931240629200485,0.1175866929987821,357.472,78.44621,181.1793,0.6323304,0.01058263,0.7743166,8
5.04,-33.46956,1.418107,-33.84782,0.4772735703101731,0.1056434095434605,0.1031405576370865,1.042952,80.47323,181.6212,0.645756,-0.01608518,0.7633587,8
5.06,-33.34628,1.578135,-33.83239,0.4367132047361544,0.0955905151620755,0.0926758435471954,4.594919,82.53196,182.1907,0.6583289,-0.04272437,0.75142,8
5.08,-33.39948,1.240211,-33.77435,0.4024739093045895,0.111004507132375,0.0815896158495839,4.049942,80.14936,182.1517,0.6427625,-0.03911399,0.7650205,8
5.1,-33.2726,1.405932,-33.75599,0.3430925845358961,0.0751096465726448,0.0712755541750169,7.67504,82.22795,182.6598,0.6547379,-0.06563656,0.7525328,8
5.12,-33.26183,1.2261,-33.68615,0.2723591782426728,0.0110596225239802,0.0640845992142979,10.34796,80.30599,183.2452,0.6399944,-0.08708391,0.7625526,8
5.14,-33.21413,1.217355,-33.66069,0.222837401393368,0.0229731407176031,0.0522162107763524,11.87816,80.93919,183.4261,0.642919,-0.09797874,0.7583366,8
5.16,-33.09033,1.389693,-33.64257,0.1500840152608789,-0.0182586204653687,0.040161963090016,15.44409,83.07349,183.9073,0.6532762,-0.1229208,0.7443491,8
5.18,-33.1304,1.199412,-33.60695,0.0760721651895082,-0.0596295723521052,0.0272541103401318,14.76011,81.5097,183.7591,0.6438762,-0.1184844,0.7535807,8
5.2,-33.00819,1.375721,-33.58781,0.0043658109447179,-0.0777962387617502,0.015181756331442,18.31012,83.66858,184.259,0.6536224,-0.1429332,0.7390211,8
5.22,-33.08328,1.175583,-33.52856,-0.0629459433603845,-0.0952542618913066,0.0073701110892381,18.73934,78.00841,184.1134,0.6160402,-0.1487194,0.7699156,8
5.24,-32.96441,1.358001,-33.50312,-0.1198317116059977,-0.081918983503387,-0.002787341263664,22.268,80.15658,184.5005,0.6254271,-0.1724469,0.7550665,8
5.26,-32.84651,1.536806,-33.48011,-0.1963475759280135,-0.1239867384513552,-0.0125363921253391,25.77909,82.38868,185.0447,0.6340102,-0.1959494,0.7392741,8
5.28,-32.94816,1.152764,-33.44003,-0.2519518151069548,-0.1092277926824212,-0.0219863519699679,23.08493,76.8745,184.1429,0.6030219,-0.1786454,0.7714435,8
5.3,-32.9363,1.145164,-33.41836,-0.3279384340429669,-0.1503692875857666,-0.0310117607929845,24.62165,75.66104,184.1392,0.592752,-0.1899338,0.7758859,8
5.32,-32.88329,1.132476,-33.36615,-0.385789182567283,-0.1620126657728145,-0.0356087781760452,28.06082,73.38213,184.0234,0.5724937,-0.2146314,0.7825526,8
5.34,-32.76973,1.326331,-33.33492,-0.4317328077693898,-0.1704934902401849,-0.0380556659259907,31.53938,75.43716,184.1292,0.5806304,-0.236049,0.7667484,8
5.36,-32.77652,1.124602,-33.30116,-0.4734378906134671,-0.1770477091400872,-0.0399554641296591,32.09826,72.32872,183.6195,0.5597729,-0.2409933,0.7806272,8
5.38,-32.73616,1.121671,-33.27464,-0.4925042626989695,-0.1253837022196917,-0.0438005790809032,34.72369,71.5423,183.2984,0.5507177,-0.2580699,0.7790916,8
5.4,-32.625,1.319179,-33.24461,-0.5177617247672983,-0.1300389189121208,-0.0468322537503782,38.12502,73.46629,183.1764,0.5578195,-0.2773138,0.7626047,8
5.42,-32.57378,1.115417,-33.1936,-0.5493992528833584,-0.1613361076258521,-0.0507549695513871,41.8779,71.16544,182.4255,0.5371785,-0.3020801,0.7638003,8
5.44,-32.50507,1.114789,-33.16105,-0.5573266487069124,-0.1328334683556435,-0.0528561408335805,43.2686,71.58077,181.8387,0.5387561,-0.3077439,0.7573829,8
5.46,-32.39634,1.314522,-33.13058,-0.5624318648253568,-0.1310193619592808,-0.0528718928371052,46.61362,73.46967,181.695,0.544556,-0.3251727,0.7394362,8
5.48,-32.37069,1.113524,-33.09787,-0.5625010122312579,-0.1278319767730183,-0.0524066150129165,46.38651,71.46318,180.4513,0.5355285,-0.321811,0.7470567,8
5.5,-32.26244,1.313493,-33.06835,-0.5519583074753354,-0.1240772568692744,-0.0492075969386203,49.71061,73.29735,180.2467,0.5408893,-0.3383991,0.7285331,8
5.52,-32.23483,1.109781,-33.03592,-0.5250354021637063,-0.1479647893118396,-0.0385605559353017,50.71222,70.23971,178.79,0.5235371,-0.3447728,0.7365097,8
5.54,-32.07999,1.103594,-32.96884,-0.4829363881503856,-0.1129789507793845,-0.0299189310646417,56.5499,67.87091,176.2404,0.5042773,-0.3766769,0.721607,8
5.56,-31.97319,1.299193,-32.94225,-0.4341615729190144,-0.1329485396286174,-0.0163743164661243,59.81665,69.29253,175.583,0.5082382,-0.3909031,0.7016637,8
5.58,-31.85987,1.10438,-32.88472,-0.3820021648023237,-0.1545980702298792,-0.0034017944852289,61.24028,63.94772,171.2805,0.4872229,-0.3961798,0.7073914,8
5.6,-31.75327,1.295078,-32.86168,-0.3249236388457808,-0.141259201848467,0.0102009207263185,64.44326,64.76939,169.9831,0.4906939,-0.4089912,0.6867562,8
5.62,-31.59988,1.128828,-32.77386,-0.2514419046072449,-0.1202026706099627,0.0303558217104367,60.95459,57.6755,166.8572,0.4638025,-0.3938082,0.7219975,8
5.64,-31.49256,1.312558,-32.7532,-0.1885384195129171,-0.0722465495266931,0.0417511231480629,64.05359,57.93113,164.9225,0.4678998,-0.4061024,0.7016439,8
5.66,-31.38609,1.493374,-32.73463,-0.1266973259232853,-0.0720698075235379,0.057372402865953,67.15392,57.94833,162.7784,0.4714789,-0.4179557,0.6805388,8
5.68,-31.27604,1.178366,-32.65263,-0.0655954970082364,-0.0211430089327687,0.0665399943823965,52.01311,62.4114,171.3563,0.4925882,-0.3388749,0.7494013,8
5.7,-31.16613,1.355943,-32.6354,-0.0021685863560172,0.052508152899577,0.0722743782148409,55.15898,63.54762,170.3248,0.4982629,-0.3528313,0.730289,8
5.72,-31.04387,1.2274,-32.56853,0.0579796380609263,0.056457405163467,0.0852641994699423,37.93532,67.45879,174.7525,0.5369453,-0.2459992,0.7774251,8
5.74,-30.91945,1.396992,-32.55009,0.1239843915916432,0.1063535921265398,0.0928936951436361,41.49181,69.1293,174.2953,0.5444084,-0.2649359,0.7591376,8
5.76,-30.79702,1.562794,-32.53436,0.1829936740161959,0.1744683409229512,0.0935512440510049,45.0562,70.85837,173.9573,0.5511714,-0.2835352,0.7399014,8
5.78,-30.77468,1.257286,-32.48301,0.22726887795005,0.1937411838554457,0.0975325299579958,19.9506,73.24649,176.6559,0.5913386,-0.1218226,0.787091,8
5.8,-30.65034,1.425259,-32.46756,0.26915323343299,0.2120155429589747,0.1008506364688415,23.47526,75.19014,176.6201,0.6018137,-0.143501,0.7717765,8
5.82,-30.6366,1.268006,-32.4249,0.3078056403640987,0.226425402705658,0.1038565781252387,8.079451,75.82108,177.6152,0.6139277,-0.04281481,0.7859396,8
5.84,-30.51712,1.275577,-32.36165,0.3495571935891153,0.2365313661575142,0.1109410429966457,358.3722,77.17714,178.2326,0.6234154,0.02072046,0.7816098,8
5.86,-30.39024,1.440851,-32.34557,0.3817175543995943,0.2227904777911238,0.1198632704563875,1.938189,79.12885,178.4755,0.6369715,-0.004564972,0.7705871,8
5.88,-30.34192,1.285094,-32.29243,0.4218452642008272,0.2545102122431516,0.1248019879146156,353.3114,78.75664,178.8075,0.6328542,0.05168012,0.7720008,8
5.9,-30.21408,1.448032,-32.27572,0.4574313199508673,0.2824543885854014,0.1294637379274394,356.889,80.67097,179.1917,0.6468614,0.02525564,0.7620918,8
5.92,-30.19309,1.293637,-32.22326,0.4642955977550014,0.235826172708415,0.1408905682175323,352.8332,78.95991,179.3549,0.6342837,0.05181328,0.7705497,8
5.94,-30.10143,1.282666,-32.16136,0.4791029968272582,0.2558263990588642,0.1385437690030242,353.7649,78.47945,179.8168,0.6315622,0.04313098,0.773414,8
5.96,-29.97582,1.444655,-32.1421,0.4883902645032107,0.2726803971085829,0.1353345728692891,357.2912,80.38424,180.2849,0.6452154,0.01645146,0.7636313,8
5.98,-29.85266,1.602826,-32.12582,0.4912887745140923,0.2837340117504577,0.1316540212047501,0.7988873,82.31386,180.8692,0.658049,-0.01024075,0.7529048,8
6.0,-29.91508,1.254484,-32.07529,0.4774275640069607,0.265147618787918,0.1334206616037896,357.436,79.42147,181.2121,0.6388984,0.01045373,0.7688932,8
6.02,-29.8906,1.249718,-32.04549,0.4434148126461332,0.2220957458107857,0.1356575120735259,359.4811,78.77086,181.4144,0.6345223,-0.004332265,0.7727927,8
6.04,-29.76353,1.413511,-32.02563,0.4264545449460448,0.2302376635148342,0.1313528851516485,3.113615,80.71481,181.8714,0.64689,-0.03127096,0.7619244,8
6.06,-29.75891,1.237502,-31.95522,0.3861082947299152,0.1877550135936444,0.1329464137221143,6.202326,78.55922,182.6364,0.6310477,-0.05640863,0.7735155,8
6.08,-29.63268,1.404233,-31.93316,0.3423829990135454,0.1448946341233715,0.135309538955231,9.837691,80.55479,183.1082,0.6420969,-0.08286112,0.7613376,8
6.1,-29.67375,1.226171,-31.89599,0.2961504574270073,0.122832835653405,0.1323950696099314,10.35346,78.65016,183.2093,0.6289327,-0.08744316,0.7717066,8
6.12,-29.62365,1.208608,-31.84577,0.2300756226448448,0.0758458577437338,0.1292272822429399,13.44784,78.5271,183.5811,0.625396,-0.1102473,0.7708576,8
6.14,-29.50115,1.382897,-31.82201,0.1784516232945621,0.0806280893363968,0.119432275043783,17.02601,80.56792,184.0256,0.6350915,-0.1353175,0.7573408,8
6.16,-29.53061,1.190765,-31.78958,0.1137296522396384,0.0582066919710728,0.1125631643748219,16.0848,79.23017,183.8338,0.6273973,-0.1288345,0.7653261,8
6.18,-29.40994,1.369144,-31.7657,0.0340636493743593,0.0105530424256503,0.1061669616477622,19.63748,81.28815,184.2832,0.6365334,-0.1532886,0.7512847,8
6.2,-29.46049,1.175559,-31.73444,-0.022804103363236,0.0177581114762436,0.098884123997883,18.74051,78.35587,184.1228,0.6183583,-0.1485502,0.7680492,8
6.22,-29.41563,1.16056,-31.68363,-0.0993475444006848,-0.0305533855501014,0.0958729408122098,21.58902,76.24821,184.1655,0.6006876,-0.1692767,0.7764469,8
6.24,-29.29877,1.347027,-31.65556,-0.1472628927602119,-0.0213851954301193,0.0889794850474219,25.11081,78.27608,184.4519,0.6090831,-0.1924108,0.7618375,8
6.26,-29.3271,1.145223,-31.62403,-0.2134861207369272,-0.0677048514391238,0.0824980616337995,24.61378,75.48784,184.13,0.5916048,-0.1899883,0.7767826,8
6.28,-29.21211,1.33567,-31.59521,-0.2789404460095435,-0.1126598637307599,0.0777008903118741,28.109,77.49162,184.34,0.5995241,-0.2122549,0.7617956,8
6.3,-29.25453,1.132533,-31.56614,-0.3310311710729223,-0.1310296262923974,0.0707090869053734,28.03658,73.61646,184.0143,0.5741461,-0.2141819,0.7814074,8
6.32,-29.19143,1.124699,-31.51223,-0.3649719238004496,-0.1178883417184794,0.0659167964256051,32.08789,71.12126,183.5852,0.5516058,-0.2422044,0.78646,8
6.34,-29.13077,1.121678,-31.47877,-0.3972575595599079,-0.1307635004508,0.061157438136806,34.71786,70.92465,183.2983,0.5465205,-0.2588464,0.7820602,8
6.36,-29.02025,1.319207,-31.44767,-0.4261189208530997,-0.141758939686329,0.0571207135048683,38.1173,72.75054,183.1688,0.5530785,-0.278309,0.7660792,8
6.38,-28.90956,1.513455,-31.41843,-0.4473689724716245,-0.1514778626351629,0.0519939889534968,41.51739,74.65687,183.1773,0.5589861,-0.2974469,0.7492239,8
6.4,-28.94959,1.115407,-31.38997,-0.4538130000840028,-0.1295889009805745,0.0484520842204725,41.87611,70.88954,182.4308,0.5353275,-0.3025539,0.7651045,8
6.42,-28.92286,1.114859,-31.3688,-0.4705386035409851,-0.1644991584255084,0.0445414732850268,43.26569,69.9635,181.8068,0.5281056,-0.3104191,0.7648631,8
6.44,-28.81507,1.314679,-31.33619,-0.4739538145652311,-0.1393133130562759,0.0388369442370111,46.60925,71.72647,181.6197,0.53347,-0.3281903,0.7475011,8
6.46,-28.75623,1.112804,-31.27961,-0.4680984823159089,-0.1419264110022799,0.0385155959970981,48.08372,68.2552,179.5913,0.5135662,-0.3354155,0.7551579,8
6.48,-28.64955,1.312802,-31.24625,-0.4579392590834841,-0.1434083107627861,0.03900563614902,51.40105,69.90331,179.2727,0.5184569,-0.3521658,0.7369601,8
6.5,-28.59615,1.10699,-31.2061,-0.4324108875712857,-0.1437581772742814,0.0431343874022367,53.32431,67.29166,177.7519,0.5023764,-0.363772,0.738939,8
6.52,-28.4105,1.102099,-31.12498,-0.402873040868303,-0.1436221247198539,0.0476400147210709,59.69571,64.40858,174.1059,0.4832856,-0.3968068,0.7193037,8
6.54,-28.30487,1.295384,-31.09665,-0.34540695102688,-0.1382521744466984,0.0630004790941876,62.94018,65.45763,173.1526,0.4865428,-0.410849,0.699367,8
6.56,-28.18119,1.108983,-31.03175,-0.2919802716941988,-0.1026101313160578,0.0723846439526796,62.66574,58.85984,167.9844,0.4647971,-0.406491,0.7131088,8
6.58,-28.07558,1.297198,-31.00626,-0.236743587260495,-0.1173699829151523,0.0867926021671152,65.81792,59.13318,166.1991,0.4680306,-0.4193642,0.6927145,8
6.6,-27.98167,1.128792,-30.94516,-0.1805565170971586,-0.0760504758073875,0.0961390062535509,60.96006,56.19619,166.8652,0.4544085,-0.3980969,0.7279236,8
6.62,-27.80376,1.161689,-30.86314,-0.1278707310999807,-0.0828671950007227,0.109896324304008,55.76674,56.71595,168.8861,0.4577141,-0.3689624,0.752665,8
6.64,-27.69577,1.341016,-30.84003,-0.0744632272999048,-0.0591035868580695,0.1202357300321557,58.87683,57.32578,167.3821,0.4625855,-0.382744,0.73363,8
6.66,-27.60191,1.195433,-30.78213,-0.0200916993418576,-0.036339315856439,0.1303763611711823,48.28978,62.78406,173.2827,0.4949604,-0.3207239,0.7651227,8
6.68,-27.4923,1.371356,-30.76073,0.0345558305167665,-0.017688528504718,0.1405421041875505,51.45732,64.11018,172.5684,0.5009567,-0.3361655,0.7469768,8
6.7,-27.38399,1.544271,-30.74161,0.0784785317531802,0.0012616569193078,0.1444861210906407,54.63382,65.46758,171.9264,0.5064184,-0.3512538,0.7280606,8
6.72,-27.29398,1.25036,-30.6663,0.1228329857593775,-0.0030657941296229,0.1535661093293518,26.13687,68.59002,176.0701,0.5549436,-0.1678745,0.7999092,8
6.74,-27.1717,1.418985,-30.64375,0.1649483437828789,0.0353037552753453,0.1555229800592008,29.64493,70.38052,175.9066,0.5642276,-0.1890408,0.7842785,8
6.76,-27.05133,1.583906,-30.62389,0.192953036313813,0.0251031385260644,0.1599777676282188,33.15492,72.22545,175.8679,0.5728208,-0.2099765,0.7677147,8
6.78,-27.04053,1.268168,-30.56782,0.2179801169773005,0.0128377333733281,0.1647445461335457,8.066959,73.83913,177.6289,0.6002406,-0.04382518,0.7964545,8
6.8,-26.91623,1.435091,-30.54752,0.2539186719978605,0.0657738705907056,0.1644144411642267,11.60271,75.72189,177.7538,0.6120506,-0.06781946,0.7840923,8
6.82,-26.79401,1.59822,-30.52994,0.2686005622314287,0.0466438862330458,0.1706538161010975,15.13143,77.63852,178.0007,0.6231037,-0.09172546,0.770787,8
6.84,-26.71766,1.285354,-30.42362,0.2962483081596101,0.0731194326740422,0.1734909921659473,353.2932,77.10615,178.7731,0.6216469,0.05240302,0.7810379,8
6.86,-26.63374,1.291222,-30.38522,0.3207836823138286,0.1199007295644405,0.1695214650018859,352.2201,77.46182,179.1433,0.6238092,0.05758686,0.7785915,8
6.88,-26.50621,1.452773,-30.36334,0.3255866846014568,0.0935128556257035,0.1763717394068291,355.8077,79.27052,179.5776,0.6373631,0.03051788,0.7696865,8
6.9,-26.38113,1.610348,-30.34442,0.3373038517493429,0.1122715557675616,0.1782082340214716,359.3788,81.09972,180.1236,0.6501042,0.003418269,0.7598252,8
6.92,-26.42348,1.282577,-30.28132,0.331381595331798,0.0786251835346779,0.1856799217956117,353.7732,78.03051,179.833,0.628536,0.04311587,0.7758807,8
6.94,-26.29821,1.444413,-30.25964,0.328139105463161,0.0665456483395811,0.1892307991563324,357.3092,79.84168,180.3121,0.6415985,0.01625931,0.7666766,8
6.96,-26.17534,1.602415,-30.24086,0.3256315460264307,0.0797157829144345,0.1863762270058186,0.8273288,81.67866,180.9021,0.6538599,-0.01060979,0.7565405,8
6.98,-26.05517,1.756795,-30.22497,0.2986205739412124,0.0432414461032534,0.1849967495377553,4.323419,83.55505,181.6061,0.6653063,-0.03745764,0.7454859,8
7.0,-26.15393,1.246115,-30.12089,0.2673106062796604,0.0056699238168144,0.1841540079249304,1.388166,77.89982,181.6464,0.6283944,-0.01845073,0.7776681,8
7.02,-26.14119,1.240551,-30.09369,0.2419375384189064,-0.0086705909599635,0.1848728659329372,4.004854,77.13211,182.1011,0.6224303,-0.03873904,0.7816807,8
7.04,-26.01659,1.406636,-30.06893,0.2276946960878167,0.0026859815048215,0.184216826599691,7.610398,79.01688,182.5508,0.6334925,-0.06531876,0.7705792,8
7.06,-26.03046,1.226341,-30.00317,0.1874193333145286,-0.0375018711182485,0.1841472473973242,10.32467,76.57369,183.1993,0.6148736,-0.08782413,0.7829866,8
7.08,-25.90751,1.396667,-29.97639,0.1614351800733797,-0.026944705464504,0.1769996477144548,13.91407,78.49973,183.6301,0.6247591,-0.1136438,0.7707343,8
7.1,-25.95962,1.208804,-29.94926,0.1070685440950933,-0.068801074882144,0.1697511772934343,13.41902,77.01743,183.5739,0.6152179,-0.1106634,0.7790448,8
7.12,-25.95872,1.199817,-29.92812,0.0743963733942707,-0.058798794414233,0.1606681878979605,14.72941,76.21382,183.6758,0.60849,-0.1204407,0.7825049,8
7.14,-25.83949,1.376508,-29.89966,0.0294037207880597,-0.074640556088973,0.1516123905421187,18.26364,78.15806,184.0778,0.6176249,-0.1452658,0.7695128,8
7.16,-25.87699,1.175727,-29.84929,-0.0171230909450872,-0.0887298162143014,0.1430362222456755,18.72577,74.82587,184.0822,0.5944785,-0.1504871,0.7867192,8
7.18,-25.85506,1.168284,-29.82404,-0.0654698442383958,-0.103476119770985,0.1330757967342259,20.12038,73.87373,184.0881,0.5863386,-0.1606394,0.7902523,8
7.2,-25.73989,1.352954,-29.79181,-0.1142543757469409,-0.1162330707087977,0.1241475549665893,23.61884,75.80355,184.3707,0.5947119,-0.1842992,0.776596,8
7.22,-25.75733,1.145325,-29.74105,-0.156350973756302,-0.130509492068809,0.1181498875242073,24.60025,71.80994,184.101,0.56644,-0.1929454,0.795361,8
7.24,-25.64482,1.335908,-29.70579,-0.1868992507427687,-0.1127079018583887,0.109620811601212,28.08377,73.70756,184.2739,0.574209,-0.2157069,0.7811452,8
7.26,-25.66523,1.132548,-29.67488,-0.233693668334201,-0.1505275551258291,0.1014206215079656,28.02722,70.66837,184.0181,0.5538616,-0.2170966,0.7959366,8
7.28,-25.55454,1.326522,-29.63874,-0.2578993393296334,-0.1292899788267951,0.0937020772377259,31.48053,72.52836,184.1042,0.561131,-0.2389767,0.7813116,8
7.3,-25.58259,1.124681,-29.61296,-0.2804019416743979,-0.1082312287199157,0.0867372019952137,32.0808,68.83923,183.5983,0.5358186,-0.2448809,0.7973163,8
7.32,-25.47319,1.321341,-29.57624,-0.3016887825229664,-0.115149180452268,0.0793104527526122,35.50634,70.61913,183.5377,0.5425262,-0.2656979,0.7822502,8
7.34,-25.43843,1.117009,-29.52352,-0.3161080488356855,-0.118222557578673,0.0713610601548442,39.64051,67.40211,182.7318,0.515118,-0.2944503,0.7869228,8
7.36,-25.33055,1.315936,-29.48642,-0.3196184555588326,-0.0895385154737205,0.0640534593205104,43.03137,69.08207,182.5351,0.5206746,-0.3136989,0.7707338,8
7.38,-25.31623,1.114853,-29.45994,-0.3315298111718334,-0.1175535110623703,0.057227087077329,43.27829,67.81242,181.8126,0.5136158,-0.3142161,0.7746182,8
7.4,-25.20956,1.314657,-29.42319,-0.3402056893250402,-0.1450516819245751,0.0518812223937832,46.63667,69.48467,181.6229,0.5186794,-0.3326496,0.7577239,8
7.42,-25.20535,1.113591,-29.39733,-0.3222944378915167,-0.1441209292262324,0.0538053365642072,46.37769,67.0713,180.4273,0.5065964,-0.3301095,0.7670081,8
7.44,-25.09979,1.313646,-29.36053,-0.2886076885769766,-0.1119607682929478,0.0581176073115115,49.7045,68.68559,180.1741,0.5113724,-0.3477926,0.7495743,8
7.46,-25.00371,1.107029,-29.29182,-0.2492536766481068,-0.1369791396903401,0.0673304012351247,53.3225,64.86102,177.7374,0.4866411,-0.3691979,0.7494016,8
7.48,-24.8993,1.305014,-29.25615,-0.1993742772290354,-0.1029118072860531,0.0730900528713456,56.61115,66.24833,177.2347,0.4905585,-0.3853903,0.7308839,8
7.5,-24.80082,1.102101,-29.19875,-0.1466807625891637,-0.1236190874086983,0.0833952815666689,59.68036,62.59908,174.1218,0.471841,-0.4015005,0.7269464,8
7.52,-24.69662,1.295418,-29.16702,-0.0831956365208905,-0.0854057701032371,0.09228580625587,62.91905,63.55743,173.1678,0.4748667,-0.4161014,0.7074673,8
7.54,-24.50496,1.118027,-29.05906,-0.0182140881090506,-0.0664812795673748,0.1050855608172867,61.81172,54.58407,167.3103,0.4414548,-0.4101786,0.7318021,8
7.56,-24.40037,1.304035,-29.02962,0.0481112991412633,-0.047897581734428,0.1172509763879561,64.93198,54.63933,165.3684,0.4448031,-0.4237334,0.7121287,8
7.58,-24.29881,1.144254,-28.9642,0.1104094612818196,-0.0224888875811741,0.1284953152707229,58.37897,54.29654,167.9299,0.441769,-0.3896825,0.7491291,8
7.6,-24.19296,1.325796,-28.93648,0.1732708076677434,0.0024534467721924,0.1392156837096303,61.48211,54.59705,166.2114,0.445858,-0.4036294,0.7301014,8
7.62,-24.12161,1.178141,-28.87792,0.2318386390368023,0.0317132671859885,0.1474102518814644,52.06898,57.4483,171.2978,0.4597846,-0.3510299,0.7696857,8
7.64,-23.96909,1.211309,-28.80583,0.2806407508299591,0.0827030249567415,0.1467828096397991,43.12292,60.92495,173.9816,0.4874771,-0.2915813,0.7907589,8
7.66,-23.85427,1.384238,-28.77726,0.3285532710939294,0.0883120423404904,0.1514576437708816,46.47961,62.26743,173.3568,0.4938568,-0.3096519,0.7733696,8
7.68,-23.74088,1.55379,-28.75113,0.3785113148709089,0.1396355402242626,0.1506916419850306,49.845,63.64241,172.8117,0.4996757,-0.3273759,0.7551286,8
7.7,-23.69732,1.249758,-28.70397,0.4136571352781644,0.1425638589270626,0.1512282424754465,26.20268,66.5318,176.0735,0.540427,-0.1711162,0.8096325,8
7.72,-23.57477,1.263699,-28.64208,0.4483820389507214,0.1204229642550714,0.1580767091610777,13.84651,69.18928,177.2306,0.5658602,-0.08557814,0.8152949,8
7.74,-23.45298,1.431324,-28.61423,0.4848749949281865,0.1639682140399013,0.1570741968595768,17.36677,70.97323,177.2605,0.5766333,-0.1091782,0.8025931,8
7.76,-23.40714,1.271851,-28.56871,0.5175005872989402,0.2044049692231302,0.1555583676638567,2.342869,72.5444,178.0117,0.5916954,-0.006217307,0.8057158,8
7.78,-23.28334,1.438108,-28.54244,0.5318097069602015,0.1719107134868775,0.1601212268623593,5.894701,74.3304,178.2013,0.6038849,-0.03150041,0.7952573,8
7.8,-23.16154,1.600527,-28.5189,0.5495273816402708,0.1852762219109358,0.1611287553707892,9.437849,76.14144,178.5044,0.6153364,-0.05673897,0.7838529,8
7.82,-23.15946,1.285198,-28.45115,0.5636000807434112,0.1967657381669594,0.1628088085845815,353.3067,74.80968,178.7892,0.6058834,0.05277723,0.7933392,8
7.84,-23.034,1.448299,-28.42484,0.5640103430717271,0.1572320283996356,0.1724126241916965,356.8772,76.54633,179.1447,0.6190046,0.02601252,0.7848794,8
7.86,-22.91076,1.607481,-28.40139,0.5665103015198913,0.1850076017593727,0.1700054103121182,0.4342933,78.30077,179.6074,0.6313599,-0.0007760152,0.7754734,8
7.88,-22.8916,1.282579,-28.3028,0.5692494272314041,0.2330694992683689,0.1648863441507631,353.782,75.01512,179.8011,0.6078944,0.04407857,0.7921617,8
7.9,-22.76746,1.444386,-28.27477,0.5393106874979039,0.205164969466446,0.1606446250045747,357.329,76.7425,180.2445,0.6206235,0.01694832,0.7837595,8
7.92,-22.73125,1.254489,-28.20997,0.4989622208979352,0.1514164340189531,0.16218752458292,357.4378,75.29935,181.1904,0.6108301,0.01135685,0.791378,8
7.94,-22.66372,1.249699,-28.17477,0.47793336387174,0.1677875480863867,0.1580771966454919,359.4748,75.8362,181.4254,0.6145256,-0.004028365,0.7887858,8
7.96,-22.53866,1.413474,-28.14667,0.4513919927157719,0.1817101487416537,0.1540295905713513,3.108606,77.60303,181.8828,0.6259621,-0.03142717,0.7792089,8
7.98,-22.55201,1.240187,-28.10743,0.3907522194294457,0.1203878069415106,0.1524750684714559,4.034793,76.34936,182.1235,0.6170592,-0.03911493,0.7859112,8
8.0,-22.42716,1.40583,-28.0793,0.3255526429326743,0.0575706063465209,0.1527017967411166,7.676335,78.15029,182.5931,0.6275886,-0.06618307,0.7753352,8
8.02,-22.42066,1.226114,-28.00976,0.2875507176687382,0.0896252896846441,0.1414203799072528,10.34414,76.13756,183.223,0.6118578,-0.08821212,0.7853189,8
8.04,-22.29771,1.396161,-27.98057,0.231347089310447,0.0689373119776778,0.1340573574827694,13.95666,77.98203,183.674,0.6211895,-0.1144022,0.773541,8
8.06,-22.32896,1.208615,-27.94937,0.159422554481186,0.0233777786399901,0.1262335645380812,13.43477,76.94965,183.6046,0.6147138,-0.1109636,0.7794116,8
8.08,-22.20805,1.382861,-27.92056,0.1045164239480813,0.0299419950844794,0.113004887872588,17.01172,78.81608,184.0631,0.6234102,-0.1364678,0.7669944,8
8.1,-22.26143,1.190795,-27.89252,0.0463451385156714,0.0355537212199715,0.0997585957961599,16.07652,76.79358,183.842,0.6109822,-0.1301463,0.7785034,8
8.12,-22.14258,1.369164,-27.86254,-0.0237910898416147,0.0131726910838334,0.0856242568911307,19.62994,78.67316,184.289,0.619226,-0.1551249,0.7656248,8
8.14,-22.17197,1.16803,-27.80632,-0.0771386424724087,0.0200289444133349,0.0733208069572897,20.15532,74.51387,184.1385,0.5906326,-0.160705,0.7869627,8
8.16,-22.05599,1.352373,-27.77336,-0.1312416050245168,0.0262747504616725,0.0616981912406,23.68954,76.37648,184.4695,0.5983319,-0.1848034,0.7736115,8
8.18,-22.09772,1.15281,-27.74582,-0.195029893333674,0.0041116922083895,0.0492147130240994,23.08463,73.18497,184.1302,0.5778959,-0.1815954,0.7904464,8
8.2,-21.98372,1.341228,-27.71149,-0.257385535808269,-0.0154194914639485,0.0363328357444059,26.59847,75.02332,184.375,0.5851961,-0.2049578,0.7767407,8
8.22,-21.99565,1.132578,-27.65725,-0.317788784871035,-0.0327089396263546,0.025027453350066,28.03896,70.29784,184.0042,0.5512944,-0.2174721,0.7976915,8
8.24,-21.88482,1.326546,-27.62061,-0.371027798949529,-0.0486090504541143,0.0144569105733567,31.50876,72.06278,184.0704,0.5579765,-0.239539,0.783497,8
8.26,-21.8938,1.124678,-27.58744,-0.4215653307152638,-0.0623800443724672,0.0051782162847175,32.08408,68.82519,183.5992,0.5357138,-0.2449241,0.7973772,8
8.28,-21.78451,1.321339,-27.5507,-0.4500267808008962,-0.0187489124985714,-0.0023288453866001,35.5142,70.5172,183.5336,0.5418262,-0.2658664,0.7827111,8
8.3,-21.67506,1.514695,-27.51567,-0.4960419454241815,-0.0609074787835278,-0.0120358989017916,38.9434,72.28116,183.5949,0.5473202,-0.2865056,0.7671763,8
8.32,-21.7315,1.117008,-27.49001,-0.5290941586980664,-0.0715577341003214,-0.02159306249938,39.63458,67.59138,182.7353,0.5164188,-0.2941456,0.7860899,8
8.34,-21.65115,1.114925,-27.44001,-0.5575279875178349,-0.0803963685063096,-0.0292563745187592,43.27222,66.68134,181.7823,0.5060398,-0.3159359,0.7796155,8
8.36,-21.54516,1.314811,-27.40205,-0.5779698686562988,-0.0875065759005501,-0.0353316059711024,46.62984,68.23861,181.5498,0.510637,-0.3345953,0.7632033,8
8.38,-21.52185,1.113595,-27.3683,-0.5936867330326385,-0.0930413382574255,-0.0398006719525252,46.37564,66.38815,180.4266,0.5020208,-0.3313667,0.7700191,8
8.4,-21.41694,1.313668,-27.33043,-0.5911034669961515,-0.0408803097045405,-0.0412409838877736,49.7024,67.91086,180.1639,0.5063285,-0.3493211,0.7530001,8
8.42,-21.30267,1.10702,-27.25328,-0.5918757846619793,-0.0763191052117335,-0.0405808724740146,53.32304,64.48715,177.7424,0.4841763,-0.3700542,0.7509946,8
8.44,-21.19876,1.30501,-27.21695,-0.5654709100226158,-0.0799432766808514,-0.0295002409956826,56.6116,65.78776,177.2368,0.4876088,-0.3865117,0.7328531,8
8.46,-21.0817,1.102087,-27.15222,-0.5344343097892343,-0.0833308162343491,-0.0174372579983534,59.67963,62.57043,174.1326,0.471623,-0.4016138,0.7270948,8
8.48,-20.97783,1.295406,-27.12026,-0.4993412542244093,-0.0809031270633763,-0.00488233974241,62.91829,63.44567,173.1798,0.4741344,-0.4164556,0.7079661,8
8.5,-20.87721,1.109,-27.05598,-0.4601837953602952,-0.0786667343492903,0.0082991605892273,62.65228,56.18092,167.9751,0.4480536,-0.4140123,0.7238113,8
8.52,-20.77343,1.297307,-27.02576,-0.4082986808065878,-0.0662172984005555,0.0304690209219158,65.79643,56.22921,166.1328,0.4506057,-0.4277924,0.7042513,8
8.54,-20.59492,1.144275,-26.91516,-0.3557408727699598,-0.0775588917260802,0.0554178024933991,58.37911,53.39832,167.8926,0.4360108,-0.3919045,0.7524706,8
8.56,-20.48959,1.325871,-26.88609,-0.3136008346656371,-0.0361162115071715,0.0695291722254474,61.47702,53.56963,166.1217,0.4396183,-0.4061426,0.7338403,8
8.58,-20.39966,1.178141,-26.82183,-0.2701782111354429,0.0032171512979857,0.0837734067573765,52.07196,56.95742,171.283,0.4565249,-0.3521458,0.7716029,8
8.6,-20.29279,1.355842,-26.79378,-0.2333166106407671,0.0217808012666375,0.0974180147932792,55.20977,57.76807,170.1778,0.4612143,-0.3675928,0.7539143,8
8.62,-20.22912,1.211261,-26.74393,-0.1943348869401355,0.0393054774921136,0.111924628218734,43.1408,60.81044,173.977,0.486676,-0.2919161,0.7911831,8
8.64,-20.11477,1.384223,-26.71472,-0.1488324249292318,0.1016453540840004,0.1224772420180997,46.4952,62.06053,173.3423,0.4924774,-0.3101477,0.7741789,8
8.66,-20.00326,1.250166,-26.64633,-0.1196066205669481,0.1149919207795051,0.1321506479652203,26.19248,65.09687,176.0096,0.5303513,-0.1726388,0.8162709,8
8.68,-19.88187,1.418603,-26.6165,-0.0990422780104998,0.1043006038465553,0.14161789251947,29.7271,66.6805,175.7736,0.5387605,-0.1945666,0.8017201,8
8.7,-19.8592,1.263619,-26.57738,-0.0781360983006007,0.0914476218893066,0.1519549370748443,13.86514,68.22405,177.2085,0.5589817,-0.08634359,0.819997,8
8.72,-19.73726,1.271864,-26.50661,-0.0516912010981585,0.0988727971309893,0.1663883121656364,2.358174,70.42008,177.9825,0.5766602,-0.00666167,0.8165354,8
8.74,-19.61443,1.438134,-26.47603,-0.0265733369416789,0.128188162848029,0.1760704123002607,5.915806,72.12062,178.1388,0.5884523,-0.03216192,0.8067212,8
8.76,-19.4935,1.600556,-26.44813,-0.0037326362525456,0.1542784711078688,0.1855827281805804,9.466213,73.8436,178.4031,0.5995371,-0.05761767,0.7959619,8
8.78,-19.47123,1.285164,-26.37845,0.0271421859526879,0.2228817094442663,0.192064425750718,353.3124,73.14748,178.7863,0.594313,0.05313914,0.8020468,8
8.8,-19.41201,1.291173,-26.33816,0.0294697265308236,0.1972259094839165,0.1959385421743409,352.2296,72.94556,179.1322,0.5926451,0.05897609,0.8025733,8
8.82,-19.2872,1.452716,-26.30515,0.0298222789191147,0.16897293175896,0.2011085448970315,355.8229,74.58497,179.5464,0.6053621,0.03138938,0.7951056,8
8.84,-19.22946,1.282648,-26.22561,0.0259509811668197,0.1567692083883342,0.1944078331353913,353.7746,73.05685,179.817,0.5942729,0.04458288,0.8024269,8
8.86,-19.10712,1.444495,-26.19219,0.0099868807590466,0.1196677100888762,0.1853058635437832,357.3152,74.70069,180.2713,0.6065631,0.01718691,0.7946868,8
8.88,-18.9869,1.602507,-26.16164,-0.0079783649374278,0.0811263261674998,0.1774935774607988,0.8403543,76.36923,180.8262,0.6181232,-0.01022142,0.7860142,8
8.9,-19.05003,1.25449,-26.12413,-0.0134799188050038,0.110401181836963,0.159579495361569,357.4345,73.79829,181.2014,0.6004125,0.01160778,0.7993085,8
8.92,-18.96333,1.245648,-26.05655,-0.0543796781127601,0.0655287007567578,0.1286313157349066,1.441358,73.6524,181.638,0.5991371,-0.01863411,0.8004202,8
8.94,-18.84003,1.410148,-26.0229,-0.0835730806055166,0.0719809637728938,0.092968943386845,5.075953,75.35047,182.0882,0.6098455,-0.04616839,0.7910734,8
8.96,-18.71875,1.570726,-25.99201,-0.1279689133926835,0.0533697970879788,0.0513601734293258,8.694999,77.08872,182.6503,0.6197901,-0.07364269,0.7807594,8
8.98,-18.79633,1.231853,-25.94896,-0.1733433571763041,0.0354652549490125,0.0104079422838743,8.265911,74.35899,182.9367,0.6010731,-0.07284894,0.7955295,8
9.0,-18.67399,1.400225,-25.91543,-0.2267062248737208,0.0153881845920619,-0.0374404399272725,11.89151,76.10667,183.3949,0.6103936,-0.09969279,0.784749,8
9.02,-18.55343,1.564718,-25.88452,-0.2802577465022104,-0.0034498208818154,-0.0843396726832375,15.50036,77.90974,183.9743,0.6189541,-0.1264068,0.7730147,8
9.04,-18.64358,1.199438,-25.82294,-0.3422733269865901,-0.0250757097699617,-0.1419782138074969,14.77672,74.35088,183.7167,0.5956029,-0.1218412,0.7922779,8
9.06,-18.6113,1.190825,-25.79467,-0.4037523224018458,-0.0449523508321283,-0.1990519128964067,16.08206,74.29568,183.8204,0.5938877,-0.1313665,0.7916204,8
9.08,-18.49374,1.369198,-25.7598,-0.4680672730288573,-0.0655209782831082,-0.2598085642326011,19.6449,76.08527,184.2402,0.6018284,-0.1567243,0.7793658,8
9.1,-18.37726,1.5439,-25.72717,-0.5306362709337864,-0.0841519969817812,-0.3195935929924918,23.19218,77.94555,184.7907,0.6090437,-0.1818889,0.766195,8
9.12,-18.50257,1.168145,-25.70184,-0.5906496077900378,-0.1042885479012934,-0.3803407199610524,20.14254,72.55747,184.1134,0.5771617,-0.1617911,0.7969283,8
9.14,-18.38812,1.352612,-25.66557,-0.6476084087529732,-0.1219532230781197,-0.4400871183587633,23.66876,74.32484,184.4123,0.584507,-0.1860748,0.7841783,8
9.16,-18.27432,1.533535,-25.63132,-0.7023548988217558,-0.1388666412046286,-0.5037684667905835,27.1835,76.16351,184.8419,0.5911635,-0.2101365,0.7705277,8
9.18,-18.38492,1.138933,-25.58606,-0.752697581576619,-0.153446675107505,-0.56702607895958,26.31013,68.58866,184.0112,0.541742,-0.2071083,0.808469,8
9.2,-18.37195,1.132687,-25.5635,-0.7758633898764999,-0.1118351341133138,-0.6289428208907628,28.02982,67.13966,183.9699,0.5291819,-0.2202444,0.8125634,8
9.22,-18.26329,1.326759,-25.5218,-0.8266923679770726,-0.1544843667407459,-0.6910047835119282,31.49635,68.80097,183.9944,0.5356322,-0.2427573,0.798999,8
9.24,-18.25385,1.121704,-25.46704,-0.8623900122703345,-0.1651065062819417,-0.7566767461965065,34.7229,64.27389,183.294,0.5002379,-0.2671659,0.8124295,8
9.26,-18.14766,1.319237,-25.42351,-0.8914841024332325,-0.1735642403477539,-0.823611229479217,38.14441,65.82844,183.1404,0.5058459,-0.2882788,0.7979711,8
9.28,-18.04117,1.513494,-25.38157,-0.8967938718453585,-0.1243259795999188,-0.891079217854283,41.56703,67.44856,183.1028,0.5108887,-0.3090705,0.7826459,8
9.3,-18.07987,1.115443,-25.36292,-0.9212766362268894,-0.1608278404370591,-0.9547834840547984,41.86275,64.21104,182.424,0.4898952,-0.313048,0.7950109,8
9.32,-18.05458,1.114883,-25.34047,-0.938694041873816,-0.1964750084091403,-1.0185196852020226,43.25867,63.32604,181.8011,0.4829703,-0.321365,0.7941623,8
9.34,-17.95175,1.314764,-25.2963,-0.9249274530504628,-0.1464815392449761,-1.0806775443345895,46.60336,64.8103,181.5818,0.487535,-0.3407359,0.7782683,8
9.36,-17.90039,1.1128,-25.23755,-0.9117685946175074,-0.1533777341757207,-1.1368833385291222,48.06905,62.26818,179.6045,0.4734156,-0.3469896,0.7810168,8
9.38,-17.79841,1.312832,-25.19362,-0.8943079245071057,-0.1872706569631445,-1.1894212376645277,51.38638,63.64768,179.2685,0.4775154,-0.3653369,0.7641901,8
9.4,-17.69597,1.509791,-25.15114,-0.8574072275842044,-0.161558191770308,-1.2405233767191128,54.70708,65.10239,179.0438,0.4811073,-0.3832995,0.7465749,8
9.42,-17.65081,1.103618,-25.10533,-0.801457636051679,-0.1910082412298522,-1.2804424577191795,56.51452,59.8441,176.2627,0.4525236,-0.3957797,0.7553137,8
9.44,-17.49826,1.104403,-25.0124,-0.7410665963766108,-0.1611208073979478,-1.3250069961261994,61.22662,54.48472,171.2523,0.427337,-0.4213921,0.7451556,8
9.46,-17.39739,1.29523,-24.97267,-0.6755074105322882,-0.1328144052271762,-1.368319527836265,64.42968,54.8537,169.836,0.430089,-0.4367945,0.7262551,8
9.48,-17.30735,1.117904,-24.90318,-0.6069687348486223,-0.1234363315260312,-1.399040244111208,61.82183,49.90436,167.3363,0.4111023,-0.4229968,0.749239,8
9.5,-17.20635,1.303941,-24.86466,-0.5390720556890107,-0.1373123073303501,-1.422170514876712,64.94143,49.79777,165.3989,0.4142003,-0.4378834,0.7303227,8
9.52,-17.04711,1.161649,-24.74471,-0.4668113296163967,-0.0963883101904875,-1.447864313268572,55.77734,48.57603,168.8229,0.403344,-0.3889229,0.7830614,8
9.54,-16.9607,1.178092,-24.69047,-0.3866790448288209,-0.1004919919749989,-1.4565973461949475,52.08032,51.53815,171.296,0.4194865,-0.364563,0.7923197,8
9.56,-16.85764,1.355814,-24.65182,-0.3144875287040591,-0.056032364515965,-1.4748671351955336,55.21561,52.27939,170.2038,0.424495,-0.3811666,0.7751709,8
9.58,-16.75544,1.530592,-24.61526,-0.2408345760301729,-0.0138056598923317,-1.4911067140363596,58.35788,52.97008,169.0938,0.4290784,-0.3973948,0.7572715,8
9.6,-16.70855,1.22822,-24.54701,-0.1759472620560604,0.0050680572052498,-1.4980203091651578,37.85963,56.84454,174.7818,0.462745,-0.264516,0.8240081,8
9.62,-16.59581,1.399249,-24.5056,-0.1216194337849418,0.0001640557542769,-1.4984271848041706,41.27612,58.17372,174.331,0.4696125,-0.2851381,0.8083292,8
9.64,-16.48438,1.566797,-24.46667,-0.0587067139007722,0.0409777688217576,-1.4992550225851224,44.69885,59.53959,173.966,0.475955,-0.3054439,0.7917731,8
9.66,-16.44615,1.263378,-24.39101,-0.0038252925776118,0.0340150102386453,-1.4840668844109324,13.8973,63.17047,177.2197,0.5222666,-0.0904142,0.843819,8
9.68,-16.3915,1.268205,-24.35308,0.0519606455250523,0.0705377152789978,-1.4716035138591534,8.104004,64.25113,177.6036,0.5315827,-0.04873697,0.8437974,8
9.7,-16.27335,1.435223,-24.31142,0.1060126209681622,0.1043767551795614,-1.4565664316243496,11.63857,65.87589,177.6893,0.5425341,-0.07416939,0.8336537,8
9.72,-16.18742,1.279154,-24.22585,0.1579043067101118,0.1143837515673779,-1.4218343767512764,354.4451,67.54153,178.4637,0.5546287,0.04772086,0.8305782,8
9.74,-16.06741,1.443726,-24.18454,0.2083352207324056,0.1468132266108273,-1.3898044116188322,358.0029,69.1297,178.7472,0.5670617,0.02055147,0.8234185,8
9.76,-15.94918,1.604432,-24.14603,0.2558962389701376,0.1759579088403299,-1.3550792157982898,1.550499,70.73344,179.129,0.5788218,-0.006634173,0.8153065,8
9.78,-15.83301,1.761458,-24.11036,0.2768431591904199,0.130837086706718,-1.3088633600608115,5.084922,72.365,179.6115,0.5898961,-0.03380478,0.8062529,8
9.8,-15.89215,1.295879,-24.09256,0.3094551936662777,0.1538655938406975,-1.2651980617777183,353.4585,70.55286,179.5833,0.5764079,0.04867397,0.81516,8
9.82,-15.77044,1.456497,-24.05274,0.3478059350796305,0.1976421767816886,-1.220332776277154,357.0193,72.11514,180.0428,0.5884064,0.02080655,0.8081468,8
9.84,-15.78574,1.261977,-24.06068,0.3572579510978846,0.1652766233788319,-1.164142372542328,355.7392,72.53755,180.6572,0.5913272,0.02658016,0.8055542,8
9.86,-15.73552,1.254331,-24.04727,0.3622581292995899,0.1573086569362709,-1.1117986096109118,357.4495,73.341,181.1951,0.597218,0.01162305,0.8017023,8
9.88,-15.61436,1.418219,-24.01366,0.3643070583501169,0.1493763256962936,-1.0572777554695238,1.017631,74.93079,181.6311,0.6080962,-0.01570556,0.7936862,8
9.9,-15.49521,1.578317,-23.98272,0.3624785434026614,0.1386717320501776,-1.0005231171273432,4.571635,76.55096,182.1667,0.6182477,-0.04300754,0.7847438,8
9.92,-15.60373,1.240214,-24.04471,0.3481492184084671,0.1276922403260204,-0.9408437619845164,4.00431,77.50232,182.183,0.6249247,-0.03915795,0.779671,8
9.94,-15.48007,1.405929,-24.01603,0.3369204610381437,0.1432492497962419,-0.8838259137119646,7.624782,79.14598,182.7038,0.634265,-0.06623391,0.7698934,8
9.96,-15.51253,1.226045,-24.02684,0.3224177097921474,0.1574366174193548,-0.8250665797546057,10.3108,80.1746,183.3287,0.6390818,-0.08734532,0.7633286,8
9.98,-15.38984,1.396067,-24.00201,0.2652593186246055,0.0930950528802616,-0.7612178913449239,13.89542,81.87737,183.8773,0.6469759,-0.113329,0.7521166,8
10.0,-15.45712,1.208481,-24.02057,0.2182452357200255,0.0773056018906159,-0.6987877708342758,13.39594,82.89104,183.7462,0.6541811,-0.1088691,0.7465952,8
10.02,-15.3361,1.382654,-23.99911,0.1697280110678141,0.0634250281393514,-0.6336373960024151,16.93429,84.63068,184.339,0.661274,-0.1340076,0.7346196,8
10.04,-15.39276,1.18267,-24.0183,0.0938128895727703,-0.0046650047645698,-0.5656711376404586,17.34629,86.99934,184.2202,0.67599,-0.1343661,0.7204192,8
10.06,-15.27376,1.362765,-24.0021,0.0474944847454052,0.0073041570002655,-0.4989877859814751,20.83161,88.79238,184.8673,0.6819816,-0.1582795,0.7074822,8
10.08,-15.33596,1.167582,-24.01586,0.0132724568886903,0.0469139989953173,-0.4292267501977278,20.0701,88.91555,184.441,0.6843317,-0.1510025,0.707048,8
10.1,-15.21847,1.351561,-24.00293,-0.0584371169813318,0.0041805831066116,-0.3637889137241807,23.51992,90.72906,185.0746,0.6896327,-0.1738976,0.6935925,8
10.12,-15.27409,1.144414,-24.00669,-0.1428118954072066,-0.0654386931271243,-0.2953309865493847,24.5271,91.40739,184.5371,0.6929855,-0.1759081,0.687916,8
10.14,-15.15855,1.334133,-23.99773,-0.1912040652924029,-0.0516071001734259,-0.2221130294024544,27.93726,93.25397,185.1513,0.6972402,-0.1973059,0.6736488,8
10.16,-15.2004,1.131521,-23.99814,-0.2591193005623817,-0.092789422631829,-0.1502822183944632,27.98856,92.77524,184.4494,0.695529,-0.1939508,0.6755955,8
10.18,-15.08529,1.324504,-23.9936,-0.3255280622266678,-0.1319445344594035,-0.0747703990800379,31.40079,94.60753,184.9749,0.6989069,-0.2140367,0.6608278,8
10.2,-14.97075,1.514207,-23.99061,-0.35749337697632,-0.0865013301732391,0.0023663131634203,34.79531,96.54661,185.6501,0.7015117,-0.2338681,0.6453562,8
10.22,-15.08307,1.121033,-23.99361,-0.4021550181832856,-0.0967550422092065,0.077761921827673,34.70571,94.02914,183.5668,0.6915656,-0.2249858,0.6572554,8
10.24,-15.03456,1.116844,-24.00258,-0.4427272932863193,-0.104526534064275,0.1559576680156609,39.6179,93.71185,182.8091,0.6805757,-0.2484984,0.6492389,8
10.26,-14.9223,1.315659,-24.01528,-0.4649301774810825,-0.0537968917682343,0.2345199751315356,42.99891,95.18775,182.6734,0.6810548,-0.2631149,0.6336008,8
10.28,-14.81043,1.511297,-24.02941,-0.5062174861091628,-0.0889256546730803,0.3076431349632336,46.38044,96.7393,182.6558,0.6808078,-0.2774517,0.6173036,8
10.3,-14.87922,1.114336,-24.0125,-0.5432829827787733,-0.1231066899667883,0.3833172292144793,44.68717,93.4668,181.2037,0.6707279,-0.2676193,0.636808,8
10.32,-14.76812,1.314433,-24.02526,-0.5549124027167849,-0.0713671774375766,0.46454152126103,48.03802,94.88033,181.0002,0.6703635,-0.2811673,0.6203876,8
10.34,-14.65732,1.511414,-24.03944,-0.5593782456460388,-0.0769909363011857,0.5530768153958068,51.39043,96.37428,180.9146,0.669295,-0.2944216,0.6033323,8
10.36,-14.6315,1.107186,-24.00033,-0.5606536310372403,-0.1091379079943584,0.6434065553943493,53.31379,87.7998,177.658,0.6261758,-0.3105413,0.6374722,8
10.38,-14.54575,1.103892,-23.98887,-0.5494162394511495,-0.0817235382878273,0.7321721649650201,56.48722,85.61285,176.1099,0.6100606,-0.3266626,0.6350208,8
10.4,-14.4374,1.29986,-23.99878,-0.5333738639400525,-0.0553584397277136,0.8209814211048161,59.73754,86.41196,175.2205,0.6083032,-0.3379313,0.6173102,8
10.42,-14.24575,1.109261,-23.93799,-0.5167071098860143,-0.111914586290401,0.9142773106594496,62.62896,74.83743,167.7717,0.560132,-0.3551426,0.6410244,8
10.44,-14.13804,1.29785,-23.94556,-0.4875979291221524,-0.081144796690081,1.006416563990851,65.74703,74.47948,165.6515,0.5582361,-0.3652608,0.6223737,8
10.46,-14.03128,1.483569,-23.95448,-0.4561947782416775,-0.0685956880670544,1.1008655094565056,68.85545,73.75214,163.184,0.5557845,-0.3750198,0.6031188,8
10.48,-13.92184,1.14439,-23.85532,-0.4219429272998931,-0.0560389207969515,1.1935006339055527,58.36883,70.35415,167.7974,0.5424853,-0.3428533,0.6797131,8
10.5,-13.84683,1.161873,-23.82028,-0.3905384467604713,-0.0374051967734918,1.2810827776139266,55.7515,69.22882,168.7232,0.5375129,-0.3335989,0.6978821,8
10.52,-13.73755,1.34161,-23.82267,-0.3568174852868362,-0.0189118551777669,1.3662722882840073,58.8176,69.32591,167.0027,0.5379863,-0.3452132,0.6803093,8
10.54,-13.59591,1.212122,-23.72322,-0.3292543363391709,0.0019591067328167,1.4400485771065052,43.06421,72.68755,173.814,0.5664185,-0.2654524,0.7364359,8
10.56,-13.4805,1.386171,-23.72198,-0.2971117451525986,0.0464069829881752,1.5084485356060702,46.31911,73.64745,172.9864,0.5692801,-0.2805287,0.7201785,8
10.58,-13.36687,1.55699,-23.72246,-0.2636596498002936,0.0881402414939241,1.5730554834510295,49.5825,74.59601,172.1894,0.5715572,-0.2953198,0.7032009,8
10.6,-13.33716,1.250212,-23.63607,-0.2487463406509968,0.0574428438558168,1.626840301110411,26.22231,75.33364,175.8976,0.601185,-0.1581455,0.7654873,8
10.62,-13.3034,1.257872,-23.60269,-0.226550043922538,0.0720932769459558,1.6714408696766654,19.99623,75.44337,176.4558,0.6064935,-0.1186303,0.7753223,8
10.64,-13.17992,1.426601,-23.59529,-0.2041758778937137,0.0858876313956795,1.711123645778367,23.48155,76.88091,176.1899,0.6136557,-0.1390567,0.7622383,8
10.66,-13.11729,1.272146,-23.49383,-0.1825139789796885,0.0958933852549023,1.7456374112611788,2.370737,77.02383,177.8961,0.6227363,-0.004755167,0.7819429,8
10.68,-12.99211,1.438738,-23.47927,-0.1666807437429827,0.1024606042269423,1.7589674906997064,5.91831,78.56137,177.9584,0.6328873,-0.02868925,0.7723166,8
10.7,-12.86912,1.601501,-23.46691,-0.1424512896725085,0.1322661003962061,1.7666190414058858,9.461938,80.11416,178.1175,0.6423082,-0.05258434,0.761821,8
10.72,-12.84745,1.291493,-23.32481,-0.1200110557862039,0.159007255294107,1.767474535578914,352.2246,75.95714,179.0303,0.6134765,0.05863654,0.7867522,8
10.74,-12.72127,1.453415,-23.30041,-0.1086099619361105,0.1599910542736617,1.7423548302902865,355.8114,77.45352,179.3377,0.625014,0.03212296,0.7797364,8
10.76,-12.59743,1.611377,-23.27854,-0.1108913169134178,0.135372723365756,1.7039163588017885,359.3878,78.96368,179.7375,0.6358135,0.005579623,0.7718209,8
10.78,-12.63698,1.282772,-23.19796,-0.1156104358841474,0.1092567740209643,1.6574504415076046,353.7727,75.38909,179.7728,0.6104627,0.04419021,0.7901781,8
10.8,-12.51377,1.444766,-23.16967,-0.1237449842618767,0.0788411093534122,1.6029754006283037,357.3137,76.88172,180.1745,0.6215631,0.01741322,0.7830122,8
10.82,-12.3928,1.602933,-23.14393,-0.1383150621720386,0.0637390717367429,1.5310115834584423,0.8419813,78.39611,180.6676,0.6319422,-0.009376193,0.7749591,8
10.84,-12.44473,1.250421,-23.05412,-0.1550736372300143,0.0486859028561775,1.4504740499792417,359.3985,74.49426,181.3829,0.6052522,-0.003125941,0.7959252,8
10.86,-12.39873,1.245777,-23.01868,-0.1747659582610985,0.0358725504758205,1.3622023547342943,1.421269,74.3978,181.6075,0.6043392,-0.01835861,0.7965071,8
10.88,-12.27549,1.410378,-22.98642,-0.1853276468114726,0.0490813106151128,1.2692514559893522,5.055898,75.93885,182.0191,0.6139341,-0.04559528,0.7879279,8
10.9,-12.1543,1.57107,-22.95667,-0.2242099670252368,0.0124728490836363,1.1646551034357635,8.677483,77.51659,182.5329,0.6227859,-0.0727764,0.778416,8
10.92,-12.28219,1.231971,-22.91484,-0.264412485820801,-0.02406198772386,1.0528306228723667,8.259833,73.39815,182.892,0.5944135,-0.07276645,0.8005349,8
10.94,-12.16061,1.400441,-22.87965,-0.298390330378548,-0.04057213468373,0.944522111838484,11.89039,74.98209,183.296,0.60275,-0.09955873,0.7906675,8
10.96,-12.04078,1.565038,-22.84688,-0.3469633843430078,-0.0814061536652983,0.8289987848056115,15.50733,76.61562,183.81,0.6103598,-0.1262257,0.7798681,8
10.98,-12.19504,1.199602,-22.79314,-0.3734047945320098,-0.0696815457390579,0.7133853511035748,14.77474,71.28871,183.6599,0.5742838,-0.1228895,0.8078863,8
11.0,-12.19675,1.191029,-22.77123,-0.4008932108208192,-0.0583525384237059,0.5926215742689847,16.08048,70.38741,183.7471,0.5666352,-0.1328982,0.8113782,8
11.02,-12.08155,1.369576,-22.73002,-0.4431398076393007,-0.0756155323701586,0.4729371283829309,19.65052,71.99719,184.0814,0.5738611,-0.1585917,0.8002312,8
11.04,-12.14487,1.168296,-22.6902,-0.4842031417282799,-0.0903050388422237,0.349475258495187,20.15515,67.88604,184.0376,0.5442985,-0.1644399,0.8197291,8
11.06,-12.03288,1.352865,-22.64637,-0.5217326358256245,-0.1042407693655908,0.2279655104329951,23.70209,69.46883,184.2481,0.5509901,-0.1893234,0.8080695,8
11.08,-11.92144,1.533875,-22.60444,-0.5570526592043188,-0.1156061016441067,0.1040963245423807,27.2411,71.11203,184.5747,0.5570483,-0.2139859,0.7955031,8
11.1,-12.06957,1.145423,-22.60743,-0.5640728598251958,-0.0717836612333023,-0.017525616920774,24.60133,65.34818,184.0727,0.520761,-0.1979584,0.8259984,8
11.12,-12.05291,1.132795,-22.56272,-0.6052120201147275,-0.1120104744914424,-0.1392846220617056,28.02547,62.09029,183.935,0.4929493,-0.2245105,0.8350628,8
11.14,-11.94822,1.326961,-22.51255,-0.6173767467815803,-0.091938819753152,-0.2600869967023662,31.49559,63.5772,183.9124,0.4988439,-0.2478648,0.8224971,8
11.16,-11.99095,1.124828,-22.4935,-0.6257416021991764,-0.0714397374919848,-0.3814862862601318,32.06782,59.59486,183.5525,0.4699446,-0.2543771,0.8378833,8
11.18,-11.88897,1.32164,-22.4412,-0.6328193985567836,-0.078372551418724,-0.5008457521895924,35.49648,61.01596,183.4194,0.4754455,-0.2769416,0.8248047,8
11.2,-11.78666,1.515188,-22.39033,-0.6351762474055882,-0.0826704295503414,-0.6201114985815148,38.92584,62.49143,183.3894,0.4804305,-0.2992058,0.8108553,8
11.22,-11.89519,1.115647,-22.38535,-0.6459896617281764,-0.1437759638616261,-0.7379631800946131,41.84518,55.90707,182.334,0.4313321,-0.324294,0.8283229,8
11.24,-11.79713,1.315429,-22.3301,-0.625924753295608,-0.1458544522073193,-0.8533747360988868,45.21862,57.17287,182.0077,0.4357293,-0.345267,0.813711,8
11.26,-11.69853,1.512055,-22.27614,-0.5912022760793083,-0.1154762942030546,-0.9661078637805738,48.59562,58.49048,181.7729,0.4396647,-0.3658768,0.7982615,8
11.28,-11.76354,1.113718,-22.27238,-0.564387238407652,-0.1418587407001314,-1.072714078085622,46.36777,54.20324,180.3766,0.4176269,-0.3518316,0.818898,8
11.3,-11.66858,1.313932,-22.21471,-0.5329296840000217,-0.1675609010360969,-1.1748027409781965,49.69925,55.43284,180.0318,0.4219313,-0.3721371,0.8033518,8
11.32,-11.57302,1.511071,-22.15828,-0.4800416060717283,-0.1642865551263494,-1.2729693974496783,53.03406,56.72052,179.7797,0.4257979,-0.3920605,0.7869969,8
11.34,-11.54322,1.103659,-22.08465,-0.4149802050430065,-0.1872707940413887,-1.3631050672131129,56.50717,51.08974,176.2466,0.3936265,-0.4144327,0.7876439,8
11.36,-11.46376,1.102162,-22.02506,-0.3460883551498601,-0.2109324959911384,-1.446990833573896,59.66164,49.58193,174.0911,0.3865426,-0.4322496,0.7757552,8
11.38,-11.36968,1.295589,-21.97137,-0.2636704220087507,-0.2005595384783691,-1.524953351413341,62.90334,50.13951,173.0395,0.3894923,-0.4498094,0.7578681,8
11.4,-11.27542,1.486113,-21.91911,-0.1743155365487745,-0.1598421663128235,-1.5995417825580018,66.14822,50.61937,171.9335,0.3920512,-0.4669209,0.739244,8
11.42,-11.20614,1.117907,-21.83504,-0.0873808654688674,-0.1691687361200053,-1.657621510005359,61.82385,42.36268,167.3134,0.3610244,-0.4418306,0.7745898,8
11.44,-11.1114,1.303978,-21.78363,-0.0046517995011767,-0.1434569614588151,-1.7089846640249324,64.94161,42.06259,165.3278,0.3642803,-0.458343,0.7564158,8
11.46,-10.97385,1.161561,-21.65577,0.0793251088121465,-0.1178386248107575,-1.7531562976360306,55.79073,41.05294,168.8105,0.3511373,-0.4058544,0.8077548,8
11.48,-10.87737,1.341028,-21.60409,0.1586140270814562,-0.1407602896500003,-1.7783502984753228,58.88937,41.15685,167.1851,0.3555349,-0.4231826,0.7908896,8
11.5,-10.8285,1.195352,-21.54223,0.2387450492927556,-0.0888144715387759,-1.811410039058184,48.32184,46.52354,173.2103,0.3819713,-0.3540308,0.8271875,8
11.52,-10.73082,1.371434,-21.49045,0.3119157441749036,-0.0591842585174721,-1.832158844378464,51.4804,47.36958,172.395,0.387423,-0.3728386,0.8115145,8
11.54,-10.62697,1.238986,-21.41463,0.3834101198546279,-0.0518608009004356,-1.835275310508228,32.09949,51.20724,175.3387,0.4250941,-0.232229,0.8610792,8
11.56,-10.51613,1.408043,-21.35789,0.450337583531868,-0.0008641125394237,-1.846071392400816,35.64485,52.4581,174.9511,0.4324354,-0.2557548,0.8471987,8
11.58,-10.40649,1.57334,-21.30374,0.501111687241483,0.0015097997233046,-1.8389693558122449,39.19654,53.73782,174.6454,0.4392796,-0.2789974,0.8323665,8
11.6,-10.43297,1.263072,-21.29991,0.550527401171525,0.0017921536582992,-1.8241717998144908,13.96222,57.37789,177.2243,0.478938,-0.09504939,0.8690667,8
11.62,-10.33851,1.271647,-21.25241,0.5925475817446874,0.0222796869918732,-1.8032169667526805,2.387469,61.37783,178.0192,0.5104993,-0.009092759,0.8594522,8
11.64,-10.2235,1.437716,-21.20012,0.6433203133010922,0.0438735547452948,-1.7676422413760997,5.958682,62.85204,178.1984,0.5213253,-0.03616034,0.8516294,8
11.66,-10.10996,1.599934,-21.15051,0.6909557411214244,0.0640239124424036,-1.724204504112924,9.523031,64.34861,178.472,0.5315487,-0.06317925,0.8428466,8
11.68,-10.10425,1.284978,-21.17381,0.7296072737504078,0.083388228200079,-1.6789379297684888,353.3145,67.99273,178.8614,0.5576811,0.05388644,0.8279456,8
11.7,-9.985485,1.447971,-21.12816,0.7639714523441591,0.1011606470467605,-1.6268734783204848,356.8828,69.41465,179.2693,0.5690199,0.02598841,0.8218493,8
11.72,-9.868535,1.607072,-21.08525,0.7715485043668739,0.0679638068030554,-1.5626623241953612,0.4389054,70.85837,179.7648,0.5796973,-0.00193125,0.8148204,8
11.74,-9.844584,1.282532,-21.13015,0.779867559202103,0.0761229896830802,-1.503840553668793,353.7609,74.90073,179.9349,0.6071482,0.04354787,0.7927228,8
11.76,-9.804128,1.269935,-21.13375,0.7825524746667957,0.0837913704274933,-1.440098835979046,354.0603,76.4247,180.1028,0.6177831,0.04015468,0.7846392,8
11.78,-9.683785,1.433265,-21.10428,0.7600542520575538,0.0407413799629992,-1.368392151032995,357.5529,77.84017,180.5877,0.6281695,0.0133915,0.7777666,8
11.8,-9.565535,1.59291,-21.07722,0.7558770438169968,0.0681320304215332,-1.2999101452081816,1.031548,79.2826,181.1581,0.6378508,-0.01337911,0.770041,8
11.82,-9.647938,1.250173,-21.13602,0.7223443565676912,0.0459738297927907,-1.2259536113480434,359.3895,80.89864,181.4961,0.6487637,-0.00441658,0.7608595,8
11.84,-9.52461,1.414557,-21.11448,0.6728004912730835,-0.0016316524287616,-1.1426296935764944,2.955329,82.35567,182.0045,0.6577393,-0.0309187,0.7526014,8
11.86,-9.544522,1.237508,-21.13749,0.6434029854459586,0.0255660777954314,-1.0640525794402054,6.150509,84.29128,182.717,0.6689199,-0.05565089,0.7410193,8
11.88,-9.41928,1.404294,-21.12167,0.5966882318175366,0.027237721430383,-0.9837626161206194,9.763514,85.80817,183.2452,0.6762666,-0.08151662,0.7311851,8
11.9,-9.480603,1.226183,-21.13545,0.5450406088313575,0.0299075994118992,-0.9001834166815601,10.28368,86.4212,183.329,0.6797418,-0.08510061,0.7273853,8
11.92,-9.356829,1.396342,-21.12309,0.4611488479533721,-0.0200238502436323,-0.8161066960454706,13.85522,87.9752,183.8699,0.6861092,-0.1100105,0.7166587,8
11.94,-9.413859,1.199375,-21.13416,0.3964143532588994,-0.0228310867925297,-0.728355463754931,14.70706,89.67104,183.8957,0.695786,-0.1144788,0.7059625,8
11.96,-9.389414,1.190639,-21.13292,0.3276707035369609,-0.0237096115667679,-0.6375817830173394,16.016,90.61884,184.0252,0.7001077,-0.1226375,0.6994685,8
11.98,-9.269155,1.368889,-21.12485,0.2318087990712429,-0.0783259100327077,-0.5468901984391441,19.51652,92.24328,184.6408,0.7050451,-0.1461451,0.6874877,8
12.0,-9.150409,1.54359,-21.11844,0.1723561455534432,-0.0531765455531406,-0.4559427281923756,22.99759,93.94584,185.3782,0.7091881,-0.1694829,0.6747495,8
12.02,-9.323039,1.160253,-21.11559,0.1008741807664265,-0.0556548024593564,-0.3633901025700368,21.53248,90.39656,184.3771,0.6915246,-0.1581549,0.6968087,8
12.04,-9.205193,1.346396,-21.10911,0.0278565727234997,-0.0556458610169544,-0.2682989729545211,25.01487,92.01678,184.8528,0.6953701,-0.1800172,0.6840582,8
12.06,-9.252085,1.144706,-21.10703,-0.0208104580572742,0.0001471558918197,-0.1709782460217375,24.56585,91.5646,184.3928,0.694089,-0.1750911,0.6867655,8
12.08,-9.135715,1.33467,-21.10247,-0.097825776893569,-0.0284139666110647,-0.0770445451130958,28.02251,93.19506,184.8466,0.6972646,-0.1960174,0.6735173,8
12.1,-9.020105,1.521288,-21.09936,-0.1757837049251175,-0.0554378728851872,0.0191504464591449,31.46502,94.91193,185.4289,0.6996794,-0.2167162,0.659557,8
12.12,-9.159745,1.124356,-21.08898,-0.2346776662515657,-0.0555192410734057,0.121141008450829,32.06824,90.22277,183.7415,0.6741921,-0.2170544,0.6843029,8
12.14,-9.045466,1.320718,-21.09068,-0.2791085838721855,-0.0227583537625146,0.2253185389965679,35.49546,91.68204,183.8031,0.675844,-0.2349131,0.6703876,8
12.16,-8.931595,1.513835,-21.09374,-0.3221554156256317,0.0097943420267669,0.3303193940220827,38.91918,93.21232,183.9794,0.6767806,-0.2525216,0.6557796,8
12.18,-8.996029,1.116744,-21.09125,-0.3592946697280925,0.0143954141842399,0.4349578201719488,39.62025,92.58884,182.855,0.6740748,-0.2510373,0.6559645,8
12.2,-8.88363,1.315466,-21.10067,-0.3940895001820232,0.020891763619299,0.5400982414099795,43.00977,93.94449,182.7565,0.6739209,-0.2664236,0.6411134,8
12.22,-8.858645,1.114196,-21.1062,-0.4375482282364418,-0.0304864524718727,0.6441518695026458,44.68466,94.73043,181.2735,0.6775541,-0.2650235,0.629545,8
12.24,-8.795018,1.113566,-21.11448,-0.4480494785613722,0.0060945019970763,0.7550348701385095,46.34665,95.2001,180.4521,0.6778243,-0.2680237,0.6210402,8
12.26,-8.686065,1.313675,-21.13159,-0.4553062076894671,0.0420587468510313,0.8650292584979633,49.66182,96.41508,180.1811,0.6761942,-0.2809328,0.6053175,8
12.28,-8.667142,1.109842,-21.13334,-0.4639206676791793,-0.0108790977615291,0.9765286905656644,50.65835,94.77534,178.806,0.6681824,-0.2827009,0.6086338,8
12.3,-8.559406,1.308919,-21.15237,-0.4459296040668139,0.0234389438941511,1.0935927821832778,53.94938,95.85431,178.3832,0.6657595,-0.2945803,0.5923657,8
12.32,-8.518764,1.103698,-21.14819,-0.4184512617437391,0.0024094318053054,1.2178116426758452,56.48004,92.29369,176.2445,0.645686,-0.306823,0.5988412,8
12.34,-8.362139,1.104499,-21.14861,-0.388500053201998,-0.0200700773106544,1.3383876420233518,61.20286,85.66328,171.2053,0.612065,-0.3273584,0.6028264,8
12.36,-8.256227,1.295507,-21.16743,-0.3467625724293738,0.0429196521020379,1.4521354536977205,64.38844,85.71841,169.6832,0.6083993,-0.3372152,0.5852264,8
12.38,-8.166403,1.118071,-21.13751,-0.2999023096469492,0.0583304760228056,1.5686621463441308,61.80126,78.84344,167.2034,0.5857035,-0.3335211,0.6223736,8
12.4,-8.06035,1.304388,-21.15421,-0.2509969715117904,0.0734580057375145,1.679965487129396,64.88927,78.34614,165.0739,0.5825734,-0.3431433,0.6046764,8
12.42,-7.992627,1.144454,-21.10443,-0.1982675900071151,0.0413712242438315,1.7936320388216531,58.36509,75.46371,167.7153,0.5724851,-0.3262474,0.6546057,8
12.44,-7.846169,1.17856,-21.04996,-0.1406306238262114,0.0886535827195425,1.8962931987126328,52.04901,75.55038,171.0252,0.5759011,-0.3026707,0.6870714,8
12.46,-7.737272,1.356878,-21.06112,-0.0823319628064943,0.1334439284017423,1.991955529080451,55.12791,75.81649,169.6139,0.5754716,-0.3143016,0.6708367,8
12.48,-7.665873,1.211825,-20.99498,-0.0344306652238547,0.1543088809735287,2.070854111400126,43.12541,77.34844,173.7206,0.5960019,-0.2546656,0.712406,8
12.5,-7.54932,1.385552,-21.00412,0.0146642652286224,0.1739183670791899,2.142192361730012,46.42096,78.08521,172.7799,0.5970411,-0.2690375,0.6967687,8
12.52,-7.51839,1.239876,-20.93652,0.0681526804036579,0.1937425553232588,2.2083438986426898,32.03425,77.79058,175.0824,0.612181,-0.1886614,0.7399595,8
12.54,-7.414899,1.258507,-20.86821,0.1164714253563845,0.189104414467484,2.265354021699546,19.98056,77.83931,176.2894,0.6227497,-0.1148715,0.7623005,8
12.56,-7.292155,1.427973,-20.87043,0.1638623372059792,0.2276717891090026,2.3096260745473143,23.41824,79.06898,175.8414,0.6285651,-0.1338002,0.7500082,8
12.58,-7.270667,1.268836,-20.79344,0.1968620449722936,0.2177368221971205,2.342837378259066,8.105239,78.68176,177.3533,0.6334414,-0.04003871,0.7702139,8
12.6,-7.145555,1.43649,-20.78921,0.2274083265279025,0.2057353156215626,2.365674754800821,11.62796,80.04354,177.1733,0.6414896,-0.06177121,0.7600225,8
12.62,-7.145134,1.275905,-20.707,0.2613755822197691,0.2146816105937207,2.3844482095306234,358.4191,78.61777,178.1096,0.6331783,0.02112206,0.7737074,8
12.64,-7.031844,1.28526,-20.61441,0.2942440792921993,0.2240485119040704,2.3995823620092844,353.3263,77.31225,178.7027,0.6230313,0.05251047,0.7799466,8
12.66,-6.906052,1.448514,-20.5931,0.3235388443769246,0.2316402240164576,2.404290927668803,356.9084,78.67931,178.9541,0.6334688,0.02664589,0.7732441,8
12.68,-6.87854,1.293747,-20.51654,0.3330545687077633,0.1881095832596334,2.395244070384565,352.8275,76.31296,179.2889,0.6162844,0.05301052,0.7850113,8
12.7,-6.75347,1.455024,-20.48976,0.3543186776143606,0.2122817982538354,2.386422909856141,356.4049,77.66456,179.6522,0.6266572,0.02633764,0.7786577,8
12.72,-6.782132,1.28299,-20.42857,0.3504930987115176,0.1850603622324488,2.361491283626712,353.762,74.91833,179.7657,0.6072053,0.04443164,0.7926771,8
12.74,-6.725178,1.262177,-20.35293,0.3357549980881891,0.1313176532956502,2.3289251789294343,355.7359,73.18549,180.5588,0.5958492,0.02696469,0.8022196,8
12.76,-6.60503,1.425941,-20.31954,0.3299387403344742,0.1471889276589497,2.299865218678685,359.2751,74.55115,180.9234,0.6056581,0.0001531232,0.7956593,8
12.78,-6.617991,1.25016,-20.26737,0.3126759411247886,0.1394533938257267,2.2638577818413266,359.4258,72.49435,181.371,0.5912685,-0.003033342,0.8063706,8
12.8,-6.497054,1.414459,-20.23117,0.2907062486957982,0.1313767834519528,2.221186863692968,3.031558,73.88129,181.7512,0.6003839,-0.03032045,0.7991285,8
12.82,-6.54312,1.24036,-20.18537,0.2413830594094061,0.0726303041780967,2.1649721517020573,4.017242,71.43102,182.0675,0.582794,-0.03897868,0.8116638,8
12.84,-6.49968,1.232202,-20.11382,0.2061542413819666,0.0611722675120647,2.114743566878984,8.23952,69.85987,182.8469,0.5694555,-0.07306802,0.818504,8
12.86,-6.381023,1.400913,-20.07184,0.1662590944143677,0.0504413585273911,2.059849171100139,11.86036,71.29566,183.1969,0.5771152,-0.100094,0.809631,8
12.88,-6.426726,1.217619,-20.03741,0.1213872593153705,0.0374942961740976,1.9991917678383948,11.87787,69.34131,183.3137,0.5631081,-0.1014201,0.8193811,8
12.9,-6.310074,1.390094,-19.99454,0.0719504977065856,0.0257487072234258,1.9353498896471355,15.4739,70.79069,183.6413,0.5701657,-0.1279223,0.8098236,8
12.92,-6.381345,1.199913,-19.97311,0.0217101405183721,0.0117447631396972,1.8637229473983727,14.74526,68.46714,183.6086,0.5543,-0.1236041,0.8217825,8
12.94,-6.357269,1.183455,-19.91687,-0.0430593271194438,-0.0283962854882954,1.7886318134991344,17.39046,66.62566,183.8407,0.5383592,-0.1444591,0.828398,8
12.96,-6.245869,1.364215,-19.86992,-0.0848016070013539,-0.0127789777837959,1.7155005866128723,20.94179,68.07304,184.083,0.5446862,-0.1701129,0.8179879,8
12.98,-6.292709,1.168499,-19.84612,-0.1348720958892034,-0.0238368640407269,1.6346121002771006,20.1328,64.9585,183.9926,0.5232702,-0.1657788,0.8333653,8
13.0,-6.18352,1.35329,-19.79785,-0.1869188899461182,-0.032920387527284,1.5536864426056596,23.66422,66.38093,184.1464,0.5292342,-0.1908634,0.8225989,8
13.02,-6.265145,1.14584,-19.7712,-0.2630618114912779,-0.0979819744683895,1.4635236836112893,24.5824,60.20535,183.9343,0.4834442,-0.2008819,0.8484648,8
13.04,-6.160762,1.336829,-19.71813,-0.3067160326529896,-0.1079530045239939,1.3736762645461198,28.07867,61.55285,183.9009,0.4890236,-0.2251989,0.8372486,8
13.06,-6.056442,1.524425,-19.6666,-0.3508827819949853,-0.1157669436849011,1.285192562378088,31.5736,62.94458,183.9628,0.4940705,-0.2492682,0.8251426,8
13.08,-6.143745,1.128876,-19.64862,-0.3862492556212341,-0.1228025087205592,1.1922637940586265,30.02781,57.3569,183.6676,0.4560012,-0.2419909,0.8509218,8
13.1,-6.04339,1.324506,-19.59255,-0.4212892968612264,-0.127765856997134,1.1015301701536817,33.47582,58.64246,183.5296,0.4610023,-0.2654221,0.8388953,8
13.12,-6.071127,1.118843,-19.5568,-0.4695771241591108,-0.1902546650726886,1.0075711466099735,37.36156,53.61312,182.9791,0.4196456,-0.2968834,0.8489828,8
13.14,-5.97457,1.317409,-19.49765,-0.4801008327835517,-0.1656076705902587,0.915479469709544,40.75974,54.77435,182.671,0.4238833,-0.3191772,0.8358462,8
13.16,-5.877553,1.512785,-19.43971,-0.4893702981938412,-0.1415287477065357,0.8269914752790157,44.16116,55.97359,182.4417,0.4276791,-0.3411393,0.821862,8
13.18,-5.899992,1.114965,-19.42029,-0.5117423550168969,-0.2049918501846898,0.7371019217891188,43.26366,53.87169,181.7737,0.415952,-0.3351268,0.831212,8
13.2,-5.805441,1.314936,-19.36084,-0.5144387273954357,-0.2095546949043424,0.6466974218873602,46.6261,55.02462,181.4928,0.4196162,-0.3564961,0.8168132,8
13.22,-5.783757,1.112925,-19.31104,-0.5113741983268861,-0.2418685641553454,0.567938469178844,48.04729,52.03695,179.5548,0.4020815,-0.3642943,0.8201092,8
13.24,-5.691074,1.313124,-19.25151,-0.4943019240806275,-0.2148062674059679,0.494331072745287,51.35992,53.05854,179.1261,0.4054834,-0.3846344,0.8048355,8
13.26,-5.597836,1.510301,-19.19308,-0.4672721309813956,-0.2151312507038398,0.430578522447417,54.67584,54.11793,178.7657,0.4084817,-0.4045928,0.7887818,8
13.28,-5.532386,1.103657,-19.11593,-0.4389167917067637,-0.2151339819021454,0.3736005073986068,56.48828,50.29375,176.2655,0.388106,-0.4159524,0.7904692,8
13.3,-5.44018,1.299419,-19.05914,-0.3969075689112795,-0.2113592210736919,0.3251593586007035,59.75294,51.01221,175.5284,0.3906354,-0.4346748,0.7736294,8
13.32,-5.305307,1.108963,-18.93408,-0.3456019183576569,-0.2317009541333491,0.2946052832045662,62.64023,42.13649,167.9839,0.35618,-0.4502631,0.7732331,8
13.34,-5.213062,1.297363,-18.87951,-0.2841655847757018,-0.1942151594659311,0.2678851817255112,65.78082,41.74987,166.0648,0.3585542,-0.4673455,0.7553254,8
13.36,-5.120932,1.482935,-18.8264,-0.2296589737491033,-0.1769616894587371,0.2506577887977643,68.91239,41.01634,163.8182,0.3605844,-0.4839857,0.7367155,8
13.38,-5.023561,1.144042,-18.71642,-0.1756252077797148,-0.1604160910668011,0.241034165384578,58.4165,40.1314,167.8797,0.3461905,-0.4241868,0.7976121,8
13.4,-4.929429,1.325689,-18.66294,-0.1247642103436061,-0.1384843001721191,0.2338125597288778,61.51275,39.89709,166.0643,0.3493398,-0.4415871,0.7806562,8
13.42,-4.818807,1.195186,-18.55476,-0.0677494938805292,-0.1378332635093439,0.2412989080210175,48.34939,46.36224,173.2247,0.380735,-0.3545791,0.8276554,8
13.44,-4.722314,1.371235,-18.50165,-0.0054719078695208,-0.0889017102740655,0.2478464117148453,51.51161,47.08449,172.424,0.3852762,-0.3737315,0.8124187,8
13.46,-4.62655,1.544331,-18.4505,0.0425730752124551,-0.0656066096046606,0.2500112729753563,54.67904,47.78434,171.6314,0.3894563,-0.3925374,0.7964447,8
13.48,-4.559787,1.238905,-18.38506,0.0887747988685344,-0.0440294032832282,0.2601972932907039,32.11375,51.51983,175.3657,0.4273764,-0.2320149,0.8599198,8
13.5,-4.449881,1.407927,-18.32749,0.1262327207315244,-0.0243879655243738,0.262777183775444,35.66081,52.64598,174.9978,0.433706,-0.2557676,0.8465183,8
13.52,-4.363021,1.263554,-18.23961,0.1601074325030889,-0.0287645964770179,0.2768397262375761,13.93734,55.81908,177.1926,0.4671061,-0.09580107,0.8755053,8
13.54,-4.291542,1.268231,-18.18524,0.2028686469169248,0.0114552418974549,0.2878396212013547,8.157516,57.30331,177.5898,0.4794758,-0.05234572,0.8744176,8
13.56,-4.180959,1.435367,-18.12831,0.2342639923909246,0.0255074719634084,0.2926674158026343,11.68687,58.6405,177.6469,0.488866,-0.07874683,0.8661592,8
13.58,-4.152886,1.275604,-18.07562,0.260631592114903,0.0377017395912,0.304584829417188,358.4319,59.49646,178.2239,0.4958995,0.01956895,0.8681338,8
13.6,-4.040848,1.441069,-18.0181,0.285161941066412,0.049674680688849,0.3086988259110641,1.991742,60.82188,178.4216,0.5062804,-0.0080167,0.8620838,8
13.62,-4.025853,1.28507,-17.96649,0.2926462200768229,0.0370011380918719,0.3146371650333615,353.3295,60.2662,178.7714,0.500592,0.0556864,0.8636603,8
13.64,-3.922957,1.293653,-17.86618,0.3127665969631632,0.0698592076224102,0.3163219020393271,352.8239,59.92131,179.3179,0.4980948,0.05718546,0.8648412,8
13.66,-3.811457,1.454861,-17.80385,0.3146185760131367,0.0737933626884033,0.3069427782331693,356.4015,61.20557,179.7061,0.5087613,0.02832955,0.8603313,8
13.68,-3.810061,1.282911,-17.76502,0.3003257502942399,0.0522798580826597,0.2960941448261234,353.7598,60.31637,179.8057,0.5015638,0.04791212,0.8634052,8
13.7,-3.70067,1.444941,-17.70335,0.2943824646863924,0.0758763366625578,0.2814462131568533,357.2919,61.60146,180.2283,0.5119503,0.01927737,0.8586878,8
13.72,-3.732614,1.262128,-17.68593,0.262655324102532,0.0492669185819713,0.260842228429428,355.7277,60.22256,180.5965,0.5014935,0.02963458,0.8643425,8
13.74,-3.668459,1.250145,-17.61177,0.2392698466769983,0.0459388347456034,0.2371419743377756,359.4182,59.7803,181.3844,0.4983492,-0.001619372,0.8668775,8
13.76,-3.559116,1.414419,-17.54903,0.2208623768209197,0.0695834823628495,0.2103046666778005,3.023458,61.10275,181.7747,0.5077211,-0.03058552,0.8609785,8
13.78,-3.575804,1.240313,-17.51966,0.1777625360801242,0.0432124604805354,0.1773721792542975,4.006279,60.15353,182.0943,0.5002172,-0.03939622,0.8650017,8
13.8,-3.466133,1.406093,-17.45599,0.1499058575510388,0.0662821047093786,0.1449602096164481,7.647717,61.50747,182.5119,0.508832,-0.06848069,0.8580015,8
13.82,-3.512343,1.232113,-17.44227,0.0914064996512117,0.0368826683065728,0.1050578196058433,8.229085,59.89289,182.8994,0.4961716,-0.07474817,0.8648888,8
13.84,-3.481212,1.21752,-17.38342,0.0535553215922191,0.0577764741349,0.0672825472185274,11.87135,59.33398,183.3664,0.4894526,-0.1042782,0.8653889,8
13.86,-3.375084,1.38988,-17.31921,0.0232979744811367,0.1035740979007031,0.0274874603426129,15.46407,60.73087,183.7442,0.4968576,-0.1323863,0.8567398,8
13.88,-3.416568,1.199729,-17.30939,-0.0403003452480488,0.0698044866734466,-0.0235924420508262,14.74274,59.63823,183.6846,0.4893203,-0.1271095,0.8620355,8
13.9,-3.312286,1.376205,-17.24557,-0.0823649381265397,0.0889345822358293,-0.0705478683187816,18.30967,61.05116,184.0639,0.4962783,-0.1547455,0.8527605,8
13.92,-3.372734,1.183243,-17.24553,-0.1521056015818171,0.0534691184136049,-0.1245568183285832,17.38332,58.87959,183.9376,0.4810561,-0.148218,0.8629152,8
13.94,-3.348707,1.168288,-17.19274,-0.1957863154784593,0.0730677414112565,-0.171544100723298,20.12834,56.96125,184.0865,0.463749,-0.1702449,0.8678741,8
13.96,-3.249112,1.352843,-17.12722,-0.2269941010257361,0.1212435105015884,-0.2167263882267609,23.65858,58.35475,184.3343,0.4700519,-0.1969011,0.85774,8
13.98,-3.289731,1.153067,-17.1189,-0.2861280563430344,0.0858140304890517,-0.2703999865974489,23.05663,55.63834,184.0796,0.4506866,-0.1929183,0.8693533,8
14.0,-3.192121,1.341673,-17.053,-0.3340729629953326,0.0794857361519061,-0.3225890224628083,26.56821,57.00462,184.2413,0.4566356,-0.2189771,0.8587554,8
14.02,-3.246623,1.139044,-17.05435,-0.3866399922510999,0.0467079413535799,-0.3718701893002261,26.27299,53.7604,184.0094,0.4329343,-0.2179938,0.8716757,8
14.04,-3.213277,1.128703,-16.99652,-0.4095629353963679,0.0736462610279246,-0.4138569276656652,30.02011,51.25477,183.7408,0.4099154,-0.2470217,0.8740551,8
14.06,-3.121058,1.324188,-16.9287,-0.4424784504601678,0.044222013720269,-0.4576095970502822,33.46065,52.51455,183.6748,0.4151804,-0.2716159,0.8624964,8
14.08,-3.132298,1.121734,-16.90716,-0.4726682983170377,0.0156856377811329,-0.4977502795936954,34.69206,49.9588,183.2951,0.3951505,-0.2817312,0.8684978,8
14.1,-3.041203,1.31935,-16.83966,-0.4858974015014906,0.0156279820726718,-0.5357708303637956,38.10255,51.14281,183.1133,0.3998444,-0.3054161,0.8561531,8
14.12,-3.041627,1.115562,-16.8128,-0.5054337603487014,-0.0110796380896875,-0.574716165788268,41.82597,48.81511,182.3808,0.3791667,-0.3329977,0.8535209,8
14.14,-2.952261,1.315284,-16.74556,-0.501719459210429,0.0223900721594639,-0.606898076155235,45.19688,49.90129,182.0858,0.3830432,-0.3554375,0.8398696,8
14.16,-2.862307,1.511893,-16.67937,-0.4988540002493543,-0.0013481065127719,-0.6354295792198827,48.57032,51.03046,181.8683,0.3865305,-0.3775184,0.8253899,8
14.18,-2.86934,1.113624,-16.65143,-0.4962316540010311,-0.0536734292506433,-0.6620002277181998,46.35712,48.80142,180.4319,0.3784166,-0.3598699,0.8377781,8
14.2,-2.834526,1.112885,-16.61519,-0.4715999618318269,-0.0187605011788514,-0.6793857095559581,48.03557,47.89023,179.5776,0.3720904,-0.3706208,0.834191,8
14.22,-2.71977,1.107108,-16.50862,-0.4469398313556256,-0.0417340126933392,-0.6933454904569563,53.28267,46.45177,177.724,0.3606028,-0.4049824,0.8177186,8
14.24,-2.633007,1.305259,-16.44348,-0.3970761714625199,-0.0331371535499718,-0.6947333408353773,56.55672,47.25548,177.1387,0.3636872,-0.4250926,0.8018379,8
14.26,-2.534594,1.102141,-16.34999,-0.3429796809842398,-0.0246788924183177,-0.6935351279244291,59.63747,44.54693,174.1349,0.3519566,-0.4427285,0.7921733,8
14.28,-2.446813,1.29561,-16.28822,-0.2850292636306926,-0.0713805256884423,-0.6857120503568233,62.86748,44.91948,173.0999,0.3543806,-0.4614649,0.7751051,8
14.3,-2.362882,1.108967,-16.20082,-0.219909010152469,-0.0314812334748106,-0.6782613663963832,62.63194,38.31109,167.9965,0.3301289,-0.4589767,0.7847558,8
14.32,-2.216872,1.128673,-16.06635,-0.1552034916223278,-0.0423448421657768,-0.6650111041914086,60.96481,35.1632,166.8108,0.3141275,-0.450483,0.7984961,8
14.34,-2.128317,1.312619,-16.00576,-0.0881756931194731,-0.0189540408355014,-0.6511214842185684,64.04539,34.58925,164.7256,0.317099,-0.4682932,0.7813755,8
14.36,-2.037203,1.161444,-15.91229,-0.0197570604269732,0.003574054207013,-0.6354350100885802,55.80367,36.6186,168.8434,0.3194977,-0.4151767,0.8207472,8
14.38,-1.946732,1.340962,-15.85236,0.0458167305146509,-0.0231121027581974,-0.6148982810873209,58.89739,36.54284,167.2411,0.3231941,-0.4336305,0.8046455,8
14.4,-1.88806,1.195218,-15.78143,0.1120515481962912,0.0242166422236683,-0.6005508249253684,48.34881,41.9798,173.2115,0.3488538,-0.3623229,0.8415868,8
14.42,-1.74471,1.226974,-15.67324,0.1686788416909111,0.0239307450731322,-0.5847269170063163,38.05988,44.8781,174.7002,0.3743874,-0.2843699,0.867084,8
14.44,-1.640727,1.396806,-15.60623,0.2218368663146094,0.0456879115664802,-0.5698992123626392,41.60497,45.79049,174.142,0.3799284,-0.3081569,0.8529785,8
14.46,-1.58829,1.249964,-15.55812,0.2750292655213949,0.0656914944490415,-0.5533963507686754,26.25757,48.79552,176.0401,0.4091786,-0.1928352,0.8831248,8
14.48,-1.483481,1.418375,-15.49229,0.3147009769518082,0.0352016371252162,-0.5347481435721746,29.79431,49.95623,175.8127,0.4163202,-0.2179755,0.8714509,8
14.5,-1.461779,1.263229,-15.45838,0.3583051056250881,0.0718022878527683,-0.5158657030722917,13.98776,52.16144,177.204,0.438904,-0.09868611,0.8899211,8
14.52,-1.357474,1.271727,-15.36991,0.3859615484823859,0.0598901287899167,-0.4908084120776463,2.44759,54.85158,177.9781,0.4607571,-0.01082933,0.8870941,8
14.54,-1.249808,1.437945,-15.30487,0.4138351781788689,0.0916724223248091,-0.4688028725745223,6.015832,56.12498,178.1077,0.4704868,-0.03854096,0.8806916,8
14.56,-1.20752,1.278957,-15.25978,0.4433856644964814,0.1440989698053742,-0.4456055457030776,354.5001,57.61365,178.4768,0.4807018,0.04843413,0.8754702,8
14.58,-1.098565,1.443388,-15.19558,0.4531372101410393,0.1247483447371551,-0.4192928621788656,358.0725,58.85703,178.7537,0.4910793,0.01999198,0.8708846,8
14.6,-1.067819,1.291099,-15.15576,0.4604482023219127,0.1281564490255959,-0.3935293654979734,352.2436,58.78188,179.1293,0.4891803,0.06264956,0.8695235,8
14.62,-1.039015,1.29373,-15.12473,0.4554793219272955,0.102911619060017,-0.3645617283002125,352.8054,58.54506,179.35,0.4876826,0.05749857,0.8707453,8
14.64,-0.9305421,1.455069,-15.05865,0.4596525190905214,0.1227603173221909,-0.3335976715861637,356.366,59.76335,179.7657,0.4979028,0.02850986,0.8666508,8
14.66,-0.9217781,1.269878,-15.0275,0.4455164836605808,0.1145723415000518,-0.3127700128637096,354.0819,59.73828,180.0655,0.4973822,0.04448104,0.8659942,8
14.68,-0.8846594,1.261853,-15.00332,0.42632245778054,0.1054141133699858,-0.2919574832955116,355.7556,59.9675,180.5916,0.4995706,0.02949683,0.8654661,8
14.7,-0.7758892,1.425196,-14.94098,0.3997724388346004,0.094813727117769,-0.2730846074299773,359.3242,61.20442,180.984,0.5090906,0.0007049385,0.86065,8
14.72,-0.8041053,1.250026,-14.94498,0.354488763413936,0.0593573323920586,-0.2600057470025283,359.4257,60.82588,181.4055,0.5062372,-0.001887091,0.8622927,8
14.74,-0.7553411,1.240392,-14.89756,0.3259893847416177,0.0735924661281628,-0.2396723007510042,3.989622,61.11437,182.108,0.5074527,-0.0393158,0.8607804,8
14.76,-0.6455895,1.40628,-14.83515,0.2814374779301364,0.0631000741419609,-0.2234577232681376,7.618114,62.40768,182.5359,0.515556,-0.06824578,0.8539928,8
14.78,-0.6758299,1.23213,-14.83674,0.2332551247936106,0.0526643933094577,-0.2066890241252315,8.214602,62.25272,182.9397,0.5138571,-0.07451815,0.8544996,8
14.8,-0.5665051,1.400808,-14.7763,0.1993978674310838,0.0896149646944099,-0.1849757063057502,11.81393,63.57615,183.3761,0.5211776,-0.1028739,0.8467193,8
14.82,-0.6411209,1.208852,-14.78924,0.1271453984034734,0.0469000607082939,-0.1743872593971156,13.39338,62.38991,183.6051,0.5110257,-0.1158843,0.8510534,8
14.84,-0.5343914,1.383285,-14.72913,0.0744735208307783,0.055121589428841,-0.1553618368662879,16.95477,63.74714,184.0336,0.5175481,-0.1434933,0.8421564,8
14.86,-0.428594,1.554058,-14.67116,0.0302971003857522,0.0898425479895747,-0.1348219482115262,20.50411,65.16029,184.5608,0.5234947,-0.1709373,0.8323426,8
14.88,-0.5307736,1.183058,-14.70878,-0.0435908643570525,0.0437271718031839,-0.1264641429849755,17.36705,64.28171,184.0385,0.5210734,-0.1462893,0.8393473,8
14.9,-0.4252708,1.363464,-14.65164,-0.1102242216139789,0.0250522626218019,-0.1163531370243007,20.89226,65.66688,184.4774,0.5268542,-0.173059,0.8295333,8
14.92,-0.499201,1.160637,-14.66554,-0.1867793172320624,-0.0206024468811313,-0.1066518330846735,21.53468,61.99368,184.2308,0.4996679,-0.1787081,0.8450814,8
14.94,-0.396855,1.347112,-14.60731,-0.2400075231503239,-0.0101133146155354,-0.0855050647813415,25.0343,63.35521,184.5411,0.5049474,-0.2046082,0.8346457,8
14.96,-0.2947925,1.530169,-14.55067,-0.2979999019016318,-0.0258801425547538,-0.0690548420891861,28.52495,64.77948,184.9554,0.5096859,-0.2302851,0.8233366,8
14.98,-0.3854728,1.138711,-14.57632,-0.3553473577791557,-0.0397237743194166,-0.0503823866083701,26.26746,61.80016,184.1507,0.4927207,-0.2129564,0.8392971,8
15.0,-0.3732119,1.132398,-14.56108,-0.4079052387106073,-0.0532786382581225,-0.0308839327652605,27.99815,60.9091,184.123,0.4839812,-0.226087,0.8402981,8
15.02,-0.3165118,1.124593,-14.51382,-0.4628327914030676,-0.0936331948160071,-0.008356633204936,32.05283,59.41976,183.6599,0.4684463,-0.2548777,0.8387334,8
15.04,-0.2168624,1.321187,-14.45903,-0.4937698945217296,-0.0747931803748135,0.0264483044561536,35.48,60.6303,183.6203,0.4722059,-0.2780888,0.8266611,8
15.06,-0.2064383,1.118587,-14.44175,-0.5130496220650284,-0.0259833979402599,0.064776847761655,37.35823,59.22358,183.0864,0.4604258,-0.2909437,0.8275631,8
15.08,-0.1063015,1.316932,-14.39015,-0.5437845747276391,-0.0634438538659203,0.0957811840604965,40.75476,60.32567,182.8833,0.4632919,-0.3128107,0.8146391,8
15.1,-0.1035149,1.115491,-14.38479,-0.5560457637511791,-0.0412820749810068,0.1357462068334749,41.81992,59.70546,182.4145,0.4583653,-0.3192707,0.8137524,8
15.12,-0.07867704,1.114907,-14.3655,-0.5646901823449626,-0.019894574066438,0.1777256774818403,43.2348,59.16186,181.8016,0.4538376,-0.3275641,0.811251,8
15.14,0.01975528,1.314879,-14.31511,-0.5624492685300037,-0.0270932174887474,0.2286126234008596,46.57462,60.20185,181.5377,0.4560368,-0.3481782,0.7972527,8
15.16,0.07655358,1.11285,-14.26299,-0.5564277403166586,-0.0332054577533218,0.2811912065018866,48.04408,57.92106,179.5963,0.4435215,-0.3546228,0.7984736,8
15.18,0.1401775,1.109936,-14.22364,-0.5470802970297912,-0.0416373619945756,0.3351898448008787,50.62876,57.31245,178.7748,0.4374911,-0.370555,0.7910125,8
15.2,0.236987,1.309138,-14.17443,-0.5202565018952908,0.0330336383150524,0.3959171888088286,53.90911,58.15184,178.2903,0.4390378,-0.3896527,0.7756603,8
15.22,0.2995675,1.103712,-14.12564,-0.483301395756471,0.0217441830417113,0.4679239697267776,56.4561,55.63248,176.2606,0.424571,-0.4046916,0.7716473,8
15.24,0.4651286,1.104441,-14.02211,-0.4466553156510421,0.0413709070790495,0.5342845578130031,61.22001,50.70136,171.2418,0.4025549,-0.4306787,0.7588589,8
15.26,0.5615744,1.295379,-13.97592,-0.400207929357884,0.0092208307350356,0.613636077488088,64.40868,50.60737,169.7663,0.4031893,-0.4476318,0.7416046,8
15.28,0.6599268,1.117851,-13.90225,-0.3554764926288424,0.0109021535503553,0.6881721070476292,61.82309,45.92464,167.3194,0.3849013,-0.4331519,0.7630141,8
15.3,0.7563896,1.304041,-13.85654,-0.308856597678762,0.0120751611138184,0.7616958489135119,64.9278,45.3381,165.3032,0.3858595,-0.4496415,0.7456947,8
15.32,0.8298809,1.144057,-13.78763,-0.2539968794739405,0.0223742584707279,0.8425087503064477,58.41389,44.60893,167.8688,0.3771256,-0.4139236,0.7834653,8
15.34,0.9705553,1.178008,-13.68147,-0.2067914736015528,0.0569606945272408,0.9101212945420184,52.11631,46.73478,171.1994,0.3861969,-0.3747274,0.8088681,8
15.36,1.068663,1.355922,-13.63414,-0.1603691155507961,0.0442151426733691,0.9755378941688568,55.23661,46.96724,169.9829,0.3888536,-0.3927338,0.7934365,8
15.38,1.140723,1.211146,-13.56688,-0.1131152898152887,0.0784882136697898,1.033939448773186,43.20996,50.35906,173.9151,0.4126936,-0.3117537,0.831899,8
15.4,1.245606,1.384356,-13.51637,-0.0749297816619725,0.0652852743010372,1.0844731457750996,46.54779,51.05098,173.1804,0.4163541,-0.3323851,0.8173684,8
15.42,1.279193,1.239124,-13.46807,-0.0315849739544835,0.0976667811267636,1.1308761758553698,32.12915,52.39571,175.2803,0.434097,-0.2306157,0.8564754,8
15.44,1.373994,1.25773,-13.37928,-0.0009536136191429,0.1037734783755862,1.1693327382448946,20.01362,54.13507,176.5037,0.4526299,-0.1409903,0.8741041,8
15.46,1.483654,1.426389,-13.32425,0.0271742517213495,0.1087658978631095,1.2032177840881224,23.50205,55.25396,176.2661,0.4596322,-0.165553,0.8638797,8
15.48,1.501748,1.26816,-13.26763,0.0492403110388628,0.1111644956040944,1.2312333332158527,8.141364,56.38068,177.5476,0.4724414,-0.05246856,0.8782406,8
15.5,1.612071,1.435156,-13.20905,0.0683973290387689,0.1122106338272823,1.2546613560866575,11.69281,57.58621,177.5531,0.4809397,-0.07901745,0.87056,8
15.52,1.630904,1.279148,-13.11548,0.0939567327518344,0.1130327886869715,1.2843575948138883,354.5128,57.11856,178.4032,0.4768876,0.04869185,0.8775499,8
15.54,1.740141,1.443792,-13.05208,0.1161114429264397,0.1357514039808255,1.305667237771318,358.0836,58.30765,178.6057,0.4868742,0.02052969,0.8732274,8
15.56,1.847987,1.604574,-12.99125,0.1234332780236991,0.1101662347842932,1.31839587091446,1.648375,59.50798,178.8822,0.4963238,-0.007646683,0.8679636,8
15.58,1.848945,1.293687,-12.91334,0.1355622777757509,0.1299100487430753,1.3287075147858671,352.8231,57.46684,179.2926,0.4794447,0.05784323,0.8753159,8
15.6,1.884655,1.296014,-12.86392,0.1421442276349175,0.1459315876759515,1.3331989736119323,353.4406,56.94881,179.5453,0.475782,0.05217779,0.8776918,8
15.62,1.936452,1.270127,-12.78289,0.1299410050453698,0.1311137925897615,1.322748214429777,354.0703,56.45368,180.0183,0.4723378,0.04549729,0.8798988,8
15.64,2.039589,1.433535,-12.71454,0.1188542584243838,0.1145653227513422,1.312299717981024,357.579,57.62147,180.4079,0.4818732,0.01679557,0.8759792,8
15.66,2.041695,1.254547,-12.67936,0.1032095458645951,0.0974768472276057,1.296509265206435,357.4267,56.5714,181.1522,0.4739239,0.01500896,0.8802222,8
15.68,2.145869,1.418612,-12.61088,0.0970430328215008,0.1284674167585725,1.279937746946666,0.9935356,57.76003,181.5264,0.4828149,-0.01402395,0.8755783,8
15.7,2.122924,1.245742,-12.57924,0.0727765550966198,0.110853042871156,1.2527036065994326,1.406448,56.51252,181.6122,0.4731813,-0.01746931,0.8807673,8
15.72,2.125588,1.240603,-12.5526,0.0445028138732584,0.0931856322980019,1.2213254803801863,3.972221,55.8144,182.0602,0.4671335,-0.03903095,0.8833249,8
15.74,2.229318,1.406716,-12.48145,0.0318563825030973,0.1228403830100799,1.195124129148517,7.592504,57.04267,182.4377,0.4750931,-0.06829482,0.8771857,8
15.76,2.199908,1.226475,-12.43143,0.0235566533765492,0.1746215862589036,1.1663448380554975,10.29834,54.84924,183.1555,0.4563552,-0.09226296,0.8848387,8
15.78,2.30134,1.396867,-12.35915,-0.0251174076657763,0.1239348796099398,1.1184910180361445,13.90217,56.11039,183.5051,0.4633803,-0.1210295,0.8773396,8
15.8,2.401843,1.563484,-12.28925,-0.0567231220841735,0.1243236119154954,1.0766948651198678,17.49639,57.4158,183.9438,0.4698851,-0.1496543,0.8688769,8
15.82,2.261379,1.191173,-12.29689,-0.1085904936671474,0.0711743684074753,1.0251636887297926,16.05782,52.62997,183.7436,0.4346367,-0.1394697,0.8891331,8
15.84,2.356788,1.369806,-12.22198,-0.1451339846490384,0.0460499148142012,0.976594322255727,19.62177,53.90936,184.054,0.4410049,-0.1675892,0.8805122,8
15.86,2.451753,1.544832,-12.14905,-0.1836509144562518,0.0228412296395717,0.9258913693504768,23.17704,55.24005,184.4584,0.4468886,-0.1955201,0.8709459,8
15.88,2.356555,1.168381,-12.1656,-0.224716348727846,-0.001506167407387,0.8729438238820537,20.12683,51.252,184.0571,0.4199972,-0.1725251,0.8898834,8
15.9,2.359931,1.160959,-12.14462,-0.2643331491777458,-0.029257014850783,0.8160176527669405,21.55306,50.03958,184.0818,0.4091749,-0.1841221,0.8924323,8
15.92,2.387155,1.145588,-12.08601,-0.304893581440289,-0.0547186134092696,0.7586621237245694,24.59195,48.13423,184.0315,0.3913656,-0.2083434,0.894626,8
15.94,2.475909,1.336326,-12.00998,-0.320121368276094,-0.0240890475686205,0.7111830560005372,28.09811,49.33784,184.0884,0.3967634,-0.2348999,0.8846061,8
15.96,2.450235,1.132746,-11.99385,-0.3576812086793351,-0.0783983693346065,0.6533822845755963,28.00615,46.57843,183.9735,0.3756874,-0.2354242,0.894006,8
15.98,2.535889,1.326895,-11.91735,-0.4031640622456844,-0.1594100345216863,0.5902699803982627,31.46581,47.75178,183.9682,0.3807751,-0.261289,0.8834389,8
16.0,2.506393,1.124838,-11.90905,-0.4200682420303203,-0.1541900730338189,0.5400660269931881,32.04413,44.57227,183.5677,0.3563743,-0.2666131,0.8921859,8
16.02,2.561625,1.118749,-11.82936,-0.429459290135715,-0.1756017564351699,0.4948018271865733,37.34504,42.93875,183.026,0.3387513,-0.3069952,0.8844163,8
16.04,2.644288,1.317246,-11.75303,-0.4309110609176017,-0.1645295403614774,0.4524419330589386,40.73987,43.93894,182.7526,0.3428627,-0.3311345,0.8722662,8
16.06,2.727515,1.512595,-11.67766,-0.4309499630819553,-0.1537014960207784,0.4117000230312679,44.13697,44.97113,182.5466,0.3466288,-0.3549415,0.8592629,8
16.08,2.709654,1.114942,-11.66672,-0.4166754725358239,-0.0870372014930946,0.3779724860856708,43.25248,43.31731,181.7905,0.3377023,-0.3478493,0.8659968,8
16.1,2.791204,1.314919,-11.59125,-0.4178044753481662,-0.1356437075177707,0.337004548857895,46.61356,44.28621,181.5075,0.3413135,-0.3709948,0.8525515,8
16.12,2.873378,1.511822,-11.51665,-0.4031976773725462,-0.124101942176188,0.3057619679178902,49.97663,45.29414,181.2935,0.3445875,-0.3937761,0.8382887,8
16.14,2.913286,1.109924,-11.43417,-0.3725868059558908,-0.1403774926609905,0.2905159408308773,50.65968,41.44751,178.7795,0.3240859,-0.3967178,0.8437175,8
16.16,2.99342,1.309072,-11.35971,-0.3410548438316452,-0.1833732339826969,0.2791290960927122,53.97004,42.22976,178.2955,0.3272785,-0.4184707,0.8287718,8
16.18,3.07413,1.505245,-11.28614,-0.3020931847017192,-0.1669624607808768,0.2699340509742398,57.28321,43.02821,177.8525,0.3301552,-0.4398235,0.8130506,8
16.2,3.155268,1.69846,-11.21359,-0.2568339577767579,-0.1213121030837693,0.2647048616361034,60.59866,43.85397,177.4589,0.3327137,-0.4607569,0.7965692,8
16.22,3.226089,1.104317,-11.10048,-0.2116116909841211,-0.157359680457156,0.2682690618025616,61.21365,35.5091,171.3033,0.2984653,-0.463599,0.8055575,8
16.24,3.30701,1.295214,-11.03001,-0.160595766381959,-0.1345465556266826,0.2742099506658337,64.42124,35.36621,169.8384,0.3009683,-0.4830922,0.7886112,8
16.26,3.434418,1.128652,-10.86747,-0.1194378904401796,-0.0839942191537423,0.2741882063726241,60.97023,28.72424,166.7769,0.2689233,-0.4635793,0.8147878,8
16.28,3.498471,1.144002,-10.79363,-0.0749122461167614,-0.1054500557139846,0.2914283822748247,58.42048,29.15479,167.8887,0.2682814,-0.4464951,0.8270661,8
16.3,3.579371,1.32575,-10.72304,-0.0363712650169458,-0.0964323287556802,0.3046389026700853,61.50518,28.73633,166.0693,0.2717529,-0.4658207,0.8109713,8
16.32,3.704136,1.195204,-10.56517,0.0007010866099821,-0.0876331714270403,0.3198410159710632,48.36013,34.73087,173.1609,0.295112,-0.3739993,0.8618401,8
16.34,3.787765,1.371369,-10.49411,0.0391740788292419,-0.0306570114752355,0.3333856603840895,51.51551,35.21061,172.279,0.2996755,-0.3949329,0.8476585,8
16.36,3.865808,1.226885,-10.41778,0.0704416406510899,-0.0208175488596415,0.3456523295695585,38.08657,38.35997,174.689,0.3245009,-0.2934516,0.8868762,8
16.38,3.96092,1.396726,-10.33904,0.0995941993107133,-0.0119439040708354,0.3601639252751016,41.63274,39.14267,174.112,0.3298984,-0.3183188,0.8734442,8
16.4,3.989447,1.249901,-10.29814,0.1297985375629217,0.0408635856444439,0.3735956257837919,26.29712,41.69787,176.0185,0.3537502,-0.2004143,0.9066606,8
16.42,4.084964,1.418329,-10.21969,0.1493077795493612,0.0224295035726154,0.3905622331812426,29.83574,42.72826,175.7635,0.3606364,-0.2265695,0.8958148,8
16.44,4.146108,1.267905,-10.12629,0.1709538392438425,0.0262704908409592,0.4078663399768362,8.221527,45.81532,177.5753,0.389556,-0.05780198,0.9179677,8
16.46,4.243078,1.434682,-10.0471,0.1901359060513112,0.0518959912836373,0.4212393219066491,11.78843,46.96921,177.6086,0.3982749,-0.08589351,0.9112657,8
16.48,4.265344,1.275493,-9.994938,0.2038616436736079,0.0746925609177562,0.4350262096188263,358.4674,48.15348,178.2178,0.4076841,0.01855281,0.9128928,8
16.5,4.362968,1.440872,-9.915508,0.2122689675584681,0.0740962119624721,0.4453028987954468,2.03872,49.30008,178.3996,0.4171939,-0.01034373,0.9085363,8
16.52,4.443572,1.291276,-9.791026,0.215368818520145,0.0722112515361046,0.4562050181621355,352.2405,49.47315,179.0766,0.4169793,0.06481624,0.9063586,8
16.54,4.541564,1.453134,-9.709487,0.2259536783482079,0.1140959466304006,0.4619942465709776,355.8284,50.58228,179.4073,0.4267591,0.03511525,0.903618,8
16.56,4.567512,1.295975,-9.650642,0.2142934509319672,0.0811466364509512,0.4635644606169253,353.4408,49.98515,179.5557,0.4216047,0.053487,0.9049652,8
16.58,4.664142,1.456792,-9.568634,0.1883300372861929,0.0225287172061421,0.45875759983375,356.9981,51.0924,179.9632,0.4310832,0.02377144,0.901932,8
16.6,4.75966,1.613731,-9.489539,0.1722627779617334,0.0318399004089865,0.451523916128413,0.5457823,52.22229,180.4386,0.4400893,-0.005961053,0.8979334,8
16.62,4.68395,1.262201,-9.498991,0.1506693024234195,0.0149515334169465,0.4439634587977068,355.7134,50.32888,180.6012,0.4250919,0.03161988,0.9043621,8
16.64,4.73724,1.250185,-9.417051,0.1319892219653344,0.0262590962977339,0.433556522415856,359.405,49.95514,181.3825,0.4222839,-0.0003878959,0.9063687,8
16.66,4.832958,1.414493,-9.335724,0.1081269012957967,0.0356432805185555,0.4215422881254785,3.009744,51.09979,181.7609,0.4307333,-0.03031608,0.9019666,8
16.68,4.927669,1.574975,-9.257115,0.0707659783959564,0.0209448114426356,0.39957371579708,6.605684,52.2733,182.2135,0.4387008,-0.06020727,0.896578,8
16.7,4.856625,1.237639,-9.256081,0.0171966269148179,-0.0176222958963116,0.3687890306752194,6.147736,50.36636,182.61,0.4236862,-0.0581908,0.9039354,8
16.72,4.952275,1.404508,-9.173861,-0.0219819584480137,-0.006047461114146,0.3433755954995888,9.78548,51.55594,183.0159,0.4311292,-0.08817906,0.8978705,8
16.74,5.047019,1.567515,-9.094248,-0.0678782088954514,-0.0213408619276737,0.3150468736496554,13.4129,52.78637,183.5045,0.4380819,-0.1180603,0.890807,8
16.76,5.140636,1.726826,-9.017388,-0.1172156113107431,-0.0346865882478779,0.2869864645533433,17.02828,54.06924,184.0826,0.444537,-0.1478042,0.8827538,8
16.78,4.984184,1.19959,-9.040838,-0.1507780640723133,0.0023886722479039,0.2618899063823757,14.76314,49.95699,183.6947,0.4148065,-0.1298992,0.9002358,8
16.8,5.07584,1.375805,-8.959058,-0.1878029379474901,0.0369060632788397,0.2361274922768715,18.36149,51.1941,184.0747,0.4211199,-0.1589621,0.8921898,8
16.82,5.048318,1.175746,-8.925385,-0.2628921100000601,-0.0351010220384871,0.187528833724539,18.72885,48.72932,184.0806,0.4015098,-0.1626198,0.9006188,8
16.84,5.075531,1.168308,-8.881097,-0.3048464970435718,-0.0257288672044997,0.1518118147924768,20.12147,48.06734,184.0945,0.3950554,-0.1737709,0.9012303,8
16.86,5.162997,1.352834,-8.800575,-0.3654080586252168,-0.071350996122133,0.106523837479596,23.65595,49.28407,184.3394,0.4007488,-0.2016239,0.8922296,8
16.88,5.250387,1.533878,-8.721687,-0.4362620607016159,-0.1428253215386863,0.0553019455016909,27.18343,50.55266,184.6756,0.406013,-0.2292549,0.882297,8
16.9,5.150287,1.145525,-8.755341,-0.4796407569093392,-0.130844953713211,0.0195239168992695,24.57103,45.85439,184.0867,0.3734103,-0.209421,0.9022925,8
16.92,5.234391,1.336165,-8.674906,-0.5215876114177616,-0.145568931850602,-0.0118257433951519,28.06611,47.02587,184.1983,0.3786454,-0.2363765,0.8925505,8
16.94,5.318704,1.523456,-8.595779,-0.5528005458465646,-0.1269155769377257,-0.0377638221545008,31.55703,48.24588,184.3977,0.3834848,-0.26308,0.8818985,8
16.96,5.246485,1.124836,-8.586354,-0.5928942117522862,-0.1638591374559725,-0.069033435866304,32.06352,41.42936,183.5639,0.3317611,-0.2687631,0.9015794,8
16.98,5.270899,1.12184,-8.546331,-0.6142044807289357,-0.140428497504483,-0.0884741723157626,34.66528,40.60001,183.2641,0.3230896,-0.2887336,0.8978812,8
17.0,5.349982,1.319578,-8.466108,-0.6433465912849483,-0.1727775760731066,-0.1152017535547645,38.06748,41.58078,183.0336,0.3273558,-0.3136645,0.8865266,8
17.02,5.381627,1.11556,-8.402928,-0.654462922649677,-0.173095351625647,-0.1270090050966109,41.81876,39.83643,182.3876,0.3111838,-0.3420991,0.880608,8
17.04,5.459158,1.31529,-8.322831,-0.6579498201972436,-0.1405495509576307,-0.1355263582596995,45.19413,40.74263,182.084,0.3147749,-0.3660007,0.8677773,8
17.06,5.537315,1.511928,-8.243551,-0.6579691987770249,-0.1079042188059113,-0.1405684814611665,48.57161,41.67961,181.8415,0.3180551,-0.3895428,0.8541148,8
17.08,5.615953,1.705491,-8.16523,-0.6637248569813441,-0.1628053667162486,-0.1476025956093256,51.95045,42.6612,181.6707,0.3210215,-0.4127035,0.8396344,8
17.1,5.577971,1.112859,-8.153083,-0.6513124337858709,-0.1295757896180457,-0.1415233818627155,48.0517,38.80484,179.5985,0.3047635,-0.3829606,0.8610115,8
17.12,5.653875,1.313003,-8.073648,-0.6350667719267127,-0.0965333082139943,-0.1317179598013905,51.37834,39.60534,179.1919,0.3081648,-0.4056913,0.8468123,8
17.14,5.752916,1.103708,-7.937527,-0.6097194230285004,-0.1510464528180038,-0.1031370778982493,56.4573,36.29011,176.2661,0.2888827,-0.4402925,0.8320096,8
17.16,5.823873,1.102173,-7.852541,-0.5763244773945977,-0.1442551884545597,-0.0717737072950659,59.61843,34.76972,174.1238,0.2832304,-0.4604929,0.8193476,8
17.18,5.900023,1.295698,-7.777061,-0.5399776902601576,-0.1368886830433107,-0.0383499774577853,62.85634,34.91733,173.0293,0.285769,-0.4809257,0.8029707,8
17.2,5.976487,1.486382,-7.702634,-0.5036710333808834,-0.1823649667939027,-9.779307317703267e-05,66.09367,34.92992,171.8178,0.2880405,-0.5009122,0.7858701,8
17.22,6.044858,1.117815,-7.584533,-0.4650648400659518,-0.2306719854740682,0.0401710105062068,61.83115,26.88175,167.2844,0.2535269,-0.474546,0.8160705,8
17.24,6.121222,1.304034,-7.510016,-0.4191198619873431,-0.2120710108991697,0.0896967932101016,64.93694,26.12835,165.2075,0.2564406,-0.4940396,0.799391,8
17.26,6.197598,1.487454,-7.436872,-0.3740181387082328,-0.2165278079495208,0.1402724142216493,68.02614,24.97466,162.7473,0.2591193,-0.513088,0.7820047,8
17.28,6.302049,1.177917,-7.257454,-0.3344554960933246,-0.1697746890339726,0.1782591824015943,52.13319,28.59315,171.1953,0.2538537,-0.4075235,0.8595671,8
17.3,6.347703,1.195202,-7.193825,-0.2917538952936118,-0.0995565594254659,0.2158239943653601,48.36077,30.77924,173.1813,0.2651544,-0.3798273,0.871529,8
17.32,6.425219,1.371449,-7.117,-0.2539381122590065,-0.1000843008061134,0.2512812665631616,51.50613,31.22122,172.3222,0.269843,-0.4013003,0.8576774,8
17.34,6.502433,1.544788,-7.042037,-0.221136632824954,-0.0563297386280215,0.2753312458900324,54.65453,31.61434,171.4402,0.2742903,-0.42242,0.8430871,8
17.36,6.592412,1.250012,-6.924229,-0.1881110269519781,-0.0151221847772609,0.299722273827764,26.27673,37.17299,176.0301,0.317669,-0.2045677,0.9199696,8
17.38,6.680533,1.418573,-6.838412,-0.1636060031200794,0.0035812156027542,0.3222902412469912,29.8018,38.1531,175.7827,0.3245687,-0.2312402,0.9095909,8
17.4,6.768011,1.583446,-6.755052,-0.1485131829014576,-0.0010004853428983,0.338331433944205,33.3304,39.15159,175.5977,0.3311213,-0.2576752,0.8982674,8
17.42,6.810168,1.271793,-6.655859,-0.1252810984708623,0.0397721045088937,0.3597306620737482,2.464772,42.97906,177.972,0.3665433,-0.01352809,0.9299843,8
17.44,6.869694,1.275408,-6.580782,-0.1090505512870902,0.0344831362916835,0.3850019525094586,358.4762,44.01469,178.2363,0.3744582,0.01809419,0.9270208,8
17.46,6.960558,1.440707,-6.493729,-0.0900750637040719,0.074302942915408,0.4076374504110327,2.051483,45.10767,178.4334,0.3836801,-0.01128839,0.9231915,8
17.48,7.050616,1.602163,-6.409348,-0.0836457706319966,0.0674720513739399,0.4244080211859747,5.621361,46.21648,178.6998,0.3924839,-0.04065083,0.9183812,8
17.5,7.049956,1.291245,-6.350887,-0.069276471737526,0.1065345745594408,0.4446080263949327,352.2414,45.61747,179.086,0.3862582,0.06544769,0.919872,8
17.52,7.14159,1.453081,-6.26243,-0.0726819406110883,0.0964703874154276,0.4526173492575284,355.8299,46.67131,179.4223,0.3956814,0.03540179,0.9176533,8
17.54,7.232288,1.610992,-6.176854,-0.0769878397903998,0.1309816686120796,0.4534286964402072,359.4106,47.74237,179.8235,0.4046687,0.005326414,0.9144477,8
17.56,7.208527,1.26989,-6.114416,-0.0974359744382422,0.1145153925155946,0.446104025338027,354.0966,45.72834,180.0258,0.388043,0.04736084,0.9202017,8
17.58,7.238075,1.261897,-6.070678,-0.1111935057310766,0.1441475397965701,0.4407522441861622,355.7513,45.60102,180.5673,0.387422,0.03225387,0.9211439,8
17.6,7.327256,1.425245,-5.982858,-0.1429107003803107,0.1252228969325128,0.4227609009341784,359.3268,46.66997,180.9286,0.3961301,0.002184408,0.91814,8
17.62,7.343095,1.245919,-5.908672,-0.1780851326150876,0.1053225922247131,0.4043131686109628,1.386621,45.79625,181.6077,0.3888707,-0.01660383,0.9211063,8
17.64,7.432247,1.410674,-5.81963,-0.2060684633867804,0.1105823753703613,0.3908522634113464,5.012908,46.90013,181.994,0.3968107,-0.04703164,0.9166938,8
17.66,7.520579,1.571576,-5.733308,-0.2386394161988052,0.1182367004544982,0.369397061094984,8.630392,48.03599,182.4537,0.4043052,-0.0774029,0.9112755,8
17.68,7.447942,1.232052,-5.740228,-0.273744126155812,0.1264558507818668,0.347805845634184,8.224449,46.06481,182.9022,0.3884481,-0.07585496,0.9183307,8
17.7,7.453581,1.226382,-5.710439,-0.3119282248055619,0.1323912183049127,0.3258280493108482,10.29627,45.59331,183.1751,0.3834589,-0.0933812,0.9187779,8
17.72,7.541068,1.396635,-5.621732,-0.3510212571527802,0.134878236909686,0.2908946523731975,13.90954,46.74773,183.5395,0.3901897,-0.123258,0.9122307,8
17.74,7.503793,1.19977,-5.598017,-0.391764288994521,0.138647311989666,0.2564682732418401,14.73974,45.41745,183.6794,0.3788612,-0.1305601,0.9159767,8
17.76,7.588311,1.376169,-5.509894,-0.4347077592981641,0.140801078051596,0.2223523206414223,18.32042,46.59594,184.0401,0.3850725,-0.1598876,0.9084033,8
17.78,7.672502,1.548918,-5.423827,-0.4978477504531935,0.0654254074177113,0.1671080291363059,21.89201,47.82479,184.4881,0.3908627,-0.1890351,0.89986,8
17.8,7.756178,1.718139,-5.339978,-0.5340025356918643,0.0668757801248846,0.116633805243314,25.45223,49.1173,185.0329,0.3962262,-0.2179697,0.8903574,8
17.82,7.598812,1.168289,-5.41444,-0.5696916785639028,0.0698550301629671,0.067430436733977,20.12631,43.59176,184.0959,0.3595575,-0.1752034,0.9159626,8
17.84,7.679614,1.352781,-5.327131,-0.5964544417905524,0.0788978970995749,0.0133794840658726,23.66713,44.75398,184.339,0.3651626,-0.203597,0.9073535,8
17.86,7.634483,1.145537,-5.314621,-0.6126452009007315,0.1178026227520387,-0.0336599525734017,24.58392,40.63637,184.0719,0.3319663,-0.2115739,0.9183286,8
17.88,7.64438,1.139138,-5.281505,-0.6377891246591965,0.1057647574577992,-0.0924966486930486,26.26841,39.44422,183.9876,0.3209899,-0.2252074,0.9188282,8
17.9,7.719769,1.33156,-5.193952,-0.6610538525597578,0.0940592943072577,-0.1494867127480251,29.75067,40.52568,184.0156,0.3260776,-0.2524088,0.9092329,8
17.92,7.70782,1.124868,-5.1486,-0.6586450669924571,0.1106238955989106,-0.1943178187312819,32.04737,36.24953,183.5609,0.2907058,-0.2715013,0.9156838,8
17.94,7.779975,1.321698,-5.060779,-0.6527983442847907,0.1282784519169078,-0.2372899564647729,35.48531,37.22844,183.404,0.2953002,-0.2977029,0.9051031,8
17.96,7.778218,1.11874,-5.030021,-0.6507148041774995,0.0790639032204612,-0.2871699627121257,37.33921,35.23145,183.035,0.2785269,-0.3125853,0.9052042,8
17.98,7.849624,1.317227,-4.94336,-0.6222562845676922,0.116810484189238,-0.3249241757690845,40.73737,36.12354,182.7621,0.282596,-0.3378175,0.8936185,8
18.0,7.84715,1.115576,-4.930113,-0.5811381964596374,0.1835177793904909,-0.3547020187161535,41.80754,35.12897,182.3818,0.2747854,-0.3459505,0.8926731,8
18.02,7.904049,1.114442,-4.835122,-0.5427300591867419,0.1520223186508117,-0.3899881433309135,44.65128,34.49897,181.1664,0.2705978,-0.3655579,0.8845347,8
18.04,7.972453,1.314734,-4.748897,-0.4927834632421815,0.1809694612805511,-0.4207567410359315,47.98998,35.34262,180.8663,0.2743858,-0.3895535,0.8713807,8
18.06,8.041535,1.512011,-4.663353,-0.4383063362890551,0.2094535871917159,-0.4495255785421929,51.33045,36.21725,180.6236,0.2779099,-0.4131779,0.8574156,8
18.08,8.048854,1.109926,-4.616188,-0.3792933351031664,0.1483234552179227,-0.4774968005073534,50.65363,33.12128,178.7726,0.2620107,-0.4072529,0.8650324,8
18.1,8.11709,1.309121,-4.5316,-0.316917824422473,0.0858898605449187,-0.5039158625734909,53.95103,33.78273,178.2721,0.2654605,-0.430086,0.8506675,8
18.12,8.185946,1.505381,-4.447738,-0.2179270389932754,0.0812900507923848,-0.5097425914771103,57.25058,34.44788,177.7979,0.2686594,-0.452516,0.8355271,8
18.14,8.295401,1.104354,-4.257246,-0.1160386954758956,0.0767742757425779,-0.5147945592095888,61.20179,26.54082,171.2877,0.2346416,-0.4790232,0.8264548,8
18.16,8.357704,1.108913,-4.164099,-0.0120332257970088,0.0793377612173374,-0.5249464988753012,62.62791,23.11428,168.0008,0.2234451,-0.488511,0.8215433,8
18.18,8.426305,1.297388,-4.082633,0.0942447885835182,0.1115665604821891,-0.5358372087915406,65.76707,22.38531,166.0219,0.2266041,-0.5088142,0.8048586,8
18.2,8.476871,1.128566,-3.981806,0.2014372710242225,0.1422750420099537,-0.5461805948948651,60.97842,20.09118,166.7914,0.2067743,-0.4789947,0.8327047,8
18.22,8.545929,1.312523,-3.900131,0.3103651694108598,0.0976827748163558,-0.5538644225837592,64.06212,19.24261,164.6508,0.210256,-0.4993121,0.816511,8
18.24,8.642346,1.177816,-3.723619,0.4207137413897002,0.1333182689482952,-0.5673831000083397,52.1532,23.2523,171.1758,0.2135972,-0.4153527,0.870357,8
18.26,8.695273,1.195078,-3.641628,0.530668663895068,0.1672524936671705,-0.580651369599448,48.38452,25.71562,173.155,0.2264775,-0.3866935,0.8822727,8
18.28,8.765976,1.371236,-3.558035,0.6471599231866179,0.1300045210972097,-0.5912509672491087,51.54188,26.08319,172.2664,0.2313152,-0.4088917,0.8686979,8
18.3,8.836499,1.544466,-3.476296,0.7524960362096709,0.1398762832020326,-0.6200501061064757,54.70165,26.39327,171.3454,0.2359454,-0.4307298,0.8543752,8
18.32,8.8699,1.238886,-3.409276,0.8621849222313407,0.1730097451490286,-0.6469741608020768,32.182,30.50242,175.3543,0.2633763,-0.2569389,0.9232676,8
18.34,8.949526,1.408135,-3.315862,0.9696729782613762,0.1581056773007814,-0.6736394546472936,35.71057,31.32726,174.9601,0.2697168,-0.2836429,0.9119601,8
18.36,9.028708,1.573708,-3.224869,1.0761852406812158,0.1410650812366041,-0.7001884247184992,39.24353,32.1597,174.6126,0.275769,-0.3100537,0.8997073,8
18.38,9.043715,1.2785,-3.142484,1.1788841388976985,0.1886282097938921,-0.7332378852984935,8.245834,35.77091,177.5639,0.3077056,-0.06189482,0.9485258,8
18.4,9.069948,1.284356,-3.089919,1.2645343612300266,0.1634309401525933,-0.770698546584512,2.487563,36.69456,177.9533,0.3150195,-0.01497917,0.9486691,8
18.42,9.150915,1.450611,-2.994186,1.346538704211439,0.1366084875760968,-0.8095864750375612,6.05999,37.74239,178.0465,0.3237953,-0.04450421,0.9444965,8
18.44,9.196312,1.305683,-2.869606,1.430633578804552,0.1762378175564975,-0.8525631184043678,353.3387,38.26185,178.7382,0.3265502,0.05848872,0.943329,8
18.46,9.276609,1.468903,-2.771679,1.5097195767247142,0.169032374882017,-0.8925232514336765,356.9215,39.27804,179.0045,0.3357394,0.02821703,0.9415321,8
