t,pX,pY,pZ,aX,aY,aZ,reX,reY,reZ,rtX,rtY,rtZ,ID
2.94,-45.30582,1.101693,-37.82856,2.045100788499504,-0.1117755674484546,2.735458102641875,14.60397,356.3863,163.5981,-0.01283373,-0.1301979,0.9818307,9
2.96,-45.30658,1.301526,-37.82808,2.0639967611921515,-0.0984155622017855,2.764394166436727,14.6202,356.392,163.6207,-0.01278993,-0.1303274,0.9818413,9
2.98,-45.30081,1.155002,-37.81788,2.0856425953929323,-0.1071708812231232,2.7837414786664985,14.68003,358.1572,163.626,0.002404048,-0.1287102,0.9818634,9
3.0,-45.29325,1.154218,-37.78646,2.107270959828472,-0.0905997137123117,2.7945439175625992,16.58169,358.618,164.6218,0.007464914,-0.1444879,0.9808131,9
3.02,-45.30518,1.351322,-37.77699,2.126440040357309,-0.0973822926269702,2.790966020366815,16.87898,358.7253,164.9945,0.008252964,-0.1469361,0.9808554,9
3.04,-45.21921,1.168103,-37.68029,2.14418717229492,-0.1020868914135197,2.7879149508395056,17.66395,2.968726,166.8849,0.04295777,-0.1495584,0.9808945,9
3.06,-45.18269,1.172251,-37.6202,2.1600453163617725,-0.106279677054163,2.774440659949572,16.99784,5.107372,167.7952,0.05951189,-0.1421228,0.9817378,9
3.08,-45.17945,1.365406,-37.57831,2.1758194203283727,-0.0856021460800495,2.752192349738745,18.2683,5.11272,167.8129,0.06062228,-0.1530179,0.9800124,9
3.1,-45.09722,1.186341,-37.50655,2.191168338429798,-0.041759048749185,2.7208383499755406,12.78946,10.47753,169.7873,0.1002498,-0.1023959,0.9847942,9
3.12,-44.99078,1.201805,-37.38449,2.207687863597627,-0.0486597621214936,2.687046958557663,6.938833,16.35688,171.8845,0.1458785,-0.04970217,0.9849299,9
3.14,-44.96759,1.383598,-37.30204,2.224284801989339,-0.0313974097012147,2.6463174547106725,9.498665,16.3611,171.914,0.1472297,-0.0717522,0.9831406,9
3.16,-44.8498,1.217316,-37.21387,2.24086751508648,0.0082973981005251,2.597678306672516,2.349326,21.78488,174.1962,0.1897031,-0.01054048,0.9803224,9
3.18,-44.81332,1.388961,-37.10658,2.253024404390469,-0.0016396504301422,2.5421396474382005,5.716002,21.79736,174.3737,0.1910131,-0.03963456,0.9790973,9
3.2,-44.67931,1.243083,-37.03175,2.256540117755045,-0.013571692949073,2.4787354806366,359.0025,26.47504,176.8636,0.2286621,0.01473654,0.9730824,9
3.22,-44.59699,1.263594,-36.96631,2.2556078469151526,-0.0278136643192535,2.4172150858786443,357.0417,28.48391,178.4375,0.2455712,0.02837086,0.9689391,9
3.24,-44.5404,1.415258,-36.82486,2.2564874797099588,-0.0178447655732973,2.348523234683257,1.465288,28.47716,178.9553,0.2460428,-0.01015124,0.9691319,9
3.26,-44.41685,1.258745,-36.84175,2.24937021115841,-0.0346993492041332,2.2695109699501934,356.054,33.65464,180.807,0.2895415,0.03091559,0.9565203,9
3.28,-44.36585,1.254105,-36.81719,2.242468003804624,-0.0267488958778197,2.1865205138514687,357.4796,34.9453,181.2343,0.3003864,0.01774323,0.9535033,9
3.3,-44.30609,1.41802,-36.70992,2.2198325589351366,-0.0447104399477052,2.10197187480708,1.062965,34.94062,181.6012,0.3000458,-0.01304174,0.9537776,9
3.32,-44.26558,1.245494,-36.73881,2.187582618350026,-0.0624110058066894,2.012076720814231,1.472839,37.58279,181.6609,0.3218867,-0.01683462,0.9465801,9
3.34,-44.18955,1.237608,-36.69083,2.158547425567451,-0.0551192686946583,1.9164710037604773,6.184537,39.69107,182.6914,0.3377062,-0.05868754,0.939413,9
3.36,-44.14915,1.232047,-36.65776,2.1165446473341527,-0.075756001928234,1.8197638604590587,8.244239,40.53998,182.9799,0.343678,-0.07639278,0.935975,9
3.38,-44.08014,1.40098,-36.55733,2.0665449883162808,-0.0965370773515962,1.7183589832494404,11.83455,40.60801,183.3699,0.3421601,-0.1067939,0.9335161,9
3.4,-44.01231,1.566281,-36.45864,2.01934127051445,-0.0911235953123583,1.614796335151401,15.42329,40.70237,183.7702,0.340303,-0.13708,0.9301315,9
3.42,-44.02653,1.199433,-36.5607,1.952940577618163,-0.1136084860344408,1.5109940914204518,14.74828,43.08125,183.7766,0.3599926,-0.1313172,0.9235163,9
3.44,-43.95473,1.376059,-36.46619,1.8831381853286933,-0.136835954012537,1.4047979972250657,18.29937,43.19102,184.1623,0.3577598,-0.1609506,0.9194947,9
3.46,-43.94678,1.182782,-36.48506,1.8177427231668235,-0.1327726432268605,1.2975759160791842,17.40212,43.95203,184.0714,0.3646949,-0.1533386,0.9181004,9
3.48,-43.87435,1.363309,-36.39287,1.7369252544981633,-0.1567711682649734,1.1911501053084947,20.93781,44.07908,184.4581,0.36217,-0.1826485,0.9134575,9
3.5,-43.88291,1.167714,-36.42455,1.6621695133615306,-0.1528147360997703,1.082568620089701,20.15152,43.8807,184.2549,0.3616009,-0.1758238,0.9150649,9
3.52,-43.83556,1.152422,-36.3806,1.571328160522616,-0.1777784613415134,0.9736548589248856,23.08258,43.41623,184.267,0.3552283,-0.1992476,0.912419,9
3.54,-43.76303,1.340891,-36.29269,1.4868949070887627,-0.1740706524395489,0.8656981009418558,26.57812,43.52934,184.5363,0.3521351,-0.2275924,0.9065114,9
3.56,-43.7605,1.13848,-36.30177,1.4091941478637455,-0.1436593573123206,0.7574525679362365,26.31127,42.69673,184.1732,0.3465303,-0.2247466,0.909356,9
3.58,-43.68755,1.330723,-36.21663,1.3151871777778368,-0.1695360429249152,0.6491892790144931,29.77855,42.76697,184.3226,0.3430925,-0.252382,0.9027895,9
3.6,-43.69081,1.128466,-36.23325,1.2189221606421778,-0.193554029389468,0.5389804471661304,30.06086,41.56889,183.7998,0.3344864,-0.2536842,0.9054915,9
3.62,-43.67335,1.124728,-36.22069,1.125967899196616,-0.2164921888536146,0.4362218820463317,32.09631,40.92352,183.5618,0.3277475,-0.2693187,0.9029628,9
3.64,-43.59688,1.321823,-36.14177,1.0414203139412015,-0.2096501590195645,0.3348118027174331,35.51236,40.79408,183.3292,0.3234775,-0.2953668,0.8953608,9
3.66,-43.54918,1.117071,-36.11187,0.9536948060962792,-0.229790135524354,0.2332779348817739,39.65409,40.78384,182.6978,0.3202095,-0.3255542,0.8843048,9
3.68,-43.50588,1.115571,-36.08064,0.8678044494992054,-0.2472447472905004,0.1285313668497494,41.87621,41.12354,182.3497,0.3210958,-0.3412487,0.8768575,9
3.7,-43.42796,1.315594,-36.00608,0.7894859043379894,-0.2349608308348913,0.0289129489828052,45.23383,40.82782,181.9207,0.3158898,-0.3657618,0.8672506,9
3.72,-43.34758,1.113686,-35.94271,0.7067940020809509,-0.2501221188940234,-0.0689078385214463,46.397,41.27142,180.3706,0.3227361,-0.3696898,0.8606181,9
3.74,-43.58075,1.065103,-35.6871,0.6371197179763479,-0.2634092391251785,-0.1628824341534693,45.25602,54.47334,195.0229,0.3740925,-0.3943747,0.8366572,9
3.76,-43.78582,1.195009,-35.42559,0.5764153268633336,-0.2746514879931263,-0.2549156266217949,42.84654,68.04847,208.9627,0.428634,-0.4233602,0.7981318,9
3.78,-43.86409,1.347006,-35.26397,0.5242364433553508,-0.2562018591067655,-0.3437078079529945,41.09931,76.64394,216.1782,0.4664191,-0.4420577,0.765891,9
3.8,-43.61548,1.094634,-35.29439,0.4805010638207774,-0.2100657410974763,-0.4289403843231474,55.14115,53.26783,181.8652,0.3905948,-0.4201415,0.7956526,9
3.82,-43.54552,1.099883,-35.2447,0.4585359032841616,-0.2162908136332845,-0.5118955273531958,58.66994,50.42671,176.8907,0.3832543,-0.433001,0.7827628,9
3.84,-43.49265,1.293062,-35.17984,0.4436371698357204,-0.1939882237797819,-0.5897104924590622,60.78124,56.34721,178.6724,0.4124097,-0.4412068,0.7575789,9
3.86,-43.30196,1.119369,-35.06034,0.4389594270756909,-0.1931576192458853,-0.6608138754986976,61.00479,47.60823,169.6667,0.3881616,-0.4311923,0.7666602,9
3.88,-43.22218,1.130578,-35.00518,0.4417384596905513,-0.1643943967214617,-0.727724287842074,60.24538,47.85711,169.1658,0.3925611,-0.4235519,0.7678646,9
3.9,-43.15005,1.317363,-34.959,0.4519408531451674,-0.1095242409166173,-0.790276193803642,62.60476,53.07407,170.041,0.4206474,-0.4299281,0.7413855,9
3.92,-42.95974,1.182284,-34.86307,0.4791207476052213,-0.0970575882833358,-0.8472393367199125,51.23566,56.73655,172.8489,0.4513225,-0.3529849,0.7790586,9
3.94,-42.87157,1.20013,-34.81992,0.5142690508421817,-0.0580692108904846,-0.8971629901361,47.38985,61.44465,174.8193,0.4829453,-0.3239703,0.7771,9
3.96,-42.7975,1.382133,-34.78494,0.5576881737367589,0.0056026125739877,-0.9410507544122356,49.59239,66.3662,176.0936,0.5085314,-0.3338613,0.7515008,9
3.98,-42.69939,1.233994,-34.75436,0.6037336266543862,-0.0051147031324556,-0.9787826372521424,36.8515,67.86552,176.2054,0.5379941,-0.2445679,0.7808852,9
4.0,-42.61801,1.412232,-34.71825,0.656954977344566,0.0307343228323928,-1.0078420217742847,39.2245,72.66648,177.641,0.563556,-0.2588513,0.754595,9
4.02,-42.55218,1.256638,-34.72498,0.7110260366492067,0.0446615702687302,-1.022612147558999,25.2803,72.45478,176.3603,0.5819827,-0.1581208,0.782623,9
4.04,-42.47832,1.271237,-34.63043,0.777082813086456,0.0543706552834553,-1.0315701849961014,12.49717,75.88849,178.9041,0.6120343,-0.07998452,0.7832486,9
4.06,-42.40667,1.275445,-34.61143,0.8403927368828858,0.1134139236879673,-1.0476639297218036,6.894338,78.36454,178.7272,0.6311252,-0.03960058,0.7732681,9
4.08,-42.32138,1.452013,-34.5835,0.89992227835788,0.1227704371234348,-1.0622627222680814,9.163335,82.48547,180.1201,0.6570805,-0.06075257,0.7495755,9
4.1,-42.2369,1.626905,-34.56014,0.9679475103499592,0.1285281766895114,-1.0725638052033597,11.34091,86.68333,181.6658,0.6818722,-0.08178026,0.7246246,9
4.12,-42.13968,1.289028,-34.49214,1.0381570892747185,0.1365042599631719,-1.080916964334258,352.8047,83.16154,179.1461,0.6619993,0.05187213,0.7468366,9
4.14,-42.04808,1.460136,-34.45586,1.0970738336047692,0.1437436698550469,-1.0922057893903938,355.2083,86.9356,181.0617,0.6875972,0.02396937,0.7248293,9
4.16,-41.95547,1.629041,-34.42832,1.1619523634337146,0.148015885740256,-1.1092361683277447,357.5386,90.79803,183.0342,0.7119997,-0.003770794,0.7013525,9
4.18,-41.89246,1.29786,-34.39607,1.2033112457525643,0.1470531862721364,-1.1256684945986466,353.1577,88.31678,180.0421,0.6954185,0.04255616,0.716123,9
4.2,-41.85955,1.283154,-34.37284,1.2481649926920353,0.1451138317427375,-1.1522879069682563,353.6369,88.19585,180.0959,0.6948474,0.03927601,0.717012,9
4.22,-41.79914,1.2651,-34.28341,1.2708605223820504,0.1352905455591778,-1.1750252626570052,354.9923,88.81525,182.1027,0.6995453,0.01837591,0.7130166,9
4.24,-41.695,1.433352,-34.25686,1.2896174883128646,0.1473475362668155,-1.2000835174830673,357.6338,92.78326,184.0666,0.7239662,-0.01145289,0.6886138,9
4.26,-41.65825,1.250482,-34.25529,1.3079178560423088,0.1595417296153324,-1.2406857947296943,359.2926,92.30028,181.8284,0.7211204,-0.007229691,0.6925986,9
4.28,-41.56558,1.42146,-34.21309,1.29747233719005,0.141452522522151,-1.265317107375492,1.554985,96.49485,184.4022,0.7450613,-0.03767925,0.6657515,9
4.3,-41.58459,1.243742,-34.15557,1.276632099825357,0.1239041186526374,-1.283563787554633,3.086442,94.16862,183.7437,0.7311013,-0.04224098,0.6809555,9
4.32,-41.56599,1.240122,-34.12578,1.2474987795829555,0.0806385461787704,-1.2970635715707468,5.412376,93.04779,184.0199,0.7232668,-0.0578885,0.6880635,9
4.34,-41.46003,1.411063,-34.10123,1.221525447812324,0.0875839519415047,-1.3009885414520914,8.060849,97.40174,186.0567,0.745919,-0.08591507,0.6602284,9
4.36,-41.46672,1.217729,-34.04709,1.1770881822696817,0.0673254280308605,-1.3036294737349143,11.6624,94.13632,183.8386,0.7256497,-0.09355702,0.6797147,9
4.38,-41.44331,1.208966,-34.01966,1.123430155130559,0.0478988271754572,-1.29593472282067,13.20111,94.4165,184.0268,0.7257702,-0.1036501,0.6773797,9
4.4,-41.3468,1.385859,-33.9772,1.069416925709343,0.0299408913476074,-1.2972223133158716,15.53461,99.16285,186.5097,0.7481511,-0.1303149,0.6472239,9
4.42,-41.40476,1.19058,-33.92324,1.000973414881981,-0.0435449987605345,-1.2985076582981492,15.24647,95.49821,185.4089,0.7286398,-0.1237146,0.6703269,9
4.44,-41.35926,1.175341,-33.88595,0.9343877965828112,-0.0647094390195245,-1.270204345099902,18.52473,93.88995,184.5463,0.7162455,-0.1384023,0.6779339,9
4.46,-41.26052,1.357389,-33.84148,0.867595854110446,-0.0843070252772951,-1.2487707028778834,20.99616,98.66917,186.8804,0.7373623,-0.1632718,0.6478717,9
4.48,-41.30091,1.158704,-33.78623,0.7932810088623539,-0.1047037507865113,-1.2166335134307626,20.88212,94.93523,185.6525,0.7177718,-0.1580924,0.6705895,9
4.5,-41.19665,1.344053,-33.75338,0.7181981185058497,-0.1235618132061177,-1.1874614394558094,23.5389,99.56808,187.5747,0.7372305,-0.1807914,0.641004,9
4.52,-41.24766,1.138117,-33.71056,0.6353947228036256,-0.1431626507027735,-1.137362552925262,26.1703,90.7171,184.4135,0.6864037,-0.1856512,0.6901182,9
4.54,-41.14759,1.326937,-33.66099,0.5523416210914007,-0.1589483496039038,-1.0838500506185178,28.82907,95.51443,186.5615,0.7062457,-0.2081115,0.66059,9
4.56,-41.04414,1.51312,-33.62225,0.4697817071902479,-0.1735815744912137,-1.0318925818847724,31.42307,100.4496,188.8128,0.7243475,-0.2295784,0.630043,9
4.58,-41.1025,1.123116,-33.58432,0.3856023192342857,-0.1871429880283416,-0.965486022039772,31.93266,92.35342,184.2293,0.6861461,-0.2159357,0.6725945,9
4.6,-41.07015,1.120545,-33.56285,0.3033867904284157,-0.1995725430912157,-0.9034893352209004,34.70439,91.11095,183.743,0.6742538,-0.2309794,0.6749483,9
4.62,-41.00156,1.112284,-33.47877,0.2221108575809749,-0.2096793632820865,-0.8309871792371415,39.14525,91.50638,184.6137,0.6649934,-0.2607256,0.6665596,9
4.64,-40.89794,1.306532,-33.43798,0.150929845419208,-0.1891302121648052,-0.7495060119885273,41.89241,96.4486,186.6027,0.6816053,-0.2778793,0.6365108,9
4.66,-40.87527,1.110884,-33.41043,0.0814631174785613,-0.1699017817261005,-0.6701962454893282,42.81772,93.87884,183.4688,0.6723633,-0.2696991,0.6434403,9
4.68,-40.82112,1.113117,-33.4084,0.0060777545561849,-0.177049541190797,-0.5858528571242108,44.56716,92.98902,181.7327,0.6671175,-0.2711623,0.6410972,9
4.7,-40.72851,1.306848,-33.3526,-0.0634384697675622,-0.1537533333575621,-0.4944631176362608,46.91761,98.67196,184.5822,0.684921,-0.2870146,0.6093574,9
4.72,-40.72028,1.107669,-33.32237,-0.1305579624135893,-0.1880821965694142,-0.4043825181999829,47.45588,93.65872,181.8729,0.6630787,-0.2861828,0.6310506,9
4.74,-40.59408,1.103697,-33.28126,-0.1976486549208953,-0.1636603474456086,-0.3150595930462363,52.92057,91.45233,179.6098,0.6420601,-0.3088682,0.6238692,9
4.76,-40.4945,1.100687,-33.25662,-0.2181678019240998,-0.1036715725258531,-0.2554716065491242,56.12083,91.10997,178.2985,0.6348239,-0.3199969,0.6128603,9
4.78,-40.3978,1.29307,-33.22682,-0.1869474988544173,-0.115809659321399,-0.2351060077391276,58.73964,96.67155,180.676,0.6491019,-0.3298648,0.5814749,9
4.8,-40.30171,1.482811,-33.19852,-0.1297440106586709,-0.1218738087688959,-0.2313480111513666,61.17896,102.99,183.8618,0.6625926,-0.3393405,0.5490552,9
4.82,-40.11153,1.117444,-33.18317,-0.0933721427465821,-0.1143673129736857,-0.2169090261335018,61.73958,82.19733,168.3611,0.60053,-0.3274502,0.6092916,9
4.84,-40.02002,1.301904,-33.15226,-0.0412669747769038,-0.099959974267227,-0.2084906288968597,64.45437,88.03555,171.0421,0.6159812,-0.3364165,0.5775399,9
4.86,-39.907,1.143713,-33.11401,0.0155550135326949,-0.0859109680245119,-0.2025625834938136,58.0947,84.37647,170.5876,0.6146346,-0.3103695,0.6188094,9
4.88,-39.81316,1.325278,-33.09695,0.0575543142622807,-0.0671658972295964,-0.2057036534546177,60.80848,89.47714,172.5444,0.6291624,-0.3192637,0.5881822,9
4.9,-39.72047,1.504771,-33.08341,0.1001341370646393,-0.0223620589360019,-0.2138001832675238,63.41859,95.22993,175.1869,0.6426964,-0.3276207,0.5566748,9
4.92,-39.56129,1.210117,-33.06609,0.1434113539925068,-0.0262457284280212,-0.2296175114309639,43.18216,91.12919,174.5194,0.6754963,-0.2255874,0.6376746,9
4.94,-39.46306,1.384875,-33.04322,0.1722205621549006,-0.0056954247397425,-0.2452390747294695,45.87458,96.36015,176.9249,0.6930448,-0.2413552,0.6060556,9
4.96,-39.36376,1.556983,-33.03185,0.1998528927780336,0.0383277473947191,-0.2643700457935058,48.50957,101.7947,179.5087,0.7086208,-0.2560574,0.5736654,9
4.98,-39.30632,1.250296,-33.02424,0.2277774133853984,0.0792963162961565,-0.2859973238839344,26.03328,98.34388,176.562,0.7413176,-0.1250744,0.6315928,9
5.0,-39.21357,1.425216,-32.99384,0.2442335115937286,0.0914005882881748,-0.3066424278004147,28.33081,103.1332,179.126,0.7606508,-0.1463229,0.6012242,9
5.02,-39.16502,1.27172,-32.90455,0.2529995760927699,0.0780026929018345,-0.3257678711842757,7.25181,99.91096,179.0881,0.7643121,-0.03460722,0.6416892,9
5.04,-39.06237,1.443875,-32.89705,0.2627786068228079,0.1120719169001927,-0.338095448602179,9.846762,103.7218,180.8322,0.7832066,-0.05869156,0.6157679,9
5.06,-38.96206,1.613749,-32.89345,0.2745968049189997,0.1204500291545931,-0.3497886073526848,12.31953,107.6406,182.7655,0.8007472,-0.08268879,0.5888308,9
5.08,-38.91772,1.280624,-32.86731,0.2873680514896817,0.1527603810635716,-0.3619427165386266,354.0864,105.3926,178.9882,0.7940685,0.03827445,0.6055717,9
5.1,-38.8245,1.453835,-32.84114,0.2932957079332512,0.1336844392032511,-0.3737337414435111,356.1596,108.7476,181.4569,0.8125604,0.009188028,0.5817747,9
5.12,-38.6939,1.295511,-32.80147,0.296647628219465,0.0860459258373514,-0.3725868669045429,352.5312,107.1544,179.8083,0.8028833,0.04001389,0.5925655,9
5.14,-38.62768,1.301935,-32.74185,0.2967678552621562,0.1103028293974963,-0.378794476529019,352.4163,107.9736,181.2106,0.8074765,0.03035514,0.586087,9
5.16,-38.52489,1.470309,-32.73862,0.2828710181198497,0.0798615944973069,-0.3856075864522301,354.8222,111.2863,183.3313,0.8250886,0.001508694,0.5624477,9
5.18,-38.53036,1.274589,-32.68476,0.2644316539092557,0.0476495522765215,-0.3905339008997819,353.1649,109.6227,181.4166,0.8161682,0.0242651,0.5745991,9
5.2,-38.4318,1.445376,-32.6837,0.2332044789359164,0.0351750316091497,-0.387338089599667,355.4906,112.9366,183.4705,0.8332111,-0.003500282,0.5507244,9
5.22,-38.41068,1.251234,-32.61629,0.206537431020398,0.0230279762125741,-0.3807147884916952,359.1895,107.7657,181.8818,0.8077528,-0.009096596,0.5892504,9
5.24,-38.31363,1.423396,-32.59937,0.1808675073746597,0.0389376668389785,-0.3817994320788487,1.397354,111.3526,184.2689,0.8249747,-0.03762775,0.5638099,9
5.26,-38.21589,1.592528,-32.59558,0.1365189674378237,0.0031109315954921,-0.3739122541548831,3.635848,115.024,186.577,0.840714,-0.0653734,0.5375034,9
5.28,-38.24543,1.238844,-32.53312,0.0977069328934279,0.0187897895726661,-0.3639244626858859,5.867105,111.3372,183.1811,0.8235886,-0.05174313,0.5641956,9
5.3,-38.22387,1.233175,-32.49692,0.0399774566333821,-0.0193663623360722,-0.3528552258364326,7.940777,110.4894,183.442,0.8180671,-0.0640699,0.5701569,9
5.32,-38.18115,1.220023,-32.38605,-0.0122063882502541,-0.0337237224010343,-0.3323362844505722,10.76443,110.3966,185.0937,0.8143257,-0.08980912,0.5710829,9
5.34,-38.07899,1.396423,-32.37741,-0.0628188324187482,-0.0477578428033656,-0.310055040335301,13.11123,114.3693,187.2551,0.8293392,-0.1145738,0.5433818,9
5.36,-38.09087,1.199959,-32.35237,-0.1162546548702216,-0.0604575743698974,-0.2889838689691575,14.42539,112.4131,184.2682,0.8212995,-0.1004864,0.5553025,9
5.38,-38.07864,1.191826,-32.27991,-0.156479723636397,-0.0205219447703873,-0.2734270562919052,14.98172,112.3829,185.4356,0.8194438,-0.1115205,0.5561872,9
5.4,-37.97747,1.372583,-32.27147,-0.2107879197329758,-0.0356170100736051,-0.2503014359057842,17.2951,116.4521,187.5573,0.8334232,-0.1343894,0.5278754,9
5.42,-37.9741,1.167729,-32.19985,-0.2783302285041511,-0.0765740664588562,-0.226551703422551,19.88198,111.858,184.6364,0.8113275,-0.1296368,0.5571417,9
5.44,-37.94554,1.159145,-32.12671,-0.3232297398716364,-0.061537466139772,-0.205981971120936,20.40721,112.5162,185.9819,0.8121477,-0.1409652,0.5536097,9
5.46,-37.84679,1.34533,-32.11002,-0.3746309065445805,-0.0734648610208927,-0.1781173914019715,22.58988,116.7702,188.1794,0.8256482,-0.1619673,0.5246412,9
5.48,-37.86452,1.144478,-32.08781,-0.4255458626889687,-0.0836113083897884,-0.1508442588916927,24.36336,112.2268,184.6211,0.806048,-0.1502685,0.5516157,9
5.5,-37.77401,1.33277,-32.04956,-0.4717444140118516,-0.0936242502036726,-0.1215341582642905,26.09594,116.8633,187.332,0.8207629,-0.1710219,0.5212547,9
5.52,-37.81605,1.128391,-31.97103,-0.5185966554895964,-0.1294657133905407,-0.0929105489016204,26.89416,111.3785,185.9789,0.795419,-0.1728,0.5574992,9
5.54,-37.75636,1.123159,-31.93866,-0.5416764360547335,-0.1063537647599268,-0.0648632413153378,31.79596,108.1412,184.2347,0.7722986,-0.1893993,0.5721538,9
5.56,-37.66551,1.314104,-31.8955,-0.5730390143457065,-0.1387547326693964,-0.0375795434995467,33.64032,113.0308,186.9692,0.7871733,-0.207877,0.5418017,9
5.58,-37.66128,1.112929,-31.83936,-0.601804293215161,-0.1704625066164083,-0.013755895001065,36.39174,109.3979,185.2184,0.7662975,-0.2155585,0.5600087,9
5.6,-37.56395,1.306317,-31.81917,-0.615527005006645,-0.173132321798955,0.0038295934163947,38.60594,114.0706,187.3949,0.7785931,-0.2305568,0.5303502,9
5.62,-37.55174,1.113116,-31.80034,-0.6167241709824651,-0.1732961450345049,0.0287100663294799,42.98466,107.5693,182.5473,0.7457057,-0.2330961,0.5561745,9
5.64,-37.45967,1.306828,-31.76658,-0.609144332758806,-0.1417225428427612,0.04378145753485,44.99002,112.786,185.2739,0.7589267,-0.2469456,0.5254983,9
5.66,-37.36509,1.49887,-31.74384,-0.601951106582999,-0.1654264145149074,0.050062663610908,46.96881,118.1252,188.0802,0.7702938,-0.2597855,0.4944276,9
5.68,-37.35212,1.110829,-31.72126,-0.5812225254439127,-0.1312062572621749,0.0574644380544766,47.78805,109.516,180.4859,0.7457283,-0.2368886,0.5289753,9
5.7,-37.26423,1.304151,-31.68514,-0.5506399283492325,-0.0688132079343963,0.0674349636621567,49.56748,115.1813,183.6158,0.7590135,-0.2487427,0.497523,9
5.72,-37.1637,1.099841,-31.66335,-0.5051772824273275,-0.0907820301735593,0.0660879754510395,55.64919,107.8305,179.0246,0.7170237,-0.2688228,0.5176539,9
5.74,-37.07398,1.292243,-31.6489,-0.4448986786103175,-0.0546914044919173,0.0637469643653299,57.78954,113.4034,181.8282,0.727446,-0.2769176,0.4870345,9
5.76,-36.98495,1.482554,-31.63587,-0.3867813608820523,0.0100710238354398,0.0576779091445764,59.73374,119.5631,185.2559,0.7370657,-0.2847301,0.4557241,9
5.78,-36.84636,1.108619,-31.67216,-0.3191023208478203,0.0255819998616556,0.045677921310248,62.45617,101.0701,169.1972,0.6882446,-0.2659223,0.5034238,9
5.8,-36.76789,1.29649,-31.64524,-0.2518419383275843,0.0416728446971402,0.0331363202055676,64.39471,107.7856,173.2257,0.7010306,-0.2730581,0.4723689,9
5.82,-36.68229,1.129137,-31.62192,-0.1847375200045355,0.0552289364285283,0.0186808849418422,60.18518,100.1247,170.8154,0.68704,-0.2677267,0.5228654,9
5.84,-36.51556,1.162258,-31.63662,-0.1154290360436407,0.0773087255610693,0.0052857627340454,55.57165,96.84366,169.8743,0.6865174,-0.2497586,0.5540568,9
5.86,-36.43893,1.345734,-31.61248,-0.0462517950756993,0.0761623313956674,-0.0124966411488691,57.60515,102.5539,173.0253,0.7007262,-0.2592449,0.5242864,9
5.88,-36.35489,1.198628,-31.57577,0.0175818215812348,0.1249966679703894,-0.0312603538993534,47.39708,103.5226,175.8833,0.7276762,-0.2227745,0.5550417,9
5.9,-36.27119,1.37913,-31.5729,0.079177796998314,0.1722695478283349,-0.0502256453457174,49.57214,108.1684,178.0409,0.7393699,-0.2333138,0.5266764,9
5.92,-36.1932,1.228631,-31.59973,0.1347466040217382,0.1449126832155457,-0.0693131206266497,37.69479,104.2691,175.3316,0.7545817,-0.1676966,0.5700294,9
5.94,-36.09632,1.256159,-31.52065,0.17730087115602,0.1858239995899014,-0.0858842163427646,25.02832,106.2319,178.0082,0.7829918,-0.1164602,0.5828378,9
5.96,-36.00455,1.432501,-31.51713,0.2157230620330184,0.2251578340298867,-0.1028340241161989,27.31865,110.1857,179.9007,0.7970033,-0.1344445,0.555895,9
5.98,-35.91466,1.606997,-31.51626,0.2492344068853889,0.2601021703253098,-0.1185503504604361,29.48121,114.3055,182.0184,0.8099127,-0.1522988,0.528233,9
6.0,-35.88076,1.270113,-31.49722,0.2822958729405878,0.2630715053227742,-0.1213666991998367,7.70607,110.7731,178.1518,0.8216521,-0.02492219,0.5657872,9
6.02,-35.83807,1.273635,-31.46942,0.3065866498195326,0.2408782717789737,-0.122870390973945,2.002599,110.3714,178.4593,0.8209414,0.001060843,0.570587,9
6.04,-35.75094,1.450372,-31.44977,0.3343973954857393,0.26553867962444,-0.1353151574380446,3.904999,113.6334,180.7362,0.8363012,-0.02402088,0.5471733,9
6.06,-35.64691,1.291255,-31.36942,0.3617759634396167,0.2406567715878332,-0.1389159338492143,352.2894,111.1027,180.112,0.8228045,0.03722987,0.5643328,9
6.08,-35.5503,1.463278,-31.37024,0.3835258957143725,0.2138164359551844,-0.1387968548367544,354.589,113.999,182.0207,0.8380544,0.01093316,0.5432563,9
6.1,-35.49238,1.295965,-31.35857,0.3975415668417499,0.207243323646808,-0.1308229997699732,352.4817,111.6724,179.8283,0.8255991,0.03805456,0.5604331,9
6.12,-35.40464,1.289085,-31.26428,0.3999698753493526,0.1723596079765547,-0.1242351188230941,352.6671,110.8433,181.354,0.8220372,0.02658168,0.5657096,9
6.14,-35.30576,1.459386,-31.26296,0.3920505782796732,0.1850176447967987,-0.1178582441281941,354.9931,113.7643,183.3722,0.8370895,-0.0007656895,0.5445286,9
6.16,-35.28542,1.263836,-31.24723,0.378143054174898,0.1677775753872301,-0.1093093912417941,355.4242,112.496,181.1123,0.8309634,0.01411535,0.5548083,9
6.18,-35.19833,1.4391,-31.22385,0.3499679459730451,0.1255998136932979,-0.090561132349642,357.1993,115.4967,183.6396,0.8454478,-0.0138144,0.5325538,9
6.2,-35.19817,1.257115,-31.15213,0.3333036696082105,0.1361829138651098,-0.0773710080830993,358.1496,112.9179,183.0417,0.8333247,-0.01319972,0.5519105,9
6.22,-35.11148,1.242307,-31.12076,0.3043728019354921,0.0932017023230517,-0.0527451699995946,3.64639,112.3949,182.6139,0.8299196,-0.03663891,0.5565093,9
6.24,-35.02167,1.418347,-31.09851,0.282542623200829,0.1035953915491983,-0.0341818604990291,5.507733,115.7687,185.1036,0.8440228,-0.06318324,0.5323011,9
6.26,-35.02366,1.237122,-31.02202,0.2431033631697525,0.0604996246624005,-0.0109935208198415,7.045716,113.9174,184.4112,0.8347848,-0.06567922,0.5457925,9
6.28,-34.9277,1.413064,-31.01826,0.1986531351657898,0.0171194866485972,0.0175838803240586,9.233878,117.3443,186.4799,0.8477083,-0.08990536,0.5213052,9
6.3,-34.94542,1.218709,-30.98219,0.1504788682816489,-0.0044852699150084,0.0486536509219091,11.48451,114.2298,183.9201,0.8332003,-0.08287077,0.5427895,9
6.32,-34.91204,1.202313,-30.86979,0.1113771240124021,0.001640118037835,0.0773294725303355,13.42425,113.8034,185.3578,0.8281009,-0.1026422,0.5463179,9
6.34,-34.87407,1.192773,-30.83478,0.0646204903250193,-0.019851244233743,0.1001976616907542,14.87728,114.391,185.2957,0.8293202,-0.1085689,0.5416679,9
6.36,-34.77913,1.374884,-30.82638,0.0153256867726732,-0.0399957133922536,0.1249543529509709,17.01091,118.0549,187.3528,0.8413585,-0.1303325,0.5160512,9
6.38,-34.68611,1.554982,-30.81898,-0.0376894254181232,-0.0604898358199165,0.1565589934264379,18.96845,121.8514,189.6118,0.8523046,-0.1520126,0.4896812,9
6.4,-34.75716,1.168096,-30.74752,-0.0783547320973259,-0.0513223754702263,0.1798794542560586,19.75549,114.2273,184.671,0.8228182,-0.1267808,0.5403512,9
6.42,-34.75565,1.160402,-30.70715,-0.1376746809397495,-0.0974512725404028,0.2050784241815995,21.20138,112.0884,184.6987,0.8104149,-0.1360883,0.5548142,9
6.44,-34.66626,1.347435,-30.68038,-0.1834466344914407,-0.0854924769749526,0.2241031827396931,23.08886,116.0408,187.028,0.8230179,-0.1567309,0.5283319,9
6.46,-34.67949,1.137988,-30.59619,-0.2317533909238123,-0.1006690771021267,0.2414165485708546,25.96509,109.457,184.5891,0.7897244,-0.1614746,0.5695832,9
6.48,-34.59291,1.327539,-30.55672,-0.2798562014904395,-0.1141178267172368,0.2608820419505493,27.72189,113.6888,187.1343,0.8030828,-0.18134,0.5424386,9
6.5,-34.62079,1.12418,-30.48606,-0.3251340376692804,-0.1266199518583635,0.2833404279947591,28.88797,108.7047,185.7007,0.7787288,-0.1843217,0.5737592,9
6.52,-34.54543,1.120138,-30.45473,-0.3670234693309027,-0.1371918936042243,0.3026704538014808,34.41591,106.0122,183.9438,0.7563704,-0.2041636,0.5825853,9
6.54,-34.45912,1.31198,-30.41211,-0.392200953098714,-0.1453032804710654,0.3125961668182162,36.25811,110.566,186.5539,0.7697635,-0.2215761,0.5549863,9
6.56,-34.44531,1.111929,-30.36242,-0.409947272847782,-0.1222836997008798,0.322133178200672,38.6518,107.7977,184.7073,0.7537986,-0.2261419,0.5665235,9
6.58,-34.3521,1.306257,-30.34122,-0.4348147207576578,-0.1545819591670339,0.3289991934715224,40.83517,112.1463,186.8095,0.7646855,-0.2405489,0.5393372,9
6.6,-34.33864,1.113183,-30.34084,-0.4430048698696449,-0.1276904131592058,0.3295940624958029,42.96344,107.4089,182.5154,0.7450482,-0.2331844,0.5571761,9
6.62,-34.25767,1.10789,-30.26378,-0.4585518797391215,-0.1559829812224086,0.3272112999477041,45.34752,107.2522,182.7702,0.7371938,-0.2465037,0.5545606,9
6.64,-34.16608,1.302877,-30.23924,-0.453993781439296,-0.1544860522034079,0.3255045550299242,47.46655,111.9835,185.1651,0.7479376,-0.2590758,0.5265237,9
6.66,-34.10062,1.108421,-30.25071,-0.4455291117284727,-0.1513771373713196,0.3201930036006479,50.44692,106.3875,179.5189,0.72539,-0.2522681,0.5405504,9
6.68,-34.02047,1.301222,-30.20819,-0.4340432855330847,-0.1500778398801751,0.3128527327374475,52.08743,111.994,182.8575,0.7384769,-0.2640314,0.5113701,9
6.7,-33.93497,1.493151,-30.1821,-0.4016548736479706,-0.1487224231563221,0.3013020565390518,53.83152,117.5334,186.0399,0.7490117,-0.2745676,0.4821042,9
6.72,-33.7729,1.103649,-30.19937,-0.3518270593416468,-0.1709731428599325,0.2841854905135212,60.93726,100.9117,172.5829,0.6841357,-0.2791692,0.522312,9
6.74,-33.69367,1.292943,-30.17221,-0.3031764232900755,-0.1348481931290935,0.2670701950319163,62.91138,106.8626,176.1598,0.6951488,-0.2877745,0.493904,9
6.76,-33.61251,1.480674,-30.15315,-0.2494247374419149,-0.1484833479923807,0.2513571088746325,64.81773,113.1986,180.1072,0.7045342,-0.2956991,0.4651677,9
6.78,-33.47244,1.128985,-30.16726,-0.1948649170966634,-0.1634626258744815,0.2344612867967042,60.74287,95.75237,168.0848,0.6716537,-0.2708761,0.5366389,9
6.8,-33.39987,1.315412,-30.14087,-0.1473577457627439,-0.0986486592122496,0.2237915353555477,62.68819,101.4858,171.4597,0.6839839,-0.279014,0.5089585,9
6.82,-33.32421,1.500163,-30.12608,-0.0946117147347842,-0.1066252179760655,0.2089735427053458,64.64066,107.3448,174.9161,0.6942037,-0.2862217,0.4810258,9
6.84,-33.12995,1.196957,-30.10508,-0.04330320952671,-0.0630723373025037,0.1944161563556066,47.95134,101.1576,174.1438,0.7181058,-0.2216448,0.5634334,9
6.86,-33.04185,1.211613,-30.10761,-0.0051037930688027,0.0015374359820812,0.1839135161429768,42.96081,102.2559,174.7615,0.7342191,-0.196463,0.5703548,9
6.88,-32.96526,1.39281,-30.08021,0.0394637482084188,-0.0054786641145084,0.1743565418847303,44.79497,107.0765,177.5886,0.7481834,-0.2107442,0.5428849,9
6.9,-32.88386,1.571055,-30.06944,0.0823864071219464,0.0345761090955366,0.1640907497429755,46.75372,111.8275,180.2346,0.7597558,-0.2239261,0.5151083,9
6.92,-32.82816,1.25194,-30.06381,0.1265786830028594,0.0249599358848398,0.1603703734220789,25.83611,106.623,176.7111,0.7851117,-0.1110828,0.5769585,9
6.94,-32.7506,1.43228,-30.03799,0.1649435768880116,0.0386179140184618,0.1699962509155765,27.56933,110.6036,179.1295,0.7994896,-0.1295688,0.5513541,9
6.96,-32.66865,1.609408,-30.02779,0.2002961721132679,0.0735852600963032,0.170824690984034,29.43984,114.5679,181.39,0.81202,-0.1471925,0.5252921,9
6.98,-32.58828,1.785099,-30.02002,0.2273869117411999,0.057504991960979,0.1759793212385818,31.16683,118.6864,183.8347,0.8235685,-0.1646254,0.4986075,9
7.0,-32.51799,1.278559,-29.93619,0.2522444291890999,0.0386363364774988,0.1834829953638657,357.892,112.1117,178.7765,0.8292851,0.01912702,0.5584212,9
7.02,-32.4695,1.281484,-29.90829,0.2884385160449469,0.0435180619430205,0.1955832953424612,354.0365,111.2545,178.9294,0.8239542,0.03706762,0.5641869,9
7.04,-32.3805,1.456396,-29.90475,0.3276163927132347,0.0724928764718761,0.209063800160496,356.1461,113.911,180.7776,0.8378782,0.01264991,0.5447783,9
7.06,-32.26185,1.296071,-29.846,0.353825835759193,0.0484944446469693,0.2281983583907187,352.4923,110.4689,179.7243,0.8196375,0.03930409,0.5691243,9
7.08,-32.17714,1.470839,-29.82728,0.3752065109483418,0.0712951299696409,0.2379212041761587,354.3244,113.0578,181.9514,0.8334851,0.01311413,0.5500572,9
7.1,-32.16362,1.290313,-29.75774,0.3799939797009291,0.0393337197223911,0.2503725538228436,352.6165,110.3226,181.1123,0.8193788,0.02883129,0.5695432,9
7.12,-32.13013,1.272022,-29.75145,0.3847955263890079,0.0560198388197379,0.2671006778059479,353.7384,109.0088,180.4358,0.8130598,0.02861984,0.5796005,9
7.14,-32.04856,1.448188,-29.72428,0.3804227081819551,0.0456903300550396,0.2797474838914735,355.4482,111.6384,182.797,0.8269149,0.002129297,0.5603939,9
7.16,-31.99954,1.252281,-29.65872,0.3703055996692908,0.035001499892756,0.2974885089934043,359.0879,108.1525,181.8083,0.8097458,-0.008108494,0.5865147,9
7.18,-31.97126,1.251789,-29.59229,0.3516829164414821,0.0258301985250391,0.3220493120182879,0.3328928,107.7241,182.9305,0.8072883,-0.02236352,0.5895957,9
7.2,-31.87543,1.4251,-29.58315,0.3311784428073658,0.0157160129488568,0.346153948638447,2.625104,110.6448,184.8551,0.8208611,-0.04784432,0.569096,9
7.22,-31.83994,1.23365,-29.50973,0.3092756537277599,0.0027797770351447,0.369567902826565,7.903887,107.7599,183.3531,0.8043293,-0.06418648,0.5894547,9
7.24,-31.74941,1.410417,-29.48897,0.2857451076405723,0.0181464617618696,0.391905262490551,9.965246,110.9793,185.5246,0.8175849,-0.08871214,0.5672073,9
7.26,-31.75434,1.218691,-29.44458,0.2437934578782346,-0.0207804111081691,0.4157192503998925,11.52022,108.8293,183.837,0.8067344,-0.08545883,0.5813852,9
7.28,-31.67173,1.399175,-29.40879,0.2128276893995675,-0.0072474667514835,0.4333408512236039,13.18333,112.2615,186.3476,0.8200158,-0.1095418,0.5580436,9
7.3,-31.71198,1.202527,-29.33267,0.1791310773054903,0.0048058840147758,0.4535150982313833,13.45227,109.1502,185.2418,0.8053164,-0.104824,0.5794082,9
7.32,-31.61967,1.383678,-29.31438,0.1330070502825306,-0.0111423636369469,0.4744147641545799,15.54527,112.5298,187.2977,0.8175235,-0.1273938,0.5562938,9
7.34,-31.62427,1.175921,-29.24152,0.0839981816629547,-0.0251383618946822,0.4911615102169402,18.33679,107.6071,184.6257,0.7922404,-0.1261717,0.5877255,9
7.36,-31.53521,1.36074,-29.21527,0.0437469249553115,-0.0093334549905135,0.5053020193563618,20.35308,111.1747,186.7771,0.8046883,-0.1476726,0.5639014,9
7.38,-31.57176,1.160024,-29.13823,-0.0134958378703951,-0.0486234862494948,0.5190472496761087,20.48974,106.9342,185.604,0.7845834,-0.1444016,0.5920792,9
7.4,-31.47991,1.347204,-29.11556,-0.0708322028604215,-0.0875996746450339,0.5365740900243252,22.64222,110.4759,187.5755,0.7963882,-0.1648989,0.5685082,9
7.42,-31.51463,1.144612,-29.08695,-0.1160611560812716,-0.1001233055632369,0.5517853558681818,24.22169,104.8659,184.6919,0.7691138,-0.159531,0.6024272,9
7.44,-31.4291,1.333828,-29.04985,-0.1465288756116618,-0.0818628952846313,0.5658581372182829,26.1469,108.6668,186.9597,0.7819022,-0.1796804,0.5780621,9
7.46,-31.4331,1.127298,-28.97673,-0.1877382295567886,-0.118969782472493,0.5800773558277328,29.70124,101.4327,184.3823,0.7414154,-0.1907653,0.6191481,9
7.48,-31.34963,1.31851,-28.93105,-0.2104437402563692,-0.0961409178898623,0.5845176088193287,31.61725,105.4978,186.7842,0.7547848,-0.2099293,0.5942252,9
7.5,-31.36795,1.116601,-28.8736,-0.2418897572167249,-0.1281955534219474,0.5809156012741825,33.65034,100.8266,185.2934,0.7283669,-0.2183188,0.619616,9
7.52,-31.2775,1.309994,-28.84145,-0.2524576578103299,-0.100957641966609,0.5703518344463432,35.86848,104.7743,187.2838,0.740203,-0.2354272,0.5949889,9
7.54,-31.23026,1.113823,-28.81053,-0.262382846502843,-0.0994891327798825,0.5573126273274878,41.58144,99.4853,183.0949,0.7070011,-0.2485634,0.611237,9
7.56,-31.14838,1.307304,-28.76195,-0.2674929528875265,-0.0958963999486327,0.5401907512335131,43.51403,104.0337,185.79,0.7195887,-0.2648033,0.5856153,9
7.58,-31.13572,1.108728,-28.71696,-0.2655882378586693,-0.0904723451502332,0.5149157131642963,43.62574,100.9072,183.4128,0.7085372,-0.2577969,0.5993866,9
7.6,-31.04821,1.303843,-28.68212,-0.2601508905831289,-0.0833098411214182,0.4895987771303112,45.75201,105.2477,185.7298,0.7194557,-0.2722815,0.5740412,9
7.62,-31.03432,1.107985,-28.66039,-0.2450175537200403,-0.0758421704251654,0.4621640627850722,47.17868,99.26586,181.6856,0.6943552,-0.2694312,0.5979807,9
7.64,-30.9176,1.10307,-28.61552,-0.2248052477949715,-0.0369118000037705,0.427460840606769,52.53275,96.8506,179.9777,0.6709052,-0.2935405,0.5950128,9
7.66,-30.83087,1.297308,-28.58505,-0.1867790905247717,-0.0532880627299871,0.3923243783597545,54.7664,101.6291,182.3937,0.6820346,-0.3049173,0.5683601,9
7.68,-30.74483,1.489328,-28.55505,-0.1421383203370001,-0.012139645375399,0.3608131687008131,56.82538,106.9126,185.3542,0.6926234,-0.3160152,0.540995,9
7.7,-30.61587,1.102476,-28.54129,-0.091297051458568,-0.0229593421651822,0.3247880359190604,60.56529,93.0419,174.2072,0.6433457,-0.3148743,0.5749501,9
7.72,-30.43138,1.117763,-28.52438,-0.0258949684176066,-0.0572795949785843,0.291619242740512,61.63976,85.40237,168.457,0.6173156,-0.3160434,0.5929795,9
7.74,-30.35678,1.304016,-28.48388,0.0303374926354731,-0.0079852335036004,0.2628434311216461,63.82313,91.29142,171.9396,0.6314363,-0.3259747,0.5654036,9
7.76,-30.24677,1.144955,-28.4413,0.0886653925299736,0.0396035141204489,0.2320470262384071,57.74959,86.9579,171.2494,0.627519,-0.3034147,0.6082144,9
7.78,-30.16391,1.328391,-28.41891,0.1500239587121514,0.013715169060928,0.204710997090125,60.12898,91.63245,173.4928,0.6394463,-0.3133731,0.5818325,9
7.8,-30.08181,1.510076,-28.39818,0.2011303197765408,0.0419236497319547,0.1813693011272286,62.39864,96.85975,176.3496,0.6505635,-0.3231664,0.5549378,9
7.82,-29.97125,1.196318,-28.38868,0.2578224050330147,0.068615375329414,0.1537974331465799,48.0591,90.08903,174.0403,0.6604103,-0.2537272,0.6294711,9
7.84,-29.89702,1.377452,-28.35353,0.3172671361994346,0.0481820502721806,0.1330244849208703,50.08397,94.88264,176.7321,0.6752362,-0.26714,0.6036279,9
7.86,-29.8177,1.55631,-28.33227,0.3618996003025092,0.0958049620779238,0.111860338523356,52.16348,99.64469,179.3065,0.6879472,-0.2794878,0.577418,9
7.88,-29.68927,1.251583,-28.29539,0.4057439758879471,0.1645638501026514,0.094081677733222,25.90446,94.50406,176.5923,0.7198701,-0.1307932,0.6563185,9
7.9,-29.60529,1.428396,-28.25716,0.4353406428647668,0.159511525367037,0.0787860556524377,28.0631,98.27522,178.9091,0.7351943,-0.1516336,0.6329492,9
7.92,-29.49895,1.270055,-28.20296,0.4674618052950694,0.1282313137079492,0.0707854292048675,7.745292,97.75916,178.0911,0.7522446,-0.03189081,0.6552036,9
7.94,-29.44545,1.277957,-28.13276,0.5054283001170456,0.1660199687870504,0.0626960274605719,1.171938,99.07767,179.6588,0.7608227,-0.004371145,0.6488726,9
7.96,-29.35212,1.452096,-28.10836,0.5431965232557383,0.1990036128681937,0.0557221264725464,3.471452,101.8097,181.5206,0.775422,-0.02939285,0.6305772,9
7.98,-29.29788,1.284409,-28.06911,0.5690377270219793,0.1575020640553997,0.0564599646766996,353.4662,100.3995,179.802,0.7669678,0.03780326,0.6391476,9
8.0,-29.20218,1.45686,-28.04822,0.5953313266846578,0.1100535573258005,0.059826243908795,355.816,102.8918,181.668,0.7817469,0.01137355,0.6223567,9
8.02,-29.06668,1.295784,-27.99502,0.6224180379257103,0.1555776460853337,0.0550371430684175,352.4998,100.429,179.7988,0.7667254,0.04319973,0.6386327,9
8.04,-28.97883,1.467863,-27.9551,0.6382211819180332,0.1492959096878225,0.0611601248697146,354.5295,102.8093,182.1951,0.781108,0.01480966,0.6222765,9
8.06,-28.95699,1.289103,-27.89371,0.644336516466876,0.1160101032659453,0.0699516962027475,352.7255,101.0497,181.1828,0.7707207,0.03237759,0.6339241,9
8.08,-28.8612,1.459796,-27.87383,0.646141504504183,0.1287649049882656,0.0712192955497665,355.0463,103.5679,183.1187,0.7853864,0.00536458,0.6168979,9
8.1,-28.8525,1.263955,-27.85231,0.646247517389865,0.1368935235325878,0.0730931551230211,355.4183,101.0293,181.0669,0.7713737,0.01823664,0.635058,9
8.12,-28.76905,1.438314,-27.80958,0.628372380076037,0.1201055361958742,0.0750925312456769,357.3044,103.5701,183.5447,0.7855526,-0.009749385,0.6175749,9
8.14,-28.71845,1.247941,-27.73927,0.6190959038847237,0.1298818390688794,0.0779480166799992,1.033973,100.5301,182.1338,0.7687379,-0.02008503,0.6392294,9
8.16,-28.6314,1.422138,-27.69691,0.6093522076418645,0.1354082014424103,0.0813200943217853,3.044486,103.2774,184.578,0.7825525,-0.04777965,0.620736,9
8.18,-28.64394,1.242499,-27.6287,0.5753675170539796,0.1176613383494756,0.0902136510103952,5.055637,100.8417,184.1523,0.7684717,-0.05597769,0.6373375,9
8.2,-28.54636,1.416027,-27.60309,0.5350717784566865,0.0998115519430788,0.0932663414878622,7.428824,103.765,186.1812,0.7817959,-0.08225945,0.6178318,9
8.22,-28.53437,1.218523,-27.52923,0.4951964990955022,0.0814667366791421,0.0976414069213067,11.48168,100.5384,183.9889,0.7625102,-0.09052918,0.6382676,9
8.24,-28.43951,1.395426,-27.4964,0.4416650765642971,0.061809473408554,0.1014415370770942,13.78707,103.6637,186.1516,0.775413,-0.1159451,0.6176834,9
8.26,-28.45711,1.200305,-27.45565,0.3894667862041654,0.0423430174825497,0.105299016485798,14.36178,101.2716,184.2768,0.7635734,-0.1078492,0.6324409,9
8.28,-28.36764,1.380324,-27.41215,0.352089955716953,0.0747561931519159,0.1056049142943109,16.44602,104.4596,186.6913,0.7759012,-0.1331112,0.6117635,9
8.3,-28.27397,1.557556,-27.381,0.2827789469461863,0.0255792208573128,0.1084936463428438,18.6133,107.7055,189.0028,0.78693,-0.157639,0.5905517,9
8.32,-28.36599,1.17565,-27.33076,0.2179393010740966,0.005124060949545,0.1037193131128053,18.37507,100.3098,184.6694,0.7531333,-0.1330917,0.6369632,9
8.34,-28.35097,1.159269,-27.23317,0.156361831219713,-0.0141386908824626,0.1001654825727005,20.76318,97.30185,185.5962,0.7317173,-0.154955,0.6556589,9
8.36,-28.25371,1.345212,-27.19832,0.0894577655989956,-0.0328009398600742,0.0945915462527144,23.30192,100.4249,187.4863,0.7425477,-0.1780918,0.6355512,9
8.38,-28.27789,1.144594,-27.1762,0.026822968424232,-0.0496148968411524,0.0895210520531391,24.34562,95.57191,184.604,0.7177126,-0.1706435,0.6625382,9
8.4,-28.18812,1.33295,-27.12815,-0.0133123817755573,-0.0104994992362855,0.0771911931391655,26.68628,98.90508,186.8003,0.729156,-0.1936131,0.6418164,9
8.42,-28.18284,1.127345,-27.05633,-0.0804115945523786,-0.0558987632632029,0.0666817315704961,29.80965,92.26572,184.3305,0.6894602,-0.2044413,0.6762007,9
8.44,-28.09378,1.318566,-27.00488,-0.1303455810978353,-0.0706536318111673,0.0597120114688527,32.23678,95.73651,186.4965,0.7007545,-0.2263102,0.6550978,9
8.46,-28.0944,1.118038,-26.95764,-0.1738166437951558,-0.0828766692491197,0.051940248284505,34.14838,91.56962,184.7589,0.6760449,-0.2330187,0.6747816,9
8.48,-27.99957,1.311871,-26.91966,-0.2128517834599499,-0.0930466347893636,0.037083136930887,36.79302,94.86814,186.4604,0.6857215,-0.2525179,0.6539462,9
8.5,-27.99465,1.115723,-26.91383,-0.2446170025289893,-0.1006377370749196,0.0199371787599833,39.43243,90.04272,183.2753,0.6588139,-0.257395,0.6719527,9
8.52,-27.90407,1.310153,-26.8689,-0.260521738633662,-0.1067091698321324,0.0032153500950888,41.99298,93.62355,185.2521,0.6687478,-0.2761569,0.6502535,9
8.54,-27.85138,1.113597,-26.83128,-0.2752849556749734,-0.1387278344912892,-0.0135700229025292,44.56322,88.61179,181.5203,0.6426773,-0.2798852,0.665642,9
8.56,-27.75783,1.309965,-26.79322,-0.2775071439132244,-0.1115823224243754,-0.0308184162170026,47.26418,92.12436,183.2409,0.6515758,-0.2966934,0.6435964,9
8.58,-27.72277,1.112145,-26.7759,-0.2724586936084798,-0.084170250063513,-0.0513281690769873,47.9621,87.23954,179.9102,0.6305501,-0.2937379,0.661224,9
8.6,-27.63324,1.307833,-26.73168,-0.2566703686309228,-0.0862097819721574,-0.0702158271174844,50.5646,91.07821,181.9582,0.640158,-0.3101194,0.6384482,9
8.62,-27.5817,1.106138,-26.72461,-0.2344610092027013,-0.0865175347063112,-0.090879127313852,53.15915,85.107,178.2775,0.609691,-0.3204771,0.6541702,9
8.64,-27.49539,1.299972,-26.67653,-0.195243224774376,-0.0302521416335927,-0.1115019208896441,55.72215,89.37705,180.7101,0.6196628,-0.3360898,0.6305552,9
8.66,-27.30568,1.103844,-26.63252,-0.1424345558435114,-0.0259793290296597,-0.1219200772112576,61.10139,77.92365,172.0384,0.5676438,-0.3566903,0.645819,9
8.68,-27.21402,1.292779,-26.59819,-0.0877009382784517,-0.0459589686269732,-0.1316108758171066,63.96045,81.56128,173.6897,0.5752679,-0.36994,0.6222803,9
8.7,-27.10843,1.117558,-26.56717,-0.0281447128101364,-0.0672251507563228,-0.1433686549645494,61.76036,71.93346,168.0883,0.5444409,-0.360854,0.6595986,9
8.72,-26.93503,1.144091,-26.50136,0.0391197460743768,-0.0511759926137808,-0.1429732407800745,58.33132,69.21331,168.5495,0.5334733,-0.3496378,0.6875209,9
8.74,-26.84088,1.325135,-26.46953,0.0950006082896606,-0.0095232722874916,-0.1430945258954707,61.30902,71.97116,169.2692,0.5418341,-0.3634882,0.6650273,9
8.76,-26.74767,1.503817,-26.43955,0.1544997920743562,0.0300293571045181,-0.147232604466323,64.25814,75.14526,170.4332,0.5497336,-0.3769884,0.6418191,9
8.78,-26.64366,1.195395,-26.38042,0.2117535657098517,0.1157899149135836,-0.1558443856901354,48.23701,74.05785,173.7264,0.5666733,-0.2956528,0.7140817,9
8.8,-26.56821,1.209955,-26.3525,0.2628328863774847,0.1067824854441949,-0.1552189190886705,43.2481,74.5444,174.3701,0.5767038,-0.2652497,0.72791,9
8.82,-26.44753,1.381423,-26.34356,0.3172563978320064,0.09499812091408,-0.155345266674876,46.71521,76.56673,174.2146,0.5837588,-0.2821101,0.7073135,9
8.84,-26.34021,1.250305,-26.27135,0.3654093901729305,0.1070982075646651,-0.1462806029269527,26.12098,77.57791,176.3232,0.6155853,-0.156474,0.7543636,9
8.86,-26.22855,1.419744,-26.24276,0.4099551231585234,0.0940813377737444,-0.1375908704471258,29.38573,80.1711,177.1739,0.6274699,-0.1786347,0.7358126,9
8.88,-26.11998,1.586128,-26.21407,0.457691087503107,0.077666175155255,-0.1294422654667255,32.58065,82.97097,178.3495,0.6387962,-0.2009533,0.7162977,9
8.9,-26.11519,1.268215,-26.16312,0.5004455008656366,0.1268547447832078,-0.1242051321017458,8.004467,81.55656,177.8987,0.6524004,-0.04089607,0.7544332,9
8.92,-25.98997,1.275558,-26.09573,0.5252513055465715,0.1022580409666218,-0.1127612030144145,358.3155,82.49345,178.4597,0.6590235,0.0199125,0.7518587,9
8.94,-25.86424,1.440948,-26.08606,0.5488061701706677,0.1239371810679539,-0.1064960685055447,1.816695,84.68237,178.9377,0.673539,-0.005473993,0.7389235,9
8.96,-25.7554,1.60414,-26.05033,0.5727913182571234,0.1224270901388153,-0.0961768355542647,4.931956,86.99388,180.4252,0.6875579,-0.03376295,0.7248443,9
8.98,-25.72194,1.291823,-25.98558,0.5969453004743173,0.1180360845619589,-0.0867935514234496,352.1337,84.15735,179.2488,0.668224,0.05529255,0.7407627,9
9.0,-25.60394,1.454933,-25.95968,0.6073533721209725,0.1120250868602478,-0.0757219842438838,355.4153,86.2455,180.356,0.6831041,0.02707219,0.7292185,9
9.02,-25.49055,1.614951,-25.93221,0.6174529508966575,0.1035369280215177,-0.0647093110177086,358.585,88.38783,181.7291,0.6970901,-0.001665115,0.7167186,9
9.04,-25.483,1.269832,-25.82725,0.6057884440690318,0.0899295270472686,-0.0507098468222957,354.02,83.77547,180.2595,0.6668506,0.03732204,0.7433603,9
9.06,-25.42621,1.261744,-25.80327,0.5940364016460511,0.07434127941611,-0.0395765807258472,355.7608,83.77004,180.6722,0.6673313,0.02362108,0.7438192,9
9.08,-25.29942,1.425067,-25.79609,0.5732960497696045,0.0588274110389795,-0.030080125654865,359.3001,85.95634,181.1945,0.6817164,-0.002638238,0.7315168,9
9.1,-25.18359,1.585603,-25.77475,0.5521315589630298,0.0417037100909293,-0.0204159056634805,2.594477,88.19125,182.3692,0.6951949,-0.03063748,0.7181677,9
9.12,-25.25469,1.245947,-25.70534,0.5261426174075137,0.0266157000334972,-0.0022695924599211,1.365732,83.84129,181.7687,0.667837,-0.01917743,0.7440524,9
9.14,-25.12847,1.410847,-25.69429,0.5018309934981162,0.0102475982604409,0.0130301976561457,4.920299,86.08632,182.3816,0.6811209,-0.04553561,0.7306175,9
9.16,-25.01407,1.572932,-25.66734,0.461764107883202,-0.0053272707056105,0.0246617337394794,8.192,88.48386,183.7229,0.6938782,-0.07374882,0.7158121,9
9.18,-25.09892,1.226151,-25.56585,0.4230786753764821,-0.0213737461412745,0.0333662698127192,10.28399,82.51012,183.3802,0.6544856,-0.08671866,0.7501735,9
9.2,-25.0895,1.217467,-25.53855,0.3998702828638745,0.0116472339407426,0.0350393962915549,11.8175,81.94802,183.536,0.6495245,-0.0978099,0.752721,9
9.22,-24.96681,1.389931,-25.52055,0.3396413553452078,-0.034751661003008,0.0411035912319173,15.32621,84.32876,184.1428,0.6612577,-0.1228219,0.7373577,9
9.24,-25.00273,1.190732,-25.45102,0.2804601048386246,-0.0535494480632678,0.0444918535304172,16.02404,81.43791,183.9711,0.6419336,-0.1279574,0.7532202,9
9.26,-24.88252,1.369063,-25.42907,0.2229380588019096,-0.0711601210094895,0.0468004687437582,19.51722,83.85809,184.5815,0.6529747,-0.1523231,0.7371492,9
9.28,-24.76362,1.54378,-25.40988,0.1831844903553712,-0.0354039456775061,0.0466916474675365,22.98114,86.37399,185.3657,0.6631313,-0.1764791,0.7201089,9
9.3,-24.88407,1.167885,-25.35742,0.1117908775503258,-0.0818819012686115,0.0475281717253297,20.12127,80.13013,184.2473,0.6283706,-0.157086,0.7571954,9
9.32,-24.88791,1.160443,-25.33415,0.0430869240596227,-0.1275555005817141,0.0481496262180072,21.55488,78.29077,184.2627,0.6143325,-0.1679866,0.76573,9
9.34,-24.7706,1.34674,-25.30817,0.0042639463877405,-0.0922449695286081,0.0455595285445999,25.04531,80.67732,184.6713,0.6246448,-0.1908865,0.7492002,9
9.36,-24.81236,1.138673,-25.24935,-0.0487934338791284,-0.1113758745380134,0.0393217282939808,26.298,75.09766,184.1229,0.5865874,-0.2015879,0.776535,9
9.38,-24.69794,1.330631,-25.21892,-0.1097192509040132,-0.1560503255353691,0.0320097966439307,29.76705,77.43623,184.3742,0.5964159,-0.2233303,0.7596381,9
9.4,-24.58369,1.519126,-25.19088,-0.1484278839032558,-0.1415543367874378,0.026232201465786,33.22267,79.87809,184.8022,0.6054574,-0.2447708,0.7417732,9
9.42,-24.6868,1.124571,-25.15466,-0.1914132655368203,-0.1828497834080571,0.0221620545881564,32.09217,72.50587,183.6408,0.5609441,-0.2408422,0.7797975,9
9.44,-24.62098,1.118601,-25.10117,-0.2161999263845397,-0.1637447099366879,0.0122163264345238,37.39504,70.38874,183.0621,0.53874,-0.2764652,0.7787334,9
9.46,-24.50971,1.316818,-25.06919,-0.2350429526060464,-0.1441438895748117,-0.00105603963704,40.79718,72.50622,182.9131,0.5469463,-0.2950723,0.7608379,9
9.48,-24.50413,1.115414,-25.04403,-0.2535552244500527,-0.1523660827821394,-0.0160963303594368,41.85606,71.03519,182.4339,0.5363304,-0.3021931,0.7644774,9
9.5,-24.39398,1.314862,-25.01281,-0.2757858327193312,-0.1863630503543968,-0.0331087820329512,45.22924,73.13527,182.2787,0.5437142,-0.3197118,0.74581,9
9.52,-24.32766,1.11355,-24.94995,-0.2787507579954398,-0.1609639707833906,-0.0464411489647016,46.38092,70.40366,180.4517,0.5286087,-0.3238616,0.7519926,9
9.54,-24.25563,1.112757,-24.91478,-0.2754431825206049,-0.1922547293281195,-0.0560520977808369,48.06179,70.36237,179.6248,0.5273126,-0.3311175,0.7457203,9
9.56,-24.14738,1.312664,-24.88438,-0.2602841743296853,-0.1643177792367659,-0.0668601303259843,51.37299,72.36349,179.3636,0.5339446,-0.3468959,0.7259533,9
9.58,-24.03872,1.509418,-24.85604,-0.2394640968907548,-0.1365110876595538,-0.0791117124230949,54.68715,74.49605,179.2815,0.5399212,-0.362255,0.7053247,9
9.6,-23.97593,1.103531,-24.79699,-0.2034461709976835,-0.1365048800713485,-0.0830484136317739,56.51592,68.87378,176.3178,0.5103928,-0.3742665,0.7174835,9
9.62,-23.86832,1.299032,-24.77113,-0.1665510077520724,-0.16163948447982,-0.0879633685767289,59.78749,70.58858,175.7541,0.5156291,-0.3879514,0.6964486,9
9.64,-23.7607,1.491494,-24.74736,-0.1183129780667386,-0.1281192782044805,-0.0902227589932378,63.06556,72.41959,175.3436,0.5202416,-0.4011736,0.6746011,9
9.66,-23.56951,1.117916,-24.62909,-0.0547275758372136,-0.1433570818820501,-0.0849292324960924,61.82734,58.96367,167.3096,0.4690741,-0.3978175,0.7143304,9
9.68,-23.48273,1.12873,-24.58799,-0.0012530759029321,-0.10195603292507,-0.0829817850386236,60.96567,57.44886,166.8505,0.4623818,-0.394507,0.7228467,9
9.7,-23.37447,1.312408,-24.56762,0.0554147482181095,-0.0619364334779731,-0.0831325633945843,64.07366,57.92966,164.9302,0.4678357,-0.4062731,0.7015837,9
9.72,-23.19729,1.178063,-24.46564,0.118014434514563,-0.0386561238079425,-0.0742717135745931,52.08435,61.18826,171.285,0.4846718,-0.3420807,0.754186,9
9.74,-23.08649,1.355628,-24.4478,0.1725403536969816,0.0074928448582004,-0.0723623653011191,55.23527,62.51961,170.2311,0.4918657,-0.3556801,0.7341923,9
9.76,-22.97701,1.530164,-24.4325,0.2293644050341412,0.0511341870906554,-0.0727524522824336,58.39895,63.85538,169.2245,0.4984836,-0.368872,0.7133691,9
9.78,-22.86911,1.701792,-24.41972,0.276825316744969,0.0238332796155546,-0.0704202107772729,61.57342,65.20811,168.2738,0.5045226,-0.3816428,0.6917412,9
9.8,-22.81342,1.239707,-24.33286,0.325232612357436,0.0655766527821127,-0.0744224336723458,31.97124,69.46362,175.4478,0.5562612,-0.2043975,0.7831939,9
9.82,-22.69163,1.409563,-24.31669,0.3779014186440954,0.1286263609511039,-0.0804432219305204,35.42258,71.51171,175.2245,0.5664385,-0.2234744,0.7649725,9
9.84,-22.60413,1.263893,-24.24479,0.4184340498626402,0.1208261087100018,-0.0735805179559534,13.82378,73.7331,177.2362,0.5977417,-0.08188692,0.7922485,9
9.86,-22.53315,1.268566,-24.21338,0.4514497446359917,0.1331772693257795,-0.072327077934601,8.048025,75.17937,177.6225,0.6095214,-0.04297005,0.7893879,9
9.88,-22.40872,1.435968,-24.19883,0.4830233788697771,0.1445227264585861,-0.0731388929824903,11.53736,77.36835,177.76,0.6232767,-0.06629045,0.7752738,9
9.9,-22.28649,1.599648,-24.18729,0.5125150473398836,0.1518771153526438,-0.0761267197491823,15.01787,79.59544,178.0373,0.6362167,-0.08951977,0.7601762,9
9.92,-22.29679,1.279245,-24.11183,0.5379719805260139,0.1583885859742909,-0.0745517258705943,354.4274,78.46104,178.4806,0.6311398,0.04602627,0.7740317,9
9.94,-22.16959,1.443881,-24.09803,0.5599154124477304,0.1874425816936824,-0.080675427332705,357.9681,80.59798,178.8146,0.6465003,0.02021155,0.7626379,9
9.96,-22.08116,1.293712,-24.00275,0.5770053493111944,0.2133363485403848,-0.0862934917090889,352.8243,78.51714,179.3336,0.6312885,0.05212617,0.7729977,9
9.98,-21.95255,1.45489,-23.98625,0.5704208927501342,0.1631333370342062,-0.0806511841887749,356.389,80.62926,179.7873,0.6466177,0.02522421,0.7621611,9
10.0,-21.95924,1.28276,-23.93792,0.5591077517272969,0.1567352179533092,-0.0802198863474439,353.759,78.97252,179.8313,0.6348879,0.04294714,0.7706831,9
10.02,-21.83286,1.444726,-23.92108,0.5444952967638996,0.1497807632274258,-0.0809987640638927,357.2797,81.08417,180.328,0.6498723,0.01617783,0.7596675,9
10.04,-21.81136,1.254544,-23.8511,0.5106548099167987,0.0915068812418531,-0.0737201201515085,357.4258,79.00163,181.2014,0.6360755,0.01066371,0.7712287,9
10.06,-21.68627,1.41866,-23.8341,0.4894875852560276,0.106391720610999,-0.0790268472834068,0.9644756,81.14114,181.6764,0.650198,-0.01590634,0.7595774,9
10.08,-21.69,1.245639,-23.78713,0.4734091693047508,0.1449084522955881,-0.0856017332128993,1.424004,79.86505,181.666,0.641629,-0.01885867,0.7667765,9
10.1,-21.56237,1.410067,-23.76979,0.4189747404249506,0.1093850012069047,-0.0842758027900645,5.049253,82.03574,182.1752,0.6549084,-0.04567433,0.7541855,9
10.12,-21.55346,1.231887,-23.69459,0.3433303039081781,0.047638758135995,-0.0855975180569594,8.259391,79.9273,182.9434,0.6390051,-0.07163104,0.7653981,9
10.14,-21.427,1.400256,-23.67614,0.293051898854646,0.05977209054405,-0.0934122055793906,11.87454,82.1515,183.4384,0.6508982,-0.09754902,0.7514994,9
10.16,-21.45477,1.217259,-23.6355,0.2056052064412434,0.0203789022532043,-0.1105127248831996,11.88789,80.80743,183.4317,0.6420343,-0.0981254,0.7590724,9
10.18,-21.33004,1.389383,-23.61746,0.117429014464514,-0.018174939081815,-0.1269990419900843,15.47173,83.05821,183.928,0.6531271,-0.1232251,0.7444287,9
10.2,-21.20717,1.557692,-23.60227,0.0573908450279119,0.0169603023977867,-0.1541692398779419,19.03243,85.38351,184.5821,0.6633309,-0.1481527,0.7287995,9
10.22,-21.34107,1.190786,-23.55126,-0.0468705911100117,-0.0014687053802037,-0.2007038136665744,16.07806,81.06456,183.8434,0.6395638,-0.1278087,0.7551955,9
10.24,-21.30746,1.175643,-23.49926,-0.1497623200316158,-0.0174975147717098,-0.2437722330156542,18.73191,79.15481,184.1071,0.6237282,-0.1478795,0.7637166,9
10.26,-21.18755,1.358007,-23.47669,-0.2284809863014874,0.0210309771123165,-0.2911585176178564,22.26533,81.41622,184.497,0.6336979,-0.1713582,0.7481458,9
10.28,-21.06867,1.536733,-23.45666,-0.3485454653364721,-0.0227460816615226,-0.3494405082955163,25.78016,83.76495,185.052,0.6428288,-0.194608,0.7316126,9
10.3,-21.18844,1.152904,-23.41105,-0.464956980559982,-0.0647703096411464,-0.4036965786769699,23.06264,77.42876,184.1236,0.606806,-0.1779259,0.7685273,9
10.32,-21.07146,1.341335,-23.38615,-0.542767338123451,-0.0261539824744484,-0.458891852630404,26.56083,79.65778,184.387,0.6161596,-0.2001436,0.7525073,9
10.34,-20.95502,1.526242,-23.3636,-0.6342739676556217,-0.0428512246144252,-0.5196810249228889,30.0455,81.97746,184.8157,0.6247141,-0.2220982,0.7355396,9
10.36,-21.04455,1.128559,-23.29424,-0.7327054241650983,-0.0848008443336793,-0.5865580484333393,30.05555,73.43849,183.7773,0.5702834,-0.2267561,0.77885,9
10.38,-21.01519,1.124701,-23.26781,-0.8013821933268974,-0.0661398430250961,-0.654203010816508,32.07376,72.24404,183.5974,0.5592824,-0.2408229,0.7810578,9
10.4,-20.9029,1.321303,-23.23745,-0.8631648667398926,-0.0472277864282313,-0.7186009246227592,35.50123,74.33186,183.5576,0.5675458,-0.2606942,0.7643031,9
10.42,-20.86065,1.116984,-23.17991,-0.9478757156089146,-0.1145986541831979,-0.7896855699233813,39.62949,71.11443,182.748,0.5403162,-0.2888114,0.7698755,9
10.44,-20.74987,1.31582,-23.14911,-0.9932220900521856,-0.094541784018741,-0.8578202246224391,43.02197,73.11654,182.5912,0.5473508,-0.3069904,0.7520502,9
10.46,-20.63878,1.511361,-23.12035,-1.0357464886942425,-0.1003149722170577,-0.9382293457744209,46.41555,75.22402,182.5968,0.5537087,-0.3247943,0.7333241,9
10.48,-20.65935,1.114286,-23.08483,-1.0697244538808437,-0.1039990176632917,-1.0147790144477455,44.69448,72.00553,181.2258,0.5403554,-0.3133907,0.7505788,9
10.5,-20.61758,1.113625,-23.06021,-1.092766438547608,-0.1061593606536165,-1.09762642426013,46.35733,70.92537,180.4157,0.5321759,-0.3225171,0.7495729,9
10.52,-20.50922,1.313678,-23.03057,-1.1069827690898857,-0.1064952143417846,-1.176073020204718,49.67451,72.84013,180.1703,0.5382833,-0.3388024,0.7306261,9
10.54,-20.40401,1.10702,-22.96168,-1.099274850953691,-0.1057009603875471,-1.263000200644063,53.31007,68.98291,177.7535,0.5132522,-0.359763,0.731495,9
10.56,-20.29665,1.304946,-22.93311,-1.0818577751513216,-0.0737764469767542,-1.343536237400241,56.59791,70.7007,177.2953,0.5184107,-0.3745364,0.711477,9
10.58,-20.18908,1.499799,-22.90649,-1.0613461648812366,-0.042671680903345,-1.4165249834478693,59.89119,72.53146,176.9894,0.5229576,-0.3888741,0.6906456,9
10.6,-20.07298,1.104312,-22.8336,-1.0332278259200174,-0.0943087994981289,-1.4927231089714517,61.2293,64.32265,171.3223,0.4894112,-0.3952231,0.7059568,9
10.62,-20.0004,1.108927,-22.79716,-0.9851471320710732,-0.0809008938017913,-1.573645349110974,62.65871,60.08263,168.008,0.4723082,-0.4029758,0.7082081,9
10.64,-19.89343,1.29711,-22.77427,-0.936361292322056,-0.0669794261838703,-1.6458069393419352,65.81853,60.5803,166.2465,0.4765681,-0.4150635,0.686895,9
10.66,-19.72085,1.144132,-22.67617,-0.8872302827048602,-0.055574310372458,-1.708932800471751,58.40027,57.36123,167.9101,0.4616812,-0.3815078,0.7369062,9
10.68,-19.61221,1.325593,-22.65539,-0.8423440225197139,-0.0366112433633024,-1.7849206608226464,61.51492,57.96625,166.2063,0.4671015,-0.3941191,0.7165223,9
10.7,-19.50457,1.504083,-22.63691,-0.7948554270011332,0.00938995564295,-1.8551041469039569,64.63641,58.42184,164.3869,0.4719868,-0.4062886,0.6953459,9
10.72,-19.35992,1.209719,-22.54492,-0.7482769401975862,0.0546595834052722,-1.916577101452428,43.3427,66.52504,174.0138,0.5251361,-0.2817454,0.7654281,9
10.74,-19.23646,1.380791,-22.52628,-0.7037620832293046,0.0749186218733664,-1.9895360329823508,46.8855,68.20685,173.46,0.532361,-0.2995373,0.7457195,9
10.76,-19.11489,1.548128,-22.51044,-0.6636653454002066,0.0718230557205212,-2.0643097939106987,50.43747,69.95552,173.0292,0.5388849,-0.3169402,0.725058,9
10.78,-19.07297,1.249904,-22.46292,-0.6262099039679851,0.0681537355617775,-2.12817825585684,26.20303,72.41514,176.1017,0.5812241,-0.1632271,0.7808701,9
10.8,-18.94769,1.41802,-22.44861,-0.5917260223988148,0.0610450134102931,-2.180862167309121,29.75334,74.43089,175.99,0.5913364,-0.1838823,0.7637693,9
10.82,-18.82456,1.58233,-22.43716,-0.5577158935161539,0.0686004763809202,-2.235457388967208,33.30546,76.51402,176.0225,0.6006725,-0.2043047,0.7456968,9
10.84,-18.76666,1.271733,-22.34277,-0.5278441687651694,0.0767973565486622,-2.279925937478253,2.379646,78.03937,178.0131,0.6296366,-0.005216924,0.7764187,9
10.86,-18.68864,1.275392,-22.31058,-0.4932224995737115,0.0822474398493966,-2.323319186854614,358.4149,78.98689,178.2705,0.6356956,0.02027074,0.7716686,9
10.88,-18.56097,1.440507,-22.29802,-0.4559534425709417,0.1124556311996569,-2.358817224665248,1.985478,81.04782,178.5596,0.6497821,-0.005002475,0.7598194,9
10.9,-18.43575,1.601715,-22.2884,-0.4273602080333076,0.0936515832620241,-2.3890359261470584,5.542295,83.13318,178.9783,0.6630104,-0.03026214,0.7469946,9
10.92,-18.42948,1.291285,-22.2099,-0.4043153490071489,0.0739960317559883,-2.407925402187725,352.2219,80.64888,179.1233,0.6452104,0.05664729,0.7609504,9
10.94,-18.30036,1.45296,-22.19756,-0.3714326963786873,0.0704931853262871,-2.4218705208572344,355.8012,82.65787,179.5522,0.6598253,0.03008781,0.7505157,9
10.96,-18.17393,1.610665,-22.18828,-0.3484213752579979,0.0424187353912857,-2.43273087445401,359.3623,84.68624,180.1048,0.6735622,0.003497053,0.7391093,9
10.98,-18.19245,1.269653,-22.07883,-0.3271352814858879,0.0610593115277113,-2.4437969182371075,354.0999,80.09773,180.0481,0.6426045,0.03912652,0.7644675,9
11.0,-18.16058,1.261735,-22.05103,-0.3140675706599913,0.0792486248051297,-2.4440735481274345,355.7785,79.42799,180.5935,0.6386605,0.02502466,0.7685895,9
11.02,-18.03405,1.424967,-22.03526,-0.3002302905870588,0.0669910188903381,-2.4391741858325413,359.3466,81.45493,181.0311,0.6524636,-0.001549799,0.7577454,9
11.04,-18.0193,1.24583,-21.95447,-0.2933621694516883,0.0565529410734186,-2.4240796421120394,1.415018,78.93342,181.6251,0.6353823,-0.01854483,0.771969,9
11.06,-17.89241,1.410476,-21.93567,-0.289895238806642,0.045954093353123,-2.403844688291122,5.032948,81.00088,182.0865,0.6481121,-0.04519449,0.7600611,9
11.08,-17.76789,1.571211,-21.91989,-0.2927898934919841,0.0373328516744148,-2.373803958918353,8.631076,83.11134,182.6833,0.6599669,-0.07178201,0.7471542,9
11.1,-17.8746,1.231882,-21.85935,-0.2835732193974032,0.0780271068794927,-2.3386898901156945,8.262274,79.46864,182.9387,0.6359376,-0.07173016,0.7679475,9
11.12,-17.87942,1.217318,-21.85903,-0.3037655607331995,0.0377883246346184,-2.295012099721033,11.88565,79.57425,183.4117,0.6338474,-0.09847212,0.7659312,9
11.14,-17.75519,1.389454,-21.83832,-0.313009847526267,0.0506684424293789,-2.249963705961023,15.47553,81.71883,183.882,0.6444277,-0.123728,0.751984,9
11.16,-17.86977,1.199475,-21.89847,-0.3286773517410022,0.0643850628064369,-2.195794006866622,14.75073,81.54733,183.7611,0.6441304,-0.118415,0.7533765,9
11.18,-17.74721,1.375668,-21.87932,-0.351038784057857,0.0472489441974313,-2.1352043193998806,18.31007,83.72033,184.2661,0.6539472,-0.1429379,0.7387307,9
11.2,-17.62619,1.548134,-21.86276,-0.378165969363486,0.0331798349164269,-2.06547928378954,21.84703,85.97465,184.9274,0.662905,-0.1672693,0.7231408,9
11.22,-17.92386,1.168137,-21.9836,-0.4249098247884657,-0.0369449407250433,-1.9844176068051576,20.12381,80.14712,184.1469,0.628617,-0.156539,0.7570254,9
11.24,-17.80513,1.352539,-21.96284,-0.4392342929291697,-0.0536658340022642,-1.903986789594352,23.63288,82.30378,184.505,0.6375544,-0.1793872,0.7417383,9
11.26,-17.68731,1.533379,-21.9444,-0.4440448148151794,-0.0379503661105295,-1.8196576410884029,27.12559,84.54637,185.0215,0.6456787,-0.2020046,0.7255315,9
11.28,-17.87114,1.145146,-22.02185,-0.466634861940979,-0.0777207835291996,-1.7289691193521648,24.87742,80.36948,183.9436,0.6240731,-0.1861382,0.7503757,9
11.3,-17.75043,1.335133,-22.0042,-0.4919569529736469,-0.1151353708474405,-1.6299854174411577,28.5111,81.95332,184.048,0.6285964,-0.2082419,0.7369755,9
11.32,-17.63033,1.521436,-21.98824,-0.4975190791462751,-0.1258173736565179,-1.5297711847100677,32.14237,83.60321,184.2747,0.6323614,-0.2301104,0.7227073,9
11.34,-17.76525,1.124967,-22.03608,-0.5031206178838334,-0.1624775062317404,-1.4211667791524023,32.32214,79.34386,183.4311,0.606475,-0.232501,0.7442839,9
11.36,-17.74083,1.122069,-22.09004,-0.5094540087900574,-0.1971005401227939,-1.3046220392986545,34.90104,79.20552,183.1174,0.6016128,-0.2475102,0.7399501,9
11.38,-17.62559,1.319564,-22.07713,-0.4933085204547986,-0.2024351993454256,-1.1902126092065917,38.39871,80.25125,182.8544,0.6021688,-0.2665351,0.7271591,9
11.4,-17.51054,1.513718,-22.0654,-0.4632397620084587,-0.1755358442471519,-1.0684289796728614,41.89758,81.32947,182.6631,0.6020924,-0.2852704,0.7136195,9
11.42,-17.6013,1.115465,-22.12772,-0.4425632389021279,-0.2047543763516477,-0.9441800904778144,41.92324,82.28057,182.4174,0.6085451,-0.2823161,0.7080694,9
11.44,-17.48909,1.314958,-22.119,-0.4090928633094566,-0.2017470487485289,-0.8154188142931109,45.32809,83.32874,182.1986,0.607797,-0.2995753,0.6941521,9
11.46,-17.46428,1.113461,-22.20058,-0.3726949471043577,-0.1966980455900735,-0.6811221670384171,46.38353,84.51871,180.5026,0.6168612,-0.2941701,0.6814567,9
11.48,-17.35387,1.313458,-22.19609,-0.3388813755701807,-0.2500256693575921,-0.5414978462397113,49.72697,85.5438,180.2718,0.615405,-0.3101031,0.6666999,9
11.5,-17.33382,1.109752,-22.27194,-0.2834883868138804,-0.2156371323028565,-0.397957278876285,50.67811,85.26253,178.8436,0.6152639,-0.3086791,0.6619852,9
11.52,-17.22485,1.308772,-22.27214,-0.2167345520928796,-0.2080081404773458,-0.2472670059655013,53.97722,86.14256,178.4466,0.6129749,-0.3232334,0.6466897,9
11.54,-17.06501,1.101987,-22.33131,-0.1374952232485307,-0.2257921051673621,-0.0841402384058045,59.67525,83.99072,174.2045,0.598329,-0.3399613,0.6270269,9
11.56,-16.98048,1.295251,-22.31761,-0.0562722068863623,-0.184106122891235,0.075904910883553,62.29346,85.26548,174.7094,0.5966062,-0.3533741,0.6128153,9
11.58,-16.90354,1.487045,-22.30095,0.0263331338875649,-0.1939830489904711,0.2422685660954346,64.66976,87.15705,175.7418,0.5964485,-0.3655671,0.5979768,9
11.6,-16.79169,1.119738,-22.36282,0.1094981017264313,-0.2053521772225396,0.4105650013928676,60.94057,78.82932,169.4631,0.5809007,-0.3398603,0.6334962,9
11.62,-16.6364,1.148384,-22.40789,0.188820583089325,-0.1803820613074628,0.5761550761056724,57.35833,77.66003,169.9858,0.580621,-0.3244118,0.6545703,9
11.64,-16.56532,1.335586,-22.39483,0.2786467987205954,-0.1481745329018536,0.7482984726269488,59.51993,79.01598,170.2867,0.5827211,-0.3348324,0.6406401,9
11.66,-16.49469,1.521511,-22.38254,0.3676710303841928,-0.1164378063165712,0.9210858798656494,61.67669,80.49419,170.7225,0.5845653,-0.3451183,0.6264215,9
11.68,-16.36574,1.201139,-22.42553,0.4433055989809675,-0.0825078729177474,1.083170283908598,47.32087,82.81904,174.4941,0.6195933,-0.2715417,0.6734142,9
11.7,-16.28829,1.383913,-22.41643,0.5180952087243325,-0.0494868917219691,1.2457080176933686,49.58629,84.37397,174.941,0.6227729,-0.2835064,0.6595775,9
11.72,-16.21156,1.565229,-22.40833,0.5796135635866584,-0.0648138360097735,1.4043080264663912,51.84122,86.03064,175.5061,0.625625,-0.2953117,0.6454187,9
11.74,-16.06721,1.25934,-22.45737,0.6329541509292158,-0.0350868562872426,1.55464541371739,24.9282,87.87262,176.9858,0.6813585,-0.1375473,0.6989577,9
11.76,-15.99892,1.269122,-22.52648,0.681440787428381,-0.0058743443164568,1.7041577236005725,18.38845,88.88663,177.6987,0.6933588,-0.100172,0.7023824,9
11.78,-15.91709,1.448415,-22.51377,0.713637442273743,-0.0259943658274589,1.8506228227090065,20.67152,90.42243,178.4275,0.6998612,-0.1168054,0.6912513,9
11.8,-15.83612,1.626108,-22.50237,0.7523238403252952,0.0205026501505532,1.9917113893041296,22.93316,92.008,179.221,0.7059525,-0.1332893,0.6797565,9
11.82,-15.78985,1.280837,-22.50584,0.7721290187300645,0.0187331599805198,2.1283478370722326,1.189836,91.2348,178.6052,0.7146821,0.001436659,0.6992666,9
11.84,-15.70163,1.457522,-22.49628,0.787077733475881,-0.0065742780733945,2.269413698369957,3.640653,92.37434,179.256,0.7213686,-0.01730841,0.6917921,9
11.86,-15.58254,1.296553,-22.49224,0.8048930395638674,0.0354041236217168,2.397479323036379,351.9458,90.45089,179.3332,0.7078312,0.05358246,0.7028584,9
11.88,-15.49172,1.470891,-22.4804,0.8114044437025454,0.0537828275400807,2.5170048181330094,354.4588,91.34594,179.9855,0.7145228,0.03386634,0.6979405,9
11.9,-15.42291,1.306777,-22.50441,0.8099919535100588,0.0706016589377842,2.63448707978005,351.377,88.86153,179.7477,0.697946,0.05522217,0.7121903,9
11.92,-15.33095,1.479762,-22.49145,0.7809630517620765,0.0344870083236632,2.7405806163182085,353.9312,89.61072,180.3195,0.7038146,0.0355953,0.7084034,9
11.94,-15.26611,1.280074,-22.45638,0.7571636969550952,0.0405729883380006,2.833513806267673,352.9457,85.99319,180.2431,0.680757,0.04355226,0.7299182,9
11.96,-15.19996,1.275193,-22.49514,0.7247878465773288,0.0462428231398689,2.9231104972331803,354.2447,84.75077,180.8612,0.673395,0.03202805,0.7375384,9
11.98,-15.11394,1.450505,-22.47418,0.6690198340250879,0.0016141242334271,3.0032435188163173,356.741,85.06665,181.3395,0.6759444,0.01305395,0.7363114,9
12.0,-15.02898,1.623915,-22.45378,0.6261088344727976,0.0292892781851465,3.065347549036595,359.2328,85.40246,181.8326,0.6781523,-0.005925042,0.7347171,9
12.02,-15.01934,1.2517,-22.43891,0.5694936681017735,0.032402846138172,3.113089764149026,2.653331,79.9811,182.0979,0.6420566,-0.02949704,0.7660891,9
12.04,-14.93146,1.429003,-22.4199,0.5051668053755081,0.0359215545766912,3.1555279123041884,5.222881,80.67361,182.3788,0.6457471,-0.04814488,0.7619092,9
12.06,-14.92489,1.23938,-22.37988,0.4487911224045837,0.0877961631968926,3.182248227967955,7.31656,78.56625,182.8598,0.6304337,-0.06513937,0.7732172,9
12.08,-14.83596,1.417639,-22.35813,0.3583037527081492,0.0628024364113055,3.189405011893086,9.940438,79.39769,183.1696,0.6342636,-0.08423381,0.7677567,9
12.1,-14.74826,1.593953,-22.33747,0.2599907789207463,0.038309269076297,3.190093709260797,12.54852,80.26187,183.5207,0.6378067,-0.1032003,0.7617991,9
12.12,-14.81815,1.206768,-22.32118,0.164814671075802,0.0335233537628924,3.167619608052864,13.46597,74.93906,183.7431,0.6007826,-0.112734,0.7901121,9
12.14,-14.73318,1.390903,-22.29407,0.0822397762362188,0.0581580865108673,3.140481118932686,16.06164,75.79543,184.026,0.6039822,-0.1315397,0.7839022,9
12.16,-14.64887,1.573124,-22.26779,-0.0069220228677731,0.0822991632399002,3.1051738580523645,18.64559,76.67749,184.3564,0.6068445,-0.1502362,0.7772569,9
12.18,-14.72546,1.179551,-22.23604,-0.092438545679393,0.078440650004225,3.060551157347126,17.81512,72.58016,184.0544,0.5799544,-0.145413,0.7990533,9
12.2,-14.64112,1.367539,-22.20633,-0.1825257351522058,0.0767495190693136,3.008789880134309,20.44555,73.43739,184.2842,0.5826669,-0.1641547,0.7922707,9
12.22,-14.65912,1.155312,-22.16286,-0.2984619906852472,0.0188008394497826,2.940023191072488,22.15312,68.77217,184.0937,0.5482295,-0.1782422,0.8132362,9
12.24,-14.58302,1.147229,-22.16419,-0.3568355213564504,0.0443744175671595,2.8850667656754845,23.66918,67.81509,184.1123,0.5395381,-0.1896898,0.8158794,9
12.26,-14.50292,1.341215,-22.13107,-0.4172373996367999,0.0699911272678269,2.82339705415838,26.26153,68.63242,184.2018,0.5417724,-0.2076325,0.8084983,9
12.28,-14.5256,1.133579,-22.10822,-0.5010131058767675,0.0102590272445756,2.7439409703432323,27.19409,65.16791,184.0036,0.5162026,-0.2162525,0.8229104,9
12.3,-14.44505,1.329982,-22.07325,-0.5419233525268061,0.0361467732721757,2.6725097963862936,29.83649,65.9388,183.9886,0.518014,-0.2341513,0.8150678,9
12.32,-14.45447,1.12505,-22.05942,-0.5963300599023016,0.005854223714536,2.588120933171045,31.40663,62.31861,183.5959,0.4905953,-0.2471233,0.827781,9
12.34,-14.36878,1.118524,-22.01492,-0.6516592824305099,-0.0228966231291438,2.498106241810414,36.79888,60.19386,183.1308,0.4681914,-0.2859814,0.8249673,9
12.36,-14.28428,1.317844,-21.97351,-0.6703270918156787,0.0335186021169681,2.411671032612725,39.65123,60.90687,182.9264,0.4691762,-0.3044483,0.8150726,9
12.38,-14.24995,1.115461,-21.95147,-0.6900722556524581,0.0338220516223986,2.320703456414776,41.66474,59.82253,182.4038,0.45949,-0.3179721,0.8136735,9
12.4,-14.16159,1.315132,-21.90375,-0.7082981136466158,0.0360405243548797,2.225516657323673,44.73419,60.48022,182.2995,0.4590442,-0.3380354,0.8026099,9
12.42,-14.15126,1.114284,-21.8837,-0.7339251523642125,-0.0200567132101106,2.1223834299518027,44.5837,58.91525,181.2148,0.4514993,-0.3350904,0.8075777,9
12.44,-14.05899,1.112912,-21.81888,-0.728051365099702,0.0115620280757837,2.0258776391671227,48.02374,56.89439,179.5513,0.4365239,-0.3560855,0.8024016,9
12.46,-13.9638,1.313263,-21.76936,-0.7199084814224279,0.0425762515712342,1.92573636376029,51.30122,57.24702,179.0651,0.4349273,-0.3764425,0.789563,9
12.48,-13.90289,1.107154,-21.72023,-0.6996565136214357,0.0449311402011595,1.835862244423744,53.28163,55.3118,177.6916,0.4227991,-0.3887295,0.7873625,9
12.5,-13.8084,1.305463,-21.67084,-0.6771728897593594,0.0480405258970103,1.7433107642614236,56.54263,55.4793,177.0143,0.4207148,-0.4083901,0.7734877,9
12.52,-13.72382,1.102247,-21.60666,-0.6319577925785973,0.0565607578745204,1.6705942667407505,59.64775,52.20326,174.0508,0.4043573,-0.4262055,0.7666761,9
12.54,-13.56124,1.109091,-21.49608,-0.5865781560998249,0.0400406046313265,1.5974006958130955,62.631,45.05783,167.9004,0.3761064,-0.4429139,0.763739,9
12.56,-13.46813,1.297706,-21.4469,-0.5477839948447654,0.0820102764985716,1.531257675742951,65.74786,43.89083,165.8054,0.3736778,-0.460823,0.747978,9
12.58,-13.37326,1.128884,-21.36862,-0.5086204394258473,0.075267401097383,1.4637839335086429,60.94718,41.8766,166.7302,0.3606614,-0.4348936,0.7786196,9
12.6,-13.28,1.312998,-21.31879,-0.4645574043387968,0.0664459513339006,1.3924868117919118,64.00571,40.60301,164.485,0.3586279,-0.4527761,0.7632442,9
12.62,-13.20491,1.161681,-21.24992,-0.4292884028527051,0.0901508843343403,1.3266074445861822,55.77721,42.29121,168.7525,0.3600591,-0.4029138,0.8038426,9
12.64,-13.07114,1.195549,-21.14747,-0.398243362026536,0.116542441479777,1.2706327780161415,48.3075,46.60294,173.1166,0.3828474,-0.3534659,0.8267995,9
12.66,-12.97662,1.371944,-21.0947,-0.3613095846967842,0.1408868907448056,1.2138300988904276,51.44274,46.56416,172.1297,0.3826132,-0.3732773,0.8138304,9
12.68,-12.89757,1.227366,-21.03979,-0.33050238087532,0.1154543076235586,1.1489821297988252,37.99408,49.38701,174.6109,0.4084777,-0.2768554,0.8517286,9
12.7,-12.7905,1.397439,-20.98063,-0.3024997648227499,0.1604594576531257,1.0921305514371111,41.52466,49.64812,173.902,0.4091264,-0.3004014,0.8395433,9
12.72,-12.76746,1.250205,-20.95211,-0.2858820632753385,0.155927926487445,1.0262832939529227,26.23885,52.14884,175.9352,0.4350272,-0.1885707,0.8706911,9
12.74,-12.66928,1.264122,-20.87534,-0.2678450640585745,0.1250060023133026,0.95960110660226,13.86951,54.49391,177.0982,0.4570496,-0.09580031,0.8808552,9
12.76,-12.56332,1.43238,-20.81549,-0.2552638737293913,0.161411022941009,0.903144026571002,17.36243,55.1608,176.9286,0.4611098,-0.1214706,0.87402,9
12.78,-12.53431,1.272042,-20.7716,-0.2476636553123559,0.1730199811240906,0.84925738119599,2.379424,56.95667,177.933,0.4769753,-0.009649048,0.8784866,9
12.8,-12.42744,1.43864,-20.70902,-0.2365523554902138,0.1814448066449081,0.797878965227611,5.92931,57.67127,177.9805,0.4823768,-0.03681181,0.8742591,9
12.82,-12.41053,1.279147,-20.67053,-0.2320737457788888,0.1391554271072974,0.7349603989563347,354.4611,58.29086,178.4264,0.4858339,0.04887564,0.8726073,9
12.84,-12.29591,1.291242,-20.57117,-0.2192561852678427,0.1465504515611981,0.6694298804561698,352.2374,58.39946,179.0849,0.4862492,0.06297267,0.8711582,9
12.86,-12.18924,1.453002,-20.50257,-0.2036447368871585,0.1503192339791317,0.6073853190611316,355.8373,59.0764,179.3937,0.4925044,0.03420442,0.8695358,9
12.88,-12.15936,1.295996,-20.46068,-0.2078445577258985,0.1490796766424729,0.5317762341663466,353.4528,58.62181,179.5451,0.4885481,0.05173313,0.8706575,9
12.9,-12.05419,1.456828,-20.39137,-0.209928607935617,0.1450217193618797,0.4594906455275023,357.0172,59.29889,179.9126,0.4945071,0.02299662,0.8687838,9
12.92,-12.08456,1.270027,-20.38859,-0.2287268746840776,0.1376209120053012,0.375591758208714,354.0734,58.7784,180.0202,0.4900914,0.04495645,0.8701369,9
12.94,-12.0107,1.254536,-20.32679,-0.2581030997137696,0.1033111089233348,0.283110558061288,357.4362,58.5973,181.1384,0.4894092,0.01464838,0.8717109,9
12.96,-11.90701,1.41867,-20.2594,-0.2804993062105065,0.1210511384945401,0.1927482928227646,1.008402,59.29835,181.4659,0.4945306,-0.01397489,0.8690217,9
12.98,-11.90448,1.245706,-20.23607,-0.3215479419135982,0.1142246808344963,0.0925185813878961,1.42778,59.11432,181.6091,0.4930526,-0.01776305,0.8697972,9
13.0,-11.79905,1.4103,-20.1674,-0.3581032473299463,0.1053762661529369,-0.0020852873371004,5.075681,59.83895,181.9707,0.4975595,-0.04694146,0.8661291,9
13.02,-11.83047,1.232178,-20.15085,-0.4196297453252633,0.042990081360841,-0.1122705006042728,8.236694,58.50747,182.8624,0.4856992,-0.07481205,0.8708163,9
13.04,-11.72669,1.400946,-20.08258,-0.4818483922328036,0.0316174345016374,-0.2300386671982242,11.85939,59.26644,183.1848,0.489115,-0.1034284,0.8656432,9
13.06,-11.62428,1.565945,-20.0162,-0.5387696125958592,0.0193385915687987,-0.3399342529875628,15.47645,60.05758,183.5619,0.4920154,-0.1319289,0.8595696,9
13.08,-11.701,1.208676,-20.03615,-0.6054224879919228,0.0063107591167938,-0.4659207939603491,13.44186,59.3065,183.5608,0.4879528,-0.1169228,0.8644459,9
13.1,-11.59872,1.383021,-19.96904,-0.6662740649828776,-0.0069451653620052,-0.583316435009336,17.0432,60.09821,183.9072,0.4905535,-0.1450734,0.8580725,9
13.12,-11.65787,1.1833,-19.96982,-0.7543649487143234,-0.076919433548391,-0.7187705572348166,17.39022,57.25602,183.902,0.4688223,-0.1487423,0.8696238,9
13.14,-11.55963,1.363999,-19.90228,-0.8126372145474197,-0.0644061270207084,-0.843259423311622,20.94309,58.04115,184.1637,0.4709558,-0.1761529,0.8625175,9
13.16,-11.46212,1.541203,-19.83611,-0.8637698209548568,-0.0538060663293164,-0.9584435450932922,24.49113,58.86398,184.4856,0.4726129,-0.2033792,0.8545505,9
13.18,-11.53971,1.160748,-19.86097,-0.940550700442008,-0.1285113849479866,-1.0875002702975056,21.58094,55.89683,184.1197,0.4541477,-0.1818236,0.8703437,9
13.2,-11.4432,1.347411,-19.79395,-0.9982306475058284,-0.1464068421407661,-1.220857186228991,25.12172,56.65628,184.2769,0.4556974,-0.2085819,0.8624287,9
13.22,-11.49308,1.139064,-19.79673,-1.054578763528183,-0.1918336410742293,-1.3517177617211522,26.29927,52.68518,183.98,0.4247622,-0.2187529,0.875638,9
13.24,-11.4003,1.331544,-19.72899,-1.0864251946019192,-0.1772962402182112,-1.4742208909604204,29.79365,53.37778,183.9735,0.4258263,-0.2445993,0.8669135,9
13.26,-11.30763,1.52076,-19.66215,-1.1223415620524984,-0.1893064748224824,-1.5949343806417886,33.28588,54.09585,184.0176,0.4264768,-0.2701965,0.8573573,9
13.28,-11.36186,1.124796,-19.67353,-1.1477686041285016,-0.1999518274502639,-1.7059089701053105,32.07843,50.31609,183.5643,0.4005928,-0.262671,0.8731364,9
13.3,-11.2714,1.321691,-19.6064,-1.164016678736087,-0.2088448797766277,-1.8168482970477204,35.51844,50.90964,183.3846,0.4010061,-0.2873757,0.8633938,9
13.32,-11.27018,1.117174,-19.59034,-1.1700498107186328,-0.2448033739412915,-1.925291978366184,39.59938,48.95625,182.6744,0.3825504,-0.3173012,0.859358,9
13.34,-11.18105,1.31645,-19.52507,-1.1521861437694174,-0.2207702309068285,-2.021056923792755,42.97569,49.41389,182.3191,0.3821121,-0.3405738,0.8482408,9
13.36,-11.09169,1.512694,-19.4604,-1.133466459350953,-0.2231462258164282,-2.115015052900937,46.35303,49.86802,181.9816,0.3813229,-0.3635305,0.8363571,9
13.38,-11.11108,1.114469,-19.4617,-1.1049897748178736,-0.2242675857251207,-2.2002467476866414,44.67612,49.01974,181.146,0.380241,-0.3496425,0.8431443,9
13.4,-11.02345,1.314843,-19.39639,-1.0691127354577417,-0.2244513262579403,-2.277506512498095,48.02257,49.45782,180.7978,0.3795433,-0.3722527,0.8308631,9
13.42,-10.99471,1.109957,-19.35716,-1.0159753081798952,-0.2525578631252194,-2.3461681542190864,50.65032,47.50399,178.7496,0.36832,-0.3875271,0.8254035,9
13.44,-10.90828,1.309268,-19.29358,-0.9437330065368286,-0.2216436532005147,-2.402882712596729,53.935,47.74927,178.1893,0.3672346,-0.4089304,0.8119997,9
13.46,-10.82162,1.505719,-19.23057,-0.8618355596533753,-0.2168253457843934,-2.4521898951710583,57.22006,47.95612,177.6062,0.3658279,-0.4299741,0.7978978,9
13.48,-10.75401,1.102179,-19.16415,-0.774527583053332,-0.2120750591623545,-2.494026845570829,59.65773,44.09948,174.085,0.349028,-0.4436124,0.7933581,9
13.5,-10.66791,1.295762,-19.10257,-0.6780554024829155,-0.201922289744922,-2.524204974463124,62.88659,43.77218,172.9292,0.3472691,-0.4635249,0.7781696,9
13.52,-10.52876,1.117983,-18.9667,-0.5671635078679784,-0.2148890310506922,-2.539364913072635,61.81479,35.09409,167.2259,0.3115536,-0.4579353,0.7957708,9
13.54,-10.45339,1.128807,-18.89457,-0.4516067775233354,-0.1706981952623719,-2.549113838850431,60.95243,33.38144,166.7339,0.3019847,-0.4539692,0.803178,9
13.56,-10.36871,1.312945,-18.83146,-0.3449114644169353,-0.1473073924756389,-2.55341991708817,64.00991,32.07146,164.4857,0.300858,-0.4730915,0.7877873,9
13.58,-10.3079,1.161624,-18.75431,-0.2364936920000765,-0.1246194876771636,-2.550840767682657,55.78474,34.13202,168.7592,0.3019316,-0.4196604,0.8274032,9
13.6,-10.22229,1.341363,-18.69041,-0.1326630664760778,-0.0978888116398281,-2.5403722196856706,58.85388,33.33067,166.9961,0.3014727,-0.4393646,0.8130766,9
13.62,-10.19465,1.195493,-18.64392,-0.0347893981269528,-0.0945720495238662,-2.522207130189868,48.31734,38.5031,173.1219,0.3234741,-0.3676368,0.8517475,9
13.64,-10.08804,1.227221,-18.55331,0.0681362711104301,-0.0442517338258201,-2.5000725332350173,38.03346,40.83762,174.6047,0.343846,-0.2895081,0.8796878,9
13.66,-9.991163,1.397324,-18.47882,0.1603737167567682,-0.0187257519300846,-2.471664745854349,41.5626,41.06151,173.8905,0.345134,-0.3143208,0.8676829,9
13.68,-9.977448,1.250225,-18.45559,0.244166314206105,-0.0176995335743831,-2.4368102963888507,26.23778,43.33764,175.9289,0.3668697,-0.198027,0.9015313,9
13.7,-9.88108,1.418947,-18.38013,0.3304490669530964,0.0282895013656624,-2.3968389020478167,29.7625,43.83508,175.5405,0.3697488,-0.2240385,0.892198,9
13.72,-9.89413,1.263363,-18.37251,0.3983473701472072,0.0252273318420283,-2.348833430741119,13.96259,46.26938,177.1542,0.3926362,-0.1020528,0.9112988,9
13.74,-9.821175,1.27178,-18.3121,0.4751159318691612,0.0443756975352523,-2.284049907271692,2.420043,49.53744,177.9627,0.4191378,-0.01172498,0.9075032,9
13.76,-9.723679,1.438099,-18.23486,0.5507638384359425,0.0850896274091079,-2.216770241269705,5.989785,50.22084,178.0386,0.4245322,-0.0400487,0.903743,9
13.78,-9.696425,1.27897,-18.23646,0.6124762813535498,0.077807396244816,-2.1414785173514463,354.4805,53.50425,178.4817,0.4490004,0.04894802,0.8921356,9
13.8,-9.59652,1.443458,-18.1612,0.6822921809046621,0.1161405424663496,-2.0590437430344903,358.0549,54.16482,178.7258,0.4550098,0.02017319,0.8902553,9
13.82,-9.565822,1.291068,-18.1866,0.7321939453243895,0.1041699363252079,-1.9686680526956024,352.2348,57.44528,179.1693,0.4790241,0.06285439,0.8751566,9
13.84,-9.466803,1.295881,-18.17071,0.791171066880043,0.137795947641361,-1.870847187228153,353.4438,60.33358,179.6169,0.5015287,0.05111492,0.863243,9
13.86,-9.361263,1.45662,-18.10235,0.8442132889491922,0.190754634143936,-1.7752548224519753,357.0005,60.97175,180.0522,0.5071625,0.0223236,0.8614532,9
13.88,-9.378698,1.269915,-18.16102,0.8683523801855348,0.1672860051850948,-1.6808854988834208,354.0628,63.86265,180.1013,0.5282314,0.04348491,0.8475192,9
13.9,-9.272318,1.433284,-18.10054,0.8988929417231215,0.1894887488746561,-1.5807197927068657,357.5643,64.50392,180.537,0.5336013,0.01547435,0.8454561,9
13.92,-9.317967,1.254491,-18.18465,0.9047403534203152,0.1611581057875034,-1.4795348541102036,357.4242,65.3974,181.1893,0.540252,0.01330835,0.8411393,9
13.94,-9.301623,1.245797,-18.21994,0.9260951995559832,0.1833069105594708,-1.3669625046422622,1.394904,65.94328,181.6672,0.5439775,-0.01812791,0.8388856,9
13.96,-9.190532,1.410516,-18.16261,0.9474242952010984,0.2299028631016127,-1.2521522063651496,5.016794,66.63779,182.0853,0.5480157,-0.04655181,0.8351249,9
13.98,-9.255971,1.237681,-18.26797,0.9375578307419712,0.2013187685985023,-1.1425751338663397,6.1377,68.0331,182.6706,0.5574443,-0.05738026,0.8281605,9
14.0,-9.143751,1.404717,-18.2143,0.924705042579079,0.1968997558805526,-1.030910105284681,9.75254,68.76275,183.1038,0.5605485,-0.0853662,0.8233085,9
14.02,-9.236191,1.226321,-18.31184,0.8985084353683788,0.1662708271110343,-0.9191874095999132,10.28926,68.31311,183.2542,0.5568619,-0.09005057,0.8252702,9
14.04,-9.24429,1.208678,-18.36841,0.8884012278457764,0.1870766803691188,-0.79930446670827,13.39819,70.06239,183.6644,0.5667577,-0.1137007,0.8149744,9
14.06,-9.133895,1.383096,-18.31874,0.8558061787349224,0.1549572729686418,-0.6857888921353883,16.95573,70.84806,184.1147,0.568607,-0.14064,0.8085288,9
14.08,-9.210994,1.190825,-18.41706,0.8196634443015554,0.1235855839436551,-0.5719915763672616,16.03646,70.57896,183.9152,0.5678368,-0.1333315,0.810545,9
14.1,-9.102054,1.369322,-18.36854,0.7851573924684951,0.1149988330355545,-0.4537086732625499,19.56779,71.38371,184.3675,0.5692638,-0.1598212,0.8035507,9
14.12,-9.222988,1.168037,-18.51023,0.7338189931516677,0.0808714115269843,-0.3419271855763908,20.09102,69.92132,184.2404,0.5585543,-0.16373,0.8101271,9
14.14,-9.11626,1.352496,-18.46329,0.7040572949373065,0.1033414224058554,-0.2198343991989366,23.5844,70.72228,184.6056,0.5593603,-0.1892905,0.8024167,9
14.16,-9.010281,1.533606,-18.41742,0.6546411866502768,0.0694900486334132,-0.1031310067009232,27.07154,71.5709,185.036,0.5596192,-0.2146596,0.7939316,9
14.18,-9.132194,1.14495,-18.53662,0.5933411130392484,0.0086958229515637,0.008462395072132,24.56024,71.70126,184.3142,0.5653791,-0.1938142,0.7961283,9
14.2,-9.117287,1.138466,-18.59251,0.5567296964435493,0.0314576626992162,0.1335582376090029,26.24591,71.82304,184.2586,0.5639912,-0.2049831,0.793176,9
14.22,-9.067872,1.12807,-18.60838,0.5015236468551361,-0.0018188365383728,0.250203119972717,30.01546,72.23648,183.9918,0.5617172,-0.2288822,0.7850916,9
14.24,-8.961725,1.323069,-18.5717,0.4633416658072172,-0.0040003992406159,0.3771716243617211,33.4454,72.97871,184.1448,0.5607859,-0.2517774,0.7756507,9
14.26,-8.959345,1.121462,-18.62847,0.4258092243563308,-0.0044003126757068,0.5040721893468225,34.69127,73.2327,183.4041,0.5619707,-0.256102,0.7710897,9
14.28,-8.85174,1.318943,-18.60029,0.3777913762551103,-0.0625392822551316,0.623422884839004,38.09663,73.82552,183.2902,0.5599864,-0.2771365,0.7610865,9
14.3,-8.857836,1.116948,-18.65218,0.3518044897594883,-0.0337979692888837,0.7535949351679596,39.59676,74.62068,182.7738,0.5636163,-0.2831233,0.7531003,9
14.32,-8.755686,1.114812,-18.67977,0.3147959037780925,-0.0620631050828759,0.8757810795391032,43.25489,76.89859,181.844,0.5733262,-0.2979126,0.731618,9
14.34,-8.64794,1.314772,-18.66142,0.2917622936495025,-0.0589112329282129,1.0060859912409907,46.6073,77.37034,181.5798,0.569739,-0.3166897,0.7202532,9
14.36,-8.603273,1.113546,-18.68958,0.2700331995807483,-0.0545975177188833,1.135233554769492,46.35392,78.36962,180.4652,0.5795884,-0.3074181,0.7135593,9
14.38,-8.495912,1.31375,-18.6751,0.2449739359444982,-0.109589621412408,1.2612042152278748,49.67645,78.784,180.1388,0.5755246,-0.3253273,0.7016566,9
14.4,-8.453735,1.10988,-18.68709,0.2366007352891774,-0.077517696544306,1.3946845641194263,50.64994,78.15409,178.7948,0.5732453,-0.3260524,0.6988192,9
14.42,-8.286813,1.103654,-18.67074,0.2284866879906705,-0.1031825603750642,1.5268652107962994,56.47663,76.36086,176.2796,0.5563594,-0.3540469,0.6826574,9
14.44,-8.181144,1.299532,-18.66006,0.2391241015606733,-0.0961038298292506,1.6692737586185298,59.73487,76.33292,175.4754,0.5509102,-0.3700746,0.6691143,9
14.46,-8.055503,1.104449,-18.63601,0.2499618853961588,-0.0895128037934648,1.8075549953658387,61.20309,71.28365,171.2453,0.5316735,-0.3742159,0.6748115,9
14.48,-7.950728,1.295544,-18.62617,0.2612580280315462,-0.1368608337992087,1.9445761840638125,64.38067,70.53854,169.6729,0.5258225,-0.3892049,0.6604573,9
14.5,-7.850826,1.11798,-18.58729,0.274688593104035,-0.0985608000265557,2.0757387592019727,61.81007,64.84601,167.2366,0.50538,-0.3797297,0.6891683,9
14.52,-7.675603,1.144325,-18.52278,0.2934122409685246,-0.107358671475607,2.207793836211652,58.38307,61.58487,167.7413,0.4890921,-0.3688606,0.7189795,9
14.54,-7.570827,1.326397,-18.50738,0.3027351325380841,-0.0638439239129013,2.322019566894389,61.42872,60.46006,165.6886,0.4844477,-0.3839456,0.7049933,9
14.56,-7.474829,1.178346,-18.4414,0.3112018686177323,0.003332486018213,2.4265870396325133,52.07847,62.90089,171.0734,0.4965207,-0.3368779,0.7463487,9
14.58,-7.369232,1.356633,-18.42327,0.3174166023698014,-0.0009227172576823,2.5230390040750934,55.16249,62.40794,169.6537,0.4930459,-0.3530039,0.733408,9
14.6,-7.301631,1.211562,-18.3667,0.319664535015707,0.0191253432308346,2.6047398649093045,43.16779,65.02206,173.77,0.5158938,-0.2825985,0.7722545,9
14.62,-7.242843,1.227487,-18.33707,0.3229020616238673,0.016040865422688,2.679965092172208,38.02454,65.36796,174.4945,0.5231262,-0.2493527,0.7863814,9
14.64,-7.12347,1.397933,-18.31235,0.3328859105512978,0.0581669212035937,2.7479281240550444,41.52754,65.48177,173.659,0.5214314,-0.2697659,0.7746858,9
14.66,-7.04864,1.257883,-18.23353,0.33005060226317,0.0725779513414472,2.79783298233072,20.04664,67.29094,176.3757,0.5499049,-0.1275668,0.8163161,9
14.68,-6.994124,1.264593,-18.19864,0.3235350849204471,0.0855324303130445,2.8352758014269863,13.87277,67.89564,176.9621,0.5568113,-0.0854523,0.821398,9
14.7,-6.876799,1.433402,-18.16903,0.3146264162980084,0.0955526744562486,2.862419876485556,17.33466,68.45858,176.6509,0.5594859,-0.1082924,0.8145252,9
14.72,-6.872684,1.272297,-18.11258,0.2932663833786568,0.0809519862892017,2.871586896557072,2.388983,68.84195,177.8477,0.5653694,-0.006579186,0.8243605,9
14.74,-6.765309,1.279271,-18.02319,0.2846766026986953,0.1116426766889109,2.877369662155167,354.4819,68.69983,178.3726,0.5629702,0.04774119,0.8249525,9
14.76,-6.648163,1.444077,-17.97996,0.2736736682818833,0.118516791827438,2.8745236479706406,358.0525,69.33568,178.5093,0.5685058,0.0213747,0.8224009,9
14.78,-6.607531,1.291311,-17.91183,0.2587519896491345,0.1231084748963738,2.857297534154214,352.2394,68.01028,179.0528,0.5575026,0.06070993,0.8273718,9
14.8,-6.490901,1.453166,-17.86247,0.2495605989509394,0.1708589022806317,2.836403625517208,355.8393,68.62525,179.327,0.5631509,0.03329133,0.8255358,9
14.82,-6.488253,1.283307,-17.78545,0.2164198326184415,0.1414872771683762,2.7920756318954525,353.7484,65.71635,179.7026,0.5416336,0.04721045,0.8388405,9
14.84,-6.376494,1.445788,-17.7325,0.1889181580363435,0.1567493871315146,2.7475282925241595,357.2758,66.33663,179.9823,0.5469428,0.01998225,0.8368326,9
14.86,-6.266665,1.604549,-17.68135,0.1565252570100818,0.1924564685763835,2.696379114213976,0.7983679,66.9728,180.3008,0.5517086,-0.007259022,0.834004,9
14.88,-6.32132,1.254805,-17.65002,0.0995804588466449,0.1534132903008143,2.620604282019161,357.414,64.69474,181.1089,0.5350743,0.01388609,0.8444484,9
14.9,-6.211648,1.419247,-17.59472,0.0439573707239981,0.1403707012903431,2.542482243658803,0.9665629,65.33082,181.404,0.5395855,-0.01371282,0.8417996,9
14.92,-6.240709,1.240732,-17.54164,-0.0225069901324249,0.1020446561501347,2.4508372105089906,3.975188,62.86219,182.0167,0.5205576,-0.03876102,0.8529408,9
14.94,-6.131614,1.407053,-17.48178,-0.0717406351131664,0.1134321506391595,2.3679174216711774,7.596951,63.53115,182.314,0.5240442,-0.06691936,0.8488727,9
14.96,-6.024188,1.569597,-17.4237,-0.1287081015628459,0.0993338281855561,2.2774749493828224,11.21391,64.22564,182.6574,0.5269836,-0.09500057,0.8439283,9
14.98,-6.101762,1.226614,-17.40872,-0.1904488213230113,0.0857132653011692,2.1758464992733755,10.29601,61.97729,183.1122,0.5105134,-0.09081852,0.8547511,9
15.0,-6.092573,1.217955,-17.38712,-0.2504491242659368,0.068999607356276,2.0750260825658016,11.84118,61.60881,183.2771,0.5066355,-0.1031267,0.8555,9
15.02,-6.053782,1.200078,-17.33247,-0.3223645268570377,0.0259045377693617,1.961605341291201,14.72703,60.9258,183.5865,0.499096,-0.1261522,0.8564637,9
15.04,-5.950142,1.377004,-17.2717,-0.3680616420283153,0.0347868049509638,1.8608127523235525,18.28611,61.62819,183.8209,0.5009152,-0.153253,0.8501644,9
15.06,-5.97863,1.183558,-17.25757,-0.3992283511892437,0.0710446283917883,1.7671722497809834,17.3709,60.06329,183.8374,0.4900842,-0.1472277,0.8578716,9
15.08,-5.876947,1.36455,-17.19679,-0.4576734532380073,0.0257204663639346,1.6511315269194258,20.90735,60.76019,184.0276,0.4915323,-0.1739068,0.8510709,9
15.1,-5.923158,1.16862,-17.19352,-0.4903076146267418,0.0357396729105164,1.54958999212632,20.10696,58.25946,183.9874,0.4737191,-0.1690707,0.8625429,9
15.12,-5.924591,1.161174,-17.18005,-0.5241334359867367,0.0450821114090797,1.441277658322977,21.53559,56.92905,184.0115,0.4621873,-0.1805307,0.8662208,9
15.14,-5.826333,1.348298,-17.11814,-0.5481188889866524,0.0253772443775431,1.3432797271763257,25.03939,57.57718,184.0507,0.46312,-0.2064789,0.8587182,9
15.16,-5.857396,1.139365,-17.09451,-0.5713227949283674,0.0077058549370569,1.2405291100243805,26.26892,53.63993,183.8829,0.4322628,-0.2175621,0.8720569,9
15.18,-5.837065,1.133092,-17.06818,-0.5942325245364068,-0.0111632271167803,1.132764025120682,27.99286,52.42962,183.8454,0.4211015,-0.2312433,0.8736033,9
15.2,-5.743441,1.327656,-17.00448,-0.5832793088264918,0.0505734747087436,1.044329806484635,31.44589,52.9715,183.6663,0.4213098,-0.2561532,0.8649808,9
15.22,-5.777292,1.124975,-16.99966,-0.5822109718957289,0.0278500206386068,0.952475344339368,32.04585,50.10682,183.5087,0.399166,-0.2623951,0.8738901,9
15.24,-5.717558,1.118778,-16.93509,-0.5700753806095954,0.0374608113007678,0.8671786513348319,37.39195,48.34716,182.9868,0.3801409,-0.3024474,0.8672966,9
15.26,-5.628663,1.317472,-16.86888,-0.5687679242214817,-0.0096528693991136,0.7676465439264633,40.78181,48.75212,182.6319,0.3794709,-0.3261645,0.856857,9
15.28,-5.614529,1.115612,-16.85182,-0.561990690330198,-0.0254590759763682,0.6700317524644452,41.82597,48.35428,182.3553,0.3758055,-0.3334334,0.8550103,9
15.3,-5.526628,1.315512,-16.78608,-0.5519339861160981,-0.0396752477648779,0.5744646606324708,45.18909,48.72167,181.9775,0.3747261,-0.3565193,0.8436559,9
15.32,-5.524008,1.114468,-16.77024,-0.5306824228672683,-0.0530988517472058,0.4847860294340975,44.66045,47.94437,181.1475,0.3723297,-0.3509172,0.8467243,9
15.34,-5.440532,1.112949,-16.69303,-0.504993726184926,-0.0350623593772381,0.4063207514385578,48.03764,46.46657,179.5436,0.3618057,-0.3725905,0.8386939,9
15.36,-5.355278,1.313307,-16.62702,-0.4856792044415067,-0.0747799354466673,0.324444588950797,51.33907,46.7035,179.034,0.3605954,-0.394672,0.8260036,9
15.38,-5.298953,1.107163,-16.57141,-0.4538326794691989,-0.0553012418605753,0.2545689069222587,53.26988,45.33466,177.7045,0.3527009,-0.4066932,0.8212099,9
15.4,-5.214543,1.305473,-16.50635,-0.4287752131857457,-0.0920814138526465,0.1829949368467724,56.53804,45.40127,177.0231,0.3511243,-0.4279468,0.8074848,9
15.42,-5.135934,1.102228,-16.4326,-0.3907981771326365,-0.0699585927755646,0.121849628426724,59.6274,42.7037,174.0822,0.3393867,-0.4461319,0.7976719,9
15.44,-4.985965,1.10906,-16.30006,-0.362489981807121,-0.0690420983562775,0.063832129360986,62.64234,36.02153,167.9163,0.3147026,-0.4638145,0.7909762,9
15.46,-4.90235,1.297629,-16.23642,-0.3315261272834676,-0.0685429477273359,0.0134328392891935,65.76435,34.77491,165.841,0.3128969,-0.483226,0.7753102,9
15.48,-4.813537,1.128803,-16.14902,-0.3137951379366866,-0.0605167067537244,-0.0427272136093179,60.95698,33.29478,166.7713,0.3012269,-0.454282,0.8034642,9
15.5,-4.729625,1.312852,-16.08506,-0.2936274837926478,-0.0531021184073963,-0.0903083326578499,64.02429,31.9564,164.5627,0.2997444,-0.4736526,0.7881928,9
15.52,-4.601774,1.177834,-15.97423,-0.275803875903594,-0.0379043251272116,-0.1465492034610751,52.13462,38.52982,171.2707,0.3270846,-0.3910621,0.8344848,9
15.54,-4.515827,1.355684,-15.91024,-0.265867376456974,1.9067668952571504e-05,-0.2016681017015753,55.26204,38.19114,170.0816,0.3266357,-0.4115603,0.8209527,9
15.56,-4.430629,1.53072,-15.84756,-0.2705368692486427,-0.009562518216651,-0.2690691522007045,58.38336,37.69904,168.7541,0.3259188,-0.4317192,0.8067595,9
15.58,-4.342897,1.227875,-15.77898,-0.2707918891823869,0.0270945091936851,-0.334528514241988,37.94893,44.18131,174.7298,0.3691138,-0.2846088,0.8696944,9
15.6,-4.289377,1.239106,-15.73808,-0.2690523723695047,0.0603838386120654,-0.3913623795245859,32.1279,45.6054,175.3407,0.3824874,-0.2397341,0.8807587,9
15.62,-4.174774,1.25743,-15.64913,-0.2894949552628668,0.0686393441454856,-0.4750249610882942,20.07284,48.4952,176.5724,0.4089674,-0.1467341,0.8952843,9
15.64,-4.076041,1.425901,-15.57855,-0.3129604758012213,0.0767159661709085,-0.5647702183096448,23.57445,49.0373,176.371,0.4119197,-0.1729012,0.8875099,9
15.66,-4.031592,1.268067,-15.53407,-0.3343654907744603,0.0835043293590275,-0.6456650008204503,8.173009,51.42467,177.565,0.4340167,-0.05499683,0.8978333,9
15.68,-3.930917,1.435063,-15.4625,-0.3483768644989382,0.1321487337480672,-0.7258819536979342,11.72794,52.03814,177.5518,0.4382367,-0.08246902,0.8927844,9
15.7,-3.904643,1.275576,-15.42474,-0.3859613018690169,0.133012384162224,-0.8204904710888039,358.4513,53.49598,178.1983,0.4497807,0.019142,0.8928986,9
15.72,-3.866722,1.279032,-15.38581,-0.4210463441825086,0.1320504753785419,-0.906139007101754,354.5049,54.00145,178.4333,0.4528536,0.04890625,0.890191,9
15.74,-3.765568,1.443602,-15.31227,-0.4380601656960265,0.1753426645917531,-0.9869629972677658,358.0836,54.60279,178.6275,0.4583963,0.02035131,0.8885101,9
15.76,-3.682588,1.293671,-15.21855,-0.452920448783169,0.2372286518198312,-1.068245308537176,352.8288,54.43084,179.2901,0.4560888,0.05844266,0.8877127,9
15.78,-3.582111,1.454952,-15.14197,-0.5205000298138103,0.2009185300309529,-1.1699537866379843,356.4164,55.01383,179.6068,0.461532,0.02931679,0.8865658,9
15.8,-3.483244,1.612349,-15.06761,-0.5743649282397028,0.2096865062574718,-1.267518348348312,-0.0004933261,55.61487,179.9593,0.4665014,0.000169534,0.8845204,9
15.82,-3.517045,1.261791,-15.0509,-0.6657997251745796,0.1674279010422962,-1.3819857334077883,355.7748,54.10276,180.5423,0.4546305,0.03067926,0.8899046,9
15.84,-3.418302,1.425094,-14.97493,-0.7594342361128307,0.1492169001021113,-1.5057161584206027,359.3679,54.70071,180.8463,0.4594471,0.001506348,0.8881575,9
15.86,-3.321076,1.584616,-14.90109,-0.8476548956716602,0.1306005474045899,-1.6221007446233793,2.956511,55.31787,181.1881,0.4637912,-0.02765969,0.8855087,9
15.88,-3.351447,1.245903,-14.89754,-0.9316415170065652,0.1087594616969326,-1.7312102415239607,1.393195,54.78005,181.598,0.459816,-0.01720832,0.8878216,9
15.9,-3.331973,1.240555,-14.87068,-1.0335887555910832,0.0865309195394611,-1.854094515959404,3.977268,54.62629,182.0603,0.4579486,-0.03907221,0.8881197,9
15.92,-3.274351,1.232204,-14.80237,-1.1288926952369205,0.0644947954815937,-1.9698207333555693,8.22666,54.44584,182.8759,0.4545311,-0.07521406,0.8874872,9
15.94,-3.176713,1.401011,-14.72623,-1.1982045107131611,0.0906831300203595,-2.0783562810851244,11.84295,55.11124,183.2064,0.4574022,-0.1043001,0.8828219,9
15.96,-3.194149,1.217577,-14.7179,-1.3167820244325648,0.0385894612874082,-2.2108020285153804,11.86649,54.73347,183.3584,0.4543353,-0.1051596,0.8843381,9
15.98,-3.097565,1.390112,-14.64309,-1.4558495532014455,-0.0390787128115563,-2.3519801988738376,15.45672,55.41653,183.6821,0.4566837,-0.1337965,0.878841,9
16.0,-3.136912,1.199839,-14.65226,-1.5590129006041566,-0.0414464988762856,-2.4792123269981365,14.73014,54.8219,183.6718,0.4526911,-0.1283673,0.8818421,9
16.02,-3.098156,1.183318,-14.59891,-1.6711854196550486,-0.0708827636621021,-2.6067901921518803,17.37447,54.08505,183.9256,0.4445644,-0.1498417,0.8822867,9
16.04,-3.004917,1.364015,-14.52539,-1.7631209500441942,-0.0697073337547479,-2.7257300992779525,20.91887,54.78191,184.2063,0.4461951,-0.1776809,0.8756114,9
16.06,-2.912359,1.541245,-14.45319,-1.845277206817793,-0.0690358584690136,-2.837144093047417,24.45865,55.51543,184.5415,0.4473806,-0.2053365,0.8680736,9
16.08,-2.992316,1.160888,-14.48109,-1.8991425318140376,-0.0168427470105226,-2.934288073007949,21.54774,52.11325,184.1149,0.4252089,-0.1833175,0.8849038,9
16.1,-2.901269,1.347675,-14.40833,-2.002655493332929,-0.0749602995710343,-3.048099142864232,25.0664,52.77409,184.2612,0.4263149,-0.2103908,0.8774466,9
16.12,-2.810607,1.531111,-14.33663,-2.0727425100871595,-0.0755392121738885,-3.145342074467507,28.5822,53.46534,184.4582,0.4270033,-0.237252,0.8691409,9
16.14,-2.881257,1.132782,-14.34345,-2.144181211096045,-0.1031188396397765,-3.241438200927679,28.01441,48.64101,183.96,0.3917355,-0.2342384,0.8870764,9
16.16,-2.793806,1.327015,-14.27082,-2.21555214704745,-0.1562924126509914,-3.3358059729418894,31.48778,49.21225,183.8997,0.3921313,-0.2601911,0.8784201,9
16.18,-2.706375,1.518048,-14.19894,-2.2548552369795205,-0.1489112023426375,-3.41571934120621,34.96049,49.80156,183.8793,0.3921527,-0.2858903,0.8689368,9
16.2,-2.619121,1.705918,-14.12792,-2.2697861804736523,-0.1116816006560273,-3.481440126877006,38.43217,50.41592,183.9034,0.3918002,-0.3113122,0.8586365,9
16.22,-2.706162,1.1187,-14.15895,-2.301269170605911,-0.1602057760318762,-3.542364433471016,37.37143,45.95445,183.0421,0.3618293,-0.3046702,0.8751448,9
16.24,-2.620553,1.317221,-14.08762,-2.299983428525144,-0.1485373942593766,-3.58570739398066,40.7859,46.36379,182.7419,0.36121,-0.3290584,0.8646804,9
16.26,-2.629178,1.114991,-14.1097,-2.279896848707831,-0.106517977897408,-3.620133228054645,43.2632,45.80721,181.7651,0.3564999,-0.3451064,0.8583949,9
16.28,-2.634336,1.114429,-14.1212,-2.26652960872856,-0.150726947423717,-3.647931838869469,44.6593,45.82223,181.167,0.3565274,-0.3536111,0.8535011,9
16.3,-2.551159,1.314795,-14.05127,-2.236355202024616,-0.1633414144386649,-3.659767419343576,47.99556,46.17593,180.8309,0.3555253,-0.3767139,0.841523,9
16.32,-2.528608,1.109949,-14.03865,-2.192274563178332,-0.1742721440907268,-3.6628954557337456,50.64915,44.56706,178.7637,0.3469999,-0.3920803,0.8345964,9
16.34,-2.445654,1.309244,-13.97057,-2.122456763979797,-0.1272274456174528,-3.650086810791569,53.94306,44.72178,178.2065,0.3455825,-0.414086,0.8214154,9
16.36,-2.429559,1.103734,-13.96042,-2.033248584880914,-0.1365516737855584,-3.62681897172899,56.45447,43.29466,176.2496,0.3392347,-0.4287409,0.8127904,9
16.38,-2.346618,1.299708,-13.89456,-1.932303818511074,-0.1452805564967894,-3.595153806925813,59.70486,43.16291,175.3942,0.3373587,-0.4496796,0.7984998,9
16.4,-2.333596,1.104403,-13.88386,-1.816242585865828,-0.0962105758265328,-3.553825820329324,61.19424,39.26149,171.2837,0.3247759,-0.4560525,0.7953989,9
16.42,-2.250429,1.295503,-13.81973,-1.6786011727296553,-0.1244777693362897,-3.494172761933825,64.37241,38.47169,169.729,0.3227261,-0.4759566,0.7801555,9
16.44,-2.194519,1.128642,-13.77988,-1.5317266141258865,-0.1181434834805193,-3.4238905015547174,60.9687,34.13352,166.8043,0.3069637,-0.4526912,0.8012554,9
16.46,-2.110172,1.312693,-13.71677,-1.3865140109466698,-0.0841147565073072,-3.3557053892114004,64.0388,32.793,164.6264,0.3052233,-0.4720592,0.7860585,9
16.48,-2.112754,1.161291,-13.73559,-1.234592428243001,-0.0516243991049193,-3.280287644981229,55.82103,37.05083,168.8956,0.3223923,-0.4145896,0.8195696,9
16.5,-2.026303,1.340854,-13.67367,-1.0848809440591756,-0.0386378153808703,-3.18954309165669,58.91139,36.28615,167.2865,0.3212114,-0.4344082,0.8054036,9
16.52,-1.974318,1.211211,-13.70449,-0.9289344741409138,-0.0259040049638469,-3.091927510281302,43.17934,48.24078,174.1187,0.3967134,-0.3158943,0.8398259,9
16.54,-1.879439,1.384744,-13.64434,-0.7744377857216515,0.0309171798102556,-2.9950027004388184,46.47161,48.43647,173.5599,0.3965553,-0.3380536,0.8276038,9
16.56,-1.897341,1.238666,-13.72941,-0.6242608928981633,0.0179663927840934,-2.875843442422779,32.15758,54.77526,175.5264,0.4512747,-0.2284769,0.8475586,9
16.58,-1.791566,1.407713,-13.67024,-0.4794836993609911,-0.0198734611042087,-2.7488587482366205,35.69085,55.22657,175.2804,0.4520075,-0.2531479,0.8368996,9
16.6,-1.687261,1.573164,-13.61269,-0.3311001119565682,0.0103692269281611,-2.617028546370051,39.2258,55.67844,175.0566,0.4522892,-0.2775675,0.8254236,9
16.62,-1.788343,1.262975,-13.76635,-0.1822060784806983,0.0166701610478424,-2.463721514067739,14.00732,63.13628,177.2886,0.5219186,-0.09156637,0.843914,9
16.64,-1.771977,1.271532,-13.81336,-0.0350346374371101,0.0449687534427755,-2.308861895895772,2.445237,68.22035,178.1013,0.5608743,-0.008374686,0.8274606,9
16.66,-1.657388,1.437666,-13.76649,0.1113255060015604,0.0706472894574281,-2.1507376265870564,6.00463,68.82204,178.3103,0.564926,-0.0348849,0.8233466,9
16.68,-1.544646,1.600057,-13.72115,0.2473506508786942,0.0725337730800927,-1.9773102644333405,9.560606,69.44135,178.5583,0.5684118,-0.06135038,0.8184177,9
16.7,-1.667711,1.28505,-13.8269,0.3705740956669139,0.0506128759646798,-1.8008778087948658,353.3281,70.94465,178.7923,0.5787948,0.05349266,0.8133267,9
16.72,-1.550337,1.448257,-13.7827,0.5023287115316974,0.0749020480001015,-1.6161588166215184,356.9065,71.50461,179.081,0.5838749,0.0265896,0.8113552,9
16.74,-1.435037,1.60763,-13.74007,0.6258285405711348,0.0719042450216305,-1.4195117769889385,0.4807443,72.08119,179.4041,0.5883629,-0.0003324007,0.8085696,9
16.76,-1.32204,1.763336,-13.69909,0.7459565447136343,0.0683388502183013,-1.2208195402609834,4.050523,72.67879,179.7638,0.5922545,-0.02724631,0.8049731,9
16.78,-1.579955,1.26973,-13.84561,0.8641877775782063,0.1080261331099279,-1.0242377909952378,354.1043,72.94016,180.0452,0.5936326,0.0411218,0.8030912,9
16.8,-1.463871,1.432725,-13.80323,0.9767932818145194,0.1437490619133727,-0.8284993076666078,357.651,73.49516,180.4235,0.5982216,0.01421331,0.80106,9
16.82,-1.626568,1.250206,-13.92787,1.051510998426838,0.0801695651001846,-0.6384476745763918,359.3959,74.60212,181.4098,0.6060005,-0.003262144,0.7953519,9
16.84,-1.66873,1.245727,-13.97849,1.1410453362626742,0.0909157801557264,-0.4405214816144416,1.39299,75.67862,181.6607,0.6132003,-0.01848845,0.7897013,9
16.86,-1.549504,1.410324,-13.94016,1.207108625150091,0.0518306642483621,-0.2453437288306041,5.028193,76.28193,182.0684,0.6162809,-0.04563059,0.7860978,9
16.88,-1.432384,1.571093,-13.90325,1.256383760560259,-0.0118706276112645,-0.0566000886184869,8.658442,76.91531,182.5172,0.6187137,-0.07271896,0.7816768,9
16.9,-1.63879,1.231901,-14.03547,1.3194966386892988,-0.001929058068815,0.1405857087733739,8.221653,79.7346,182.9768,0.6377176,-0.07160992,0.7664918,9
16.92,-1.518417,1.400328,-14.00473,1.3707535409077831,-0.0188510404155387,0.3379694685656769,11.84621,80.38889,183.4103,0.6393082,-0.097892,0.7614259,9
16.94,-1.400002,1.564984,-13.9752,1.4231387506811808,-0.0075855473613782,0.5335461524476557,15.46447,81.08106,183.8931,0.6402312,-0.1240645,0.7555727,9
16.96,-1.667749,1.199431,-14.15775,1.4515860886045713,-0.0484435381576043,0.7169170152335584,14.74559,84.159,183.7928,0.6611046,-0.1171864,0.738522,9
16.98,-1.748829,1.190781,-14.24636,1.491708199666044,-0.0355219720146965,0.9060993846412504,16.04763,84.95627,183.9131,0.664793,-0.1257189,0.7331073,9
17.0,-1.630868,1.369132,-14.226,1.5060934279655636,-0.075430067307378,1.0805477757967576,19.60001,85.66906,184.3584,0.6647317,-0.1502035,0.7264975,9
17.02,-1.741499,1.16786,-14.30141,1.5262979478241678,-0.0880380198502066,1.2604657593141186,20.10919,86.56813,184.2875,0.6698596,-0.1522564,0.7207593,9
17.04,-1.625311,1.352048,-14.28523,1.550310169533481,-0.0687693921593365,1.438789166469249,23.62846,87.29591,184.6968,0.6689662,-0.175707,0.713462,9
17.06,-1.510164,1.532846,-14.26978,1.5695534166651537,-0.0491435362556435,1.611578449109664,27.14141,88.07268,185.168,0.6674156,-0.1989783,0.7054712,9
17.08,-1.39627,1.71034,-14.25509,1.5588205089066367,-0.1139462642154765,1.7656850065386775,30.64698,88.90781,185.708,0.6652076,-0.2220352,0.6967988,9
17.1,-1.695904,1.138769,-14.41162,1.5684067825305654,-0.0943304028577805,1.9288050769694745,26.27775,86.8093,184.1226,0.6627854,-0.1891082,0.7126606,9
17.12,-1.582004,1.330942,-14.40331,1.5733673821433474,-0.0741880112057082,2.085639373191792,29.76071,87.44615,184.2585,0.6606381,-0.2102782,0.7045655,9
17.14,-1.667722,1.124675,-14.49594,1.556784381886143,-0.1397910960144768,2.229237391760063,32.056,85.40131,183.6319,0.6450483,-0.2234662,0.7119179,9
17.16,-1.6481,1.121802,-14.54115,1.5529985885123967,-0.1457907699396085,2.372446053288715,34.65997,85.0771,183.2818,0.638846,-0.2378716,0.7088531,9
17.18,-1.537194,1.319601,-14.53906,1.54488727518631,-0.1492141611936387,2.5079597754204865,38.05868,85.49796,183.0283,0.6351426,-0.2563036,0.6998103,9
17.2,-1.426537,1.514347,-14.53748,1.5211470416649484,-0.2096633193875873,2.6267712171014974,41.45782,85.91952,182.7952,0.6308616,-0.2744986,0.6901375,9
17.22,-1.524928,1.115524,-14.56407,1.4921046163378824,-0.269848138469153,2.7367567836193087,41.82441,85.34443,182.4008,0.6275187,-0.275642,0.6917295,9
17.24,-1.415105,1.315324,-14.56339,1.4794155680172814,-0.2738137968568067,2.8521955745001115,45.19711,85.68367,182.0665,0.6225855,-0.2930354,0.6815377,9
17.26,-1.305415,1.512128,-14.56321,1.4590517242114185,-0.3044239734084446,2.9560889666948427,48.57022,86.01471,181.7407,0.617094,-0.3101627,0.6707411,9
17.28,-1.340287,1.112868,-14.5764,1.447264869636174,-0.274685108145561,3.06315902892666,48.05485,84.57027,179.5913,0.6155917,-0.2990359,0.6747206,9
17.3,-1.28996,1.10999,-14.57524,1.4437539056779758,-0.2151913542013464,3.171632853750584,50.62706,83.7932,178.7491,0.6071067,-0.3116547,0.6697231,9
17.32,-1.183168,1.309349,-14.57539,1.4337021112586636,-0.2425797197369306,3.271123924216861,53.90565,83.9023,178.1701,0.6011916,-0.3275356,0.65801,9
17.34,-1.076532,1.505878,-14.57602,1.427367955543255,-0.2098822674388742,3.367036435228104,57.18353,83.95924,177.5522,0.5947641,-0.3431319,0.6457427,9
17.36,-0.9276911,1.104518,-14.552,1.4156276348606929,-0.1779851757594023,3.4505718750085053,61.19757,75.4177,171.1798,0.5558859,-0.3610272,0.6550099,9
17.38,-0.8223561,1.295709,-14.55085,1.4165539464964163,-0.1671220931918652,3.5452801065398374,64.37481,74.48747,169.4986,0.548851,-0.3754055,0.6413907,9
17.4,-0.7176396,1.484164,-14.55019,1.4082017988538884,-0.1798489885256017,3.6251503397082057,67.5358,73.19257,167.4628,0.541359,-0.3894695,0.6272385,9
17.42,-0.5330898,1.144333,-14.47723,1.4032230961298098,-0.1357717029558096,3.698676364783601,58.38993,64.82816,167.6531,0.5095084,-0.3590749,0.7045621,9
17.44,-0.4312504,1.161758,-14.4435,1.39758739658783,-0.1369014139280488,3.768365476470315,55.77427,64.22165,168.6245,0.5067801,-0.3476647,0.7203311,9
17.46,-0.3254123,1.341812,-14.43324,1.38825981587144,-0.0866684239243069,3.8257765131193766,58.80809,63.16547,166.7006,0.5016249,-0.3625976,0.7073761,9
17.48,-0.2207642,1.519091,-14.42362,1.3705047173387328,-0.0831410692756506,3.8658123325208456,61.81847,61.79213,164.4729,0.4960645,-0.3772353,0.6938555,9
17.5,-0.1678445,1.212136,-14.32924,1.3584131970210716,-0.0318573819120522,3.902394213724396,43.11312,65.98289,173.7288,0.5225268,-0.2800112,0.7679744,9
17.52,-0.05734032,1.386614,-14.31063,1.3306819652805264,-0.0274151359741515,3.915147252877509,46.33479,65.84509,172.7353,0.5195944,-0.2979184,0.756619,9
17.54,0.05166736,1.558015,-14.29287,1.300396714524144,0.0208987092024857,3.925796309787796,49.5533,65.6122,171.6665,0.5162178,-0.3155684,0.7446238,9
17.56,0.1047615,1.257756,-14.15681,1.2573856935105543,0.022169066221055,3.9198906055680207,20.09958,65.95827,176.3303,0.540394,-0.1291494,0.8225328,9
17.58,0.1523318,1.26464,-14.11395,1.2215304277423928,0.0690141893969947,3.9194541141747288,13.90739,66.11287,176.9123,0.5439899,-0.08684578,0.8298875,9
17.6,0.2688726,1.433534,-14.08155,1.165299057922932,0.0678951752397243,3.8964177822719535,17.36874,66.5738,176.5473,0.5460956,-0.1098168,0.8234774,9
17.62,0.3341203,1.276297,-13.95675,1.0978850865263516,0.0651645105970179,3.857678860121607,358.4221,65.97271,178.0069,0.5441045,0.02101627,0.8387243,9
17.64,0.4500592,1.442582,-13.91392,1.0482077276042707,0.0847273925848179,3.837536123974764,1.962649,66.53074,177.9441,0.5486057,-0.004478711,0.8357133,9
17.66,0.5641093,1.605134,-13.87251,0.9955797012636468,0.1042695000222904,3.8140644067287854,5.502639,67.08659,177.9163,0.5525662,-0.02996509,0.8318878,9
17.68,0.560582,1.291681,-13.76885,0.9303859485685484,0.122536958007381,3.77753426142412,352.2305,64.46587,178.951,0.5315903,0.06217727,0.8442388,9
17.7,0.5962115,1.293956,-13.71651,0.8518627882108116,0.1367174671776585,3.727199987562698,352.8005,63.48142,179.2694,0.524687,0.05674205,0.8489529,9
17.72,0.7066514,1.455602,-13.65722,0.7771730858487873,0.1448937523675713,3.670191151327854,356.3634,64.00962,179.5638,0.5296173,0.02892349,0.8476345,9
17.74,0.7134858,1.270158,-13.56713,0.6898157215532376,0.152579075640047,3.6006434564098524,354.0851,61.22631,179.9632,0.5085465,0.04456664,0.8594873,9
17.76,0.8191539,1.433575,-13.50453,0.5890654015783394,0.157001660702667,3.517909242383084,357.6147,61.75965,180.2609,0.5131673,0.01669548,0.8580333,9
17.78,0.9230729,1.593315,-13.44377,0.4607999903238929,0.0843704248206528,3.4115762464335475,1.140256,62.31039,180.5912,0.5172816,-0.0111841,0.8557419,9
17.8,1.025039,1.749539,-13.38493,0.3649303057991765,0.0819003070207518,3.311604801544908,4.661425,62.88268,180.9563,0.5208861,-0.03904485,0.8526163,9
17.82,0.903881,1.246294,-13.35655,0.2579699342571535,0.0796846696660391,3.2001187680186587,1.362962,58.89537,181.5392,0.4914104,-0.0169594,0.8707435,9
17.84,1.008085,1.411527,-13.2892,0.1686143681197154,0.0776864318925191,3.093804339317052,4.971306,59.46376,181.8233,0.4948134,-0.04553857,0.8677711,9
17.86,0.9809223,1.232258,-13.2311,0.09321718332127,0.1019482188650481,2.9907524469776225,8.224345,56.89939,182.8289,0.4734595,-0.07475905,0.8775483,9
17.88,0.998474,1.226606,-13.19524,-0.0074785389482852,0.0750075376752851,2.8637927263910274,10.29356,56.23387,183.0977,0.4670625,-0.09177875,0.8792535,9
17.9,1.099057,1.397162,-13.12409,-0.1175981112487598,0.0488869534580959,2.7275083684578,13.9077,56.83752,183.3486,0.4690987,-0.1202373,0.8743342,9
17.92,1.069681,1.200026,-13.0841,-0.2028013274864438,0.0426244098136688,2.597389355756982,14.73952,54.97414,183.5807,0.453957,-0.1280376,0.8812069,9
17.94,1.166698,1.376791,-13.01238,-0.2962263023865756,0.0386124620740641,2.4599709278490707,18.32115,55.5878,183.8047,0.4554166,-0.1560388,0.8753311,9
17.96,1.132944,1.183569,-12.99951,-0.4126815844224983,-0.0188345937680156,2.302870281490868,17.37884,53.74744,183.8211,0.442096,-0.1495849,0.8835531,9
17.98,1.227684,1.364476,-12.92779,-0.4800975633779193,0.0038124856172502,2.1705142650496807,20.93382,54.35184,183.9904,0.4432254,-0.1771516,0.8771638,9
18.0,1.178144,1.168651,-12.92813,-0.5239322387363837,0.0541314569204349,2.0502534261445424,20.11645,51.63489,183.9653,0.423116,-0.1719579,0.888452,9
18.02,1.205279,1.153494,-12.87219,-0.5970671832925298,0.0210914339289867,1.907480235804365,23.04097,49.16504,183.9344,0.4011477,-0.1955019,0.8933696,9
18.04,1.295057,1.34258,-12.79917,-0.6410383737451151,0.0466075211744915,1.776832124819633,26.55094,49.69431,183.8917,0.401659,-0.2221429,0.8859502,9
18.06,1.384524,1.528357,-12.72706,-0.6885802694052788,0.0725080501765638,1.6451890783619227,30.05963,50.23836,183.8863,0.4017836,-0.2485633,0.877683,9
18.08,1.300815,1.13291,-12.74263,-0.7575232461432849,0.0132741244424714,1.497161018017323,28.00953,45.7726,183.9064,0.3695257,-0.2356833,0.8965826,9
18.1,1.385257,1.327314,-12.66711,-0.8302719955133809,-0.0449188386288235,1.3492609257807873,31.47403,46.25806,183.7854,0.3696356,-0.2617731,0.8881881,9
18.12,1.469678,1.518538,-12.59228,-0.8506314911596985,-0.0497859048614315,1.2234215139698217,34.93832,46.754,183.6958,0.3693972,-0.2876122,0.8789644,9
18.14,1.439455,1.118846,-12.56091,-0.8723078216522704,-0.0520852802301525,1.1001512814354135,37.35531,41.42819,182.9882,0.3271529,-0.3081772,0.8887491,9
18.16,1.479522,1.117244,-12.51783,-0.8728649310782403,-0.0520706466994081,0.9870319840402002,39.56682,41.22528,182.6554,0.3238404,-0.3243883,0.8832637,9
18.18,1.559083,1.316602,-12.44211,-0.8597737796689942,-0.0199648740433295,0.8859039580165795,42.93456,41.51028,182.2638,0.3229662,-0.3486674,0.8726243,9
18.2,1.563609,1.115042,-12.42404,-0.8464592854731559,0.0120373718123239,0.7902191292538434,43.23857,40.77988,181.7439,0.3186048,-0.3502416,0.8732563,9
18.22,1.641452,1.315242,-12.34781,-0.8441639483832031,-0.0433267230780343,0.6897613480673701,46.58473,41.04762,181.3553,0.3176204,-0.3741069,0.8617784,9
18.24,1.692465,1.112964,-12.27201,-0.8108980612616608,-0.0105330305448755,0.6000390631032784,48.03656,38.95058,179.5451,0.306054,-0.3825282,0.8606094,9
18.26,1.749183,1.110021,-12.20738,-0.7765976729961148,0.0219596272017697,0.5173917869250557,50.61568,38.33739,178.7399,0.301259,-0.4004918,0.8523062,9
18.28,1.82428,1.309415,-12.13169,-0.736909721352874,-0.0344583803899666,0.4509972461003251,53.89035,38.40737,178.1449,0.3001079,-0.4231203,0.8393135,9
18.3,1.899597,1.505988,-12.05643,-0.677720468144868,-0.0305525609388043,0.3926691500125605,57.16411,38.42046,177.506,0.2987003,-0.4453824,0.8256141,9
18.32,1.962641,1.102217,-11.96683,-0.609362482151528,0.0043516146015377,0.3415042675048878,59.60824,34.81308,174.1049,0.283626,-0.4602995,0.8192518,9
18.34,2.037396,1.295894,-11.89258,-0.5315799632068995,-0.0122795658494606,0.3119060616534421,62.83198,34.30975,172.9161,0.2820056,-0.4815557,0.8043823,9
18.36,2.112131,1.48683,-11.819,-0.4539965384081142,-0.0307310153919014,0.2896491046327651,66.04843,33.57901,171.5098,0.2801471,-0.5024025,0.7888445,9
18.38,2.24789,1.12872,-11.63424,-0.3834916400644927,0.0349757988360674,0.2712731276290121,60.96302,24.83912,166.7109,0.2414212,-0.4706162,0.8233498,9
18.4,2.302972,1.144058,-11.56525,-0.3141297460801249,0.0276128102528004,0.2643662979968608,58.41638,25.19661,167.8343,0.2397746,-0.4533802,0.8357623,9
18.42,2.376168,1.326001,-11.48928,-0.2465403327064739,0.0184883982113673,0.2655389441021223,61.47952,24.04445,165.8838,0.2390984,-0.4741422,0.8211941,9
18.44,2.49486,1.195284,-11.33647,-0.1932855801421356,0.083264738266847,0.2641627476018191,48.35758,30.52316,173.11,0.2634439,-0.3799972,0.8720309,9
18.46,2.569762,1.37165,-11.25887,-0.136718880790882,0.1038929582561802,0.2722925317395579,51.49789,30.29996,172.1186,0.263658,-0.4021613,0.8595441,9
18.48,2.643574,1.226956,-11.18851,-0.0871435320270033,0.1010294659960461,0.2833464391291538,38.09365,33.76921,174.6351,0.2888577,-0.2990816,0.8990769,9
18.5,2.728736,1.397016,-11.10151,-0.0409486979953492,0.0958143618756966,0.3030711963849737,41.62651,33.86441,173.9496,0.2897947,-0.3250789,0.8875149,9
18.52,2.756867,1.249968,-11.07198,0.0087393860106452,0.1126750087342162,0.3197589994028538,26.31739,36.96083,175.9669,0.316064,-0.2049147,0.9204184,9
18.54,2.842207,1.418595,-10.98474,0.0536585701740528,0.1283209282662026,0.3436659263605386,29.84792,37.3292,175.6159,0.3183389,-0.2319862,0.9116285,9
18.56,2.903679,1.267954,-10.90303,0.0871444733474576,0.0940522382047366,0.3698562415942193,8.234485,41.08527,177.5476,0.3513574,-0.05972675,0.9332418,9
18.58,2.989882,1.434866,-10.81427,0.1236110696073011,0.1264630250287058,0.3865257466372322,11.80102,41.61211,177.5144,0.355325,-0.08841158,0.928825,9
18.6,3.010828,1.275532,-10.77431,0.1559390900621114,0.1351968194247088,0.4005723642058699,358.4808,43.21497,178.1919,0.3679733,0.01813364,0.9296079,9
18.62,3.097185,1.441036,-10.68472,0.183198823945256,0.1205347307429682,0.4247303140671008,2.054763,43.74706,178.3102,0.372704,-0.01114485,0.9276598,9
18.64,3.17603,1.29131,-10.57118,0.2106500951917289,0.1514245564188522,0.4409565066178085,352.2431,44.49932,179.0544,0.3772466,0.06571919,0.9236031,9
18.66,3.225791,1.293802,-10.50589,0.2212256163332108,0.1322321454301806,0.4519912971613916,352.8015,44.58603,179.3175,0.3782425,0.06033948,0.9235564,9
