t,pX,pY,pZ,aX,aY,aZ,reX,reY,reZ,rtX,rtY,rtZ,ID
5.94,-44.30653,1.101089,-36.82274,2.54222370210422,-0.0228263381451709,2.2025818944040507,14.75122,356.4963,163.6208,-0.01173025,-0.1313236,0.9817129,16
5.96,-44.30789,1.300332,-36.81712,2.5540491105159706,-0.0027111193417364,2.225556017630228,14.91328,356.5983,163.663,-0.01070041,-0.1325842,0.9815988,16
5.98,-44.30932,1.499536,-36.81141,2.563999428220497,0.0403037077263504,2.246229770899286,15.07925,356.7101,163.7088,-0.009587289,-0.1338667,0.9814822,16
6.0,-44.2916,1.154203,-36.78564,2.5903002810356623,0.0165390037288209,2.259662641028113,15.00427,1.013025,163.6129,0.02728189,-0.1279763,0.9811169,16
6.02,-44.28015,1.153133,-36.75277,2.610800397295132,-0.0052060442768373,2.264292280462639,16.88308,1.753361,164.6617,0.03458785,-0.1434504,0.9799038,16
6.04,-44.2937,1.348912,-36.73386,2.6314166248230446,-0.0024582887188712,2.26658707219198,17.47547,1.547129,165.0676,0.03296887,-0.1488762,0.9796584,16
6.06,-44.18432,1.168264,-36.65054,2.6536468252845298,-0.0211346859702474,2.260611302998808,17.75323,6.659115,166.8416,0.07465573,-0.1464573,0.9788327,16
6.08,-44.18451,1.364573,-36.62579,2.6759298788326227,-0.0157223485343346,2.252244977502752,18.49874,6.270146,166.8652,0.07198051,-0.1532643,0.9780487,16
6.1,-44.09478,1.180017,-36.55208,2.689548360612271,-0.0338004920425746,2.233500972319818,15.09929,11.71049,168.7894,0.1134138,-0.1201967,0.9801348,16
6.12,-43.98489,1.19497,-36.44851,2.6956549521394964,-0.0509484121458361,2.2071097044094383,9.595905,17.75428,170.8403,0.1598831,-0.07009778,0.9803851,16
6.14,-43.96486,1.381443,-36.38273,2.702452352896106,-0.0442912185281322,2.178725800342288,11.69416,17.36658,170.7879,0.1577892,-0.08832015,0.9789839,16
6.16,-43.84336,1.210067,-36.30558,2.7116049103562965,-0.0597386718114391,2.14615074529252,3.729868,23.37504,172.978,0.2040384,-0.01940989,0.9765076,16
6.18,-43.81001,1.387938,-36.21567,2.7147163594223933,-0.074480453927973,2.107651245713772,6.62139,23.00288,173.0347,0.2021299,-0.04439401,0.9757782,16
6.2,-43.67474,1.226132,-36.15394,2.7179345710208054,-0.0660042085592899,2.067880006168351,0.8311417,28.23932,175.4842,0.2440291,0.002582346,0.9689404,16
6.22,-43.47703,1.264686,-36.00202,2.716196956082838,-0.0847591545564599,2.02109100488099,356.9746,32.67143,178.3393,0.2807703,0.02940452,0.9593027,16
6.24,-43.41216,1.417678,-35.86795,2.714140860410434,-0.079736505375495,1.973035259272136,1.323295,32.28939,178.7278,0.2781516,-0.008004735,0.9604037,16
6.26,-43.32615,1.266609,-35.9004,2.7012807271669725,-0.1006510702471747,1.91489814830238,354.3598,36.4063,180.2,0.3120899,0.04619347,0.9487762,16
6.28,-43.26561,1.426384,-35.78434,2.6886020358255145,-0.0974605015900809,1.8558299770649125,358.1612,36.00062,180.6629,0.3090654,0.01347322,0.9508877,16
6.3,-43.2014,1.254692,-35.84052,2.6621674957409915,-0.1191889413672403,1.7871444503168874,357.4233,39.51714,181.2164,0.3381776,0.01757126,0.9407539,16
6.32,-43.09576,1.24604,-35.79081,2.6367105531306843,-0.1165854353855749,1.7181716469828665,1.385239,42.69353,181.7288,0.3637737,-0.01674883,0.9312869,16
6.34,-43.03937,1.2409,-35.75722,2.6011136587753247,-0.1395390093837531,1.6415600052361707,3.944705,43.91793,182.2174,0.3730333,-0.03914566,0.9269781,16
6.36,-42.96967,1.407729,-35.65906,2.566761866657207,-0.1374017681039418,1.564916284610533,7.48815,43.58608,182.6398,0.3689677,-0.0691505,0.9268619,16
6.38,-42.90161,1.571022,-35.56246,2.516085908998609,-0.1613474642155307,1.4788535872499668,11.03291,43.27781,183.0454,0.3645439,-0.09907897,0.9258367,16
6.4,-42.87669,1.226064,-35.6639,2.467251937651735,-0.1594668936342008,1.393217246916885,10.33257,47.5789,183.3239,0.3991795,-0.09401222,0.9119867,16
6.42,-42.85327,1.217287,-35.67168,2.3995089214883123,-0.1844914702209299,1.2972732241879346,11.85451,48.9902,183.5186,0.4093196,-0.106588,0.9060197,16
6.44,-42.77518,1.389958,-35.58177,2.334432970717909,-0.1828860401747848,1.2023808743018831,15.40416,48.71679,183.9386,0.4042851,-0.1360654,0.9041314,16
6.46,-42.74157,1.190468,-35.63209,2.255984447110543,-0.2094619086125717,1.1002416629506886,16.0432,52.45493,184.0248,0.4329461,-0.1404696,0.8898875,16
6.48,-42.66105,1.369018,-35.54773,2.180744712685902,-0.2082934334555186,0.99963250780333,19.55711,52.23457,184.5196,0.4274639,-0.1694862,0.8871099,16
6.5,-42.6627,1.175228,-35.59327,2.0894942952398043,-0.2346700871117474,0.8917054726668816,18.68155,53.33345,184.3434,0.4370349,-0.1617191,0.8839101,16
6.52,-42.6027,1.16007,-35.5689,2.0022576383930684,-0.2325317458647176,0.7860015373390219,21.52387,53.51344,184.4338,0.435504,-0.1837188,0.8798163,16
6.54,-42.52098,1.346555,-35.49137,1.9050315734107564,-0.2593438971826472,0.6763428904349267,24.98093,53.30558,184.8458,0.4294026,-0.211638,0.8759097,16
6.56,-42.51468,1.144572,-35.51457,1.812288609508438,-0.2565954312166908,0.5694377273315201,24.56744,53.45787,184.4173,0.4318235,-0.2068147,0.8757364,16
6.58,-42.4326,1.334877,-35.43967,1.70873821706195,-0.2817649126993916,0.4585588647450693,28.01149,53.24552,184.7728,0.4254065,-0.2342759,0.8711634,16
6.6,-42.43586,1.131879,-35.46873,1.6103940853901015,-0.2767803299749852,0.3509112730299053,28.03303,52.89769,184.2659,0.4237669,-0.2327843,0.872088,16
6.62,-42.36183,1.124069,-35.42992,1.5017456177448991,-0.2996183099180406,0.2398653360546667,32.10298,52.27536,183.8224,0.4148411,-0.2622067,0.8663211,16
6.64,-42.27645,1.320579,-35.36244,1.3973853541913872,-0.3205276378011441,0.1307710394176657,35.5277,51.91528,183.838,0.4074181,-0.2881204,0.8602417,16
6.66,-42.23865,1.118497,-35.36341,1.2991427340984485,-0.3106173637354735,0.0257056342477799,37.4198,51.98903,183.0884,0.4072032,-0.2994078,0.8548165,16
6.68,-42.14957,1.317143,-35.30299,1.2070419517757882,-0.2719837854433212,-0.075047817168194,40.80722,51.4174,182.7658,0.3988802,-0.3238413,0.8478857,16
6.7,-42.06083,1.512929,-35.24243,1.1074917457557245,-0.2904066922114398,-0.178076090583743,44.19086,50.78782,182.3782,0.3902072,-0.3479797,0.8402027,16
6.72,-42.20293,1.091723,-35.17928,1.017539708575976,-0.3062923892620127,-0.2754140225494366,41.4447,59.86166,188.6027,0.442361,-0.3407856,0.8215215,16
6.74,-42.31217,1.260965,-35.02157,0.934398109150444,-0.2910600239066885,-0.3674236075742119,40.76502,64.94561,196.5788,0.4556628,-0.3633201,0.8095217,16
6.76,-42.42341,1.419945,-34.86167,0.8565416795897232,-0.3039235898463779,-0.4549977544806074,39.51926,69.91296,204.6245,0.4677312,-0.3856917,0.7948937,16
6.78,-42.27332,1.106845,-34.85099,0.7856907544058291,-0.2858712915839996,-0.5366356647022883,50.29547,54.9804,180.2875,0.4168974,-0.3780195,0.803497,16
6.8,-42.21022,1.303755,-34.7805,0.7219791596598233,-0.2389647722627342,-0.6120112376679154,53.14572,56.26626,181.4403,0.416722,-0.3997539,0.7912896,16
6.82,-42.14707,1.498459,-34.7104,0.6708519250060592,-0.2486067989439868,-0.6794466768143392,55.97655,57.74269,182.7852,0.4162592,-0.4212018,0.7785655,16
6.84,-41.94418,1.102453,-34.61105,0.626806303139384,-0.2282301040786123,-0.7401563343021103,61.15556,49.80183,173.0612,0.3897572,-0.4386343,0.7665113,16
6.86,-41.85069,1.107782,-34.55367,0.5899883543542401,-0.1798233332187723,-0.7938068983876416,62.65828,45.99738,169.291,0.3769502,-0.445392,0.7639092,16
6.88,-41.77792,1.295138,-34.48715,0.5778161765425338,-0.1796690746175835,-0.8342282948962252,65.75948,45.93549,169.1312,0.3735703,-0.4665586,0.7496979,16
6.9,-41.70572,1.480127,-34.42119,0.572486204367614,-0.1510436727855669,-0.86696723469543,68.85739,45.83772,168.9344,0.3699231,-0.4873517,0.7349488,16
6.92,-41.56648,1.14413,-34.3842,0.5881309544509001,-0.1396960947953288,-0.888170922168686,58.35581,43.89558,168.3286,0.3706206,-0.4166659,0.7871075,16
6.94,-41.48594,1.324826,-34.3193,0.6126413298173352,-0.1239581854818379,-0.9022686114921594,61.53709,42.89763,167.4048,0.3645318,-0.4388038,0.7743882,16
6.96,-41.4083,1.502766,-34.25302,0.6459575266569306,-0.0817166675836175,-0.9068686403128554,64.71529,41.8717,166.4562,0.358676,-0.4607897,0.7609017,16
6.98,-41.33173,1.678161,-34.18745,0.6843225893195743,-0.0887011290794532,-0.9082357379021344,67.88463,40.54626,165.2139,0.3524596,-0.482426,0.7468438,16
7.0,-41.12515,1.229199,-34.15601,0.7327196203419479,-0.1013346988898893,-0.8999754484237199,37.66291,53.13919,174.9758,0.4355892,-0.2698639,0.8393754,16
7.02,-41.06648,1.239288,-34.13693,0.7911803207809633,-0.0855159988302781,-0.8885420726475735,31.95284,54.98938,175.5616,0.4529561,-0.2267846,0.8472313,16
7.04,-40.96629,1.408803,-34.07418,0.8582175193608661,-0.0444787527013232,-0.8710458410140962,35.44348,54.65286,175.2803,0.4480394,-0.2521914,0.839776,16
7.06,-40.85342,1.263503,-34.05291,0.9302808690424992,-0.055334892941275,-0.8502103679751176,13.80831,60.01798,177.2882,0.4988333,-0.09231668,0.8580043,16
7.08,-40.74887,1.431072,-33.9921,0.9974546061192138,-0.0159062869738816,-0.8304251241737655,17.34539,59.8267,177.2463,0.4959858,-0.1188183,0.8548154,16
7.1,-40.7039,1.271921,-33.9875,1.0662342285132065,-0.0286214957877394,-0.8081537145656315,2.292467,62.88375,177.9781,0.5217489,-0.007862902,0.8526824,16
7.12,-40.65239,1.275574,-33.96674,1.133381002299637,0.0091148069687516,-0.7853078160408966,358.3595,63.93097,178.2143,0.5291006,0.02039193,0.8482953,16
7.14,-40.54413,1.441057,-33.90817,1.1971600189791296,0.0230856716737248,-0.7673311423027016,1.939251,63.75173,178.3048,0.5281599,-0.006558192,0.8488476,16
7.16,-40.42203,1.29149,-33.8651,1.2685957276556454,0.032781710352407,-0.7480212944133244,352.2101,65.84995,179.0652,0.5418018,0.06143954,0.8377177,16
7.18,-40.35656,1.293898,-33.83524,1.3199092473571046,0.0416975168102669,-0.735768246435736,352.8222,66.10002,179.312,0.5439766,0.05573565,0.8367411,16
7.2,-40.24838,1.455473,-33.77426,1.3767595765933445,0.047743172603716,-0.72617066788861,356.3918,65.89442,179.5957,0.5435,0.02833714,0.8388115,16
7.22,-40.17431,1.269629,-33.75389,1.4167621348160298,0.0490896152434118,-0.7216008459721177,354.0943,67.0163,180.0227,0.551331,0.04284408,0.8326946,16
7.24,-40.06791,1.433043,-33.69531,1.437238768715818,0.0688896554416054,-0.7297443961923769,357.6258,66.81587,180.3249,0.5505251,0.01573328,0.8345568,16
7.26,-40.03431,1.254373,-33.69929,1.4447657538529404,0.0405093052135504,-0.7549930886801315,357.4739,67.44282,181.1395,0.5551753,0.01281341,0.831382,16
7.28,-39.92612,1.418582,-33.64257,1.4490008881030638,0.0574961039790929,-0.7669488430791374,1.055728,67.26124,181.402,0.5536779,-0.01444604,0.8325903,16
7.3,-39.91521,1.245659,-33.64768,1.452984444368444,0.0725932543280501,-0.7874618729658085,1.462609,68.14854,181.5932,0.5600204,-0.01835939,0.8282641,16
7.32,-39.80473,1.410379,-33.59095,1.430414283868675,0.0620058658347748,-0.8026463854204691,5.119006,67.9871,181.8789,0.5578598,-0.04617779,0.8285716,16
7.34,-39.77159,1.23189,-33.58667,1.393417028175083,0.0516374646314341,-0.8194451432517402,8.296858,68.83104,182.8843,0.5620292,-0.07384634,0.8235675,16
7.36,-39.66138,1.400602,-33.53224,1.3578545944330749,0.0676097400428693,-0.8321563401281082,11.93975,68.70301,183.1657,0.5586223,-0.1013352,0.8224218,16
7.38,-39.67434,1.217273,-33.54487,1.3014126641178478,0.0314134348326795,-0.8578829473405136,11.91563,69.30706,183.3634,0.5627919,-0.1019434,0.819542,16
7.4,-39.5652,1.389789,-33.4926,1.245141775749726,-0.0043782770055524,-0.8893186191772608,15.52768,69.19492,183.6373,0.5587899,-0.1289998,0.8176395,16
7.42,-39.60192,1.199491,-33.5171,1.178940153017482,-0.0198276821973567,-0.9024798087971284,14.77999,69.86314,183.685,0.5641576,-0.1236522,0.8149745,16
7.44,-39.49396,1.376135,-33.46675,1.120089004053325,-0.0064690858579969,-0.9049522813441886,18.3656,69.76621,183.9649,0.5597081,-0.150363,0.8124802,16
7.46,-39.49869,1.175521,-33.47609,1.0418321620927342,-0.0467712602787526,-0.9169231443357012,18.75928,69.62815,184.1049,0.558129,-0.1538919,0.8128451,16
7.48,-39.39224,1.358157,-33.42797,0.970046638309034,-0.0303687067167138,-0.9117057322461252,22.31913,69.53321,184.3371,0.5530362,-0.1800468,0.8095483,16
7.5,-39.42119,1.160541,-33.44361,0.8768649623458575,-0.0688334080412164,-0.915563361584117,21.59646,68.41183,184.1603,0.5462267,-0.1748853,0.8156662,16
7.52,-39.31618,1.347328,-33.39681,0.7961374658383553,-0.050574828356862,-0.9023632134711042,25.12951,68.29073,184.2989,0.5407138,-0.2004631,0.8118069,16
7.54,-39.30985,1.138737,-33.395,0.7042757137008167,-0.058674498974982,-0.8858304679635594,26.34647,66.54917,184.0421,0.5271627,-0.2092542,0.8179539,16
7.56,-39.20681,1.331242,-33.34978,0.6130964989775185,-0.064432936869028,-0.8698225205097665,29.8436,66.37253,184.0402,0.5209795,-0.234011,0.8131398,16
7.58,-39.21181,1.128646,-33.35359,0.5188905692468202,-0.0692216403538823,-0.8445045589591835,30.06493,64.88555,183.7279,0.5107052,-0.2356226,0.8191422,16
7.6,-39.11001,1.324419,-33.31087,0.4260036671928562,-0.0717447979237794,-0.8190658143423164,33.50885,64.6133,183.5442,0.5039834,-0.2593551,0.8136976,16
7.62,-39.118,1.121776,-33.31669,0.3320354482692904,-0.0730013049851089,-0.7843079673411668,34.74176,63.60491,183.25,0.4955596,-0.2678943,0.8152449,16
7.64,-39.02954,1.117165,-33.28927,0.2414641549891696,-0.0419213147759218,-0.7436198688340196,39.64565,63.21668,182.6578,0.4862238,-0.3001626,0.8050933,16
7.66,-38.92912,1.316628,-33.24976,0.1457683475443376,-0.0675530176663701,-0.7048001082171766,43.01785,62.75341,182.2213,0.4782454,-0.3223594,0.7978581,16
7.68,-38.8289,1.51321,-33.21016,0.0585356950957267,-0.0331591473255954,-0.6542109647796885,46.3861,62.22544,181.7193,0.4698514,-0.3442669,0.7899256,16
7.7,-38.82533,1.114516,-33.21911,-0.0377633397192056,-0.0557371367921606,-0.6046857575473812,44.70827,63.25014,181.103,0.4818138,-0.3285031,0.7893914,16
7.72,-38.70759,1.112969,-33.17663,-0.1263294053492529,-0.1071111605166361,-0.5504644964721028,48.07613,62.36397,179.5064,0.4743521,-0.3464535,0.780416,16
7.74,-38.60915,1.313495,-33.13853,-0.180204894268801,-0.0675575496444119,-0.4943258817539577,51.37347,61.72699,178.9001,0.465849,-0.3676159,0.7713936,16
7.76,-38.52238,1.107156,-33.10888,-0.2026523997275093,-0.0240679677621796,-0.45069818745971,53.32761,61.27661,177.6467,0.4632543,-0.3766758,0.7640439,16
7.78,-38.42514,1.305631,-33.0713,-0.1849672528576125,-0.0619989881914632,-0.4188991580422088,56.58736,60.44493,176.8435,0.4543345,-0.3972025,0.7539862,16
7.8,-38.32813,1.501423,-33.03366,-0.1736769473564976,-0.0517754313126462,-0.3803911913118276,59.83821,59.44288,175.8693,0.4450425,-0.4173928,0.7433078,16
7.82,-38.19391,1.104572,-32.98644,-0.1551677914723317,-0.0412117228287184,-0.3434198862429753,61.23074,55.98869,171.1396,0.4374835,-0.4171375,0.7391742,16
7.84,-38.09781,1.295805,-32.94957,-0.1147881035892144,-0.0816796795044555,-0.3034276868517009,64.39423,54.26338,169.3955,0.4280774,-0.4365104,0.7274256,16
7.86,-38.00232,1.48444,-32.91278,-0.0889362676917624,-0.0375711889295262,-0.2700634123888634,67.52758,52.06136,167.1748,0.418327,-0.4555208,0.7150902,16
7.88,-37.78541,1.144531,-32.83483,-0.0625536502752757,0.0324248854923086,-0.2377049932231454,58.34682,50.80317,167.8173,0.4191562,-0.3980983,0.762094,16
7.9,-37.68907,1.326509,-32.79618,-0.0306043265593425,0.0303099264521453,-0.2085518437562958,61.40055,48.83232,165.7392,0.4103853,-0.4171733,0.7506998,16
7.92,-37.49488,1.195723,-32.73279,0.0160546046107477,0.0058159709172405,-0.1817793818156219,48.25621,56.87277,173.1861,0.4551742,-0.3329961,0.789535,16
7.94,-37.38272,1.210098,-32.70181,0.0574568010839549,0.0547010999498477,-0.1530262557891708,43.27703,58.5643,173.8817,0.471159,-0.2969102,0.7999748,16
7.96,-37.27251,1.381651,-32.65701,0.1013831023376976,0.1004358163683798,-0.1267193072759171,46.7943,57.74632,172.9696,0.4636551,-0.3199123,0.7904177,16
7.98,-37.1921,1.23909,-32.65287,0.1399586383607252,0.0734441858518151,-0.111017306464765,32.02346,62.03325,175.3379,0.5045016,-0.2160538,0.8173075,16
8.0,-37.0803,1.408296,-32.60785,0.1824199570225548,0.0423551053846592,-0.0981126442109978,35.56631,61.57131,174.8167,0.4987379,-0.2400728,0.8101354,16
8.02,-36.94996,1.263529,-32.58919,0.2087338725374294,0.0972984930986453,-0.0834037615579923,13.83902,67.03754,177.1729,0.5504989,-0.08688672,0.8257395,16
8.04,-36.83663,1.43109,-32.54492,0.237854841173422,0.1045863825100875,-0.0694115890684008,17.39502,66.8231,177.0137,0.5474211,-0.1120008,0.8226879,16
8.06,-36.77633,1.271911,-32.53511,0.2610152314557279,0.0876091658563828,-0.0605308114988751,2.323282,69.87619,177.9444,0.5727794,-0.006345988,0.8192628,16
8.08,-36.66197,1.438409,-32.49133,0.2810379230452566,0.1148537843787745,-0.0483952721311577,5.891459,69.70488,177.9435,0.5713747,-0.03192348,0.8188832,16
8.1,-36.61336,1.279161,-32.48195,0.2982846602832323,0.1387211060909579,-0.0390816948567991,354.4174,71.54823,178.4177,0.5832965,0.04756848,0.8106813,16
8.12,-36.49845,1.44387,-32.43707,0.3100422954984632,0.1387097539563148,-0.0303777747788958,357.9977,71.36901,178.5437,0.5830051,0.02160276,0.8121814,16
8.14,-36.3711,1.293752,-32.39674,0.3276121321508682,0.1612337741767265,-0.0179311894579088,352.8439,72.31172,179.2781,0.5885047,0.0540974,0.8060573,16
8.16,-36.25583,1.455137,-32.34874,0.3421078187269337,0.180080898095286,-0.0075980687671917,356.4363,72.11769,179.5295,0.5882232,0.02755222,0.8080905,16
8.18,-36.23045,1.282693,-32.34595,0.3361147245574551,0.1678993824280136,-0.0057011689115942,353.7715,72.7332,179.7656,0.5919833,0.0449575,0.8041147,16
8.2,-36.11734,1.444956,-32.29839,0.3228538190836802,0.1547157181449666,-0.006985398419661,357.3176,72.54076,180.0515,0.5914428,0.01860514,0.8060071,16
8.22,-36.05478,1.254562,-32.29385,0.3069086586052787,0.1409689252189573,-0.0110131238649469,357.4489,73.37601,181.1472,0.597458,0.0118699,0.8015288,16
8.24,-35.94203,1.418983,-32.24859,0.2832669651954962,0.127566135111277,-0.0163345277929378,1.009902,73.2025,181.4189,0.596086,-0.01445664,0.8027769,16
8.26,-35.91386,1.245713,-32.24582,0.2572441002019561,0.1139173875694753,-0.0242774734295512,1.455229,74.00873,181.5944,0.601628,-0.01851371,0.7985544,16
8.28,-35.79833,1.410496,-32.20074,0.2389236744985963,0.1479562746106645,-0.0259500610195484,5.105426,73.85566,181.8821,0.5995467,-0.04545661,0.7989316,16
8.3,-35.68511,1.571519,-32.15634,0.1918541185995508,0.1070556922337496,-0.0396132491545042,8.755905,73.72008,182.1618,0.5968535,-0.07234852,0.7984906,16
8.32,-35.75261,1.23192,-32.19107,0.1422798433536263,0.0905024961945568,-0.0521488162463228,8.290648,74.32937,182.8773,0.6008915,-0.07271463,0.7956636,16
8.34,-35.69959,1.217314,-32.17253,0.0912645073825295,0.0748556985050787,-0.0670063259836091,11.91214,74.65144,183.3538,0.6003993,-0.1001275,0.7924113,16
8.36,-35.58588,1.389832,-32.13097,0.0315052116356984,0.0560957626885379,-0.0828458025640364,15.5259,74.54554,183.6191,0.5963666,-0.1263823,0.7906585,16
8.38,-35.61452,1.199533,-32.14167,-0.0292403526409028,0.0388329080478472,-0.1007265018275984,14.78106,74.74602,183.6672,0.5983799,-0.1214321,0.7901935,16
8.4,-35.50239,1.376202,-32.10125,-0.0732429987650675,0.0723791982565381,-0.1109802276570284,18.36933,74.65233,183.9293,0.5938743,-0.1473732,0.7878582,16
8.42,-35.50544,1.175595,-32.09714,-0.1476792713472008,0.0254814045651176,-0.1326748034538503,18.7634,73.60667,184.0693,0.5860506,-0.1514249,0.7929558,16
8.44,-35.39543,1.3583,-32.05758,-0.2094370959017992,0.0053721237341219,-0.1471882879262582,22.32718,73.50722,184.265,0.580874,-0.1768615,0.7898225,16
8.46,-35.41755,1.160648,-32.05959,-0.2698378612781993,-0.012364947431591,-0.1627763313108512,21.59956,71.86452,184.1137,0.5706176,-0.1723129,0.798804,16
8.48,-35.30931,1.347533,-32.02052,-0.3308514829144728,-0.0297060794031548,-0.1763967244752722,25.13625,71.73255,184.2041,0.5650035,-0.197197,0.7951123,16
8.5,-35.34875,1.145372,-32.02938,-0.3894528727507991,-0.0447206847471849,-0.1905394045913495,24.62205,70.31326,184.0608,0.5560431,-0.1941455,0.8026287,16
8.52,-35.24228,1.336301,-31.99087,-0.437192614457718,-0.0601233041067801,-0.1989125865697274,28.1283,70.14265,184.0538,0.5499887,-0.2184759,0.798346,16
8.54,-35.23983,1.128704,-31.98006,-0.4874910166566031,-0.1012486129826142,-0.2094713611793515,30.06728,67.36868,183.7048,0.5283778,-0.2330382,0.8078563,16
8.56,-35.13584,1.324517,-31.94232,-0.5198497313973167,-0.0819917023972099,-0.2137646928540246,33.51606,67.0921,183.4972,0.5215592,-0.2563411,0.8025369,16
8.58,-35.13571,1.121809,-31.93915,-0.5483671916527855,-0.0628142638652339,-0.2181406672875616,34.73969,65.85111,183.2383,0.5114741,-0.2651447,0.8053653,16
8.6,-35.03297,1.319824,-31.90244,-0.5740221172253221,-0.0718328058393637,-0.2224072952639306,38.14503,65.47646,182.8886,0.5040245,-0.2876537,0.7991776,16
8.62,-35.03543,1.117183,-31.90844,-0.5945541461563795,-0.0788441659416792,-0.2260595505522902,39.63761,65.37557,182.6535,0.5013298,-0.2970378,0.7958035,16
8.64,-34.93351,1.316655,-31.87285,-0.5938867627418478,-0.0279120769018203,-0.2220020894092664,43.00963,64.91734,182.2118,0.4932674,-0.3188918,0.7886918,16
8.66,-34.87806,1.114522,-31.86176,-0.5925521818252002,-0.0330382067049786,-0.2179163695865678,44.69978,65.44176,181.106,0.4968297,-0.3247297,0.7800613,16
8.68,-34.77733,1.315108,-31.82627,-0.5898823851482198,-0.0652257147476153,-0.2141700109415771,48.04076,64.94544,180.6501,0.4884472,-0.3461928,0.7718155,16
8.7,-34.74675,1.112977,-31.81859,-0.5819733218261431,-0.0971532108096167,-0.2093539356732581,48.0744,64.40413,179.5035,0.4881826,-0.3425599,0.7718472,16
8.72,-34.59934,1.107162,-31.77007,-0.5409684791945639,-0.1004866392409799,-0.1921980958745694,53.32327,63.32878,177.648,0.4768663,-0.3722145,0.7556434,16
8.74,-34.50079,1.305638,-31.73599,-0.4981261327097659,-0.0728729974370509,-0.1746849847690343,56.58329,62.50544,176.845,0.4678208,-0.3924522,0.7457135,16
8.76,-34.40245,1.501429,-31.70185,-0.4510562692414206,-0.0466288885887016,-0.1563375777839395,59.83451,61.51264,175.8721,0.4583922,-0.4123583,0.7351698,16
8.78,-34.25491,1.104567,-31.65284,-0.3983608929077205,0.0355558380507269,-0.1360351317769184,61.22441,57.85967,171.1453,0.4494832,-0.4122122,0.7319745,16
8.8,-34.16686,1.109169,-31.62215,-0.3321692486147789,0.0092769775547393,-0.111890293535247,62.6571,54.54517,167.8448,0.4381453,-0.418107,0.7297519,16
8.82,-34.07007,1.297872,-31.5877,-0.2627955368289947,-0.0187621593972213,-0.087113465481226,65.76064,52.38431,165.629,0.428698,-0.4369509,0.7176835,16
8.84,-33.86966,1.144439,-31.51887,-0.1829379268532931,-0.0080821838040017,-0.0592806767768903,58.35994,52.38324,167.8292,0.4295685,-0.3941762,0.7562184,16
8.86,-33.77234,1.32639,-31.48262,-0.1023049166647838,-0.0207858107058125,-0.031915304317319,61.41803,50.43579,165.7691,0.4207234,-0.4130742,0.7448888,16
8.88,-33.67612,1.505701,-31.44663,-0.0198369385705734,-0.0358096941906762,-0.0040451789266997,64.43392,48.02307,163.2452,0.4115472,-0.4316379,0.7329699,16
8.9,-33.56456,1.195755,-31.41455,0.0458254457717779,0.0225703193389462,0.0179387621858588,48.25027,58.15224,173.1996,0.46393,-0.3302862,0.7844526,16
8.92,-33.3876,1.22772,-31.37492,0.1093367032367611,0.0096881164984457,0.0330073861242024,37.88693,61.48116,174.6935,0.4958654,-0.2563414,0.8043871,16
8.94,-33.27557,1.397791,-31.33241,0.1601283266594735,0.040811096072245,0.0447217774376604,41.41421,60.86954,173.9925,0.4891583,-0.2796198,0.7960142,16
8.96,-33.16546,1.564346,-31.29043,0.2079273281472766,0.0494400320383723,0.0529020440651435,44.93464,60.161,173.1968,0.481978,-0.3026236,0.7868683,16
8.98,-33.11255,1.256759,-31.30183,0.2540495603019481,0.0573548925706843,0.0600607967764905,20.04168,66.44011,176.5701,0.5436131,-0.1293582,0.8205884,16
9.0,-32.9975,1.424317,-31.25897,0.2919046901895834,0.062399223417247,0.0667239439592637,23.63704,66.17725,176.3033,0.5396193,-0.1542725,0.8160331,16
9.02,-32.88457,1.588183,-31.21669,0.3279674329572701,0.0665796580512308,0.0724472604371149,27.23054,65.88772,176.0097,0.5350922,-0.1790287,0.8106695,16
9.04,-32.78495,1.275599,-31.20441,0.3597741319024368,0.0688684170527743,0.0797487398711824,358.3764,71.66682,178.1798,0.5851156,0.02078281,0.8106707,16
9.06,-32.70364,1.279104,-31.17851,0.3884081943377926,0.0697689128990448,0.0862308049823097,354.4298,72.52579,178.4198,0.5901961,0.04732162,0.805679,16
9.08,-32.58781,1.443751,-31.13553,0.4126292677872176,0.0704241378161692,0.0925928632326953,358.0149,72.3544,178.5488,0.5899716,0.02145551,0.807139,16
9.1,-32.47427,1.604666,-31.09318,0.4333309027707845,0.0694299700670131,0.0985168708247652,1.599436,72.19128,178.6669,0.5891688,-0.004424393,0.8078057,16
9.12,-32.43983,1.293731,-31.09203,0.4524786727733572,0.0637767836747015,0.1046574440482448,352.8434,73.34016,179.2794,0.5957156,0.05380721,0.8007426,16
9.14,-32.32366,1.455099,-31.0461,0.4674616562230493,0.0571639881575705,0.1099602438885045,356.4369,73.15408,179.5329,0.5955084,0.02739395,0.8027372,16
9.16,-32.20996,1.61266,-31.00093,0.4634166023743837,0.0456277314765053,0.1077311212046465,0.0299471,72.98441,179.7743,0.5947127,0.0009614557,0.803936,16
9.18,-32.20128,1.261965,-31.01411,0.4548281827100546,0.0337452229515246,0.1038252788785256,355.7694,73.9564,180.5813,0.6012431,0.02643682,0.7981973,16
9.2,-32.16113,1.25437,-31.00576,0.4542576896241725,0.0682562654606875,0.1045904316359993,357.4725,74.09792,181.1255,0.6024946,0.01168518,0.797758,16
9.22,-32.0467,1.418521,-30.96238,0.4255186081203415,0.0285193536484306,0.0935897407616157,1.061406,73.93295,181.378,0.6011894,-0.01463106,0.7989626,16
9.24,-32.00024,1.240387,-30.94886,0.3937171686959986,0.0156533495151778,0.0846961840730098,4.039561,74.61139,182.0603,0.6050891,-0.03891905,0.7951747,16
9.26,-31.8844,1.406472,-30.90551,0.3585458088986271,0.0031986789767356,0.0745471508944031,7.689583,74.47865,182.3408,0.6025674,-0.06570446,0.7949861,16
9.28,-31.7708,1.568819,-30.86279,0.331812884606752,0.0384103541705274,0.0691335798399839,11.33934,74.36283,182.6156,0.5994313,-0.09241596,0.7939847,16
9.3,-31.83691,1.226184,-30.8859,0.2718791636504005,-0.0032489987721927,0.0520239011393934,10.36399,74.544,183.1577,0.6009152,-0.08846383,0.7937233,16
9.32,-31.82783,1.217451,-30.88311,0.2090235754074134,-0.0443212199863198,0.0336354760604216,11.90031,74.76372,183.332,0.6012034,-0.09989245,0.7918218,16
9.34,-31.71414,1.390121,-30.84259,0.1695109159746795,-0.0131425321575131,0.0254912293113367,15.50338,74.66065,183.5755,0.5972296,-0.1259432,0.7900547,16
9.36,-31.73027,1.190816,-30.84563,0.1097469295817421,-0.0346646382516188,0.0112511302586364,16.104,74.89295,183.7755,0.5980359,-0.1309772,0.7884737,16
9.38,-31.61844,1.369502,-30.80619,0.0364610561628508,-0.0810822821576433,-0.0073734249439052,19.68906,74.80991,184.0273,0.5933584,-0.1567622,0.7858315,16
9.4,-31.50806,1.544736,-30.76708,-0.0169470182254194,-0.0722435101593692,-0.0188230719074637,23.27334,74.74207,184.2796,0.5880989,-0.1823849,0.7824158,16
9.42,-31.60577,1.168214,-30.79573,-0.0865317071340672,-0.1186408992129543,-0.0353487013407884,20.15809,73.11124,184.057,0.5810676,-0.1612479,0.7940763,16
9.44,-31.56224,1.153018,-30.77594,-0.1392803092359034,-0.1070800445266847,-0.0467148625142983,23.08317,71.61359,184.0443,0.5671415,-0.1823884,0.7982315,16
9.46,-31.45459,1.341981,-30.73873,-0.1917811132854563,-0.0953991987436475,-0.0581515675782817,26.59692,71.46391,184.0683,0.5613483,-0.206779,0.7942611,16
9.48,-31.47701,1.139034,-30.74129,-0.2482749662686951,-0.1121680397625311,-0.0706469887366467,26.30349,69.89363,183.9665,0.551003,-0.2056952,0.8022169,16
9.5,-31.37143,1.331795,-30.70453,-0.3141708968098102,-0.1545896243253283,-0.0865631040489054,29.7745,69.69617,183.8857,0.5447567,-0.2294454,0.7976439,16
9.52,-31.34651,1.124836,-30.68903,-0.3560199940553485,-0.1375003817631512,-0.0950198180812322,32.09702,67.00928,183.5269,0.523147,-0.2467321,0.8056613,16
9.54,-31.2844,1.12187,-30.66689,-0.4021292817403004,-0.1766357038618961,-0.1058963837503648,34.71861,66.37302,183.219,0.5152155,-0.2642735,0.803047,16
9.56,-31.18151,1.319959,-30.6318,-0.4298185546653092,-0.154971456283511,-0.1122225669112633,38.10956,65.99393,182.8485,0.5077901,-0.2865216,0.7969189,16
9.58,-31.07889,1.515125,-30.59664,-0.4538730789070211,-0.1333316278232227,-0.1179641447812018,41.49739,65.56666,182.4294,0.4999186,-0.30851,0.7900875,16
9.6,-31.09511,1.115615,-30.61057,-0.4742623999636222,-0.1394279533895318,-0.124429611430672,41.86984,65.8558,182.3373,0.5014774,-0.3102002,0.7877452,16
9.62,-30.99314,1.315677,-30.57596,-0.4990883620001574,-0.1719271675028346,-0.1331481029257455,45.23476,65.3818,181.8796,0.4931933,-0.3317914,0.780175,16
9.64,-30.89132,1.512871,-30.54125,-0.5034182447314715,-0.1440042954326465,-0.1345124143997078,48.59565,64.83672,181.3504,0.4844821,-0.3530869,0.7719261,16
9.66,-30.83662,1.112959,-30.5272,-0.5004512530008891,-0.173585301819978,-0.1343405088597018,48.08964,64.46702,179.5161,0.4885399,-0.3425956,0.7715573,16
9.68,-30.76567,1.109981,-30.50373,-0.4857703171745742,-0.143041303302479,-0.1293648788009678,50.68464,64.05674,178.6977,0.4833958,-0.3574034,0.7635711,16
9.7,-30.66672,1.309496,-30.46967,-0.466142868421731,-0.1131029663220057,-0.1231623444984304,53.95507,63.35518,178.011,0.4746256,-0.3778753,0.7541639,16
9.72,-30.47098,1.102226,-30.40622,-0.4165304083179486,-0.1098906904684935,-0.1076662112185946,59.68771,61.05592,174.0242,0.4623405,-0.4051074,0.7329574,16
9.74,-30.37313,1.295981,-30.37303,-0.3700620321828145,-0.0755837434973811,-0.0933535515117696,62.90227,59.75425,172.7203,0.4528221,-0.4245348,0.721714,16
9.76,-30.27576,1.487113,-30.33988,-0.3202182276995731,-0.0427449788670638,-0.07830533766696,66.09873,58.11049,171.0743,0.4429361,-0.4436075,0.7098842,16
9.78,-30.179,1.675653,-30.3068,-0.2613266826342055,-0.0885393266342214,-0.0607691982734626,69.26931,55.97035,168.9317,0.4326915,-0.4623114,0.6974769,16
9.8,-30.01433,1.129006,-30.25151,-0.2071416461979471,-0.0491959166792918,-0.0447525403540973,60.94196,51.85178,166.6927,0.4271291,-0.4093341,0.7442367,16
9.82,-29.91703,1.313237,-30.2166,-0.1496053106112258,0.016583966763081,-0.0277956739079279,63.98502,49.57297,164.3007,0.4179237,-0.4279328,0.7324358,16
9.84,-29.72689,1.178391,-30.15335,-0.0763478612226529,0.0128459803430792,-0.0084172783299365,52.03695,55.62258,171.209,0.4477791,-0.3547159,0.7768252,16
9.86,-29.63629,1.195674,-30.12268,-0.0174643018216182,0.0354520432623346,0.0041300158055554,48.26818,58.14295,173.1782,0.4639045,-0.3303459,0.7843845,16
9.88,-29.53767,1.372088,-30.08451,0.0431695017071969,0.0571730190435233,0.0169860521230647,51.4019,57.21061,172.1633,0.4564174,-0.3503691,0.7750465,16
9.9,-29.44044,1.545762,-30.04671,0.1050434503813071,0.0748735347832755,0.0299207961971332,54.52268,56.11338,170.985,0.4485764,-0.3701124,0.7651047,16
9.92,-29.35838,1.239233,-30.05419,0.1542601544617619,0.0919743594288478,0.035314406945976,32.02507,63.15118,175.3425,0.5124406,-0.2143634,0.8123503,16
9.94,-29.24642,1.408683,-30.01164,0.1930940504156049,0.1296682630282336,0.0405043879657647,35.54391,62.71019,174.8303,0.5067604,-0.2380411,0.8052169,16
9.96,-29.14396,1.26387,-30.00157,0.2298473051242786,0.1650223129106621,0.0447391786635638,13.8181,67.98277,177.1705,0.5573017,-0.08600459,0.8211894,16
9.98,-29.03111,1.431879,-29.95982,0.258527582632293,0.1283601046281542,0.0430156339504281,17.33243,67.78446,177.0119,0.5543397,-0.1106603,0.818141,16
10.0,-28.99284,1.272016,-29.95547,0.2856962315360389,0.136702208998501,0.0451046463925042,2.322412,70.67303,177.9406,0.5784627,-0.006137659,0.8152595,16
10.02,-28.87813,1.438647,-29.91363,0.3103849662575566,0.1441849022706828,0.0464918636407425,5.878973,70.51742,177.9376,0.5771701,-0.03149182,0.8148148,16
10.04,-28.75725,1.285336,-29.8799,0.3334296753543699,0.1040095378181905,0.0462541391258994,353.3082,72.79005,178.723,0.5917772,0.05357768,0.8039092,16
10.06,-28.64131,1.44876,-29.83603,0.3550880530710554,0.1314978674050031,0.0498391969463454,356.8925,72.62047,178.8925,0.5917007,0.02756921,0.8056439,16
10.08,-28.58632,1.293768,-29.82167,0.3772786422042089,0.1800324561865546,0.0550693813011471,352.8344,73.19819,179.2866,0.5947231,0.0538734,0.8014743,16
10.1,-28.47051,1.455198,-29.77532,0.3742525731781114,0.1533497129836223,0.0507341062545063,356.4211,73.0189,179.5484,0.5945618,0.02744243,0.803434,16
10.12,-28.40641,1.269705,-29.75862,0.3653040035638266,0.0998467454110233,0.0432210405561539,354.0975,73.7053,180.0072,0.5989663,0.04116057,0.7991174,16
10.14,-28.29347,1.433078,-29.71341,0.3638297484855526,0.1143552653378291,0.0408310634088233,357.6346,73.5299,180.2977,0.5984471,0.01498031,0.8008924,16
10.16,-28.26847,1.254408,-29.71817,0.3445154215645361,0.0796576705640744,0.0320641601622377,357.4676,73.94364,181.1302,0.6014202,0.01172323,0.7985663,16
10.18,-28.15432,1.41861,-29.67444,0.3213328177530137,0.0441206333937658,0.021964698759779,1.050909,73.78616,181.3877,0.6001655,-0.01460317,0.7997316,16
10.2,-28.04248,1.579162,-29.63141,0.3090892855757063,0.0806328243615783,0.0188816163224463,4.634272,73.64445,181.6356,0.5983212,-0.04090851,0.8001088,16
10.22,-28.09505,1.240399,-29.65763,0.2775321898318337,0.0678824988435872,0.0113319815759731,4.035758,74.52278,182.0625,0.6044744,-0.03890952,0.795643,16
10.24,-28.02968,1.232155,-29.63326,0.2430765737962303,0.0560324133496018,0.0029553846359116,8.259052,74.57455,182.8689,0.6026152,-0.07240102,0.7943858,16
10.26,-27.91512,1.401137,-29.59092,0.2150297288490117,0.0930150987397864,-0.0021230104109353,11.8772,74.46809,183.1381,0.5993439,-0.09882193,0.7933149,16
10.28,-27.8026,1.566471,-29.54915,0.1559780335595171,0.0523192428892092,-0.0178697244313164,15.49477,74.37775,183.4044,0.5954726,-0.1251361,0.7914475,16
10.3,-27.89315,1.208694,-29.57926,0.0942494400833755,0.0125993513969178,-0.0345677494593932,13.4544,74.75381,183.5308,0.5997223,-0.1116169,0.7910047,16
10.32,-27.78001,1.3833,-29.53866,0.0559754950418129,0.0461492670680983,-0.0426672307381701,17.05626,74.66846,183.7881,0.5955332,-0.1376694,0.7888628,16
10.34,-27.66858,1.554365,-29.49849,0.0070051376976407,0.0260419593927259,-0.0531335323654951,20.65736,74.59867,184.0452,0.5907544,-0.1635774,0.7859374,16
10.36,-27.74475,1.175696,-29.52031,-0.0534414477947158,-0.0187337226015165,-0.067244046215277,18.75315,73.80376,184.0484,0.5874524,-0.1511275,0.7919435,16
10.38,-27.71997,1.168278,-29.50901,-0.0954417277770427,-0.0063667840230212,-0.0751904907740788,20.14343,73.05656,184.056,0.5807071,-0.1611786,0.7943683,16
10.4,-27.61104,1.353207,-29.47134,-0.1377448110265837,0.0061131547475554,-0.0832134121410392,23.671,72.94773,184.1729,0.5754281,-0.1860017,0.7909501,16
10.42,-27.61256,1.145423,-29.46767,-0.2088635065626167,-0.0653373525533199,-0.0999144057698329,24.61784,70.87247,184.0465,0.559983,-0.1935839,0.7998995,16
10.44,-27.50557,1.336386,-29.43062,-0.2484409131896603,-0.0534098265911279,-0.1064301432944616,28.12266,70.71105,184.0257,0.5540036,-0.2177459,0.7955893,16
10.46,-27.39928,1.524189,-29.39366,-0.2903950003744948,-0.0671868632611013,-0.1134112545980299,31.62596,70.54256,183.9926,0.5475085,-0.2416942,0.7905353,16
10.48,-27.45966,1.128728,-29.40635,-0.3296548172756752,-0.0782574085223651,-0.1195558236523495,30.05809,68.00415,183.7032,0.5328665,-0.2323102,0.8049278,16
10.5,-27.43466,1.124861,-29.39627,-0.3612988231954523,-0.0877731070653775,-0.12377803399445,32.08038,67.08324,183.5243,0.5236981,-0.2465218,0.8053515,16
10.52,-27.33115,1.322057,-29.36026,-0.389023379203294,-0.0947474945955086,-0.1269806683641001,35.49812,66.77355,183.2401,0.5166891,-0.2692559,0.7996555,16
10.54,-27.27884,1.11717,-29.34544,-0.4061382214699409,-0.0993510807679472,-0.129187309359454,39.63485,65.99065,182.6631,0.5055742,-0.2961728,0.7931216,16
10.56,-27.17641,1.316607,-29.31065,-0.4128284655943059,-0.071688755968932,-0.1282250766427322,43.01345,65.55447,182.2318,0.4975825,-0.3179899,0.7859588,16
10.58,-27.07417,1.513149,-29.27578,-0.4152547487709239,-0.0439990884299333,-0.1260650148341802,46.38832,65.05549,181.7374,0.4891568,-0.3395209,0.7781073,16
10.6,-27.07908,1.11453,-29.28564,-0.4269267640592566,-0.1036836751638799,-0.1277174056586463,44.69586,65.81736,181.1057,0.499392,-0.3240508,0.7784387,16
10.62,-27.04247,1.113795,-29.27435,-0.4103417454774827,-0.1041173851539539,-0.1188044969491803,46.361,65.40546,180.326,0.4957191,-0.3326444,0.7741534,16
10.64,-26.94228,1.314408,-29.24067,-0.3894030885050084,-0.1028628082399525,-0.1085760903278147,49.66239,64.85104,179.7829,0.487301,-0.3535497,0.7656245,16
10.66,-26.82852,1.107172,-29.20555,-0.3644555320703158,-0.1033206070752307,-0.0971794960710368,53.3181,63.8208,177.6526,0.4801014,-0.3711177,0.7536167,16
10.68,-26.72945,1.305638,-29.17222,-0.3218568781444082,-0.1030938734938211,-0.0793207970086546,56.58431,63.01392,176.851,0.4711027,-0.3912972,0.7436405,16
10.7,-26.63062,1.501407,-29.13884,-0.2714342367940467,-0.0716983840876561,-0.0589162157167182,59.84188,62.03897,175.8811,0.4617169,-0.4111446,0.7330505,16
10.72,-26.42677,1.109067,-29.07695,-0.2175094836676758,-0.041476873786996,-0.0375995603504644,62.65919,56.41562,167.9077,0.449768,-0.4131336,0.7226718,16
10.74,-26.32903,1.297702,-29.0449,-0.1562719695678929,-0.0294724009239478,-0.0130214768996448,65.77338,54.32357,165.7516,0.4403027,-0.4318276,0.7106304,16
10.76,-26.23204,1.483742,-29.01297,-0.0934111440793161,-0.0405732558980787,0.0120354422702821,68.84517,51.62099,162.9857,0.4304852,-0.4501681,0.6980184,16
10.78,-26.0932,1.144386,-28.96784,-0.029514277807904,-0.0532717537604299,0.0375894439868407,58.36559,53.96814,167.8618,0.4398683,-0.3901948,0.7502677,16
10.8,-25.995,1.326266,-28.93374,0.0350828261057718,-0.0707907642851268,0.0634661210320484,61.43231,52.06941,165.8406,0.4310283,-0.4089491,0.7389511,16
10.82,-25.8979,1.505501,-28.89989,0.0900140530948228,-0.0544704831993359,0.0836591897392704,64.45861,49.71356,163.3639,0.4218487,-0.4273718,0.72705,16
10.84,-25.70271,1.212094,-28.85092,0.1453744669203409,-0.0385678993944104,0.104103659942992,43.02555,61.18179,173.9659,0.4894108,-0.2903144,0.7899221,16
10.86,-25.60272,1.227434,-28.82913,0.1924978037542835,-0.0220557509208531,0.1171311502991065,37.95388,62.70773,174.6865,0.5043857,-0.2545947,0.7988455,16
10.88,-25.4897,1.397514,-28.78912,0.2406199372126023,0.0176217098006627,0.1309054720488212,41.48241,62.11052,173.9852,0.4976839,-0.2776591,0.7904608,16
10.9,-25.37862,1.564075,-28.74961,0.2782766206422393,0.0091940980788953,0.1383023673636758,45.00429,61.41703,173.1904,0.4905006,-0.3004514,0.7813082,16
10.92,-25.34694,1.25673,-28.7668,0.3158696046693285,-0.0014254243816315,0.1452905801769786,20.06644,67.57577,176.5664,0.5517072,-0.1283227,0.8151219,16
10.94,-25.23096,1.424284,-28.72637,0.3553476886856157,0.0090315548971069,0.1567849960377287,23.66238,67.32759,176.2987,0.5477707,-0.1530361,0.8105277,16
10.96,-25.11711,1.588144,-28.68651,0.3873592356426858,-0.00430581025003,0.1650603795441334,27.25641,67.05311,176.0052,0.5432928,-0.1775921,0.805131,16
10.98,-25.04375,1.275589,-28.68077,0.4179128432592889,0.0269995574940556,0.1771704917546506,358.3927,72.66239,178.1763,0.5921389,0.0207257,0.8055569,16
11.0,-24.98329,1.27909,-28.6628,0.4446526968562794,0.0553523671610882,0.1882626746450983,354.446,73.5305,178.4188,0.5972426,0.04705742,0.8004778,16
11.02,-24.86665,1.443738,-28.62198,0.472140328543472,0.0607285538945528,0.2006927711670281,358.0312,73.37421,178.5482,0.5971341,0.02134397,0.8018575,16
11.04,-24.74202,1.293724,-28.58638,0.4956556426676686,0.0646182819021895,0.2127310886481397,352.8414,74.26949,179.2774,0.6021881,0.05356874,0.7958848,16
11.06,-24.62502,1.455091,-28.5425,0.4991689940028001,0.0629170957641588,0.2185810662786882,356.4351,74.09827,179.5306,0.6021015,0.02729191,0.797803,16
11.08,-24.51051,1.612648,-28.49936,0.4978030864240073,0.0606781617051348,0.2234048427739443,0.02846943,73.94344,179.7725,0.60142,0.0009953352,0.7989306,16
11.1,-24.53946,1.269693,-28.51642,0.4998040475138299,0.1023306900362088,0.2311994192047417,354.0997,74.63946,180.0023,0.6054596,0.04091796,0.7942103,16
11.12,-24.43879,1.254437,-28.49055,0.479067294798007,0.0686220068320795,0.2284113848330808,357.4614,74.79599,181.125,0.6073425,0.01163597,0.7940707,16
11.14,-24.32392,1.418632,-28.44866,0.4614763643742896,0.0856515770078291,0.2285762188492781,1.045637,74.64572,181.3802,0.6061492,-0.0145581,0.7952075,16
11.16,-24.30209,1.245705,-28.44117,0.4392304478922666,0.1007586730686649,0.2272171086378906,1.449489,75.05715,181.5815,0.6089119,-0.01843619,0.7930171,16
11.18,-24.18532,1.410432,-28.39869,0.4028649052843267,0.0916373640502688,0.2219759708747415,5.106817,74.92641,181.8591,0.6069943,-0.04521473,0.7932914,16
11.2,-24.07087,1.571382,-28.35686,0.362848258845208,0.0832584487743889,0.2157048520438489,8.764325,74.8127,182.1303,0.604455,-0.07194401,0.7927511,16
11.22,-24.13935,1.22628,-28.37488,0.3049028740725745,0.0222294455885187,0.2025360931348241,10.35248,74.68538,183.1418,0.6019139,-0.08826045,0.7929823,16
11.24,-24.02434,1.396735,-28.33376,0.2587841134243587,0.0095782584823717,0.1947040215210291,13.98286,74.59062,183.3857,0.5982949,-0.1145564,0.791442,16
11.26,-23.9113,1.563538,-28.29316,0.2169835847135814,0.0249979564201832,0.1885287692156851,17.61256,74.51049,183.6277,0.5940738,-0.1407292,0.7891031,16
11.28,-23.98934,1.199599,-28.31961,0.1533480521140555,-0.0118997691604849,0.1742600936330913,14.77861,74.93421,183.6498,0.5996974,-0.1212376,0.7892034,16
11.3,-23.87662,1.376238,-28.28009,0.0872047270447988,-0.0474676992259071,0.1589827183798591,18.37399,74.85889,183.8966,0.5953305,-0.1471091,0.786762,16
11.32,-23.76547,1.549377,-28.24097,0.0272999407352059,-0.059515438265945,0.1454504965111542,21.9686,74.79861,184.144,0.5903764,-0.1728272,0.783542,16
11.34,-23.82314,1.168203,-28.25416,-0.0420324950783803,-0.0975918304282918,0.1287432649656121,20.16148,73.18119,184.0602,0.581544,-0.1612408,0.7937201,16
11.36,-23.78799,1.160797,-28.24017,-0.112198107013655,-0.1337254553270473,0.1115674897067808,21.57904,72.34694,184.0893,0.5740369,-0.1717055,0.7964004,16
11.38,-23.67943,1.347775,-28.20284,-0.1731570961164554,-0.1439839295468281,0.096728145406824,25.10543,72.2283,184.1563,0.5685622,-0.1963216,0.7926606,16
11.4,-23.57181,1.531507,-28.16568,-0.220547909441092,-0.1231092761191782,0.0860848140834269,28.63067,72.11069,184.2169,0.5625507,-0.220742,0.78817,16
11.42,-23.66375,1.139037,-28.18823,-0.2854054088975273,-0.1574803997820883,0.0694542409746836,26.3084,69.82907,183.9635,0.5505494,-0.205773,0.8025175,16
11.44,-23.55793,1.331778,-28.15136,-0.3363699608067487,-0.1603430131993406,0.0572491292584667,29.7864,69.64529,183.8805,0.5443949,-0.2295558,0.7978603,16
11.46,-23.55142,1.12486,-28.14113,-0.3847865374729688,-0.1606901669324177,0.0455868705140396,32.08886,66.8923,183.5258,0.5223392,-0.2468006,0.806209,16
11.48,-23.44764,1.322017,-28.10456,-0.4424612098517233,-0.2180563012900014,0.0294733856646653,35.52012,66.5908,183.2436,0.5153684,-0.2696551,0.800437,16
11.5,-23.44384,1.118787,-28.10119,-0.4727855361164823,-0.1880387103818511,0.0211614211158694,37.39513,65.61702,182.9825,0.5060516,-0.2827021,0.8003792,16
11.52,-23.34123,1.317627,-28.06563,-0.5002470912382782,-0.1843551220058821,0.0119636483974265,40.78377,65.2076,182.5619,0.498371,-0.3047484,0.7936234,16
11.54,-23.27388,1.115061,-28.05157,-0.5227516538019441,-0.2070712034084245,0.0038851906373058,43.27739,65.55772,181.7183,0.4985392,-0.3175456,0.7844214,16
11.56,-23.17251,1.315398,-28.01648,-0.5334076066045328,-0.1690657259332076,-6.60331544151127e-05,46.62936,65.08725,181.2562,0.490329,-0.3390317,0.776436,16
11.58,-23.07127,1.512887,-27.9813,-0.5451255371069248,-0.1881571595197399,-0.0051696351765415,49.97734,64.54309,180.7202,0.4816976,-0.360218,0.767781,16
11.6,-23.06322,1.112972,-27.9804,-0.5525734058229981,-0.2068172771877035,-0.009242273451206,48.07261,64.2474,179.516,0.4870923,-0.3429021,0.7725435,16
11.62,-22.91893,1.107166,-27.93085,-0.5425841818863355,-0.1965087810611069,-0.0067530713614094,53.31974,63.10344,177.652,0.4753731,-0.3727006,0.7566005,16
11.64,-22.82038,1.305633,-27.89629,-0.5059211169504976,-0.1825084084653081,0.0054448917244762,56.58283,62.30563,176.8529,0.4664939,-0.3929454,0.746548,16
11.66,-22.72206,1.501407,-27.86168,-0.4650475301629382,-0.1680918140645766,0.0186886418561846,59.83737,61.34104,175.8869,0.457232,-0.4128574,0.7358806,16
11.68,-22.57489,1.104549,-27.81055,-0.4190838101473209,-0.1476177811387245,0.0344419853230197,61.21799,57.57503,171.1591,0.4476243,-0.4129761,0.7331518,16
11.7,-22.47765,1.295807,-27.77643,-0.3697413119340567,-0.1271384013903555,0.0511400557582555,64.38221,55.8793,169.4139,0.4382418,-0.4320636,0.7214206,16
11.72,-22.38102,1.484459,-27.74241,-0.3172585850777318,-0.1585977621465349,0.0691405237091276,67.51685,53.71083,167.1964,0.4285071,-0.450793,0.7091075,16
11.74,-22.15279,1.144411,-27.65972,-0.2678464254151627,-0.1266893809600427,0.0879994484365211,58.36732,51.81863,167.7914,0.4259596,-0.3955459,0.7581977,16
11.76,-22.05282,1.161802,-27.62321,-0.2169789069100489,-0.0950862914392099,0.1075890370355803,55.75835,52.30351,168.781,0.4287577,-0.3796473,0.7695017,16
11.78,-21.95549,1.341643,-27.58568,-0.1646426353046068,-0.1122420796622371,0.126531981301468,58.81416,50.61971,166.9496,0.4204595,-0.3986802,0.758574,16
11.8,-21.85935,1.518819,-27.54847,-0.1166292186002757,-0.0547497658106329,0.144709493512988,61.8353,48.56646,164.7508,0.4118337,-0.4173934,0.7470526,16
11.82,-21.76275,1.211863,-27.52922,-0.0732447011080243,-0.0442602681458457,0.1577506120165885,43.06415,59.28975,173.9651,0.4762576,-0.2943193,0.7977777,16
11.84,-21.66024,1.385837,-27.48835,-0.0252562300735776,-0.0575796175279565,0.170612718330021,46.32607,58.58377,173.1634,0.4694741,-0.3156236,0.7889335,16
11.86,-21.51829,1.250308,-27.47032,0.0097467556618453,-0.0042593552904251,0.181115960830156,26.17291,64.27592,175.9936,0.5245298,-0.1734972,0.8200644,16
11.88,-21.40626,1.419143,-27.42739,0.0362637671574055,0.0239822223225065,0.1898936932578956,29.6863,63.95446,175.6097,0.5198582,-0.1975343,0.8141548,16
11.9,-21.36439,1.263802,-27.42566,0.0613267631771452,0.051408611649046,0.1978625235503837,13.86008,67.33704,177.1609,0.5526559,-0.08675347,0.8242679,16
11.92,-21.25172,1.431766,-27.38288,0.0728970509883208,0.0292739707434932,0.201097559789583,17.37968,67.15152,176.9967,0.5498016,-0.111508,0.8211189,16
11.94,-21.13844,1.275785,-27.35168,0.0976665667748468,0.052576009456789,0.2142249510552853,358.3808,70.915,178.1769,0.5797845,0.02073612,0.8144922,16
11.96,-21.05759,1.279145,-27.32386,0.1199238710317951,0.0744108866338281,0.2275724265795111,354.4464,71.74385,178.4181,0.5846897,0.04733219,0.8096922,16
11.98,-20.94244,1.443867,-27.27956,0.131491275916213,0.0474992365596252,0.236786534740744,358.0252,71.59448,178.5476,0.5846077,0.02138846,0.8110343,16
12.0,-20.82955,1.604869,-27.23594,0.1461549236059038,0.0878833316795886,0.2514290321144261,1.603223,71.45333,178.6677,0.5839545,-0.004568652,0.8115826,16
12.02,-20.75966,1.296208,-27.21342,0.1524713305178631,0.1004965852093975,0.2627261512609382,353.4504,72.01823,179.4919,0.5867432,0.0488118,0.8077435,16
12.04,-20.6454,1.45734,-27.16503,0.1553863824456449,0.1120312036341179,0.2742606710749888,357.0135,71.85603,179.7534,0.5865223,0.02236336,0.809511,16
12.06,-20.63395,1.269951,-27.16406,0.1528215911292658,0.1663432312389362,0.2863548599341921,354.0771,72.35175,179.9923,0.5894748,0.04174355,0.806133,16
12.08,-20.52251,1.433595,-27.11698,0.1288263189578367,0.1455549165422461,0.2871606109832898,357.5941,72.19144,180.2693,0.5890445,0.01557955,0.8078246,16
12.1,-20.41334,1.593665,-27.07067,0.101214172249151,0.1235739060768364,0.2875208697390139,1.110818,72.04838,180.5362,0.5880561,-0.01059177,0.8087487,16
12.12,-20.42415,1.245875,-27.08591,0.0753530904242048,0.1243292511430394,0.2886074941067638,1.428009,72.40575,181.5838,0.5904048,-0.01821738,0.8068927,16
12.14,-20.31006,1.410805,-27.03822,0.0490323158567305,0.1518531299158405,0.2921732127574721,5.066035,72.28188,181.8645,0.5885386,-0.04527237,0.8070969,16
12.16,-20.19823,1.572002,-26.9913,0.0193618099711945,0.1774120466584582,0.2954972830285478,8.703602,72.17521,182.1394,0.5860762,-0.07227398,0.8064814,16
12.18,-20.24273,1.232125,-27.01175,-0.0243655119329138,0.1760137788476677,0.2915766259714298,8.258134,72.55198,182.869,0.5885016,-0.07280306,0.8048985,16
12.2,-20.12949,1.401038,-26.96539,-0.0705658615509903,0.1755752943367359,0.2875589312264961,11.8821,72.46007,183.1402,0.5853459,-0.09956851,0.8036932,16
12.22,-20.11551,1.208789,-26.95905,-0.1413632919508272,0.1212096810478232,0.273359550408875,13.43437,72.93142,183.5398,0.5870749,-0.1122534,0.8004585,16
12.24,-20.06742,1.199845,-26.93987,-0.187162149677833,0.1425346302474835,0.2678779003021381,14.73687,72.90034,183.6498,0.5856334,-0.1218715,0.7997534,16
12.26,-19.95729,1.376765,-26.89676,-0.2346588568014471,0.1631917852262597,0.2623786382114419,18.29512,72.83181,183.8973,0.5814034,-0.1477892,0.7972445,16
12.28,-19.97901,1.183239,-26.90274,-0.3082585314462718,0.1025508370080796,0.2446108811387599,17.39307,72.42712,183.9172,0.5794938,-0.1418806,0.8001319,16
12.3,-19.87011,1.364106,-26.86024,-0.3541391751931222,0.1215145497414318,0.2368330094052555,20.93982,72.36078,184.1373,0.5748278,-0.1675357,0.7970787,16
12.32,-19.9109,1.168254,-26.87264,-0.4206420924751723,0.085055880630659,0.2198820793036904,20.13666,71.22232,184.0785,0.5678937,-0.1624395,0.8035829,16
12.34,-19.86407,1.153023,-26.85069,-0.4865052279034891,0.0503363845234233,0.2034577215623558,23.06658,69.80342,184.0696,0.5544418,-0.1837776,0.8071304,16
12.36,-19.75806,1.34194,-26.80948,-0.5270171868664084,0.0968860611644181,0.1951474576404486,26.57314,69.68719,184.1219,0.548902,-0.208493,0.8029519,16
12.38,-19.77639,1.139064,-26.81249,-0.5743059043161178,0.0876246473874029,0.1766226722664376,26.29105,67.93002,183.9718,0.5371833,-0.2073617,0.8115636,16
12.4,-19.67218,1.331806,-26.772,-0.619184792262057,0.0806628476665967,0.1600741970305503,29.76018,67.75748,183.8982,0.5311807,-0.2313982,0.8067827,16
12.42,-19.70007,1.128767,-26.77571,-0.669969204512546,0.0164261555222248,0.1315995009030315,30.03369,65.87079,183.702,0.5178276,-0.2343095,0.8147498,16
12.44,-19.62796,1.121843,-26.74303,-0.6888179408996151,0.0386237009478129,0.1142181613984294,34.71429,64.2076,183.237,0.4999145,-0.2669349,0.8126692,16
12.46,-19.52631,1.319862,-26.70347,-0.7041266453851611,0.0607614022108001,0.099257986054797,38.11616,63.86182,182.8863,0.4927686,-0.2896209,0.8062634,16
12.48,-19.50582,1.117209,-26.69795,-0.7131564013019334,0.0555778096368086,0.0808334331483373,39.61872,63.48402,182.6504,0.4881663,-0.2995721,0.8040115,16
12.5,-19.40504,1.316684,-26.65911,-0.7175790328854885,0.052202130778231,0.0650029737460293,42.98964,63.05275,182.2051,0.4804243,-0.3216377,0.7966558,16
12.52,-19.39417,1.115055,-26.65929,-0.7029427117434042,0.0504071384863125,0.0551753770514493,43.26745,63.36744,181.7212,0.4834655,-0.3210227,0.7938377,16
12.54,-19.29272,1.113765,-26.62048,-0.6842348506660454,0.0215542699613082,0.0465348736521611,46.36259,62.75182,180.3489,0.47759,-0.3375354,0.7854604,16
12.56,-19.19405,1.314323,-26.58162,-0.6556207108397352,0.0527092469381625,0.0432170318736844,49.6754,62.22796,179.8285,0.469482,-0.3589193,0.7766236,16
12.58,-19.13408,1.109998,-26.55898,-0.622192108984716,0.0262439823077589,0.0411384348077934,50.68254,61.58569,178.6966,0.4668263,-0.3623836,0.7738214,16
12.6,-19.0364,1.309509,-26.52063,-0.5845233343973733,-0.0006455351134301,0.0409454663390529,53.96009,60.90329,178.0072,0.4583847,-0.3831852,0.7641203,16
12.62,-18.95679,1.103792,-26.48948,-0.5278856734868087,0.0029286213027833,0.0473950070669753,56.49401,59.89545,176.168,0.4532264,-0.3951505,0.7549708,16
12.64,-18.77305,1.104526,-26.41571,-0.4618141679924719,0.0125883428146248,0.0576208246229952,61.2155,55.39012,171.1782,0.4334991,-0.4187257,0.7416122,16
12.66,-18.67728,1.295772,-26.37772,-0.3928707962138464,0.0220413290898383,0.0687310350158325,64.38081,53.71664,169.4504,0.424412,-0.4381044,0.7296671,16
12.68,-18.55891,1.118119,-26.32693,-0.3183207632550948,-0.0207018342613335,0.081397182841354,61.79901,50.22119,167.2254,0.4136066,-0.4216037,0.7479064,16
12.7,-18.46405,1.304616,-26.28734,-0.2490078499535035,0.0213879023822333,0.0920040830516217,64.86566,48.03683,164.9339,0.4047984,-0.4406085,0.7356693,16
12.72,-18.36928,1.144362,-26.2442,-0.1786356765283157,0.0151576200164762,0.1017903206702626,58.37194,49.19121,167.812,0.4083878,-0.4023199,0.7677961,16
12.74,-18.20516,1.178289,-26.17277,-0.0970789337609383,-0.0136253389476121,0.113032324939192,52.06229,52.29299,171.1926,0.4250446,-0.3623847,0.7893763,16
12.76,-18.10907,1.356305,-26.12927,-0.033639630378873,0.0324379082680306,0.116438939444178,55.17877,50.9686,169.8008,0.41699,-0.3825196,0.779177,16
12.78,-18.01178,1.211177,-26.09455,0.0270719513446628,0.0554716846039758,0.1152611357700017,43.16695,55.73691,173.8599,0.4514598,-0.3014474,0.8116488,16
12.8,-17.90912,1.384313,-26.04612,0.0882916152870776,0.077521947597151,0.112636215939355,46.52161,54.79019,172.9474,0.4434892,-0.3239647,0.8029663,16
12.82,-17.84689,1.239562,-26.03813,0.1405280922185905,0.0496579887569502,0.1043751391178062,32.02521,58.48335,175.1521,0.4793012,-0.2206226,0.8322629,16
12.84,-17.72057,1.258457,-25.99627,0.1953056664922892,0.0677422667735573,0.0974888388372821,19.93267,61.42865,176.3164,0.5075727,-0.1325473,0.8434726,16
12.86,-17.61082,1.428042,-25.95267,0.2490776442040256,0.0847588252255193,0.0887732371228984,23.36503,61.08181,175.8109,0.5036683,-0.1560925,0.8391011,16
12.88,-17.56141,1.268613,-25.93128,0.2886350365509016,0.0966895805797531,0.0801633578597127,8.09909,64.01896,177.368,0.5299722,-0.0477229,0.8447607,16
12.9,-17.44903,1.436167,-25.88494,0.3254602667609474,0.1075100925567075,0.0702665512172933,11.64328,63.83288,177.1131,0.5279573,-0.07282104,0.8428236,16
12.92,-17.41982,1.275777,-25.86513,0.3604041683469783,0.1166521509373029,0.0621002057420709,358.4024,66.01343,178.1306,0.5444213,0.0205748,0.8385378,16
12.94,-17.28711,1.285217,-25.80189,0.3958844425308638,0.1020631199039878,0.0539799305506374,353.3249,67.04897,178.717,0.5507786,0.05470402,0.8325438,16
12.96,-17.17579,1.448556,-25.7467,0.4284961600132779,0.1324727241710975,0.0471580210610178,356.9178,66.8865,178.8833,0.5506666,0.02780852,0.8342351,16
12.98,-17.12043,1.293744,-25.72067,0.4493463389774959,0.1367459361010869,0.0361323502472266,352.8349,67.26868,179.2814,0.5524712,0.05549119,0.8311632,16
13.0,-17.00985,1.455153,-25.66277,0.4666194783416588,0.139453457738459,0.0244111812713394,356.4243,67.0965,179.5394,0.5522611,0.02822165,0.8330777,16
13.02,-16.99239,1.26999,-25.65372,0.4618758206520688,0.089521969529671,0.0038537620228691,354.0824,67.30721,179.9838,0.5534258,0.04304535,0.8312976,16
13.04,-16.88524,1.433551,-25.59707,0.4565669799450316,0.0817153831600113,-0.0166533323759208,357.6075,67.13993,180.2538,0.5528715,0.01617085,0.8330022,16
13.06,-16.78029,1.593531,-25.54138,0.4477559700604598,0.0732606553914024,-0.038774312320867,1.131765,66.98949,180.5133,0.5517912,-0.01070785,0.8339119,16
13.08,-16.79187,1.250327,-25.55882,0.4338521265064818,0.0657501785870131,-0.0612601662745753,359.4243,67.47823,181.3516,0.5554159,-0.002373639,0.8314741,16
13.1,-16.68312,1.415023,-25.50234,0.4175191948123786,0.0577316365272107,-0.0850065900317695,3.023306,67.33657,181.6146,0.5538266,-0.02976152,0.8320951,16
13.12,-16.68446,1.23781,-25.49899,0.3788661504673876,-0.0020185175573046,-0.114608886640668,6.167653,67.39277,182.5646,0.5528483,-0.05714469,0.8312444,16
13.14,-16.57526,1.405077,-25.44218,0.3557250925009196,0.0123297109548676,-0.1364606620523574,9.80445,67.28335,182.8349,0.550042,-0.08477535,0.8303905,16
13.16,-16.46812,1.56864,-25.38625,0.3294958133765326,0.024901125806233,-0.1598127785318763,13.44067,67.19025,183.1015,0.5466798,-0.1123121,0.8286947,16
13.18,-16.53139,1.21753,-25.41409,0.2720915543897997,-0.0415663783399566,-0.1931499269240539,11.88485,67.35986,183.334,0.5488335,-0.1021605,0.8289968,16
13.2,-16.42392,1.390185,-25.35915,0.222163152069251,-0.0600361593557516,-0.2216195417324753,15.48404,67.29159,183.5881,0.5452267,-0.1292782,0.8268228,16
13.22,-16.4711,1.191236,-25.37396,0.1627016228209461,-0.1047591551561896,-0.2526977623472333,16.04896,66.55538,183.7307,0.5392382,-0.1343289,0.8298899,16
13.24,-16.36666,1.370314,-25.32055,0.1164346994409801,-0.0949212162509324,-0.2789258694526251,19.58568,66.57729,183.9554,0.5356311,-0.1607584,0.8264673,16
13.26,-16.26357,1.546008,-25.26771,0.0599213710664332,-0.1117169385701661,-0.306704990311625,23.1201,66.62935,184.1931,0.5316092,-0.1870366,0.822194,16
13.28,-16.33127,1.168452,-25.30005,0.0032213669712042,-0.1268696947081456,-0.3347547284664984,20.13767,65.18091,183.9984,0.5248731,-0.1657141,0.8323459,16
13.3,-16.22742,1.353477,-25.24921,-0.0555826596336259,-0.1429531445151483,-0.3613429246933104,23.67351,65.06186,184.0559,0.5198706,-0.1914567,0.8285601,16
13.32,-16.27093,1.145845,-25.26615,-0.1205752282794399,-0.1859384376475477,-0.3887418102129119,24.54458,62.52523,183.9518,0.5005362,-0.1990704,0.8385711,16
13.34,-16.17068,1.337244,-25.21717,-0.1625208782984777,-0.1715442112460374,-0.40782916469366,27.99547,62.29732,183.8291,0.4947042,-0.2236632,0.8341311,16
13.36,-16.07104,1.525569,-25.1683,-0.2087648607778418,-0.1828450036610877,-0.4272140072327541,31.44646,62.04966,183.6863,0.488398,-0.248061,0.8289446,16
13.38,-16.107,1.128592,-25.2218,-0.252514217152666,-0.1921778144692966,-0.446004202642924,30.00579,60.23955,183.7852,0.4770445,-0.239801,0.8393282,16
13.4,-16.00943,1.324261,-25.17037,-0.2906566561824359,-0.2006665102263643,-0.4616111773894991,33.44572,60.13277,183.6565,0.4716257,-0.2642066,0.8330213,16
13.42,-15.96836,1.118504,-25.21571,-0.3265833856343691,-0.2358890385899956,-0.4777675103272072,37.3798,58.73579,183.1085,0.4568089,-0.2917627,0.8294912,16
13.44,-15.87149,1.317031,-25.16565,-0.3396693013076324,-0.2114399030139582,-0.4866567584753465,40.78738,58.6162,182.8247,0.4511949,-0.3150814,0.8212996,16
13.46,-15.77477,1.512641,-25.11586,-0.3538255384619073,-0.2133734856926151,-0.4959953610963139,44.18604,58.45321,182.4972,0.4451543,-0.3380111,0.8124271,16
13.48,-15.7611,1.114832,-25.13435,-0.3637114371031751,-0.2138730795126483,-0.5041306917624686,43.28773,59.56792,181.8271,0.4565463,-0.3274354,0.8095312,16
13.5,-15.66424,1.314889,-25.08618,-0.3670855572107967,-0.2131655274610414,-0.5088510230189107,46.6657,59.448,181.5004,0.4507315,-0.3498897,0.7999066,16
13.52,-15.5684,1.112766,-25.0476,-0.3585408612220901,-0.2403430942468467,-0.5106021213154608,48.08445,59.2052,179.6271,0.4522766,-0.3527619,0.7933829,16
13.54,-15.47717,1.109929,-25.01006,-0.3328717531919511,-0.2080888959258153,-0.5054232796163616,50.70569,58.96876,178.7487,0.4488266,-0.3678573,0.7843032,16
13.56,-15.37975,1.309271,-24.96531,-0.2985454670510605,-0.2031710135893221,-0.4979394852631889,54.04496,58.4712,178.1142,0.4415474,-0.3892526,0.7735969,16
13.58,-15.28173,1.10364,-24.92727,-0.2607129662110394,-0.1979840941263884,-0.4895296125797732,56.53397,57.83157,176.2375,0.4392425,-0.4003365,0.7630158,16
13.6,-15.18527,1.299526,-24.88383,-0.2111417178240879,-0.1889986121687113,-0.476759074532235,59.83531,57.02262,175.3201,0.4312733,-0.4210101,0.7512719,16
13.62,-15.08097,1.10428,-24.84206,-0.1618808608417725,-0.205745305284624,-0.4633887000875809,61.24072,53.88897,171.3186,0.4231911,-0.4232396,0.7474748,16
13.64,-14.90234,1.118395,-24.77013,-0.1071444494507956,-0.1641766871720998,-0.4478237166903733,61.71987,49.48558,167.2768,0.4086946,-0.4231722,0.7510284,16
13.66,-14.80862,1.30527,-24.73096,-0.0485698575541468,-0.1415806328493617,-0.4329919930839598,64.72648,47.65078,165.0539,0.4019939,-0.441132,0.7380036,16
13.68,-14.69374,1.1451,-24.68631,0.0090052746021325,-0.1428019804552811,-0.4179794230091245,58.2351,49.37766,167.8981,0.409476,-0.4011938,0.7679176,16
13.7,-14.60041,1.327982,-24.6487,0.064113556132705,-0.0914817876992827,-0.4041321525025321,61.16859,48.02343,165.9746,0.4044361,-0.4185283,0.755222,16
13.72,-14.51047,1.179682,-24.61878,0.117450103950826,-0.0878402161177956,-0.3922494719443667,51.86959,53.10171,171.1364,0.4310055,-0.3589928,0.7869398,16
13.74,-14.34775,1.213666,-24.57277,0.1789168034477273,-0.0558316174566727,-0.3814787118301002,42.87151,57.64393,173.7366,0.4655645,-0.2951921,0.8046759,16
13.76,-14.24652,1.389547,-24.53978,0.2315998761524469,-0.0034215790799031,-0.3750248402864717,45.94962,57.13772,172.6972,0.4612188,-0.3140659,0.7950489,16
13.78,-14.16195,1.242024,-24.5295,0.2763348722105818,0.0007313759072005,-0.3725287697199637,31.75059,61.43571,175.1232,0.5008886,-0.2140475,0.8202103,16
13.8,-14.05556,1.414786,-24.49683,0.3213758577483037,0.0500000484055201,-0.3692315719247885,34.96318,61.24988,174.405,0.4979253,-0.2344773,0.8123291,16
13.82,-14.01468,1.260077,-24.49358,0.3585530097867451,0.0510442183564941,-0.3689971784111914,19.74052,65.07973,176.4156,0.534185,-0.1278643,0.8272496,16
13.84,-13.89291,1.271425,-24.46102,0.4008275225035669,0.0965689122307937,-0.3640977835602426,7.78376,68.26598,177.3955,0.5609539,-0.04344452,0.8247499,16
13.86,-13.78613,1.442382,-24.42873,0.4380581163796209,0.1613450422995425,-0.3595442533928419,11.00328,68.46239,177.1871,0.5617192,-0.06549883,0.8213943,16
13.88,-13.72767,1.277512,-24.40622,0.4628236679490427,0.1535961197773648,-0.3573736682589494,358.2027,70.82422,178.1497,0.5791002,0.02213601,0.8149456,16
13.9,-13.61691,1.445339,-24.36837,0.4937486272924687,0.1916594153130881,-0.3523796799966407,1.579703,71.05412,178.2027,0.5811366,-0.002104447,0.8135381,16
13.92,-13.57039,1.285703,-24.35166,0.5152318219283185,0.1818432569411105,-0.3485075400698938,353.27,72.26629,178.7368,0.5880886,0.05389194,0.8065888,16
13.94,-13.43567,1.293854,-24.3059,0.5453938544079624,0.2174988252392325,-0.3412996156795231,352.8148,73.00074,179.3043,0.5933424,0.05397404,0.8024849,16
13.96,-13.31872,1.455375,-24.26188,0.5684262017888926,0.2726370322352605,-0.33737053259417,356.385,73.20138,179.6089,0.5958481,0.02735566,0.8024706,16
13.98,-13.29448,1.2829,-24.25951,0.565310735045182,0.2507802824254989,-0.34096924597779,353.7595,73.82606,179.7866,0.5996295,0.04463773,0.7984223,16
14.0,-13.17892,1.445122,-24.2167,0.5557946495131256,0.2499518828808064,-0.3455063935817519,357.2966,74.0288,180.1212,0.6018677,0.01819943,0.7982464,16
14.02,-13.19149,1.262113,-24.23058,0.5408145480477946,0.2239754265829746,-0.3526258108347635,355.7405,74.47825,180.5842,0.6048679,0.02650262,0.795442,16
14.04,-13.10106,1.250124,-24.20581,0.53617573602266,0.248002911884334,-0.3555862228097224,359.4389,75.05604,181.3757,0.6091448,-0.003429954,0.7929532,16
14.06,-12.98379,1.414535,-24.16611,0.51279128835458,0.2221928530657729,-0.3640752701724601,3.051798,75.29096,181.6866,0.6101809,-0.03006869,0.791678,16
14.08,-12.98199,1.240335,-24.16614,0.4870462121621994,0.1951895703845638,-0.3755452809656705,4.025518,75.71058,182.0757,0.6126878,-0.03883503,0.7893371,16
14.1,-12.8637,1.406284,-24.12715,0.4552392960336722,0.1907634395361831,-0.3821759705908754,7.676076,75.97145,182.4008,0.6128448,-0.06560969,0.787087,16
14.12,-12.88375,1.226291,-24.11984,0.405777017909791,0.1612194220847518,-0.3944194325156092,10.31639,75.73811,183.2082,0.6091466,-0.08805972,0.7874557,16
14.14,-12.76717,1.396703,-24.08189,0.3708713077785095,0.1821130734430359,-0.4019220614192726,13.92799,76.07484,183.5293,0.6083995,-0.1142834,0.7837277,16
14.16,-12.65243,1.563435,-24.04485,0.3155471008575128,0.149247231233458,-0.4144486370351732,17.5366,76.43851,183.8783,0.6070393,-0.1403848,0.7792137,16
14.18,-12.73405,1.199767,-24.06709,0.2467209451979644,0.090512307912454,-0.43189713117071,14.73558,76.6786,183.6844,0.6116441,-0.1203086,0.7800303,16
14.2,-12.71535,1.191073,-24.05779,0.2022155521115221,0.1083434618730823,-0.4402132517604933,16.04802,76.72568,183.7968,0.6106,-0.129749,0.7788634,16
14.22,-12.66028,1.175772,-24.03474,0.1347293574326356,0.072424516751842,-0.4543008684033851,18.71256,75.99033,184.0893,0.6024477,-0.1497073,0.7806543,16
14.24,-12.54852,1.35856,-24.0007,0.0813952137955347,0.0641816494896722,-0.4611810969744896,22.23794,76.34484,184.3366,0.6002586,-0.1744434,0.7753546,16
14.26,-12.56786,1.160739,-23.99943,0.0297915860712245,0.0576099609101914,-0.4703440655272048,21.55298,74.89336,184.1521,0.59153,-0.1699862,0.7835245,16
14.28,-12.45753,1.34758,-23.96602,-0.0392071662597488,-0.005311061117769,-0.4844766541144563,25.05909,75.22459,184.3134,0.5888907,-0.1941523,0.7777278,16
14.3,-12.49628,1.145395,-23.97132,-0.0808817225503499,0.0144564874246352,-0.4884924331909266,24.57726,73.81464,184.1103,0.5802827,-0.1911184,0.7853683,16
14.32,-12.43808,1.132623,-23.94549,-0.1398110101393201,-0.0217670250751016,-0.497041524250823,28.01638,72.2028,184.0087,0.5645033,-0.2154546,0.788456,16
14.34,-12.3307,1.326852,-23.91274,-0.1782920828039975,-0.0272553622012182,-0.4973062574631508,31.47598,72.45261,183.9749,0.5608912,-0.2384008,0.7815402,16
14.36,-12.32889,1.124794,-23.90678,-0.2123087229888816,-0.0310622679631826,-0.4989939896287052,32.06697,70.71823,183.565,0.5489126,-0.2424432,0.7884095,16
14.38,-12.22238,1.321803,-23.87593,-0.2546371239043725,-0.09270777197675,-0.5047665000608026,35.49017,70.86697,183.3541,0.5446696,-0.2643869,0.780862,16
14.4,-12.22193,1.118734,-23.87284,-0.2723659746592475,-0.06752042817098,-0.4970237554836751,37.37291,69.88248,183.0164,0.5354444,-0.2768246,0.7810889,16
14.42,-12.12568,1.115588,-23.85355,-0.298577725074733,-0.0993298189901309,-0.4937721507686525,41.83943,70.24809,182.3606,0.5312928,-0.3030503,0.7680629,16
14.44,-12.02059,1.315538,-23.82575,-0.3105632529536439,-0.0995981554754072,-0.4772644820120679,45.20158,70.23746,181.9602,0.52564,-0.3233877,0.7588176,16
14.46,-11.98311,1.11444,-23.81602,-0.3169481761118855,-0.0986645577181447,-0.461588819071689,44.6763,70.64926,181.152,0.5316734,-0.3154576,0.7568333,16
14.48,-11.87906,1.314882,-23.78825,-0.3240735524987539,-0.1567509603618352,-0.4479204099692082,48.01099,70.64352,180.7783,0.525893,-0.3355148,0.7469268,16
14.5,-11.84196,1.112918,-23.78037,-0.313682642962353,-0.1277726858067959,-0.4253234969369908,48.04918,70.00797,179.5513,0.525242,-0.3314299,0.7472332,16
14.52,-11.68717,1.107135,-23.743,-0.2902231813680134,-0.1571381159249086,-0.4015769335313628,53.28892,69.16256,177.7014,0.5146059,-0.3589711,0.7306371,16
14.54,-11.58468,1.305489,-23.71789,-0.2622358473119399,-0.1278255258709282,-0.3777889090978661,56.55484,68.84219,176.9877,0.5079135,-0.3775718,0.7191749,16
14.56,-11.44849,1.102213,-23.68616,-0.2294360210415066,-0.0700066369860364,-0.353949090507228,59.64977,67.1472,174.0724,0.5005456,-0.3890203,0.707634,16
14.58,-11.34665,1.295914,-23.66337,-0.1854724258527527,-0.0947307515162781,-0.3283816105724795,62.86483,66.339,172.8507,0.4931398,-0.4065624,0.695044,16
14.6,-11.22488,1.109072,-23.63326,-0.1409960031391025,-0.0861288598879383,-0.3029649715356513,62.63449,61.14409,167.9242,0.4791794,-0.3993344,0.7036577,16
14.62,-11.14679,1.117941,-23.6134,-0.080751693813844,-0.0996302009415186,-0.2755656276606468,61.81167,59.75808,167.3091,0.4740403,-0.3953867,0.7111271,16
14.64,-11.04575,1.30432,-23.58986,-0.0199305122096931,-0.0577951180614419,-0.2493989770150073,64.89279,58.10214,165.1633,0.466911,-0.4121764,0.6979095,16
14.66,-10.84432,1.161623,-23.54197,0.0310052901083904,-0.0378900725883049,-0.2286611705101808,55.78263,59.66396,168.7959,0.4771861,-0.360949,0.7403389,16
14.68,-10.7565,1.178068,-23.52162,0.0827561466332126,-0.01912588666086,-0.2092892604465359,52.09189,62.66697,171.2661,0.4944083,-0.3383884,0.7477948,16
14.7,-10.65344,1.356055,-23.4971,0.1305208686222473,0.0020480540627396,-0.1948789873233045,55.20491,61.92408,170.0191,0.488749,-0.3561467,0.7362935,16
14.72,-10.56644,1.211253,-23.48894,0.1712353243624894,-0.0010033456517608,-0.1839605990824036,43.15459,67.02931,173.9537,0.5289131,-0.2791084,0.7635296,16
14.74,-10.40793,1.23909,-23.47145,0.2145606689472013,0.0419542064426838,-0.1731303204520404,32.08044,70.43866,175.337,0.5629798,-0.2029987,0.7780123,16
14.76,-10.28962,1.408425,-23.44626,0.2480611581451647,0.0588782414504103,-0.1664679331967677,35.60809,70.43111,174.855,0.5596957,-0.2249098,0.7691632,16
14.78,-10.2299,1.257139,-23.44556,0.2814590055541121,0.0736970954660249,-0.1605746525494558,20.04994,73.91666,176.5829,0.5959385,-0.1213866,0.7834026,16
14.8,-10.11053,1.425208,-23.42106,0.3164134641352895,0.1314401732289706,-0.1522683253433583,23.59148,74.0956,176.3635,0.594638,-0.1443626,0.7769777,16
14.82,-10.03957,1.271875,-23.40896,0.3409607745487906,0.1162465239954006,-0.1447361946317014,2.400839,77.85427,177.9463,0.6283849,-0.005037147,0.7774141,16
14.84,-9.918738,1.438344,-23.3846,0.3736328164817005,0.1463186521676694,-0.1334818464670308,5.965492,78.11668,177.9789,0.6298725,-0.0293013,0.774754,16
14.86,-9.800037,1.601093,-23.36098,0.4019546395263529,0.196157923216421,-0.1228909175854524,9.52911,78.38308,178.0282,0.6307458,-0.05353081,0.7713423,16
14.88,-9.74602,1.285229,-23.34911,0.4181766314856743,0.1736842344426318,-0.1139917886662784,353.3184,80.33136,178.7391,0.643375,0.05161517,0.7632513,16
14.9,-9.623795,1.448553,-23.32374,0.4302966550528297,0.1747543741236461,-0.1055830365974559,356.9024,80.5724,178.9525,0.6461544,0.02652594,0.7626734,16
14.92,-9.544224,1.296117,-23.3001,0.4354685659903403,0.1468549719904005,-0.0985238566646353,353.4474,80.51209,179.5148,0.644958,0.04634664,0.7620667,16
14.94,-9.42256,1.457128,-23.27193,0.4467588464746971,0.1646502721943216,-0.0897292618996301,357.0101,80.74502,179.825,0.6475029,0.02086513,0.761615,16
14.96,-9.303349,1.614335,-23.24467,0.4381351769689389,0.1545388349512259,-0.0869098931552185,0.5703357,80.99661,180.149,0.6494121,-0.004629442,0.7604195,16
14.98,-9.335629,1.262177,-23.25357,0.4251641145285826,0.1435020289291035,-0.0867581595352553,355.7309,81.34988,180.584,0.65145,0.02492858,0.7577598,16
15.0,-9.292267,1.254482,-23.24699,0.4048130017188398,0.131156660297437,-0.0855267814002993,357.4456,81.423,181.1292,0.6522234,0.01046928,0.7576352,16
15.02,-9.187125,1.245811,-23.21922,0.376295290438842,0.0936118527612856,-0.0865873274892039,1.418718,81.8568,181.6042,0.65487,-0.01852321,0.7555104,16
15.04,-9.065273,1.410585,-23.19332,0.363017467196763,0.1060446298482467,-0.0819310948756237,5.058687,82.13277,181.9322,0.6556387,-0.04433334,0.7535962,16
15.06,-9.055084,1.237728,-23.18628,0.3496728587496155,0.1424323278984632,-0.0772135771501312,6.16688,82.18052,182.5912,0.6552112,-0.05536915,0.753191,16
15.08,-8.93363,1.404851,-23.16126,0.3053651019887646,0.1023036708008847,-0.0777032094943002,9.803336,82.48245,182.9151,0.654973,-0.08093639,0.7503812,16
15.1,-8.957674,1.226393,-23.15647,0.2748961306770104,0.1120494114800354,-0.0746097630851041,10.31417,82.20014,183.1678,0.6525928,-0.08580597,0.7518588,16
15.12,-8.947712,1.217625,-23.15086,0.2408633993912959,0.1201678180379963,-0.073741992698741,11.86356,82.2796,183.3494,0.651822,-0.09691993,0.7507413,16
15.14,-8.82882,1.390286,-23.12744,0.1983892882451532,0.098743594804708,-0.0723765537562091,15.45001,82.60453,183.6406,0.6505037,-0.121705,0.7468629,16
15.16,-8.842363,1.190955,-23.1176,0.1538049397189084,0.0786248884737645,-0.0731565795029403,16.0715,82.43103,183.7946,0.6485844,-0.1266988,0.7474916,16
15.18,-8.812682,1.183288,-23.10671,0.1065612662653168,0.0568315242429961,-0.0762076370358597,17.37856,81.94971,183.9274,0.6439124,-0.1362063,0.749288,16
15.2,-8.697187,1.364084,-23.08397,0.0852873049456928,0.109476086100667,-0.072895208134486,20.91911,82.28979,184.1855,0.6416085,-0.1602459,0.7444029,16
15.22,-8.741413,1.168241,-23.08195,0.0384168973452456,0.0810754636283667,-0.0710741399625818,20.133,80.7014,184.0948,0.6323313,-0.1558977,0.7539279,16
15.24,-8.692517,1.152909,-23.06141,0.000584669376564,0.0836345592580887,-0.0689495659974683,23.08573,79.1004,184.0826,0.6179842,-0.1764156,0.7595316,16
15.26,-8.579914,1.341714,-23.03806,-0.053876238650292,0.0297141550246322,-0.0689766338099051,26.59879,79.39401,184.1754,0.6147373,-0.1995267,0.7536535,16
15.28,-8.600192,1.139042,-23.03239,-0.0985245788127028,0.0055986866531223,-0.0667661357755284,26.28505,77.55276,183.9915,0.6033355,-0.1983919,0.7636755,16
15.3,-8.489588,1.331656,-23.00952,-0.1413908685827676,-0.0164383237012542,-0.0657382228757361,29.75672,77.79488,183.9661,0.5995975,-0.2207154,0.7573071,16
15.32,-8.519165,1.128744,-23.00537,-0.1683208168031914,-0.0381218820056854,-0.0599896248862945,30.02221,75.66183,183.7222,0.5854476,-0.2237005,0.7676286,16
15.34,-8.443207,1.121822,-22.98183,-0.1850907931726256,-0.0271585847907558,-0.0542672465376607,34.69799,74.03369,183.2552,0.5676658,-0.2543195,0.7669253,16
15.36,-8.335261,1.319725,-22.95937,-0.2095655222846046,-0.0727999393602518,-0.0523075648470596,38.10306,74.10721,182.9523,0.5626569,-0.2750915,0.7591747,16
15.38,-8.315095,1.11717,-22.95422,-0.2154285088974019,-0.0587667545169243,-0.0476103081425316,39.60374,73.58617,182.6746,0.5570274,-0.2843647,0.7579821,16
15.4,-8.208081,1.316521,-22.93258,-0.2297449790367131,-0.1015697325588758,-0.0456353293768065,42.97864,73.58165,182.2848,0.5513041,-0.3044174,0.7493846,16
15.42,-8.198615,1.115014,-22.93169,-0.2246787705883638,-0.0844235856483524,-0.0402976713962912,43.25821,73.61279,181.7468,0.5523658,-0.3035776,0.747569,16
15.44,-8.091378,1.113725,-22.90746,-0.2129581858228826,-0.0945779120175983,-0.0331527036156331,46.37017,73.01746,180.3645,0.5458869,-0.3181831,0.7395939,16
15.46,-7.986413,1.314179,-22.88574,-0.1976312200309383,-0.1035380594315405,-0.0264404798518826,49.68682,72.92367,179.8996,0.5395876,-0.3374257,0.7296078,16
15.48,-7.923667,1.109951,-22.87099,-0.1692933643150562,-0.1118518873877233,-0.0172213846128643,50.68345,72.13432,178.7224,0.5359043,-0.3400237,0.7276884,16
15.5,-7.819661,1.309349,-22.85011,-0.1375414306979495,-0.1194556475638543,-0.0086470428839775,53.96602,71.89319,178.1002,0.5291451,-0.3585975,0.7169215,16
15.52,-7.661259,1.102204,-22.81614,-0.0744857961225148,-0.124098904865028,0.006790745612176,59.64067,69.75639,174.0851,0.5165039,-0.3818149,0.6961243,16
15.54,-7.558432,1.295901,-22.79791,-0.0169663669094772,-0.0981750560266875,0.0198080390605488,62.8595,68.9383,172.8662,0.5087351,-0.3990242,0.6837471,16
15.56,-7.456032,1.486909,-22.77996,0.0460476127580426,-0.1244203251566847,0.0339863466685512,66.06727,67.8498,171.3824,0.5005504,-0.4159018,0.670814,16
15.58,-7.300004,1.117966,-22.74181,0.1049629379855781,-0.0929435518654211,0.046411489525477,61.81595,62.05141,167.2479,0.4883766,-0.3883407,0.7012961,16
15.6,-7.212964,1.128773,-22.72169,0.1641858901779888,-0.0634721409893239,0.0582448955959602,60.956,60.6884,166.7663,0.4829262,-0.3846382,0.7092792,16
15.62,-7.018117,1.16161,-22.67986,0.2227085771411311,-0.0525112346759621,0.0698016203718383,55.78421,61.63307,168.795,0.4898378,-0.3556368,0.7320217,16
15.64,-6.91448,1.341352,-22.66,0.2939063649381725,-0.0356509275144643,0.0821780079249041,58.85296,60.39352,167.0261,0.4832508,-0.3724261,0.7200593,16
15.66,-6.803144,1.195448,-22.63669,0.3653166408886589,-0.020049116505264,0.0939515433595512,48.31035,67.09914,173.1841,0.5236491,-0.310459,0.745647,16
15.68,-6.698288,1.371782,-22.61616,0.4212807083119498,0.0401160410156279,0.1013130227970138,51.45066,66.61792,172.2292,0.5181677,-0.3283942,0.7350069,16
15.7,-6.602616,1.227097,-22.61416,0.4722454290844113,0.05363236120847,0.1039830722120385,38.03514,70.37574,174.6705,0.5565987,-0.2406959,0.7630938,16
15.72,-6.548408,1.239285,-22.60889,0.5228586499724424,0.0656668727978356,0.1058254097867092,32.0754,71.99764,175.3192,0.5735489,-0.2002558,0.7702622,16
15.74,-6.430183,1.408907,-22.58755,0.5747599538092683,0.1211370278658864,0.1091011968171664,35.57705,71.96769,174.8191,0.5700676,-0.2216707,0.7615961,16
15.76,-6.319746,1.263367,-22.57732,0.616580668147966,0.1935379788119228,0.1123634028207369,13.93913,76.71472,177.1641,0.6181448,-0.07987953,0.7762597,16
15.78,-6.198798,1.430791,-22.55584,0.6463457771260099,0.1711934933925059,0.1126973134248308,17.50414,76.92685,177.0316,0.6176519,-0.1031782,0.7711772,16
15.8,-6.079947,1.594519,-22.53502,0.6806043597232598,0.1943042708608893,0.1155756660801667,21.06884,77.13461,176.9103,0.6165566,-0.1263717,0.765346,16
15.82,-6.019917,1.279097,-22.5135,0.7136590931806028,0.1703040759527629,0.1191002209914078,354.4846,80.57617,178.4192,0.6453148,0.04560601,0.7622762,16
15.84,-5.897865,1.44376,-22.49048,0.7441172589571936,0.1687418889516529,0.1232427768803798,358.0632,80.81332,178.5758,0.6479059,0.02092293,0.7614318,16
15.86,-5.778085,1.604653,-22.4682,0.7690426254230027,0.1654377235551013,0.1269278881099258,1.6401,81.05994,178.7472,0.6498593,-0.003773484,0.7598413,16
15.88,-5.724084,1.293686,-22.45254,0.7877650483220475,0.1575760409847866,0.1300347219229443,352.8299,81.55969,179.2883,0.6515695,0.05139709,0.7559822,16
15.9,-5.664714,1.29604,-22.43822,0.7887605014367297,0.1433804428413063,0.1306913729678309,353.4475,81.6209,179.5347,0.6523095,0.04590442,0.7557843,16
15.92,-5.572537,1.270004,-22.41383,0.783609109227256,0.1282632617628339,0.130609554391901,354.0749,81.94965,180.0115,0.654855,0.03895541,0.7539855,16
15.94,-5.453428,1.43353,-22.38861,0.7777346603031916,0.1562484681932421,0.1298232453212535,357.5906,82.17236,180.3331,0.6570916,0.01393655,0.7535121,16
15.96,-5.424574,1.254513,-22.38692,0.7500822214156491,0.1086989247751642,0.125191652521754,357.4443,82.24767,181.1366,0.6576594,0.01027644,0.7529202,16
15.98,-5.304157,1.41871,-22.3631,0.7050672971076682,0.0360180717098433,0.1175838966005233,1.018888,82.48932,181.4309,0.6591148,-0.01491657,0.7518862,16
16.0,-5.298763,1.245738,-22.35512,0.676657025355176,0.0375255764865928,0.1139791312125075,1.425243,82.64457,181.5947,0.6600489,-0.0185275,0.7509909,16
16.02,-5.209901,1.237845,-22.32975,0.6417797018318272,0.0141430986328675,0.1120741565916896,6.147419,82.69696,182.5825,0.6586123,-0.05510888,0.7502335,16
16.04,-5.08858,1.405092,-22.306,0.6041630235392064,0.0172765766865546,0.1088741404164368,9.773394,82.98566,182.8989,0.6582931,-0.08048451,0.7475049,16
16.06,-4.969399,1.568604,-22.28297,0.5605301940540666,0.0190167779482572,0.1044476415129884,13.39665,83.29842,183.2381,0.6573061,-0.1057716,0.7440212,16
16.08,-5.037323,1.217465,-22.28077,0.5267028990515671,0.0666728202800741,0.1014276347721518,11.88365,82.90293,183.355,0.6558754,-0.09683058,0.7471767,16
16.1,-4.917466,1.38989,-22.25827,0.449871359361311,0.0104627265408321,0.0927341446350089,15.49428,83.21735,183.6519,0.654433,-0.1217053,0.7433492,16
16.12,-4.799423,1.55867,-22.23639,0.3901816458668151,0.0064810568147486,0.0860081025276526,19.10215,83.55752,183.9756,0.6523333,-0.1464507,0.7387781,16
16.14,-4.858001,1.183163,-22.22743,0.3260088690488504,-0.0244160585107204,0.0805523593519752,17.40785,82.57275,183.9217,0.6479515,-0.1359616,0.7457491,16
16.16,-4.74134,1.36378,-22.20595,0.2482571235544691,-0.0802276732530059,0.0731227648790637,20.97767,82.89888,184.1733,0.6454982,-0.1600583,0.7409148,16
16.18,-4.625967,1.540937,-22.18496,0.1876688389378706,-0.079156746914227,0.0671334523556081,24.54498,83.2506,184.4537,0.6424126,-0.1839913,0.7353576,16
16.2,-4.512094,1.714728,-22.1645,0.1382153064315455,-0.0502873564343438,0.0624221674064582,28.10925,83.6327,184.7674,0.6386986,-0.2077346,0.7290843,16
16.22,-4.664533,1.153081,-22.16855,0.0580774018215338,-0.1047277696361461,0.0542213116269594,23.06701,79.83233,184.0587,0.6228848,-0.1755191,0.7555692,16
16.24,-4.551314,1.341884,-22.14728,0.001368070554296,-0.1015290559612379,0.0488822306029241,26.58723,80.10299,184.126,0.6194916,-0.1984415,0.749799,16
16.26,-4.559031,1.132772,-22.13129,-0.0450817141386368,-0.0681614181123586,0.0436979623188791,28.02318,77.07399,183.9491,0.5975987,-0.2101014,0.7636796,16
16.28,-4.522142,1.128795,-22.11823,-0.1109681814575757,-0.1199240716764026,0.0371673466644977,30.00982,76.05117,183.7076,0.5881006,-0.2230878,0.7656381,16
16.3,-4.413132,1.324574,-22.09666,-0.1659318224133454,-0.1402791015825924,0.0313419488763084,33.43811,76.19932,183.5298,0.5836946,-0.2444788,0.7587819,16
16.32,-4.358524,1.11876,-22.07331,-0.2181605505003422,-0.158230554637665,0.0254888364376784,37.37281,73.85226,183.0088,0.5621951,-0.270975,0.7620633,16
16.34,-4.250787,1.317456,-22.0517,-0.2470864317335415,-0.1182537770627041,0.0223210430735347,40.76909,73.86438,182.6455,0.5566632,-0.2913557,0.7539207,16
16.36,-4.217002,1.115612,-22.04857,-0.2773525724661322,-0.1336640226846393,0.0170465867301152,41.83031,74.01843,182.3545,0.556306,-0.2965586,0.7501806,16
16.38,-4.110279,1.315577,-22.02795,-0.303882692782294,-0.1469671162150092,0.0119427465345696,45.19356,73.97617,181.9437,0.550176,-0.3162955,0.7412563,16
16.4,-4.087226,1.114476,-22.02019,-0.3139013532391583,-0.1019468855226087,0.0095183755994576,44.66671,73.88709,181.1403,0.5528944,-0.3092196,0.7415131,16
16.42,-3.981741,1.314952,-21.99873,-0.3174432543627607,-0.144030037869826,0.0087600716137048,48.00085,73.8428,180.7471,0.5466504,-0.3287464,0.7319186,16
16.44,-3.868136,1.109985,-21.97185,-0.3012925014853712,-0.1544961969357621,0.0117334554740966,50.66146,72.30853,178.7314,0.5370302,-0.3395292,0.7269605,16
16.46,-3.763875,1.309386,-21.95124,-0.2818129905111527,-0.1334141816525645,0.014316474769727,53.95117,72.05437,178.1074,0.5301632,-0.3581455,0.7162428,16
16.48,-3.662028,1.103767,-21.92832,-0.2590262699599096,-0.1130871821050934,0.0168011215782106,56.47077,70.78799,176.21,0.5227522,-0.3685766,0.7087365,16
16.5,-3.558982,1.299835,-21.90884,-0.2205769849471789,-0.1178309381483158,0.0227774056715031,59.71548,70.23645,175.2788,0.5152569,-0.3863283,0.696995,16
16.52,-3.3271,1.109074,-21.85674,-0.1793708731655467,-0.1221190091884308,0.0286457766319472,62.63297,62.93105,167.8945,0.4901982,-0.3938429,0.6960168,16
16.54,-3.224787,1.297758,-21.83768,-0.1439381428642542,-0.0687001456287443,0.0323839045852292,65.74619,61.2116,165.7201,0.4823541,-0.4103947,0.6829192,16
16.56,-3.094463,1.12876,-21.80515,-0.0893287794530582,-0.0893081656826057,0.0418090455573496,60.95565,60.27237,166.7762,0.4803154,-0.3859097,0.7110582,16
16.58,-2.992279,1.312933,-21.785,-0.0361684363025403,-0.1345717022875522,0.051201548199959,64.00906,58.51318,164.5247,0.4729193,-0.402372,0.698225,16
16.6,-2.891036,1.494444,-21.76525,0.0096599005159894,-0.0994951747604413,0.0578755237071515,67.02328,56.23186,161.7574,0.4651479,-0.41851,0.6848403,16
16.62,-2.773591,1.178087,-21.7352,0.0701879038728516,-0.0826158563888551,0.0645268444645772,52.0962,64.09225,171.2287,0.5037733,-0.3346686,0.7414774,16
16.64,-2.603483,1.211212,-21.70689,0.1175108134176432,-0.0439037642201858,0.0677868058119361,43.17868,68.19234,173.9522,0.5366039,-0.2767782,0.7580495,16
16.66,-2.492344,1.384535,-21.6841,0.1639019330941336,-0.0075940092012806,0.0706343484188547,46.50774,67.87968,173.1725,0.5315601,-0.2964145,0.7477515,16
16.68,-2.38282,1.554705,-21.66189,0.2001495594361363,0.00458046561342,0.0689225427437114,49.83236,67.47578,172.3126,0.5260534,-0.3157874,0.7368059,16
16.7,-2.311181,1.249725,-21.66887,0.2272187960071202,-0.006943886079316,0.0648469332981354,26.28559,73.24635,176.0088,0.5869263,-0.1621487,0.7763566,16
16.72,-2.190966,1.41794,-21.64552,0.2553130048908733,0.0271564104723278,0.0633493209440683,29.85283,73.32541,175.674,0.5843427,-0.1846973,0.7687405,16
16.74,-2.072786,1.582472,-21.62285,0.2897949163638467,0.0374718389026635,0.0642278391214068,33.4209,73.38216,175.3316,0.5811837,-0.2070668,0.7603716,16
16.76,-1.956877,1.743472,-21.60089,0.3218440112524718,0.0470521688945442,0.0649643339588181,36.98834,73.4146,174.9783,0.5774548,-0.2292284,0.7512605,16
16.78,-1.891046,1.275577,-21.59123,0.3517628555072397,0.0997538693330058,0.0670741685858797,358.4344,79.97133,178.1883,0.6422902,0.02062501,0.7661769,16
16.8,-1.769231,1.441106,-21.56896,0.3771655100488135,0.1480386259068946,0.0688201144540405,2.010461,80.20743,178.282,0.6442029,-0.003761576,0.7645067,16
16.82,-1.623561,1.29137,-21.53573,0.3846906985725004,0.101179944750371,0.0688970530444965,352.2337,81.47763,179.053,0.6506674,0.05669127,0.7562925,16
16.84,-1.53318,1.293835,-21.51461,0.3974218032029372,0.122597523544231,0.0691493841028441,352.8078,81.62929,179.3129,0.6520308,0.05138056,0.7555702,16
16.86,-1.41108,1.455366,-21.48835,0.395955844835811,0.0926026484713423,0.0683132787904545,356.3752,81.83461,179.6279,0.6545604,0.0260248,0.7553411,16
16.88,-1.291424,1.613089,-21.46293,0.3808282140747166,0.0369773324845744,0.0651193428919874,359.9404,82.05888,179.9549,0.6564465,0.000650659,0.7543725,16
16.9,-1.317656,1.269938,-21.46252,0.3714643181662623,0.049376160774028,0.0628737202714933,354.0858,82.16171,180.0206,0.6562554,0.03876843,0.7527733,16
16.92,-1.198102,1.433273,-21.43721,0.3595618901618828,0.0356093535678938,0.0611110362931923,357.615,82.37201,180.3523,0.658408,0.01363869,0.7523671,16
16.94,-1.080858,1.592961,-21.41268,0.3482158043976656,0.0501410027065364,0.0590201176068134,1.141783,82.60235,180.6965,0.6599267,-0.01149673,0.7512395,16
16.96,-1.066099,1.246123,-21.4049,0.3172036188692732,0.0155718233442828,0.0541350380080469,1.380309,82.65842,181.6006,0.660146,-0.01826769,0.7509111,16
16.98,-1.024486,1.240685,-21.392,0.2962754690699825,0.0314283471462912,0.0522449286658672,3.972771,82.65669,182.0694,0.6593988,-0.0379426,0.7507773,16
17.0,-0.9035428,1.407037,-21.36789,0.2511835320164652,-0.0024776694405187,0.0474656015041223,7.58554,82.92255,182.3918,0.659485,-0.06334934,0.7485133,16
17.02,-0.870331,1.226504,-21.345,0.2122619803035932,-0.0127397608124201,0.0444495229116888,10.29025,82.57989,183.1788,0.6550893,-0.08558603,0.749706,16
17.04,-0.7507088,1.397095,-21.32131,0.1757312724135412,0.0046722474643647,0.0409607762643102,13.88496,82.87787,183.4894,0.6539057,-0.1105739,0.7462556,16
17.06,-0.6330016,1.564045,-21.29827,0.1361844484898409,0.0215611188186614,0.0370736811013525,17.47698,83.20129,183.8249,0.6520709,-0.1354448,0.7420649,16
17.08,-0.5174263,1.727483,-21.27592,0.0656363284039726,-0.0410462549112892,0.0293709805057487,21.06671,83.55397,184.189,0.649586,-0.1601759,0.7371385,16
17.1,-0.6600041,1.190978,-21.28509,0.0208818852569013,-0.0262003733499755,0.0245335184614319,16.07223,82.91194,183.786,0.6517245,-0.1263707,0.7447574,16
17.12,-0.5428321,1.369606,-21.26298,-0.025354738234425,-0.0114296250586972,0.0195726277406929,19.64624,83.23313,184.0767,0.6494548,-0.1507426,0.7402096,16
17.14,-0.5470471,1.168281,-21.24558,-0.0979183120124342,-0.079116020111683,0.0130231629712822,20.13301,81.04928,184.0822,0.6346341,-0.1555653,0.7519953,16
17.16,-0.5098399,1.160845,-21.23313,-0.155681916274937,-0.0919840086238401,0.0069558837704541,21.55771,80.22704,184.115,0.6273932,-0.1656581,0.7551179,16
17.18,-0.3962296,1.347674,-21.21104,-0.2128203866094237,-0.102099217660449,0.0011715314917224,25.08196,80.50618,184.2358,0.624193,-0.188916,0.7496648,16
17.2,-0.2835092,1.531202,-21.18934,-0.2892711228095606,-0.1679302898025028,-0.0066237251898617,28.60434,80.80223,184.3797,0.6203997,-0.211985,0.7435024,16
17.22,-0.3771738,1.139088,-21.18912,-0.3647782607966467,-0.2325501170907728,-0.0138593111128231,26.28286,77.7541,183.9821,0.6046959,-0.1981238,0.7626075,16
17.24,-0.2662877,1.331696,-21.16685,-0.410478820383462,-0.2453933277682086,-0.0170983003458307,29.76146,77.96729,183.945,0.6007688,-0.2204325,0.7563718,16
17.26,-0.1559301,1.521143,-21.14491,-0.4607767186321829,-0.2838035469169087,-0.0209687739151771,33.23886,78.18569,183.9222,0.5962867,-0.2425296,0.7494394,16
17.28,-0.1886373,1.121803,-21.13033,-0.4902079485196164,-0.2612110038533501,-0.0235189912441762,34.70982,74.11251,183.2643,0.5681524,-0.2543338,0.7665244,16
17.3,-0.1528757,1.118796,-21.11999,-0.504855073384882,-0.2086879015431182,-0.0243340481924918,37.35973,73.42526,182.9982,0.5594006,-0.2714783,0.7641647,16
17.32,-0.04543355,1.31753,-21.09792,-0.5328407579502191,-0.2417703968571846,-0.0286514628008784,40.7499,73.41763,182.6218,0.553818,-0.2918622,0.7560902,16
17.34,0.06185694,1.513283,-21.07609,-0.5479117798916627,-0.2138890680618263,-0.0325302758678018,44.139,73.37841,182.2238,0.5477454,-0.3119823,0.7473494,16
17.36,0.1011719,1.114522,-21.06833,-0.5579456000849559,-0.1860556589927623,-0.0357980455345461,44.68574,73.24413,181.1201,0.548741,-0.3104811,0.7445153,16
17.38,0.207042,1.315016,-21.04601,-0.5569026018899419,-0.1863868132960849,-0.035819026216294,48.03694,73.17174,180.7039,0.5424017,-0.3301694,0.7349157,16
17.4,0.3128667,1.512607,-21.02389,-0.5560700961622305,-0.2134119333123709,-0.0359832433804605,51.38669,73.05501,180.2512,0.5355939,-0.3495666,0.724684,16
17.42,0.4371237,1.107168,-20.99211,-0.5376777299955868,-0.1802641194447466,-0.0333734030132033,53.29829,71.07498,177.6889,0.5267457,-0.3544307,0.7218869,16
17.44,0.5550289,1.103805,-20.96682,-0.4972972320648862,-0.2036063250816449,-0.0255706018878658,56.47133,70.19562,176.1864,0.5191563,-0.3700069,0.7113665,16
17.46,0.6581172,1.299902,-20.9467,-0.4539698901653721,-0.1671884115598514,-0.0182366640394828,59.71988,69.60594,175.2235,0.5115913,-0.3878388,0.699652,16
17.48,0.760911,1.493276,-20.92684,-0.4034098662615148,-0.1836764375183588,-0.0088063963411153,62.96066,68.83154,174.0818,0.5036048,-0.4053408,0.6873658,16
17.5,0.9084183,1.109076,-20.88881,-0.3490085053701625,-0.1410493934033235,0.0006871758031068,62.63293,62.41834,167.8886,0.4870996,-0.3953647,0.6981856,16
17.52,1.01058,1.297766,-20.86891,-0.2911814928919409,-0.1483720282938837,0.0115232905396314,65.74625,60.67817,165.7039,0.479228,-0.4120175,0.6851055,16
17.54,1.112041,1.483795,-20.84933,-0.2494062249673874,-0.0995755606117051,0.018054034704861,68.82337,58.372,162.9586,0.4709704,-0.4283321,0.6714752,16
17.56,1.336295,1.161557,-20.79026,-0.1945595626692475,-0.0956738912900044,0.0280071847885552,55.79408,60.48486,168.7647,0.4825592,-0.3586913,0.736773,16
17.58,1.423429,1.178015,-20.76965,-0.1425698082509318,-0.0401129553848763,0.0362263713559816,52.10918,63.37785,171.2351,0.4991025,-0.3365901,0.7445737,16
17.6,1.526696,1.356063,-20.74668,-0.0909552128236728,-0.0312839088308769,0.0417593247084298,55.21696,62.57813,169.9617,0.4931025,-0.354243,0.7332931,16
17.62,1.717778,1.228076,-20.72245,-0.0365933738273911,-0.0246474088016618,0.0477722498159054,37.91303,69.1479,174.7001,0.5484859,-0.2423804,0.7693824,16
17.64,1.832066,1.399348,-20.69872,0.0187246734664734,0.0076163070330852,0.0508961661481324,41.32243,68.96217,174.0546,0.544093,-0.2629892,0.7598988,16
17.66,1.944578,1.567283,-20.67562,0.0597541735429636,0.0377493455796603,0.0514314301256964,44.72898,68.71171,173.3569,0.5392064,-0.2833538,0.749729,16
17.68,2.002589,1.256907,-20.67797,0.1003877823153058,0.0672184013658781,0.0517905811179177,20.12452,74.2153,176.573,0.5979354,-0.1215132,0.7817335,16
17.7,2.060243,1.263577,-20.66883,0.140105196782322,0.0930469331054054,0.0518973882006577,13.94229,75.66862,177.17,0.6110271,-0.08079198,0.7818719,16
17.72,2.179661,1.431308,-20.64494,0.1707678135348469,0.1149778981036757,0.0535261424524491,17.47787,75.85977,177.0446,0.610449,-0.1041313,0.7769391,16
17.74,2.295534,1.275672,-20.61981,0.1998014726440291,0.1362574234291384,0.0551493287573396,358.4377,79.23557,178.1863,0.6373579,0.02059202,0.7702851,16
17.76,2.416637,1.441337,-20.59599,0.2266127529745052,0.1540286072008569,0.0566966576764267,2.002219,79.46059,178.2783,0.6392068,-0.003833611,0.7686899,16
17.78,2.535542,1.603275,-20.57289,0.2482729428372797,0.0992834940830341,0.0588088080690698,5.565384,79.69206,178.3846,0.6404331,-0.0282484,0.7663492,16
17.8,2.652028,1.761638,-20.55053,0.2662242736913645,0.1116919186205188,0.0615008285560869,9.127069,79.93185,178.5062,0.6410361,-0.05262885,0.7632659,16
17.82,2.675576,1.293817,-20.53785,0.2813163583678369,0.1227080382507566,0.0648755072575437,352.8215,80.9764,179.2617,0.6476977,0.05178609,0.7592942,16
17.84,2.798099,1.455304,-20.51175,0.2784645596194142,0.1265021925662465,0.0649515522692261,356.4038,81.17536,179.5258,0.6501865,0.0265191,0.7591155,16
17.86,2.849669,1.269944,-20.49251,0.2763218960889092,0.153931415899775,0.0655053543656043,354.0904,81.36839,180.003,0.6510236,0.03907254,0.7573053,16
17.88,2.90264,1.26191,-20.48287,0.255429892716944,0.1316714522392152,0.0624338627504208,355.7625,81.41801,180.548,0.6518984,0.02490791,0.7573898,16
17.9,3.023274,1.425421,-20.45732,0.2310421182927039,0.1085028545684828,0.0591157810850315,359.3422,81.62897,180.8323,0.6536157,-0.0004031672,0.7567704,16
17.92,3.090962,1.245944,-20.43638,0.2146425487980487,0.1084815626334637,0.0585747426864902,1.397408,81.85377,181.5869,0.6548563,-0.01828339,0.7555283,16
17.94,3.212523,1.410839,-20.41076,0.195466676171654,0.1087483419099072,0.0578393727474391,5.030506,82.0938,181.8967,0.6554064,-0.04395086,0.7538195,16
17.96,3.222045,1.237703,-20.40107,0.1554912081642404,0.0581774684319239,0.0544406573761677,6.158346,82.01627,182.5797,0.6541406,-0.05527357,0.7541296,16
17.98,3.343599,1.40476,-20.37567,0.128095806699747,0.0821498769806034,0.0532621151930063,9.803038,82.28214,182.8938,0.6536756,-0.08087793,0.7515183,16
18.0,3.318629,1.22639,-20.36919,0.1092842057038244,0.1304834529424284,0.0534981296568344,10.31122,81.9006,183.1562,0.6506359,-0.08582061,0.7535594,16
18.02,3.381571,1.208858,-20.34717,0.0556472516226189,0.0998188101503349,0.0503016218278355,13.42125,82.10116,183.5368,0.6491957,-0.1082093,0.7509753,16
18.04,3.500015,1.383403,-20.32311,0.0130150832495684,0.1218812850157546,0.0473509381244219,17.01519,82.39923,183.8282,0.647355,-0.1330101,0.7469797,16
18.06,3.616788,1.554365,-20.29965,-0.0316056399144282,0.1435448667365775,0.0443695009172819,20.60652,82.72301,184.1458,0.6448709,-0.1576717,0.7422443,16
18.08,3.537344,1.183226,-20.30067,-0.1055570769510676,0.0843347582614218,0.0371122052276917,17.39923,81.6488,183.9124,0.641938,-0.1364487,0.75095,16
18.1,3.653233,1.363958,-20.27759,-0.1805144967950114,0.0259174949188677,0.0301415101570419,20.9572,81.94852,184.1522,0.6393868,-0.1605796,0.7462458,16
18.12,3.767849,1.541255,-20.25499,-0.2337795763243924,0.0147599425845355,0.026469407652665,24.51285,82.27223,184.4187,0.6362144,-0.1845476,0.7408192,16
18.14,3.708612,1.153134,-20.24308,-0.2865354378320384,0.0063276678893335,0.023380682732184,23.05792,78.77415,184.0529,0.6159023,-0.1763586,0.7612942,16
18.16,3.746163,1.145567,-20.23058,-0.3379421736092867,-0.0013323114152792,0.0190364153528546,24.57858,78.02937,184.0542,0.6088595,-0.1870334,0.763445,16
18.18,3.85769,1.336448,-20.20731,-0.3761793639499864,0.0224395373572626,0.0168118642284076,28.07393,78.25582,184.0688,0.605145,-0.2097684,0.7575344,16
18.2,3.830357,1.132821,-20.20047,-0.4125744724542879,0.0464715552363781,0.0152336018904555,27.99957,76.07153,183.9494,0.5909308,-0.2110289,0.7689137,16
18.22,3.939862,1.327201,-20.17671,-0.4704943043235472,-0.0150833262654792,0.0104599660459987,31.4552,76.24206,183.8506,0.586713,-0.2330914,0.7624495,16
18.24,3.97436,1.121833,-20.15435,-0.4952141258622631,0.0099403321540459,0.0097020887162999,34.68954,73.41325,183.2587,0.563512,-0.2551315,0.770009,16
18.26,4.029712,1.118807,-20.13918,-0.5161028892854511,0.0351105739069494,0.0097410677712392,37.34835,72.80059,182.9983,0.5552474,-0.2723343,0.7672271,16
18.28,4.136776,1.317549,-20.11601,-0.5457234882497044,-0.0264444828837116,0.0074880960434557,40.73499,72.78139,182.6204,0.5496441,-0.2928135,0.7591861,16
18.3,4.243689,1.513318,-20.09306,-0.5592320302504095,-0.0282474467037942,0.0051145468667122,44.12048,72.72991,182.2201,0.5435557,-0.3130285,0.7504777,16
18.32,4.226374,1.115037,-20.09838,-0.5567560802999203,0.0021208148510877,0.0055307086999407,43.2534,72.77071,181.7436,0.5468755,-0.3050621,0.7516143,16
18.34,4.332184,1.315277,-20.07536,-0.5482501694809769,-0.0245871631711566,0.0074587107519823,46.60704,72.69621,181.3293,0.5406065,-0.3249231,0.7423958,16
18.36,4.437935,1.512609,-20.05255,-0.5347886006599203,-0.0507475200406541,0.0102414710382747,49.95927,72.57882,180.8802,0.5338699,-0.3444973,0.7325376,16
18.38,4.510468,1.10999,-20.03041,-0.5065400907089976,0.0089766601157971,0.0159073260304065,50.6674,71.03788,178.7341,0.5289159,-0.3424474,0.7328584,16
18.4,4.576486,1.107185,-20.01459,-0.4722360589637469,-0.018374526973214,0.0231108322176631,53.27254,70.33075,177.6894,0.5220995,-0.3560479,0.7253783,16
18.42,4.679465,1.305585,-19.99199,-0.4334353057102518,-0.0461763329961925,0.0308277375461352,56.53815,69.94216,176.9491,0.5149564,-0.374522,0.7142269,16
18.44,4.898336,1.104468,-19.93834,-0.393278640494916,0.0122314267974925,0.0375356527693995,61.20084,64.92768,171.2236,0.4935242,-0.3928896,0.7031957,16
18.46,5.000216,1.295664,-19.91689,-0.3347624216286098,0.0208181915847649,0.0498693670089065,64.37404,63.66378,169.5592,0.4856969,-0.4100771,0.6904821,16
18.48,5.124939,1.117908,-19.88348,-0.2751441802413812,0.0055937998994517,0.0624792793422241,61.81816,60.15279,167.2649,0.476629,-0.3940847,0.7093321,16
18.5,5.226352,1.304338,-19.8612,-0.2130221749769068,-0.0113360932326376,0.0756103871417588,64.89747,58.3933,165.0551,0.4690646,-0.4108645,0.6963645,16
18.52,5.327765,1.144097,-19.83326,-0.1422694116937339,0.0091802526623744,0.08667481854205,58.41081,59.35708,167.8338,0.4746808,-0.375746,0.7284974,16
18.54,5.42986,1.326065,-19.81027,-0.0702227730493048,0.0290813983451901,0.0976827282993215,61.47098,57.84972,165.8434,0.4676782,-0.3926839,0.7161195,16
18.56,5.610302,1.195327,-19.76556,0.0042389745817554,0.0002721590831711,0.101434229091899,48.34203,65.03058,173.1454,0.5101629,-0.315343,0.7547846,16
18.58,5.714391,1.371711,-19.74164,0.0630830298325011,0.043045767511976,0.0994616843217088,51.47993,64.49088,172.1584,0.5045964,-0.3335853,0.7442214,16
18.6,5.809845,1.227019,-19.73664,0.1164086946662461,0.0631834245672314,0.0866546603297528,38.06578,68.34485,174.6629,0.5429648,-0.244794,0.7727447,16
18.62,5.927817,1.397096,-19.71061,0.1740588583119522,0.0603026943754223,0.0639189932736132,41.59652,68.12107,173.9778,0.5383017,-0.2662546,0.7629462,16
18.64,6.053042,1.257267,-19.69717,0.2193160894034058,0.1004173968222537,0.0399072177385475,20.0918,73.31116,176.5693,0.591776,-0.1222805,0.7864678,16
18.66,6.130467,1.263932,-19.68326,0.2544955363029593,0.0919934878408341,0.0034068021344397,13.91679,74.83349,177.1658,0.6053277,-0.08127548,0.7863256,16
18.68,6.248156,1.432124,-19.65801,0.2881601594757175,0.0815352398172887,-0.0348079173957596,17.40999,75.01322,177.0368,0.6047425,-0.1044601,0.7815004,16
18.7,6.363863,1.596761,-19.63343,0.327600485204448,0.137362301306992,-0.0708519935338256,20.9033,75.18817,176.9169,0.6035911,-0.1275455,0.775947,16
18.72,6.384978,1.275788,-19.62687,0.3597368287074276,0.1455459772416898,-0.1210671755317589,358.4229,78.45091,178.1856,0.6320657,0.02067151,0.7746311,16
18.74,6.50531,1.441591,-19.60143,0.3915727774936197,0.130501053531728,-0.1817897620679636,1.975368,78.66515,178.2759,0.6338556,-0.00379717,0.7731134,16
18.76,6.623468,1.603693,-19.5767,0.4210350227186945,0.160777304657698,-0.2442529818336902,5.526476,78.88565,178.3799,0.6350322,-0.02825502,0.7708511,16
18.78,6.722424,1.29385,-19.54777,0.4463651914294413,0.1876154781380955,-0.3080962522258486,352.8172,80.05308,179.2582,0.6415554,0.05212153,0.7644877,16
18.8,6.781071,1.29608,-19.53116,0.4445939368053866,0.1381377845377814,-0.3819568415971925,353.4412,80.09337,179.524,0.6421705,0.04645971,0.7644134,16
18.82,6.902247,1.457082,-19.50133,0.4392903770376344,0.0858666298095149,-0.4571319196418222,357.0032,80.27993,179.8418,0.6444086,0.02087947,0.7642332,16
18.84,6.946392,1.26225,-19.48735,0.4434510532994145,0.1213854459401292,-0.5319295493191447,355.717,80.494,180.5733,0.6457673,0.02529117,0.7626029,16
18.86,7.065047,1.426163,-19.4591,0.4253062576376618,0.0814611900650834,-0.6183063391968688,359.2557,80.69305,180.8831,0.6474141,-3.910367e-05,0.7620717,16
18.88,7.082086,1.250204,-19.45389,0.4018080452235952,0.0679103653081366,-0.7048023297439587,359.4137,80.78973,181.3663,0.6480436,-0.003830561,0.7614929,16
18.9,7.202658,1.414645,-19.42621,0.3847913120825315,0.0800478054370702,-0.7907847009679543,3.025118,81.00841,181.6694,0.6489163,-0.02952664,0.7602626,16
18.92,7.254059,1.237686,-19.4029,0.3637483089244036,0.0902727757639167,-0.8782029479325653,6.154563,81.04678,182.5821,0.6477374,-0.05541508,0.759638,16
18.94,7.375172,1.404711,-19.37523,0.324291544515791,0.0745034730483797,-0.9672251585488468,9.801138,81.30264,182.8994,0.6472253,-0.0812128,0.7570808,16
18.96,7.370676,1.226457,-19.36511,0.2810728242713962,0.0597782688317825,-1.0581755271436937,10.29706,80.99581,183.1562,0.6446756,-0.08602613,0.7586795,16
18.98,7.490208,1.396929,-19.33858,0.2500140560873003,0.0933731487366778,-1.1483307673964362,13.91004,81.26756,183.444,0.6433764,-0.1112774,0.7553328,16
19.0,7.607817,1.56373,-19.31272,0.2143971017876254,0.1238533895077572,-1.2395750403103136,17.52053,81.56293,183.7547,0.6414314,-0.1364096,0.7512303,16
19.02,7.501817,1.191154,-19.3094,0.1585500828195825,0.1005502114172468,-1.3206016672448442,16.06264,79.71391,183.7396,0.6307501,-0.1279,0.7626346,16
19.04,7.617646,1.369928,-19.28217,0.1090695297671195,0.107388460719047,-1.4029708376284873,19.6332,79.99878,183.9814,0.6284491,-0.1525306,0.7581867,16
19.06,7.732094,1.545222,-19.25548,0.0573809187586549,0.1136835460528231,-1.486610715608283,23.20146,80.30682,184.2483,0.6255334,-0.1770048,0.7529995,16
19.08,7.655136,1.168363,-19.25893,-0.0221618464830426,0.0371533687918055,-1.5623423210360965,20.13388,78.19909,184.0505,0.6157783,-0.1575126,0.7675222,16
19.1,7.768734,1.35312,-19.23211,-0.0866339199611145,0.0146378491358982,-1.630565900961206,23.67721,78.46033,184.1875,0.6127658,-0.1814241,0.7623695,16
19.12,7.77293,1.145565,-19.2169,-0.1566760128340427,-0.0341180540957726,-1.697342214800479,24.59504,76.01419,184.0442,0.5953343,-0.1889447,0.7740036,16
19.14,7.884233,1.336389,-19.18984,-0.2268648259472401,-0.0808537791531449,-1.764981948505442,28.11039,76.22543,184.0477,0.5916111,-0.2121043,0.7680607,16
19.16,7.876431,1.132842,-19.18029,-0.2716675773817414,-0.0444406502617294,-1.8315717322696528,27.99753,74.21817,183.9491,0.5784215,-0.2129696,0.778373,16
19.18,7.985259,1.327199,-19.15297,-0.323012018593436,-0.0631360878523195,-1.889002042119604,31.45886,74.37802,183.8495,0.5742295,-0.2353862,0.7718847,16
19.2,8.093678,1.518443,-19.12593,-0.3726053608231652,-0.0793211274585075,-1.947159460374266,34.91945,74.53682,183.7577,0.5695119,-0.2575812,0.7646919,16
19.22,8.039155,1.121834,-19.126,-0.414398708518882,-0.0937235743565384,-1.997484460892605,34.68303,71.72852,183.2628,0.5521329,-0.2573783,0.7782282,16
19.24,8.146213,1.319705,-19.09903,-0.4549296930850888,-0.1342498394045185,-2.0488591628973705,38.09701,71.75897,182.9626,0.546969,-0.278673,0.7705731,16
19.26,8.253074,1.514558,-19.0723,-0.4816525189941927,-0.1140288208720544,-2.1003939148877,41.5101,71.76697,182.6496,0.5413161,-0.2997126,0.7622311,16
19.28,8.273506,1.115017,-19.06731,-0.4974122684700197,-0.063746239387177,-2.1507304368322995,43.26658,71.08341,181.7547,0.5356939,-0.3082185,0.759571,16
19.3,8.315651,1.114467,-19.05564,-0.5214838342788162,-0.0996629061823552,-2.195413589899173,44.65803,70.99128,181.1509,0.5339694,-0.314698,0.7552896,16
19.32,8.419823,1.314933,-19.02879,-0.548293050922936,-0.1635501977955839,-2.23684838357843,47.99331,70.91754,180.7618,0.5277631,-0.334773,0.7456844,16
19.34,8.527819,1.109998,-18.99879,-0.5449908536272696,-0.1685062282358633,-2.278703741872675,50.6454,69.48874,178.7402,0.5189874,-0.3457708,0.7400234,16
19.36,8.63085,1.309405,-18.97305,-0.5380134769347289,-0.1722214905959091,-2.3195257709630908,53.93554,69.20302,178.1171,0.5121816,-0.3649106,0.7292866,16
19.38,8.733779,1.506019,-18.94753,-0.5276724653350113,-0.1780750142692359,-2.359030981050062,57.22221,68.82598,177.4092,0.5049475,-0.383737,0.7179435,16
19.4,8.843814,1.102196,-18.91661,-0.5033679929688861,-0.1810819380055858,-2.4006736701619142,59.62833,66.50042,174.0988,0.4964972,-0.3907518,0.7106016,16
19.42,8.945521,1.295891,-18.89247,-0.4732432257234811,-0.1788630678318742,-2.4374987470157,62.85409,65.63267,172.8736,0.4887865,-0.4086137,0.6981794,16
19.44,9.04681,1.486895,-18.8686,-0.4397608411343705,-0.1765561320840434,-2.47204994856646,66.06797,64.48659,171.3751,0.4806754,-0.426133,0.6851891,16
19.46,9.265013,1.128715,-18.80385,-0.40814846113568,-0.1640906373335413,-2.516473549978559,60.96498,57.23761,166.7208,0.4614963,-0.3945856,0.7233292,16
19.48,9.355428,1.144038,-18.77954,-0.3750457447247022,-0.1517437064382816,-2.5580948180448466,58.41769,58.02771,167.8587,0.4661061,-0.3795882,0.7339956,16
19.5,9.456749,1.325978,-18.75368,-0.3442811908278673,-0.0877548971632923,-2.5984655392974387,61.48141,56.53565,165.8978,0.4592339,-0.3968234,0.7215483,16
19.52,9.650817,1.195127,-18.72668,-0.3143342865429399,-0.0950136571055334,-2.637359277614735,48.36543,66.14604,173.1985,0.5173045,-0.3131402,0.7498313,16
19.54,9.755174,1.371354,-18.70334,-0.2786107114155871,-0.0732926820954117,-2.680371006543193,51.5173,65.64425,172.2747,0.5116654,-0.3314883,0.7392658,16
19.56,9.868761,1.226778,-18.73125,-0.2410841199500546,-0.052697797050081,-2.7211613217254715,38.08569,71.71667,174.7585,0.5652384,-0.2388397,0.7565745,16
19.58,9.987642,1.396631,-18.70949,-0.2225614628014356,-0.034672772303175,-2.760110531323769,41.63142,71.54983,174.1783,0.5603806,-0.2601919,0.7468356,16
19.6,10.04297,1.249792,-18.76227,-0.2033939920852203,-0.017684948363727,-2.797227598541614,26.29432,77.94383,176.0924,0.6181272,-0.1558506,0.7517593,16
19.62,10.18332,1.263661,-18.81054,-0.18305677404019,-0.0020014892696734,-2.8310395037184297,13.92363,84.39121,177.3145,0.6686329,-0.07414987,0.7332843,16
19.64,10.30302,1.431606,-18.80016,-0.1679770829185984,-0.0100521164626038,-2.861080552654842,17.41568,84.60208,177.338,0.6676895,-0.09649242,0.7285294,16
19.66,10.36622,1.271812,-18.86984,-0.156210618836466,0.0260042097582522,-2.887470207325628,2.431083,90.73449,178.0486,0.711615,-0.002786881,0.702043,16
19.68,10.48863,1.438307,-18.869,-0.1414787381384064,0.0834704191147704,-2.9099099987062487,5.973463,90.94831,178.1813,0.712456,-0.02523374,0.6996006,16
19.7,10.6088,1.601136,-18.86841,-0.1388384339309649,0.0698497565059629,-2.924743112800073,9.514317,91.17203,178.3284,0.7126122,-0.04764984,0.6964886,16
19.72,10.63654,1.285033,-18.97353,-0.1385618424225954,0.0537943573623925,-2.937434688639533,353.317,97.71597,178.8446,0.7513761,0.04592721,0.6572184,16
19.74,10.7742,1.293594,-19.04501,-0.1311112069535764,0.0583369095330867,-2.942664677657862,352.8112,100.8342,179.3763,0.7689587,0.04413367,0.6361943,16
19.76,10.89875,1.454876,-19.05801,-0.1268684136280011,0.0616846390804555,-2.9454587751715424,356.3859,101.0022,179.7511,0.7712077,0.02173314,0.6357988,16
19.78,11.0207,1.61233,-19.071,-0.1401916799352356,0.0127978816440047,-2.937537701225202,359.9583,101.193,180.1355,0.7726946,-0.0006825346,0.6347772,16
19.8,10.98228,1.26986,-19.14704,-0.1540452262264755,0.0316038951979584,-2.9281702624824755,354.0761,105.1348,180.1053,0.7930364,0.03067905,0.6069782,16
19.82,11.10271,1.43305,-19.16727,-0.168786222284988,0.0239709945006912,-2.9116063248208546,357.5976,105.3074,180.5182,0.7948585,0.009122546,0.606416,16
19.84,11.22071,1.592598,-19.18735,-0.1873055392652456,0.0163760773276495,-2.8941265605679973,1.11672,105.5051,180.9413,0.7959161,-0.01243673,0.6052728,16
19.86,11.21731,1.246026,-19.27986,-0.1989315005478424,0.0588402807154376,-2.873228751198252,1.35167,109.9556,181.6994,0.8186826,-0.01891239,0.5739341,16
19.88,11.25562,1.240554,-19.30414,-0.2150576186136972,0.0973831856055843,-2.850794898732464,3.940019,110.8208,182.1815,0.8222323,-0.03517346,0.5677947,16
19.9,11.37445,1.40677,-19.33588,-0.2464460119076403,0.0867897047554987,-2.8047765127705087,7.534774,111.0664,182.6183,0.8216081,-0.05597099,0.5657963,16
19.92,11.491,1.56929,-19.36727,-0.2807752076199183,0.0771260403593611,-2.758556867676352,11.12653,111.3421,183.0752,0.8201609,-0.07670605,0.563233,16
19.94,11.45384,1.217254,-19.40642,-0.3222965612401607,0.0648222401906531,-2.700754165076003,11.86494,114.23,183.4809,0.8331749,-0.08146078,0.5424338,16
19.96,11.56923,1.38944,-19.44526,-0.3760267150094138,0.0280930752695905,-2.636748550351184,15.46202,114.5314,183.9048,0.8305793,-0.101098,0.5393729,16
19.98,11.68273,1.557995,-19.48372,-0.4142176149675092,0.0438124059405224,-2.5708617192351624,19.05576,114.8666,184.3568,0.8271524,-0.120628,0.5357742,16
20.0,11.79413,1.723047,-19.52171,-0.4551316353815431,0.0591957254546556,-2.505387222899193,22.64607,115.2399,184.8408,0.8228974,-0.1400238,0.5316432,16
20.02,11.64319,1.183038,-19.5016,-0.5230298512739586,-0.0072112004749455,-2.4205333979964143,17.38877,116.5697,184.0077,0.8376039,-0.1088209,0.5238346,16
20.04,11.75283,1.363479,-19.5462,-0.5594986386438645,0.0080174337819689,-2.3335713645571814,20.94843,116.8816,184.3469,0.8336899,-0.1268554,0.5201631,16
20.06,11.86113,1.540475,-19.59048,-0.5965152922795509,0.023339054379209,-2.2479504686583605,24.50517,117.2245,184.7162,0.8289632,-0.1447608,0.5159863,16
20.08,11.78998,1.15293,-19.57259,-0.6554371455157191,-0.0452747249313337,-2.148199532970827,23.05066,115.7645,184.149,0.8254908,-0.1361977,0.5267251,16
20.1,11.80714,1.145341,-19.58186,-0.6857933457274163,-0.0304737240716811,-2.046181393407005,24.57177,115.3843,184.1584,0.8211625,-0.143616,0.5284089,16
20.12,11.87174,1.13254,-19.60993,-0.7150653774994171,-0.0153333988741119,-1.9463053592587487,28.00917,114.1971,184.0667,0.8094729,-0.1602752,0.5339277,16
20.14,11.97444,1.32657,-19.65597,-0.7406291044032574,-0.0274549015155253,-1.836146458160175,31.4839,114.4081,184.0901,0.8033175,-0.1757309,0.5291396,16
20.16,12.07662,1.517469,-19.70198,-0.770435351761301,-0.0653156998455016,-1.7247090548538857,34.95753,114.629,184.1295,0.7964221,-0.1910167,0.5238671,16
20.18,12.04814,1.121664,-19.69274,-0.7805201255727865,-0.0428996420204154,-1.6139666673655615,34.70704,112.8007,183.3205,0.7898963,-0.188021,0.5351738,16
20.2,12.14732,1.319391,-19.74133,-0.7877963175837843,-0.0202454932531681,-1.5066436058189705,38.12689,112.8583,183.0826,0.7823648,-0.2017241,0.5297726,16
20.22,12.14478,1.117121,-19.74892,-0.8081745862787431,-0.0842014020365098,-1.3939663383777527,39.5852,112.7763,182.7061,0.7789638,-0.2058969,0.5273755,16
20.24,12.2293,1.114983,-19.80198,-0.8012298582822615,-0.0602538037072883,-1.2815185313468924,43.24539,113.2175,181.7701,0.7729535,-0.2147662,0.5163165,16
20.26,12.3248,1.315182,-19.85248,-0.7928839871731634,-0.092756591107672,-1.1713440641571575,46.59471,113.1413,181.3815,0.7638367,-0.2271112,0.5099326,16
20.28,12.42014,1.512486,-19.90309,-0.7807490251618523,-0.1243249534836025,-1.0656893399183054,49.9426,113.0245,180.9598,0.7540631,-0.2392569,0.5031117,16
20.3,12.43306,1.11289,-19.91615,-0.7566222916147165,-0.1267144841842447,-0.9587534275949204,48.04123,112.9399,179.5814,0.7622226,-0.2220691,0.5032948,16
20.32,12.48254,1.110004,-19.94608,-0.7189193357109325,-0.0973537451406103,-0.8545550637265378,50.61861,112.5856,178.7467,0.7545843,-0.2290044,0.4977618,16
20.34,12.63215,1.103748,-20.03257,-0.6622408274546259,-0.1245616743287311,-0.7642640414775261,56.44778,111.3682,176.2484,0.7360798,-0.2426461,0.4836765,16
20.36,12.72332,1.299796,-20.0844,-0.603063764517064,-0.0920831233896837,-0.6794243587656688,59.69842,110.795,175.341,0.724815,-0.2533928,0.4754849,16
20.38,12.81411,1.493131,-20.1362,-0.5410454666278914,-0.0608011014410573,-0.5997245635434227,62.94209,110.0454,174.2624,0.7129549,-0.263924,0.4669065,16
20.4,12.94651,1.108991,-20.21482,-0.4765414718252119,-0.0339945190980706,-0.5254254000462564,62.62767,104.1767,167.948,0.7038345,-0.2468182,0.4789944,16
20.42,13.01671,1.117811,-20.25418,-0.4028618472379848,-0.0255261069798748,-0.461155223456914,61.82631,102.8571,167.3317,0.7020139,-0.2443514,0.4873425,16
20.44,13.10682,1.304163,-20.30549,-0.3272465194573568,-0.0168843300380464,-0.4026574373561877,64.91471,101.1466,165.1992,0.6902473,-0.2540458,0.4780259,16
20.46,13.28454,1.161335,-20.41115,-0.2400761222920073,-0.0551173652776062,-0.3561618049260051,55.82271,102.8724,168.8045,0.7161258,-0.2230198,0.5125393,16
20.48,13.37599,1.341011,-20.46393,-0.1711382678269699,-0.0378825409099616,-0.3222229695804519,58.90225,101.5896,167.049,0.7054985,-0.2327111,0.503937,16
20.5,13.46628,1.517953,-20.51625,-0.0991204662467093,0.0039927644960786,-0.2962895498535336,61.95615,99.98032,164.9743,0.6943142,-0.2422155,0.4949386,16
20.52,13.54564,1.211514,-20.57917,-0.0236708571510249,0.0010832477876988,-0.2843807884462745,43.15367,110.3536,173.9881,0.7733546,-0.16968,0.5144683,16
20.54,13.67263,1.238962,-20.67728,0.0386656049074987,0.0422707185621898,-0.2815597036536106,32.15253,113.8153,175.3509,0.810499,-0.1184172,0.5147972,16
20.56,13.7761,1.408353,-20.73907,0.0998621071676497,0.0806874914216583,-0.2875468400599783,35.67389,113.7512,174.8861,0.8039035,-0.1316525,0.5082296,16
20.58,13.81799,1.257091,-20.78175,0.1475202477389809,0.0936890750180549,-0.2896749789161239,20.14205,117.3074,176.5785,0.8432205,-0.06582434,0.507507,16
20.6,13.92151,1.425256,-20.8452,0.1843220409965291,0.083193837287541,-0.2965740540320745,23.67515,117.4201,176.3582,0.8393394,-0.07991204,0.502497,16
20.62,14.02234,1.271827,-20.91939,0.2272443238016177,0.118162632539426,-0.3026552021240158,2.468655,121.8474,177.9502,0.8738179,0.005161846,0.4854469,16
20.64,14.10366,1.275463,-20.97077,0.2648227758215538,0.1291865864482373,-0.3087164635899739,358.4733,122.8463,178.2095,0.8778917,0.0200921,0.4784191,16
20.66,14.20872,1.440914,-21.03638,0.2982230393201894,0.1390900809667362,-0.3228593073432173,2.052617,123.0412,178.3237,0.8788784,0.004315778,0.4764853,16
20.68,14.31168,1.602612,-21.10095,0.3349879576737988,0.1936373213846693,-0.333201391237504,5.630507,123.2438,178.4506,0.8790038,-0.01146029,0.4740867,16
20.7,14.35198,1.291294,-21.129,0.355938367392087,0.1772726853779495,-0.3429313428163087,352.2419,124.6676,179.0623,0.883352,0.03864124,0.4637309,16
20.72,14.45884,1.453261,-21.19481,0.3721051851018426,0.1586330826683912,-0.3596123418699433,355.8372,124.8347,179.3186,0.8856434,0.02208327,0.4629054,16
20.74,14.5366,1.282993,-21.24274,0.3963717616738131,0.2061988080016341,-0.3674516409340667,353.7693,125.2864,179.7703,0.8867977,0.02675172,0.4589469,16
20.76,14.64238,1.445056,-21.30676,0.3976207320876899,0.1997481462307173,-0.3616067043558564,357.3215,125.4549,180.0908,0.8886022,0.01000527,0.4580823,16
20.78,14.64826,1.2622,-21.31326,0.3847086684655498,0.1694612314455773,-0.3549024542620929,355.7211,125.6728,180.5671,0.8891597,0.01264321,0.456045,16
20.8,14.75214,1.426024,-21.37765,0.3660144526704854,0.138401486493354,-0.3534156967913771,359.2688,125.8524,180.8711,0.8903995,-0.003864449,0.4550719,16
20.82,14.8134,1.246034,-21.41439,0.348612124773461,0.1310179543365967,-0.3362715797525841,1.376256,126.2635,181.594,0.8918218,-0.01783433,0.4520133,16
20.84,14.91817,1.411013,-21.48048,0.3266452044949122,0.1239069025403829,-0.323610304201825,4.999671,126.4737,181.9102,0.8915744,-0.03450708,0.4504617,16
20.86,15.0208,1.572238,-21.54551,0.2877921869829647,0.0658832675098336,-0.3055290680370839,8.621507,126.7054,182.242,0.8904259,-0.05114143,0.4484568,16
20.88,15.1211,1.729875,-21.60934,0.251488100834766,0.0571928235939379,-0.274250763736072,12.24088,126.9611,182.5925,0.888378,-0.06771933,0.4460007,16
20.9,15.04107,1.226297,-21.54122,0.2229197040179049,0.0753546048777212,-0.2472141477386382,10.30928,126.5337,183.1737,0.8880391,-0.06503163,0.4500669,16
20.92,15.14457,1.396559,-21.60765,0.1777292535051056,0.0406308909586419,-0.2131228625393002,13.93909,126.7896,183.4788,0.8854486,-0.08125592,0.4476191,16
20.94,15.14868,1.199779,-21.59793,0.1284956399666965,0.0072346165225173,-0.182554643238773,14.7405,126.8522,183.6736,0.8846739,-0.08578712,0.4471049,16
20.96,15.18511,1.191098,-21.61696,0.0974753391930391,0.0488776451600477,-0.154190492146323,16.05284,126.8023,183.784,0.8828571,-0.09171642,0.4472357,16
20.98,15.28471,1.369763,-21.68194,0.062323673255435,0.0880268446316792,-0.1278479101439682,19.62047,127.0815,184.0711,0.8789076,-0.107203,0.4441873,16
21.0,15.38297,1.544952,-21.74628,-0.0060093559355616,0.0194980007992645,-0.0806912478757828,23.18558,127.3868,184.3839,0.8740998,-0.12258,0.4407068,16
21.02,15.31133,1.161014,-21.67072,-0.0894446377847173,-0.0754490290836225,-0.0273345941064602,21.54322,122.8347,184.074,0.858932,-0.1200213,0.4755325,16
21.04,15.40909,1.34796,-21.73219,-0.1362833444994882,-0.0647141025070133,0.0139130740641366,25.06318,123.0553,184.1496,0.853798,-0.1344401,0.4719773,16
21.06,15.50596,1.531617,-21.79331,-0.1966767187883813,-0.1096044181519417,0.064735544375142,28.58181,123.288,184.243,0.8478569,-0.1487276,0.4679775,16
21.08,15.45374,1.13915,-21.74459,-0.2574262446262039,-0.152324549274136,0.1126244109317,26.27523,120.7445,183.9712,0.8421031,-0.1416265,0.4879809,16
21.1,15.54988,1.331772,-21.80414,-0.2922008965631275,-0.1118754640743524,0.148391280594113,29.75677,120.9104,183.9197,0.835981,-0.1552945,0.4839326,16
21.12,15.64544,1.521233,-21.86353,-0.3298225513614148,-0.1270415449028813,0.1908848777551046,33.23712,121.0789,183.8787,0.8290875,-0.1688158,0.4794384,16
21.14,15.64672,1.121819,-21.84615,-0.3594775339927567,-0.1089091967166065,0.2271263696941514,34.6874,117.5398,183.2712,0.8114702,-0.1777937,0.5019774,16
21.16,15.69621,1.118815,-21.87471,-0.3870258904846335,-0.0905063766230607,0.2597501671966902,37.33636,116.9925,183.0035,0.803088,-0.1883746,0.502044,16
21.18,15.7892,1.317542,-21.93265,-0.4263644100019124,-0.1587253610857575,0.2982568753775005,40.72683,116.9453,182.628,0.7947373,-0.2002345,0.4968994,16
21.2,15.88194,1.513294,-21.99063,-0.443931167534346,-0.1391686703224488,0.3249768689074188,44.11599,116.8643,182.2278,0.7856856,-0.2119142,0.4913178,16
21.22,15.86446,1.115029,-21.98528,-0.4582018513131842,-0.1195613239224736,0.3481632260925433,43.2471,117.1665,181.7523,0.7903106,-0.2041959,0.4893278,16
21.24,15.95618,1.31526,-22.04275,-0.4572548908261691,-0.1281314759405321,0.3678635439255915,46.60205,117.0648,181.3411,0.7808992,-0.2156437,0.4833562,16
21.26,16.02868,1.11294,-22.08597,-0.453522024963946,-0.1331367628769934,0.3877216516666899,48.04406,116.1494,179.5552,0.7760581,-0.2122627,0.4816675,16
21.28,16.1193,1.313338,-22.14271,-0.4457353416696765,-0.1364199026130114,0.4046988519567076,51.35587,115.9255,179.0148,0.7659355,-0.2232826,0.474908,16
21.3,16.17878,1.107198,-22.1796,-0.4342709459440077,-0.1413866986644045,0.4188606536308898,53.25261,115.1304,177.7048,0.7591576,-0.2252116,0.4717879,16
21.32,16.26782,1.305597,-22.23601,-0.4040399177012697,-0.1456990212444623,0.4285638535339928,56.52048,114.7162,176.9689,0.7481852,-0.2356815,0.464384,16
21.34,16.45927,1.104424,-22.35421,-0.352062117693996,-0.1439487008669085,0.4319117163042953,61.18699,109.8933,171.2602,0.7248899,-0.2377641,0.4612085,16
21.36,16.54657,1.29564,-22.41081,-0.3051739325876652,-0.1112378994612388,0.4381203334538255,64.36144,108.607,169.6033,0.7126848,-0.2472072,0.4526312,16
21.38,16.63326,1.484195,-22.46722,-0.2541064709014726,-0.1285006529210511,0.446330502843145,67.51412,106.9121,167.5425,0.6999034,-0.2564454,0.4436904,16
21.4,16.71924,1.670127,-22.52335,-0.2002972738767057,-0.1472280812321285,0.4525432717499549,70.63509,104.6158,164.8847,0.6865563,-0.2654731,0.4343925,16
21.42,16.86197,1.14402,-22.60403,-0.1504548872965245,-0.0844485371440807,0.4608295118531504,58.42665,104.3426,167.7979,0.7172951,-0.2243651,0.4912926,16
21.44,16.9504,1.325984,-22.66037,-0.0840584969436264,-0.0642183480772013,0.4686888988769353,61.48933,102.7694,165.7654,0.705893,-0.2333794,0.4827514,16
21.46,17.10837,1.19523,-22.75847,-0.0173709755358646,-0.0669747724632154,0.4758143193001967,48.36063,110.1615,173.1426,0.7607007,-0.1893137,0.5011764,16
21.48,17.18579,1.209693,-22.81694,0.0393466105573923,-0.0231474859938484,0.4890498258891416,43.41362,111.8523,173.8682,0.7795606,-0.1657594,0.5034015,16
21.5,17.28686,1.38131,-22.88088,0.0975633425675188,0.0182591248271429,0.5021453541741323,46.9254,111.4168,172.9918,0.7701654,-0.1775802,0.4957509,16
21.52,17.4041,1.249781,-22.98321,0.1451171342116768,-0.0125553976016847,0.5195297419561475,26.33705,116.9844,175.9935,0.8338046,-0.08996841,0.5017717,16
