t,pX,pY,pZ,aX,aY,aZ,reX,reY,reZ,rtX,rtY,rtZ,ID
5.58,-41.30582,1.101693,-39.82857,2.3347524589770527,-0.1291076065061616,2.7169805972674803,14.6039,356.3863,163.598,-0.01283364,-0.1301973,0.9818306,14
5.6,-41.30658,1.301527,-39.82808,2.3856947219640645,-0.1445728715649359,2.729800464633988,14.62016,356.392,163.6207,-0.01278984,-0.1303271,0.9818411,14
5.62,-41.29364,1.154213,-39.78748,2.4435625067436675,-0.1555899315519174,2.740731117093836,16.57783,358.4639,164.6202,0.006143619,-0.1446304,0.980825,14
5.64,-41.30561,1.351319,-39.77805,2.499811763308384,-0.1423848873467548,2.749705275788996,16.87455,358.5712,164.993,0.006930988,-0.1470694,0.9808694,14
5.66,-41.31755,1.548367,-39.76863,2.5518105080143902,-0.1516470254109322,2.746967836139805,17.17058,358.6807,165.3671,0.007718333,-0.149506,0.9808979,14
5.68,-41.22888,1.168161,-39.67981,2.6022878992714915,-0.1369269308714962,2.742251026080744,17.65685,2.007514,166.8928,0.0347113,-0.1504741,0.9812379,14
5.7,-41.23068,1.364866,-39.65928,2.6507692608285423,-0.1001317121434552,2.73523497696013,18.27678,2.032778,166.9747,0.0354112,-0.1557836,0.9804626,14
5.72,-41.12493,1.18546,-39.52155,2.6942245415365003,-0.1102471901104408,2.7134429196847245,12.94041,8.284331,169.7859,0.08149125,-0.1055572,0.9863765,14
5.74,-41.11418,1.373037,-39.45525,2.7362009904664024,-0.0967375876938891,2.6899295640658814,14.96092,8.276416,169.7531,0.08285827,-0.1229405,0.9841146,14
5.76,-41.1035,1.559504,-39.38939,2.776202938690908,-0.0615015325349751,2.6643992494695823,16.98236,8.266965,169.7188,0.08419916,-0.1402931,0.9815448,14
5.78,-40.97944,1.210457,-39.29512,2.8098105964298394,-0.0727192340309962,2.6258927374819763,3.621506,16.01431,172.9759,0.1408826,-0.02270264,0.9876281,14
5.8,-40.9564,1.388885,-39.20346,2.841939329862841,-0.0607705701754617,2.586050438289183,6.436246,16.02257,173.0702,0.1422537,-0.0470781,0.9863992,14
5.82,-40.85458,1.225244,-39.11852,2.8720794306804693,-0.0275367078400562,2.544594304097819,0.9021118,19.99805,175.4792,0.1737967,-0.0008987901,0.9839602,14
5.84,-40.70934,1.263809,-38.9365,2.8940381425424784,-0.0449943192208406,2.488417796669795,357.0487,23.30639,178.3435,0.2015347,0.02813734,0.9790363,14
5.86,-40.66311,1.415821,-38.79175,2.9087306511994013,-0.0629109854163028,2.4240545293893154,1.466345,23.30079,178.776,0.2020452,-0.01037489,0.9792344,14
5.88,-40.60002,1.265881,-38.80581,2.922167282412512,-0.0569806365847319,2.358583159293988,354.4318,26.13021,180.2118,0.2258784,0.0468979,0.9729422,14
5.9,-40.55697,1.424716,-38.67913,2.933875800780032,-0.0290848848450809,2.291828478114831,358.3027,26.09851,180.7118,0.2258491,0.01302593,0.97403,14
5.92,-40.51188,1.254026,-38.71743,2.9265560719482355,-0.0510477074265962,2.2064531090530464,357.4907,28.19709,181.2184,0.2437441,0.01864615,0.9695342,14
5.94,-40.44237,1.245389,-38.64001,2.9194448177045738,-0.0484291176121622,2.119197400044121,1.462151,30.24936,181.7159,0.2606855,-0.01622243,0.9652236,14
5.96,-40.39218,1.409824,-38.52589,2.9126980099569666,-0.0229226513744476,2.028497034747745,5.111062,30.27341,182.1353,0.260016,-0.04789378,0.9643952,14
5.98,-40.34296,1.570458,-38.41401,2.905921577030946,0.0236917259399259,1.93414950833317,8.759381,30.32456,182.5588,0.2590794,-0.07951166,0.9625765,14
6.0,-40.32594,1.231751,-38.48622,2.87053441324315,-0.0060288883830718,1.8207868531070208,8.290193,32.62294,182.9549,0.2782424,-0.07657267,0.9574439,14
6.02,-40.30883,1.226047,-38.47394,2.822478533983083,-0.0354368729850747,1.6992944462992376,10.35775,33.2035,183.2479,0.2819856,-0.09453189,0.9547495,14
6.04,-40.25195,1.396315,-38.36565,2.776478566196433,-0.0382503198637436,1.5769277964418,13.97575,33.27931,183.6074,0.2804148,-0.1254532,0.951633,14
6.06,-40.23207,1.199241,-38.38651,2.714572660300301,-0.0695592109470279,1.4458372242206703,14.77447,35.34833,183.7918,0.2968658,-0.1323996,0.9456643,14
6.08,-40.17357,1.375623,-38.28223,2.655147486772061,-0.0731716196464932,1.3148163485751183,18.35135,35.46289,184.1935,0.2949004,-0.1627852,0.9414538,14
6.1,-40.1785,1.182717,-38.31548,2.5779005045067445,-0.1043084268166468,1.175523160832591,17.4167,35.86001,184.0692,0.2989998,-0.1547647,0.9415271,14
6.12,-40.13826,1.167722,-38.26199,2.4896813273634457,-0.134408036606295,1.0311619077454894,20.15818,35.49218,184.2468,0.2937135,-0.1776845,0.9390508,14
6.14,-40.07904,1.352132,-38.16223,2.405233046727252,-0.1357060047811835,0.8885185337564829,23.68714,35.61395,184.5728,0.291267,-0.2071927,0.933586,14
6.16,-40.07973,1.152453,-38.17438,2.30726161880206,-0.1661322717653924,0.7410888930196853,23.08937,34.80873,184.2544,0.2857718,-0.2017159,0.9364905,14
6.18,-40.02061,1.340882,-38.07645,2.202873369011868,-0.1950408642237255,0.5919663299923652,26.5991,34.91638,184.5105,0.2831021,-0.2307647,0.9303492,14
6.2,-40.02971,1.138517,-38.10132,2.1031709333200137,-0.193831086963875,0.4461268020075621,26.31356,34.00474,184.1587,0.2766505,-0.227856,0.9329929,14
6.22,-39.98487,1.128201,-38.03855,1.998278550021117,-0.2210115058338622,0.3008121080596018,30.06633,33.12434,183.9021,0.2666757,-0.2578455,0.9276876,14
6.24,-39.92467,1.323531,-37.94566,1.898195319539309,-0.2174703588008257,0.1596589219243105,33.50785,33.13097,183.9148,0.263412,-0.2854611,0.9200798,14
6.26,-39.90303,1.121585,-37.93491,1.7920132621559244,-0.2417769442280738,0.017872875529818,34.75014,32.57195,183.3226,0.2592131,-0.2942817,0.9181181,14
6.28,-39.83898,1.319376,-37.8462,1.691039203870594,-0.2350923994743403,-0.1188434648649297,38.15624,32.42557,183.0764,0.2553496,-0.3208285,0.9096124,14
6.3,-39.81927,1.117057,-37.84504,1.5832609243292826,-0.256018050377524,-0.2560795134269753,39.65081,32.97471,182.7023,0.2592401,-0.3314148,0.9040688,14
6.32,-39.74166,1.114943,-37.76842,1.4812290829384294,-0.2457835229556215,-0.3872155459337207,43.28469,34.06827,181.7645,0.2668283,-0.3567827,0.8902854,14
6.34,-39.68916,1.114421,-37.71333,1.3822361513780042,-0.2632019753662538,-0.5129431966542839,44.69038,34.52121,181.1495,0.2707821,-0.3657987,0.8843439,14
6.36,-39.62194,1.314906,-37.63036,1.289291313204843,-0.2493980900376864,-0.6317993823870864,48.0197,34.23812,180.7584,0.2663094,-0.3906374,0.8737776,14
6.38,-39.55478,1.512568,-37.54747,1.197666555640584,-0.2637391180868094,-0.7451286504937817,51.3465,33.89873,180.3135,0.2616119,-0.4151369,0.8624724,14
6.4,-39.51537,1.109834,-37.52892,1.112189757246842,-0.247067545818217,-0.8509146202958293,50.71867,34.77272,178.7591,0.2744298,-0.405778,0.8609173,14
6.42,-39.47181,1.10699,-37.48846,1.0320951535545635,-0.2580035825401078,-0.9482674552366436,53.3426,34.6566,177.7349,0.274572,-0.4231547,0.8502303,14
6.44,-39.40274,1.305267,-37.40956,0.9582021109093412,-0.2385313336019069,-1.0374317337433243,56.61497,34.09904,177.0544,0.2697035,-0.4465783,0.8378711,14
6.46,-39.24585,1.10445,-37.26679,0.9028865696464764,-0.2429151071020449,-1.1111031491430283,61.24642,30.88323,171.2189,0.2660394,-0.4720206,0.8166552,14
6.48,-39.17499,1.295511,-37.19142,0.853229401473925,-0.2180296843793027,-1.1761643939882165,64.4247,29.44614,169.6042,0.2608515,-0.4939553,0.8026592,14
6.5,-39.08702,1.118044,-37.11785,0.809484684340835,-0.2145080834185221,-1.2316131847268288,61.80756,27.16878,167.3316,0.2553804,-0.4739478,0.8156272,14
6.52,-38.94181,1.144347,-36.9901,0.7717096886801889,-0.1825498747192956,-1.2774120732964631,58.3616,27.53025,167.9653,0.2562431,-0.4491769,0.8311759,14
6.54,-38.86979,1.326119,-36.91501,0.7503075007743467,-0.1679258751976985,-1.308750167699836,61.43882,25.89847,166.0799,0.2515513,-0.4708304,0.8177716,14
6.56,-38.77365,1.178212,-36.8473,0.7349610063876275,-0.1260477377551707,-1.3297236622509212,52.03936,32.01068,171.3764,0.2787822,-0.4018522,0.8522696,14
6.58,-38.70019,1.356041,-36.77178,0.7258256839461676,-0.103807441138415,-1.3433034288512244,55.16578,31.05743,170.1926,0.2745599,-0.4242119,0.840265,14
6.6,-38.6143,1.211297,-36.73394,0.7251121668491569,-0.0554245535064181,-1.3447249499296785,43.08875,37.1795,174.0706,0.3141223,-0.33226,0.8743693,14
6.62,-38.47191,1.239072,-36.65199,0.7228457922962184,-0.0571930312679579,-1.3411082767260971,32.00025,41.49671,175.4559,0.3504915,-0.2440599,0.8943411,14
6.64,-38.38468,1.408262,-36.56935,0.7287239266544825,-0.0346960850285023,-1.3315303337804636,35.53201,41.28456,175.0744,0.3476801,-0.270851,0.8857267,14
6.66,-38.31427,1.257155,-36.55461,0.7457731966871117,-0.0165964455100083,-1.3100011917172223,19.96692,45.71917,176.65,0.3870976,-0.1484965,0.9051505,14
6.68,-38.22387,1.425195,-36.47409,0.7740304927194082,-0.0065354677960179,-1.276324167247224,23.5048,45.65494,176.4767,0.3854164,-0.1759646,0.8995005,14
6.7,-38.13503,1.589638,-36.39497,0.7792365590142074,0.0103934980017606,-1.2468363772346531,27.04264,45.57616,176.2923,0.3833646,-0.2032616,0.8929915,14
6.72,-38.06603,1.275547,-36.40343,0.7935238686703254,0.000377393364455,-1.203921186515105,358.3488,52.33584,178.2597,0.4407105,0.01962756,0.8974054,14
6.74,-37.97164,1.440992,-36.32421,0.8036059502651325,0.0398735145642415,-1.167946284341843,1.920126,52.33618,178.4058,0.4411107,-0.008902255,0.8971885,14
6.76,-37.87902,1.602722,-36.24648,0.8103409238766792,0.0288209378616808,-1.130665125900464,5.490474,52.34566,178.5524,0.441082,-0.0374153,0.8960994,14
6.78,-37.81615,1.291435,-36.24586,0.8273305460256601,0.0120274785328813,-1.09035390088878,352.2066,55.40101,179.1027,0.4632899,0.06379906,0.8835631,14
6.8,-37.71889,1.453359,-36.1672,0.8373358218244755,0.0662598314654906,-1.0515609347846375,355.7986,55.37225,179.3778,0.4641324,0.03497899,0.8849906,14
6.82,-37.62363,1.611461,-36.09013,0.8254488627116503,0.0429368226940248,-1.0216644999670157,359.3898,55.36079,179.6505,0.464516,0.006132238,0.8855436,14
6.84,-37.57081,1.269457,-36.10559,0.8107886248432008,0.066772623093026,-0.9923380630400596,354.1037,58.02002,180.0575,0.4843431,0.04473659,0.873365,14
6.86,-37.51281,1.261661,-36.08029,0.7858423380957023,0.1069560163038494,-0.9786027777468168,355.8059,58.52374,180.5786,0.4886296,0.02945618,0.8717091,14
6.88,-37.41334,1.425136,-36.00791,0.742810378988878,0.0727638547975779,-0.9826738576132356,359.3896,58.51171,180.8652,0.4887246,0.0009576643,0.8723892,14
6.9,-37.31584,1.584915,-35.93697,0.7022308378822846,0.0839136034389191,-0.9740441465553432,2.972596,58.51759,181.1506,0.4883389,-0.02753328,0.8722108,14
6.92,-37.33959,1.245803,-35.98905,0.6517805298588639,0.0450615889113656,-0.978303541084169,1.43914,60.27123,181.6152,0.501806,-0.01793581,0.8647744,14
6.94,-37.23352,1.41235,-35.93055,0.5971425920502318,0.0304834007670227,-0.96978689130387,5.006568,60.23304,181.5456,0.5007262,-0.04453833,0.8643984,14
6.96,-37.12479,1.576735,-35.88426,0.5444748267014452,0.0423273439563157,-0.9612102209583516,8.523837,60.1587,181.1111,0.499166,-0.06915104,0.86326,14
6.98,-37.01726,1.738015,-35.84135,0.474805080743395,0.0024991825850664,-0.9676289987584604,12.02857,60.04234,180.5926,0.4970904,-0.09329177,0.8613346,14
7.0,-37.11053,1.219081,-35.90936,0.4105816512616469,-0.0369202608155845,-0.9798322676290478,11.8525,62.06709,182.8232,0.5104496,-0.1010752,0.853339,14
7.02,-37.10182,1.210448,-35.90928,0.3383669166528342,-0.0570161403635637,-0.9778724360090818,13.39027,62.45298,183.0054,0.5120956,-0.1131639,0.8505862,14
7.04,-36.99351,1.387074,-35.86262,0.2770318225494455,-0.0491675750672855,-0.9662769198041444,16.91439,62.28432,182.7048,0.5084264,-0.1379137,0.8481392,14
7.06,-37.01086,1.184457,-35.87344,0.2014503392155164,-0.0945329637192278,-0.9667789620129534,17.37103,62.63109,183.4703,0.5096486,-0.1445093,0.8465099,14
7.08,-36.90441,1.366841,-35.82751,0.1370813634829746,-0.0839848684471089,-0.9527370626773956,20.87736,62.44787,183.1741,0.505318,-0.1689984,0.8432733,14
7.1,-36.9404,1.169433,-35.84263,0.0565336613683422,-0.1278663038208005,-0.9509939431912472,20.10861,61.69321,183.6331,0.4998622,-0.1658144,0.8477711,14
7.12,-36.93543,1.161905,-35.84084,-0.0081958721218331,-0.1155846885661852,-0.932485548091349,21.53135,61.10391,183.6843,0.4939436,-0.1768299,0.8486265,14
7.14,-36.83116,1.35025,-35.79577,-0.0813156058542254,-0.1301022494884692,-0.915755391923267,24.99463,60.85749,183.285,0.4889149,-0.200684,0.844625,14
7.16,-36.84827,1.140024,-35.79884,-0.1473806429690132,-0.1422984874446469,-0.9013397641811532,26.27206,59.17352,183.574,0.4744248,-0.2125283,0.8499417,14
7.18,-36.82156,1.133674,-35.7851,-0.2145775574063577,-0.1539314887230722,-0.879744100617061,27.99984,58.37232,183.5631,0.4663689,-0.2258142,0.8503654,14
7.2,-36.72011,1.329219,-35.74022,-0.2738496479506231,-0.1632731096355933,-0.8600150597518557,31.41191,58.00226,183.0003,0.4603671,-0.2488951,0.8451028,14
7.22,-36.68787,1.122566,-35.71706,-0.3234605110929411,-0.1718646519423088,-0.8279658702526218,34.71223,56.23733,182.9273,0.4429735,-0.2745058,0.845133,14
7.24,-36.58852,1.321397,-35.67174,-0.3625046268123846,-0.1478537519945175,-0.7924822042390041,38.0752,55.73788,182.2268,0.436197,-0.2968888,0.8384727,14
7.26,-36.56597,1.117811,-35.6626,-0.4041658591834745,-0.1803696361928753,-0.7637373534546699,39.60535,55.89865,182.3783,0.4346688,-0.3083543,0.8342411,14
7.28,-36.4678,1.317972,-35.61761,-0.4315597858976954,-0.1529956936015847,-0.7242243787420417,42.93526,55.31872,181.6147,0.4273987,-0.3302079,0.8265877,14
7.3,-36.45446,1.115575,-35.61451,-0.450915426487473,-0.1260557816777821,-0.685435713467748,43.24609,56.12617,181.4689,0.4331335,-0.3307534,0.822487,14
7.32,-36.3574,1.316516,-35.5695,-0.4719350838501368,-0.1273381138516056,-0.6419442689491897,46.55243,55.51755,180.7049,0.4256838,-0.3523124,0.8140103,14
7.34,-36.27955,1.11345,-35.53179,-0.4828241544819169,-0.1259695582638936,-0.5956306567199103,48.09879,55.54914,179.2636,0.4278515,-0.3578302,0.8067464,14
7.36,-36.18174,1.314426,-35.48663,-0.4838577946820637,-0.0932537941118072,-0.5453659089430332,51.41115,54.94475,178.3593,0.4211334,-0.378844,0.7964814,14
7.38,-36.1176,1.10748,-35.45348,-0.476270619345458,-0.1178154784641369,-0.4948839958174149,53.32949,54.89437,177.4585,0.4206406,-0.3890211,0.788273,14
7.4,-36.02167,1.306342,-35.40934,-0.4614912921837675,-0.1431116182722933,-0.4454575191891941,56.57898,54.12071,176.3806,0.4137226,-0.4091836,0.7769672,14
7.42,-35.93169,1.102447,-35.36156,-0.4220701795984576,-0.1350287066687401,-0.380808266428394,59.68658,52.86493,173.8667,0.4093981,-0.4243129,0.7637498,14
7.44,-35.83692,1.296477,-35.318,-0.3729960248957571,-0.097034420004207,-0.3113630546313715,62.88092,51.65576,172.3355,0.4022539,-0.4436138,0.7510501,14
7.46,-35.65543,1.11828,-35.22557,-0.316404615040903,-0.1098454333157047,-0.2417018075243753,61.78738,45.63517,167.1291,0.3837269,-0.4329852,0.763667,14
7.48,-35.56107,1.304965,-35.18175,-0.2673483747510063,-0.0655894730252133,-0.1829208220586204,64.83319,43.55252,164.629,0.3769363,-0.4514628,0.750294,14
7.5,-35.4661,1.144651,-35.13379,-0.2159466280657733,-0.0695142581936218,-0.1268116123369242,58.33407,45.23899,167.7377,0.3819692,-0.4114268,0.7814053,14
7.52,-35.37199,1.326762,-35.08832,-0.1626287348829693,-0.0206158674407828,-0.0723143433638906,61.37105,43.53125,165.6045,0.3757598,-0.4302538,0.7686682,14
7.54,-35.20572,1.195963,-35.01178,-0.108433194826377,0.0073202414185342,-0.0273337802019417,48.2275,51.44411,173.1066,0.4175446,-0.343585,0.8101457,14
7.56,-35.10965,1.372463,-34.96537,-0.0501861873729483,0.034154043131088,0.0151183456503067,51.35399,50.75488,172.0247,0.4125471,-0.363677,0.7993986,14
7.58,-35.01411,1.227723,-34.94303,0.0008671878103791,0.0609710434204949,0.0497745508481894,37.90701,54.99304,174.6126,0.4497206,-0.267271,0.8309714,14
7.6,-34.90471,1.397823,-34.89154,0.0559390827782442,0.0864884318812161,0.0814764046428822,41.43568,54.64256,173.8492,0.4455431,-0.290818,0.8210866,14
7.62,-34.86774,1.250336,-34.89273,0.0999944003602726,0.1102031303356419,0.1081987901881218,26.14894,58.61541,175.9562,0.4834732,-0.180317,0.8449628,14
7.64,-34.75322,1.264145,-34.85085,0.1379126984721974,0.1545663610333555,0.1309514969265413,13.76904,61.87135,177.1341,0.5127804,-0.09002168,0.8497532,14
7.66,-34.64385,1.43239,-34.80061,0.1723297912379893,0.1510224785183175,0.1463321734865124,17.2643,61.96018,176.9553,0.5121484,-0.1151138,0.845283,14
7.68,-34.5363,1.59708,-34.75137,0.2104041032379804,0.1928820530822862,0.1669606121155977,20.75948,62.03911,176.7786,0.5110372,-0.1400963,0.8400243,14
7.7,-34.5667,1.276715,-34.73593,0.2382414180945744,0.1866818121844101,0.1779587516211407,358.3008,65.63177,177.9197,0.5415663,0.02229629,0.8403315,14
7.72,-34.47031,1.286365,-34.66795,0.2687313811399399,0.1561112093502836,0.1854483777967779,353.2869,66.82702,178.3741,0.5489842,0.05666719,0.8336598,14
7.74,-34.35618,1.45047,-34.62031,0.3022405618695556,0.1930187522176493,0.2014271635680131,356.8543,66.85132,178.3487,0.5502598,0.03084078,0.8344181,14
7.76,-34.33154,1.294929,-34.58473,0.3343131300629629,0.2262791834006894,0.2127408340555483,352.8192,67.32618,178.8893,0.5526892,0.05748173,0.8309752,14
7.78,-34.21681,1.457238,-34.53709,0.3442416197708811,0.182935852694116,0.2083453293993864,356.3902,67.33202,178.883,0.5537939,0.03161356,0.832001,14
7.8,-34.10438,1.615777,-34.49041,0.347122826223873,0.1828140248345722,0.2043451138438463,359.9601,67.33743,178.8775,0.5543606,0.005720785,0.8322189,14
7.82,-34.19847,1.270857,-34.49589,0.3488549160519332,0.1819232451797963,0.195560141971459,354.0842,67.90253,179.5876,0.5575857,0.04481163,0.8285062,14
7.84,-34.08625,1.435114,-34.45003,0.3381350419514453,0.1295360500353799,0.1760475467941624,357.6098,67.90834,179.5974,0.5583438,0.01926279,0.8293399,14
7.86,-33.9762,1.595778,-34.40506,0.3325835222077611,0.1494750227162009,0.1650654094599133,1.134274,67.91473,179.608,0.5585733,-0.00629935,0.8293891,14
7.88,-34.01893,1.246847,-34.40691,0.3309168298389107,0.1926299866706207,0.1565734714597724,1.398801,68.5238,181.3396,0.5627784,-0.01666855,0.8264351,14
7.9,-33.90632,1.412518,-34.35805,0.3004172379037104,0.1611821953180982,0.1313396116945444,5.007888,68.54694,181.4686,0.562097,-0.04330926,0.8258176,14
7.92,-33.89951,1.232185,-34.34412,0.2601384567417106,0.1031798775820399,0.0984627703267744,8.278889,68.61741,182.8071,0.5605521,-0.07337709,0.8246074,14
7.94,-33.85535,1.226502,-34.32036,0.2367537610476926,0.1186045781903075,0.0792983872979604,10.34809,68.57053,183.0878,0.5588071,-0.0896,0.8239467,14
7.96,-33.74432,1.397226,-34.26997,0.2110156855268172,0.1325557882741951,0.0577004687967894,13.9637,68.6281,183.2856,0.5564401,-0.1163997,0.821463,14
7.98,-33.78507,1.208912,-34.28461,0.1530889648136577,0.0665853934905681,0.0222009976617387,13.44622,68.93253,183.4687,0.5588506,-0.1134863,0.8204203,14
8.0,-33.67548,1.383768,-34.23552,0.0929559903511219,0.0001341870049851,-0.0134215277546854,17.03562,69.00203,183.6727,0.5559739,-0.1399535,0.817296,14
8.02,-33.69348,1.183284,-34.23589,0.0598633655546239,0.0317501573398828,-0.0328784177611938,17.41535,68.52771,183.8555,0.5519915,-0.1437695,0.8193325,14
8.04,-33.58599,1.364225,-34.18822,0.0125788786821758,0.0088216445000198,-0.0564687565209469,20.97415,68.59782,184.0206,0.5484818,-0.1697077,0.8154077,14
8.06,-33.61456,1.168351,-34.19393,-0.0460342707538625,-0.0398254919440638,-0.0842203597795254,20.15199,67.31501,184.0127,0.5402462,-0.1646411,0.8224199,14
8.08,-33.50861,1.35333,-34.14701,-0.0864880322921957,-0.0309866005163722,-0.1031734264169106,23.68575,67.36172,184.0955,0.5363131,-0.190064,0.8179734,14
8.1,-33.55589,1.153127,-34.16072,-0.1270308115844129,-0.0227013738497894,-0.1217667928922914,23.08158,65.84503,184.0011,0.526329,-0.1864236,0.8257304,14
8.12,-33.45147,1.342179,-34.11423,-0.1759251958829808,-0.0433273747993985,-0.1432518111828375,26.59297,65.85686,183.9918,0.5219749,-0.2113496,0.8207085,14
8.14,-33.47243,1.132725,-34.11115,-0.2079652731059829,-0.0328255911544431,-0.1571320969840863,28.04572,63.34823,183.9317,0.5020654,-0.2235709,0.829565,14
8.16,-33.37089,1.327185,-34.06433,-0.2378293994386853,-0.0226033582800994,-0.1697470623641521,31.51135,63.2978,183.7986,0.4970599,-0.2477628,0.8235674,14
8.18,-33.38913,1.12483,-34.0651,-0.2684386668189162,-0.0398386948920021,-0.1817129888254776,32.0961,61.47844,183.5254,0.4836716,-0.2526011,0.8299635,14
8.2,-33.2891,1.321989,-34.01882,-0.2937499355242958,-0.0534483500322743,-0.1928698657924314,35.51862,61.3437,183.2552,0.4781639,-0.2760403,0.8232048,14
8.22,-33.2476,1.117155,-33.99859,-0.314859476804004,-0.0651857837699367,-0.2023850406108955,39.64457,60.36217,182.6662,0.4659993,-0.3040591,0.816968,14
8.24,-33.14869,1.316551,-33.95347,-0.3278101827826423,-0.0750228176160967,-0.211865601459694,43.02565,60.10489,182.2532,0.4595744,-0.3265108,0.8087233,14
8.26,-33.12623,1.115023,-33.9467,-0.3364185558986556,-0.0832197518440722,-0.2198370062529253,43.27975,60.37417,181.7303,0.46252,-0.3257824,0.8061745,14
8.28,-33.02843,1.31531,-33.902,-0.3296969928229116,-0.0332672235815365,-0.2210344652335649,46.6274,60.08499,181.299,0.4558525,-0.3477857,0.7971703,14
8.3,-32.93071,1.512733,-33.85736,-0.3296362748721901,-0.0706722997259301,-0.2263518399179336,49.97232,59.73714,180.8125,0.4487949,-0.3694833,0.7874833,14
8.32,-32.94715,1.112937,-33.86391,-0.3193767257876478,-0.0766600023511333,-0.2269947454420888,48.08216,59.25732,179.5255,0.4529537,-0.3522518,0.793003,14
8.34,-32.82684,1.107147,-33.80884,-0.3042006762009839,-0.0815066777668187,-0.2256609818543991,53.32209,58.08947,177.6605,0.4417911,-0.383343,0.7766789,14
8.36,-32.73139,1.305571,-33.76537,-0.2690927802029139,-0.0845457836191519,-0.2179729546279114,56.58676,57.47288,176.8887,0.4344704,-0.4039645,0.7656153,14
8.38,-32.62843,1.102254,-33.71748,-0.230817550909586,-0.0874320703631888,-0.2091475738031691,59.68997,55.59694,174.0045,0.4269802,-0.4184657,0.7540869,14
8.4,-32.5337,1.296013,-33.67541,-0.1848093738497755,-0.0327341005947663,-0.1976217053396691,62.89911,54.47364,172.7066,0.4191527,-0.4381251,0.7417867,14
8.42,-32.34358,1.118167,-33.58351,-0.1337950556846836,-0.0580135935354944,-0.1851826961617728,61.79761,47.71833,167.2128,0.3972223,-0.4280673,0.7567349,14
8.44,-32.24973,1.30461,-33.54014,-0.0696775542714807,-0.0466437166848738,-0.169555291616632,64.87012,45.69104,164.9277,0.389675,-0.4470246,0.7437637,14
8.46,-32.14426,1.144491,-33.48803,-0.0039733644921557,-0.0360639392039849,-0.1529580653606261,58.35099,46.92062,167.831,0.3930468,-0.4078252,0.7758713,14
8.48,-32.05019,1.326472,-33.44337,0.0485645680560948,-0.0197040973374442,-0.1450862316324066,61.40433,45.17339,165.7939,0.3860033,-0.4269598,0.7635418,14
8.5,-31.97088,1.17837,-33.40533,0.101383911955061,-0.0039232370412482,-0.1367292702938058,52.04072,50.15318,171.2187,0.4101705,-0.3670165,0.7973118,14
8.52,-31.87599,1.356459,-33.35935,0.1628284364760381,0.0165096571619348,-0.1316598076079591,55.14395,49.0815,169.8685,0.4039106,-0.3868966,0.7862308,14
8.54,-31.72525,1.228579,-33.30903,0.2214877384427982,0.0131484147841287,-0.1294439917944965,37.79642,55.70707,174.6893,0.4548201,-0.2655782,0.8285768,14
8.56,-31.62036,1.399855,-33.25872,0.2699075235965824,0.053534326876194,-0.1316839839262522,41.20453,55.2862,174.0038,0.4499993,-0.288572,0.8195266,14
8.58,-31.56738,1.250472,-33.25026,0.3171728786300765,0.0907762394740794,-0.1344307988704116,26.13616,58.96531,175.9689,0.4860401,-0.1798457,0.8435221,14
8.6,-31.45876,1.419404,-33.19896,0.3475883996224982,0.102038094471687,-0.140491795604019,29.64178,58.79272,175.5673,0.4827818,-0.2043452,0.836773,14
8.62,-31.44094,1.263608,-33.19854,0.3751470678251194,0.112482903944069,-0.1474664462387505,13.84451,61.96626,177.1588,0.5134378,-0.09062497,0.8492699,14
8.64,-31.33099,1.431252,-33.14611,0.4097006374025218,0.1663267145958367,-0.1477916549446574,17.39299,61.93853,176.9989,0.5118828,-0.1162809,0.8452575,14
8.66,-31.25414,1.275731,-33.11304,0.4341473759084358,0.1717857507336044,-0.1496699618501535,358.3667,65.41381,178.1781,0.5400279,0.02058117,0.8413764,14
8.68,-31.1431,1.441387,-33.05986,0.4482408877724748,0.1535333802652597,-0.1552905518931391,1.9359,65.4293,178.2457,0.5405326,-0.005939139,0.8410143,14
8.7,-31.10672,1.28523,-33.0422,0.4588602149821597,0.1327549380292597,-0.1624767767977948,353.3148,66.52902,178.7394,0.5470025,0.0547732,0.8350262,14
8.72,-30.98168,1.293733,-32.98087,0.479869215368184,0.1319539814630153,-0.1687510707034949,352.8381,66.90439,179.295,0.5498338,0.05549576,0.8329132,14
8.74,-30.87068,1.455095,-32.92315,0.4988939173814959,0.1533410824518117,-0.1795575559779427,356.4262,66.89344,179.5753,0.5507931,0.02806027,0.8340511,14
8.76,-30.76196,1.612637,-32.86664,0.5123423304695054,0.1717574146904045,-0.1922586664659222,0.01318572,66.90001,179.8541,0.5512089,0.0006056065,0.8343665,14
8.78,-30.79791,1.269701,-32.88572,0.532542246234923,0.2318847964462848,-0.2053003983947161,354.0974,67.34311,180.0117,0.5537004,0.04279225,0.8311229,14
8.8,-30.76375,1.261754,-32.87319,0.5143372249903524,0.1914562674140546,-0.2304520129279583,355.7974,67.40511,180.5559,0.5546499,0.02781366,0.8312615,14
8.82,-30.65398,1.425289,-32.81777,0.4915590756734116,0.1500338278257201,-0.2570616430514341,359.38,67.40905,180.8237,0.55492,0.0005121953,0.8318551,14
8.84,-30.62218,1.245876,-32.80193,0.479009589142763,0.1314256541585536,-0.2807202861858706,1.432794,67.81893,181.5847,0.5576419,-0.01808969,0.8298725,14
8.86,-30.51148,1.410809,-32.74635,0.4515654181123167,0.0884024672025065,-0.3080419812337562,5.068306,67.85059,181.8754,0.5568907,-0.04580761,0.8292474,14
8.88,-30.40291,1.57199,-32.69186,0.420905873002984,0.0449267806846802,-0.3360429769358388,8.703043,67.90114,182.1702,0.5555758,-0.07347453,0.8277827,14
8.9,-30.4802,1.231965,-32.72268,0.4089588427774342,0.0740599350623701,-0.3580643618270596,8.284865,67.86968,182.8737,0.5551134,-0.07387535,0.8282565,14
8.92,-30.43184,1.21734,-32.6921,0.3596236773933419,0.0257005566916379,-0.3899163685582847,11.91186,67.94629,183.3461,0.5530386,-0.1022413,0.8261644,14
8.94,-30.32288,1.38989,-32.63872,0.3235529301130229,0.0291949028138558,-0.4174733224261637,15.52129,68.02525,183.6152,0.5504456,-0.1293597,0.8232962,14
8.96,-30.2156,1.558832,-32.58619,0.2727684604610338,0.0051231813355958,-0.4476537405250664,19.12929,68.12364,183.8947,0.5473046,-0.1563414,0.8196083,14
8.98,-30.312,1.190893,-32.625,0.2206862993608225,-0.0170707921736917,-0.4785587053790729,16.09402,68.02851,183.7667,0.5497785,-0.1341747,0.822867,14
9.0,-30.20508,1.369634,-32.57342,0.1657150463817229,-0.0400348972935127,-0.5066269773690641,19.66992,68.12176,184.0212,0.5465382,-0.1607809,0.819122,14
9.02,-30.09949,1.544916,-32.5225,0.1107482638668093,-0.060901284303431,-0.534811050487976,23.24428,68.23454,184.2882,0.5427644,-0.1872215,0.8145772,14
9.04,-30.1851,1.160724,-32.54807,0.0533536688961331,-0.0822010702214861,-0.5608058427141929,21.59118,65.54863,184.0981,0.5257797,-0.1764004,0.8290258,14
9.06,-30.15785,1.153061,-32.53004,-0.0030337411184584,-0.1010561114366311,-0.586421085849012,23.06816,64.78974,184.0452,0.5186465,-0.1872552,0.83059,14
9.08,-30.05534,1.34216,-32.48141,-0.0593881478326774,-0.1201664104162715,-0.6085249438647469,26.55681,64.776,184.0539,0.5141434,-0.2122713,0.8257018,14
9.1,-29.95376,1.528233,-32.43405,-0.11369004261384,-0.136735905915223,-0.6295848919498086,30.02868,64.70686,184.0278,0.5088612,-0.236874,0.8202919,14
9.12,-30.05748,1.133022,-32.47288,-0.1570400103919094,-0.1529770083806952,-0.643153585198347,28.01919,62.10755,183.8284,0.493292,-0.2239921,0.8349092,14
9.14,-29.95632,1.327801,-32.4269,-0.1974707804820479,-0.1665838945404719,-0.6553267791025412,31.46238,61.94516,183.581,0.4878469,-0.2478297,0.8292553,14
9.16,-29.85558,1.519527,-32.38105,-0.2304762303702801,-0.1778860306649924,-0.6641261381932075,34.90392,61.75881,183.313,0.4819629,-0.2714397,0.8228505,14
9.18,-29.90022,1.119086,-32.38922,-0.2596004297691454,-0.1869490905974849,-0.6714707193104386,37.39756,59.31778,182.853,0.461636,-0.290173,0.8268135,14
9.2,-29.86781,1.11753,-32.38324,-0.2674362727480561,-0.1380638956816467,-0.6704490983019342,39.59492,59.62475,182.5063,0.4612384,-0.3040324,0.8198634,14
9.22,-29.76865,1.317359,-32.34124,-0.2918191413604729,-0.1754000673913375,-0.6742410388894955,42.93124,59.20446,181.9115,0.454341,-0.3258025,0.8120695,14
9.24,-29.71109,1.114786,-32.33246,-0.3049132765878366,-0.1806739269303475,-0.6724088236862458,44.67266,60.88901,180.9805,0.4658647,-0.3316409,0.7990533,14
9.26,-29.61227,1.315636,-32.29188,-0.313199682041597,-0.184110974604275,-0.6685833580443341,47.9903,60.44072,180.3901,0.4586307,-0.3529562,0.7901133,14
9.28,-29.51355,1.513658,-32.25129,-0.3056617889033766,-0.1294170729753901,-0.6573013132207466,51.30313,59.90598,179.7179,0.4510032,-0.3739683,0.780508,14
9.3,-29.49127,1.109998,-32.25081,-0.2989163870645108,-0.1624824246847473,-0.6454440238367827,50.69205,60.59739,178.6932,0.460129,-0.3643871,0.7777811,14
9.32,-29.44083,1.107153,-32.23387,-0.28797376082019,-0.1956662645992947,-0.6316938432790593,53.32246,60.30244,177.6588,0.4567117,-0.3787535,0.7679979,14
9.34,-29.34351,1.305606,-32.19441,-0.2562205566591138,-0.1431991676611572,-0.6085596803481796,56.59142,59.64539,176.8631,0.4489869,-0.3991071,0.7571667,14
9.36,-29.15696,1.104498,-32.13065,-0.2110414536546154,-0.1428105090351586,-0.5810301438422831,61.22892,55.88767,171.1875,0.4366601,-0.4175695,0.7396912,14
9.38,-29.06027,1.295729,-32.0938,-0.1650823763077014,-0.1671999095971467,-0.5523819100868468,64.39506,54.34384,169.4563,0.4283554,-0.4365244,0.7272862,14
9.4,-28.96374,1.484371,-32.05773,-0.117451412183323,-0.1334314487133643,-0.5226426097719195,67.53284,52.32337,167.2263,0.4197494,-0.4549983,0.714254,14
9.42,-28.8516,1.128967,-32.02252,-0.0576800278490132,-0.1459651186423216,-0.4881720624887657,60.94378,50.53085,166.7302,0.4183845,-0.4130305,0.7492028,14
9.44,-28.68445,1.161808,-31.9666,-0.0105536273163555,-0.1053587474683672,-0.4595947213166198,55.75512,52.06477,168.8182,0.4270338,-0.3803511,0.7704977,14
9.46,-28.58673,1.341541,-31.92862,0.0369412138296962,-0.0666093751582054,-0.4303166978546415,58.8223,50.58767,167.0424,0.4199158,-0.3991611,0.7588983,14
9.48,-28.49835,1.195564,-31.90648,0.079694078208055,-0.0484604986771821,-0.4060775609198201,48.2803,57.863,173.2177,0.4618567,-0.3311902,0.7855594,14
9.5,-28.39946,1.371883,-31.86778,0.1157802981949664,-0.053792274458986,-0.3848829565935943,51.42107,57.15284,172.266,0.4556867,-0.3510433,0.7754415,14
9.52,-28.23775,1.239106,-31.85034,0.1556904639688343,-0.0122824532312887,-0.3621834687693415,32.03781,63.38592,175.3485,0.51408,-0.2141176,0.8112799,14
9.54,-28.15072,1.25043,-31.83245,0.1921965237695375,-0.0175714666843195,-0.3438687960684663,26.14907,65.17184,175.9911,0.5309484,-0.1721426,0.8159788,14
9.56,-28.03751,1.419413,-31.79299,0.2213181323895381,0.0202960273180796,-0.3263319892753031,29.64905,64.99126,175.5968,0.5272597,-0.1956896,0.8094756,14
9.58,-27.92611,1.584862,-31.75437,0.2486082780231635,0.0556276086201298,-0.3099291065541361,33.14908,64.77715,175.1692,0.5230975,-0.2190345,0.8021893,14
9.6,-27.92231,1.268538,-31.75984,0.264046920688092,0.0647731132334111,-0.294038719114472,8.07202,68.17616,177.4388,0.5602399,-0.04578083,0.8250353,14
9.62,-27.80733,1.436058,-31.72022,0.2669601340539675,0.0500900967307324,-0.2825459070691529,11.60757,68.11795,177.2537,0.5590228,-0.0703995,0.8226211,14
9.64,-27.69439,1.599957,-31.68127,0.2817291803475088,0.0817416219060952,-0.2645828914643533,15.14195,68.04709,177.0621,0.5572728,-0.09494436,0.8194227,14
9.66,-27.61965,1.286324,-31.65622,0.2896405140279783,0.0663748898873771,-0.2498084768441137,353.2859,71.32662,178.3986,0.581299,0.05570462,0.8114609,14
9.68,-27.54918,1.292741,-31.63756,0.3003809772804455,0.0966942921302851,-0.2337195247164651,352.1893,71.39124,178.6445,0.5814292,0.06219485,0.8106557,14
9.7,-27.42957,1.456112,-31.60418,0.3080709424505921,0.1239911144167418,-0.2196606893640686,355.7563,71.42261,178.4601,0.5828446,0.03789873,0.8116289,14
9.72,-27.35299,1.28418,-31.5879,0.2980820757740612,0.1208869648527273,-0.2089533167992794,353.7421,72.04705,179.3126,0.5869654,0.04766732,0.8077481,14
9.74,-27.23531,1.447958,-31.55625,0.2839791175056367,0.1406910857845228,-0.2013708509570562,357.2576,72.07931,179.14,0.5880149,0.02376393,0.8084616,14
9.76,-27.11988,1.608091,-31.5252,0.2666843549054487,0.1585092920197667,-0.1969467569200054,0.7728624,72.10416,178.972,0.5885324,-0.0001732738,0.808396,14
9.78,-27.00693,1.764749,-31.49489,0.2212523425437123,0.1010465134746359,-0.2023083016410098,4.28714,72.1188,178.804,0.5884955,-0.02409671,0.8075679,14
9.8,-27.11827,1.25181,-31.53475,0.1948841423313188,0.1168137400545188,-0.1996723572927292,359.3738,73.07457,180.9604,0.5953529,-0.0005987491,0.8034024,14
9.82,-27.00112,1.417962,-31.50344,0.1772385211158504,0.1566442328696488,-0.1936267870018602,2.927577,73.11552,180.8494,0.5952702,-0.02493238,0.8030857,14
9.84,-26.99298,1.238372,-31.49514,0.1306322339879919,0.1206755258618838,-0.1950886090835304,6.176583,73.65293,182.373,0.5975016,-0.05550834,0.7997895,14
9.86,-26.95762,1.232958,-31.48261,0.0815193863810934,0.1104168464531084,-0.1963617720937267,8.229371,73.66592,182.6404,0.596457,-0.07119147,0.7991027,14
9.88,-26.84155,1.403211,-31.44994,0.0311415362031581,0.1016733733907815,-0.2000865494829442,11.79921,73.64293,182.592,0.5941358,-0.09574305,0.7974567,14
9.9,-26.7273,1.570004,-31.41868,-0.0210851413475432,0.0915996830405933,-0.206627041624694,15.36457,73.60547,182.5147,0.5911933,-0.1200394,0.7950824,14
9.92,-26.84952,1.209535,-31.44727,-0.0832401149831172,0.0758102431028814,-0.2118393509766933,13.42552,73.94724,183.2747,0.5944119,-0.110416,0.7951207,14
9.94,-26.73484,1.385205,-31.41529,-0.1359272195017045,0.0896621628750965,-0.2157445027711326,16.99206,73.88078,183.2265,0.5908287,-0.1347705,0.7926767,14
9.96,-26.77969,1.183926,-31.42256,-0.1886137482916483,0.1032164096190183,-0.2219286488842242,17.39388,73.45965,183.643,0.5870155,-0.1399173,0.7947234,14
9.98,-26.66729,1.365522,-31.39064,-0.2758868808019428,0.0341642229040577,-0.2376630344301715,20.93593,73.39445,183.5836,0.5827982,-0.1639795,0.7914693,14
10.0,-26.72212,1.168976,-31.40099,-0.346578515927789,0.0185993356329198,-0.2454838424961205,20.12788,72.18379,183.7974,0.5750211,-0.1603481,0.7986136,14
10.02,-26.61135,1.354608,-31.36962,-0.4145234646202675,0.0057468788566877,-0.2551086773382609,23.64018,72.08359,183.6509,0.5703307,-0.1838918,0.7948801,14
10.04,-26.64826,1.146121,-31.37298,-0.5008192678157011,-0.0637509413422384,-0.2706540936731345,24.58924,69.98205,183.7868,0.5542268,-0.1928656,0.8040507,14
10.06,-26.5396,1.337778,-31.34186,-0.5557315154653684,-0.0482823583046082,-0.2769540520527904,28.06722,69.80881,183.499,0.5488005,-0.215724,0.7994961,14
10.08,-26.57753,1.133294,-31.34386,-0.5952906975400669,-0.0030927995714635,-0.2801912215721436,28.01268,68.11011,183.7271,0.536532,-0.2180843,0.8078501,14
10.1,-26.47102,1.328291,-31.31139,-0.6581559480857018,-0.0430041781450729,-0.2893606036731282,31.45631,67.89027,183.3755,0.5306354,-0.2406079,0.8026242,14
10.12,-26.45969,1.122167,-31.29623,-0.7213613171662749,-0.1099340204725402,-0.3006510265474937,34.72001,65.68415,183.0992,0.5106535,-0.2645909,0.8059807,14
10.14,-26.355,1.320602,-31.26369,-0.749427315370935,-0.0893129948634099,-0.3003538306371904,38.10936,65.36868,182.5648,0.5041443,-0.2861314,0.7992884,14
10.16,-26.34729,1.117552,-31.26184,-0.7849874778977735,-0.1248992928992687,-0.30434059024972,39.59899,65.1764,182.4966,0.5004196,-0.2963735,0.7965407,14
10.18,-26.2441,1.317444,-31.2303,-0.8149810720601578,-0.1590934243912298,-0.3093218490838052,42.93573,64.76007,181.8687,0.4932726,-0.3171608,0.7890164,14
10.2,-26.14099,1.514471,-31.19901,-0.8181710703861094,-0.106857168498364,-0.3075313844862326,46.26656,64.26089,181.1601,0.4856912,-0.3376334,0.7808236,14
10.22,-26.18361,1.114807,-31.21263,-0.8190101631475,-0.111704415615994,-0.3016052316196607,44.66142,65.16119,180.9699,0.4953749,-0.3243653,0.7811464,14
10.24,-26.09653,1.113142,-31.18146,-0.8131399253527265,-0.1146470848686416,-0.2956700709991211,48.05393,64.15539,179.4241,0.4867816,-0.3425618,0.7728145,14
10.26,-25.99517,1.313999,-31.14983,-0.7948955043943968,-0.0591308404115283,-0.2850864560984796,51.33198,63.60738,178.6365,0.4793587,-0.3624164,0.7632367,14
10.28,-25.89342,1.512121,-31.11895,-0.7726274017988604,-0.0908955173361036,-0.2724063999717936,54.60469,62.93591,177.6957,0.4716405,-0.3818217,0.7529466,14
10.3,-25.83043,1.103931,-31.09762,-0.7448040269428255,-0.1228947803692043,-0.2599469104477419,56.49577,62.83253,176.0719,0.4727482,-0.3879304,0.7428731,14
10.32,-25.73111,1.300206,-31.06639,-0.7004478200485758,-0.0686444185254797,-0.2419930088325923,59.71932,61.96266,174.9837,0.464675,-0.4069027,0.7315941,14
10.34,-25.63208,1.493798,-31.03523,-0.6320700373817036,-0.0644929008037468,-0.2131784015009339,62.93287,60.87019,173.6752,0.4562409,-0.4255481,0.719706,14
10.36,-25.44398,1.118127,-30.97589,-0.5604180098146094,-0.0843703669912572,-0.1839100617600246,61.80513,54.35502,167.1905,0.4404289,-0.4103088,0.7323791,14
10.38,-25.36179,1.128931,-30.94847,-0.4977268606311265,-0.0466079225572061,-0.1578827691393014,60.9445,53.13119,166.745,0.4352232,-0.4060634,0.7395541,14
10.4,-25.26338,1.313116,-30.91563,-0.4319904720293985,-0.0101914187137887,-0.1317053158713705,63.9931,51.14254,164.4403,0.4273915,-0.4240151,0.7270086,14
10.42,-25.09625,1.178302,-30.86167,-0.368175270977638,-0.0473672505174157,-0.1060155938438152,52.05314,57.05052,171.2147,0.4573857,-0.3515229,0.7711397,14
10.44,-24.99621,1.356345,-30.82752,-0.303788427096233,-0.0064713329130904,-0.0800277326362493,55.16183,56.02153,169.8676,0.4507373,-0.3704087,0.7602708,14
10.46,-24.89742,1.531648,-30.79385,-0.2456212351628575,0.0120758593561085,-0.0594889388939061,58.25319,54.76602,168.2995,0.4437371,-0.3889989,0.7488086,14
10.48,-24.81957,1.228451,-30.79012,-0.1851949466745299,0.0302250707364125,-0.0400456307710008,37.82031,62.81929,174.7338,0.5052118,-0.253653,0.7987883,14
10.5,-24.76509,1.239458,-30.78004,-0.1337992759824042,0.0476743719201014,-0.0236470780087918,32.00692,64.50398,175.3475,0.5220037,-0.2121451,0.8062923,14
10.52,-24.6518,1.409558,-30.74468,-0.0803949489706172,0.0646191557759853,-0.0085059979385122,35.46806,64.24857,174.7624,0.5177465,-0.2345524,0.7984095,14
10.54,-24.57019,1.264466,-30.74129,-0.0409384890470763,0.0780448326383614,0.0079136100417511,13.79121,69.31758,177.0432,0.5669345,-0.08415719,0.81457,14
10.56,-24.45552,1.433155,-30.70793,0.0010003696017579,0.1149577264405915,0.0264500616309151,17.25936,69.2626,176.7654,0.5651203,-0.1075564,0.8107802,14
10.58,-24.34279,1.598332,-30.67513,0.040770085008448,0.1497672032763395,0.0432967077461312,20.72788,69.18874,176.4795,0.5627852,-0.1308669,0.8062422,14
10.6,-24.35153,1.276274,-30.68039,0.0629551250429916,0.1111060435567124,0.0557349458588984,358.337,72.93475,178.1084,0.5940288,0.02147825,0.8041435,14
10.62,-24.31203,1.279804,-30.67059,0.099083563415121,0.1195940584632874,0.074061211952094,354.4001,73.78621,178.3084,0.5989653,0.04791358,0.7991481,14
10.64,-24.19601,1.445791,-30.63723,0.1320393524263332,0.1274568811818799,0.0902570174264125,357.9008,73.68862,178.265,0.5992514,0.02373469,0.8002083,14
10.66,-24.11519,1.295038,-30.61804,0.1611835618215451,0.1319595645741482,0.103791918318004,352.7725,74.54545,179.0153,0.6039522,0.05534859,0.7944783,14
10.68,-23.99804,1.458332,-30.58622,0.1701271700601698,0.1281914549533633,0.1115589394518745,356.269,74.44637,178.9626,0.6043414,0.03139372,0.796009,14
10.7,-23.88312,1.61815,-30.55581,0.1819537496341672,0.1482731874270114,0.1195258369411464,359.7582,74.35374,178.8827,0.6042311,0.007573426,0.7967469,14
10.72,-23.94588,1.262489,-30.57036,0.1887033160813511,0.166783621308778,0.1251780817772774,355.7767,74.67395,180.3199,0.6061692,0.02760435,0.7944769,14
10.74,-23.82889,1.427377,-30.53977,0.1782864328739237,0.1566276681634924,0.1279819632504977,359.308,74.66754,180.2725,0.6064558,0.003359677,0.7950908,14
10.76,-23.71413,1.58883,-30.51058,0.1527561354123721,0.1224785051032668,0.1262786572831036,2.830952,74.65899,180.2021,0.6061773,-0.02071112,0.7949441,14
10.78,-23.77311,1.247335,-30.52716,0.1221607566283276,0.0885783735424233,0.1226237906542531,1.355117,75.16236,181.2827,0.6096992,-0.01619711,0.7924658,14
10.8,-23.65714,1.414482,-30.49855,0.0858254894636911,0.0521976681960452,0.1168269179915464,4.873161,75.07722,181.1952,0.6083604,-0.04005798,0.7924532,14
10.82,-23.54368,1.57838,-30.47116,0.0489556308616001,0.0359741064338155,0.1135277239944598,8.373994,74.9586,181.0754,0.6062803,-0.06363261,0.7918375,14
10.84,-23.61627,1.226988,-30.47595,0.0081479975568536,0.0213801670570107,0.1085855778666666,10.31705,75.01778,182.9664,0.6043692,-0.0869956,0.7911984,14
10.86,-23.59072,1.218477,-30.46804,-0.042138394874521,0.0032700902297951,0.1009194009119975,11.83307,75.02472,183.1081,0.6032487,-0.09816112,0.7904088,14
10.88,-23.47767,1.392765,-30.43801,-0.0838271062927979,0.0136207833230902,0.0945697885092884,15.33524,74.81345,183.0482,0.5990056,-0.1219615,0.7891183,14
10.9,-23.36584,1.563729,-30.40927,-0.1505251416017539,-0.0293802222314923,0.0816257136906042,18.83941,74.62495,182.9488,0.5944408,-0.1455131,0.78691,14
10.92,-23.50344,1.192125,-30.43942,-0.2202222689387309,-0.0705327841467352,0.0672221659686607,16.01815,74.59222,183.4424,0.5964244,-0.1288113,0.7899357,14
10.94,-23.3921,1.372445,-30.41106,-0.2779102070643731,-0.0897365687741992,0.0561959365609912,19.50053,74.34109,183.3224,0.5913,-0.1521536,0.7879667,14
10.96,-23.28218,1.549562,-30.38303,-0.3474031580727819,-0.134030474035659,0.0416693191362518,22.97706,74.0709,183.1781,0.5856057,-0.1752979,0.7852954,14
10.98,-23.41385,1.161805,-30.40509,-0.3944661008033883,-0.1199335922743811,0.0315530579384724,21.50237,71.49821,183.7752,0.5686834,-0.1702204,0.8004944,14
11.0,-23.40944,1.154123,-30.40132,-0.4420460675379591,-0.1050942017105383,0.0201656068004196,22.99114,70.71606,183.699,0.5615346,-0.1807502,0.8024978,14
11.02,-23.30113,1.344453,-30.37521,-0.4958073137368366,-0.1209114539668894,0.009527156319177,26.40742,70.39905,183.2956,0.5555879,-0.2027085,0.7990047,14
11.04,-23.33867,1.133835,-30.37683,-0.5485182698695659,-0.13344890888314,-0.0015557917814912,27.96999,67.94121,183.524,0.5357862,-0.2169981,0.8085141,14
11.06,-23.23132,1.329599,-30.35192,-0.5930478867376259,-0.144118392422015,-0.0105631148439031,31.34593,67.60029,182.8949,0.5297728,-0.2379447,0.8036274,14
11.08,-23.1247,1.522393,-30.32718,-0.635952486449451,-0.1518950369625399,-0.01990191622833,34.70604,67.17252,182.2148,0.5231127,-0.2586237,0.7981781,14
11.1,-23.21202,1.122623,-30.33365,-0.6558164637095469,-0.1009958978481707,-0.0248026021849856,34.63241,65.39812,182.9244,0.5091824,-0.2635528,0.8072207,14
11.12,-23.14523,1.11789,-30.31453,-0.6897194702295324,-0.1369052054265597,-0.0323968704639252,39.49333,64.86456,182.353,0.4988042,-0.295468,0.7979465,14
11.14,-23.04327,1.318357,-30.2884,-0.7068959908513497,-0.111537215971989,-0.0375503980953584,42.71187,64.37386,181.5199,0.4919761,-0.3147472,0.7907071,14
11.16,-23.03409,1.115832,-30.28797,-0.7211087822047091,-0.085763614996813,-0.0429182501290092,43.06979,64.85247,181.3334,0.4951437,-0.3156182,0.7873978,14
11.18,-22.9346,1.317311,-30.26416,-0.7297560478450427,-0.0882558726463358,-0.0445331517676463,46.19028,64.25226,180.3996,0.4880037,-0.3338999,0.7797288,14
11.2,-22.83529,1.516253,-30.24104,-0.7343566549646026,-0.0885192507545639,-0.0455518333045681,49.29081,63.51312,179.3339,0.4804205,-0.351786,0.7715467,14
11.22,-22.83241,1.110458,-30.22324,-0.7286809620383821,-0.1478724329317203,-0.040688435200074,50.58542,64.18318,178.4575,0.4851735,-0.3554614,0.7628601,14
11.24,-22.73423,1.310733,-30.19757,-0.69745815043682,-0.1471256376925172,-0.0275831092477116,53.69666,63.41713,177.4152,0.4774887,-0.3735418,0.753481,14
11.26,-22.63657,1.508541,-30.17279,-0.6611471692530935,-0.1146906568157865,-0.0142265437225153,56.77414,62.43715,176.1812,0.4692753,-0.3911635,0.743736,14
11.28,-22.55327,1.102728,-30.13288,-0.6188449872930368,-0.1368943955220393,0.0022227802504315,59.59096,60.88016,173.7842,0.4622423,-0.4039447,0.7334366,14
11.3,-22.45665,1.297395,-30.10704,-0.5741009954752636,-0.1598007255896561,0.0186106683253335,62.64184,59.35547,172.0948,0.4530926,-0.4214121,0.7227028,14
11.32,-22.36009,1.489642,-30.08187,-0.5227627948362459,-0.1470800692007725,0.0380585488644014,65.66408,57.43299,169.9712,0.4437427,-0.4383864,0.7113277,14
11.34,-22.18204,1.129303,-30.00233,-0.4611806823131368,-0.1554892643750018,0.0621435267511545,60.89087,51.34444,166.5901,0.4242541,-0.4099677,0.7460659,14
11.36,-22.09582,1.144745,-29.96931,-0.3979444277910895,-0.1653972468351561,0.0856736418985564,58.31389,51.83707,167.7509,0.4262809,-0.3949732,0.758247,14
11.38,-21.99901,1.327185,-29.9349,-0.3494124175369584,-0.141820569121695,0.1056584896123369,61.30886,49.98382,165.6301,0.4183953,-0.4130329,0.7466453,14
11.4,-21.90396,1.507299,-29.90171,-0.2981641436518947,-0.0914513257439011,0.1251789316622695,64.22731,47.62637,163.0359,0.4099743,-0.4305821,0.7347534,14
11.42,-21.84115,1.196066,-29.87223,-0.2510987720662063,-0.0885389188264539,0.1421055295190658,48.23427,57.04362,173.0564,0.4567551,-0.3319628,0.7886543,14
11.44,-21.74302,1.373208,-29.83674,-0.213266777558938,-0.0612256531480848,0.1561574689791389,51.29382,56.09747,171.894,0.4498338,-0.3510722,0.7792237,14
11.46,-21.6303,1.240774,-29.81825,-0.1754114951717738,-0.0341028867309511,0.1687761071993203,31.89691,61.2821,175.0931,0.4997116,-0.2152138,0.8205075,14
11.48,-21.5227,1.413312,-29.78605,-0.1491565601408901,-0.0572429666441408,0.1782727918763513,35.13452,60.64881,174.1993,0.4939146,-0.2358401,0.8141596,14
11.5,-21.50087,1.259543,-29.78275,-0.1200939902631184,-0.0117590554317726,0.1909912042087587,19.80591,64.06583,176.2806,0.5269598,-0.1287616,0.8317126,14
11.52,-21.39153,1.430755,-29.75025,-0.0985016825457831,0.0084640412925199,0.203916882270545,23.0931,63.796,175.6738,0.5237603,-0.1502752,0.8272238,14
11.54,-21.32415,1.273827,-29.72058,-0.080196953157936,0.0052689384298642,0.2190131146236233,2.19051,67.83916,177.7488,0.5581308,-0.004898588,0.8293005,14
11.56,-21.21415,1.443089,-29.6842,-0.0594694849228387,0.0472540842888252,0.2381106060403959,5.545997,67.78233,177.5092,0.5577055,-0.02804461,0.8283442,14
11.58,-21.10562,1.609452,-29.65114,-0.0507782951299664,0.0409950160062125,0.256137542943105,8.873814,67.77744,177.209,0.5573099,-0.05066179,0.8263385,14
11.6,-21.10289,1.287507,-29.63636,-0.0441647908326565,0.0323162215133982,0.2744842414050641,353.1344,69.54407,178.5168,0.5686051,0.05654947,0.8203272,14
11.62,-20.9926,1.298349,-29.59483,-0.0385388487410178,0.0459635737700407,0.2936519108847033,352.4634,69.72182,178.9248,0.5698193,0.05927637,0.8190845,14
11.64,-20.88682,1.465959,-29.56259,-0.033675236451768,0.0560017093654412,0.3150727945493501,355.6238,69.73881,178.7381,0.5709114,0.03761467,0.8200498,14
11.66,-20.7826,1.630857,-29.53303,-0.0310927363399806,0.0650929981630798,0.3368947477326731,358.7675,69.80251,178.5135,0.5719683,0.01624188,0.8201028,14
11.68,-20.82994,1.274343,-29.53861,-0.0435213250012513,0.069447620090152,0.3534145719024075,353.7264,70.07377,179.5927,0.5730806,0.04684157,0.8176625,14
11.7,-20.72507,1.443686,-29.51013,-0.058660139853627,0.0733381120519691,0.3704268582252683,356.8478,70.32018,179.4028,0.5755202,0.02548612,0.8173085,14
11.72,-20.6219,1.610336,-29.48351,-0.0979220977455819,0.0267794292847752,0.3799114688793512,359.9563,70.58005,179.205,0.5776995,0.004318716,0.8162201,14
11.74,-20.64453,1.249501,-29.47771,-0.1236521096388716,0.0304913974833109,0.3944141935664498,1.091073,70.77799,181.3188,0.5789708,-0.01442596,0.8152117,14
11.76,-20.61385,1.245414,-29.46854,-0.1515202371140978,0.0343869453190751,0.4094378644086833,3.554044,70.7504,181.6544,0.5782245,-0.0336363,0.8151606,14
11.78,-20.51342,1.41897,-29.44196,-0.2038622411603179,-0.0127245357033846,0.415281614403348,6.596072,70.76311,181.4267,0.5774311,-0.05409796,0.8143156,14
11.8,-20.41519,1.590184,-29.41651,-0.2326384708678115,0.0142765542399906,0.42705757098242,9.610705,70.74462,181.1818,0.5761173,-0.07425276,0.8129985,14
11.82,-20.51322,1.231235,-29.43181,-0.288356879087889,-0.0108921924176568,0.4284994807359314,9.83525,70.536,182.6783,0.5734835,-0.08341502,0.8143895,14
11.84,-20.41367,1.408536,-29.4068,-0.3576098455038767,-0.0631456607113742,0.4254888749923187,12.85584,70.51733,182.3977,0.5716015,-0.1033978,0.8125955,14
11.86,-20.46372,1.203565,-29.41295,-0.4003066782939775,-0.0382891656101221,0.4261752865803734,14.28654,70.65824,183.2067,0.5707207,-0.1174658,0.8112067,14
11.88,-20.36749,1.38614,-29.38842,-0.452592667886659,-0.0399250565835716,0.4226205701720968,17.25201,70.55535,182.9262,0.5676942,-0.1369812,0.8090771,14
11.9,-20.42328,1.187049,-29.39875,-0.504609690262809,-0.0395490479661467,0.4183747883694817,16.85144,69.97104,183.4101,0.5633578,-0.1368721,0.8125951,14
11.92,-20.32939,1.373271,-29.37537,-0.5814774001634464,-0.0943459167735315,0.4053578735997498,19.76189,69.78115,183.0667,0.5595578,-0.1557842,0.8104161,14
11.94,-20.37529,1.163994,-29.38042,-0.6331738359406938,-0.0965746898221672,0.3975180639191547,20.94346,67.55164,183.5853,0.5416921,-0.168102,0.820136,14
11.96,-20.35639,1.156099,-29.37441,-0.6831374330999407,-0.0962271076339082,0.3901811583268157,22.42731,66.805,183.4806,0.5348278,-0.1786715,0.8217598,14
11.98,-20.26416,1.349276,-29.35424,-0.7519614525664382,-0.1524505860354334,0.3769893308631009,25.25803,66.67205,182.8848,0.5314848,-0.1961038,0.8180153,14
12.0,-20.17238,1.540262,-29.33439,-0.7831952312841319,-0.1235223374138826,0.3723213292257021,28.08478,66.50388,182.2625,0.527826,-0.2133742,0.8137457,14
12.02,-20.29351,1.130435,-29.34443,-0.8163318659070642,-0.1217270424360701,0.3668733917992095,29.3979,62.24142,183.2403,0.4935865,-0.2312695,0.8314397,14
12.04,-20.20631,1.329177,-29.32238,-0.8454944891939582,-0.1175443953592545,0.364056104073807,32.09248,62.05947,182.4782,0.4901614,-0.2475157,0.8264029,14
12.06,-20.22103,1.123247,-29.31857,-0.8495810057839472,-0.0546176356644375,0.3677251985674821,33.85438,60.81036,182.7564,0.4780051,-0.2626857,0.8284076,14
12.08,-20.1386,1.323865,-29.29766,-0.869698283074237,-0.0781059133328672,0.3658965885220353,36.38322,60.58682,181.9183,0.4746363,-0.2775508,0.8228177,14
12.1,-20.0563,1.522733,-29.27745,-0.8858994440241412,-0.100810834767329,0.3676456871897469,38.89643,60.32413,181.0271,0.4711802,-0.2921101,0.8167424,14
12.12,-20.08821,1.115558,-29.2725,-0.882476307307273,-0.094127595769528,0.3719500622303395,42.50336,61.07064,181.3682,0.469758,-0.3178287,0.8048859,14
12.14,-20.00666,1.317543,-29.24978,-0.8685027363351163,-0.0551983386804835,0.3808549647136998,45.02171,61.0475,180.5163,0.4677069,-0.3319119,0.7966527,14
12.16,-19.92553,1.517752,-29.22756,-0.8495933556768911,-0.0168731282610972,0.3930468509497218,47.52374,60.94463,179.6298,0.4652519,-0.345779,0.7881471,14
12.18,-19.92533,1.11324,-29.20896,-0.8228264368376776,-0.0072873922460328,0.4079592176861122,47.48213,61.01852,179.2913,0.4668514,-0.3439816,0.7873591,14
12.2,-19.84185,1.314871,-29.18242,-0.7908746474269104,0.0035026220495146,0.4262871595608191,50.09725,61.15052,178.4751,0.4656385,-0.3583559,0.7770525,14
12.22,-19.71072,1.104272,-29.11768,-0.750051846414638,-0.0440682850126378,0.4533098484087898,56.0286,59.85436,176.2035,0.4536855,-0.3922502,0.756932,14
12.24,-19.61967,1.103277,-29.08055,-0.6911646004656009,-0.003840244561533,0.4834776124724764,59.09146,58.60642,174.0877,0.447397,-0.4074889,0.7451875,14
12.26,-19.5407,1.299146,-29.05356,-0.6283049127264309,0.03478715501452,0.5153374832111202,61.61141,58.1422,172.9794,0.4439626,-0.4212162,0.7340569,14
12.28,-19.43797,1.110916,-29.005,-0.5621043386427647,-0.0081085197899688,0.5530148663120449,62.1215,52.55219,168.0171,0.4254419,-0.4205241,0.7400703,14
12.3,-19.35539,1.302349,-28.97724,-0.4911001342817158,0.0357429844638263,0.5896199368705157,64.66962,51.34929,166.1166,0.4216557,-0.43428,0.7279259,14
12.32,-19.28121,1.131453,-28.93654,-0.4145202989709524,0.0328248271141131,0.6314896849532401,60.42188,49.80321,166.9218,0.4134811,-0.4119975,0.7546105,14
12.34,-19.1422,1.165042,-28.873,-0.3361203661735965,0.0275166082282591,0.6737903367774356,55.23709,50.32813,168.9176,0.4155158,-0.3812447,0.77918,14
12.36,-19.05766,1.348889,-28.84312,-0.2688529138429674,0.0991272310552486,0.7080303441590927,57.78141,49.51529,167.3515,0.4127581,-0.3956742,0.7679434,14
12.38,-18.99105,1.199381,-28.80341,-0.20430887206015,0.1252524947809374,0.7342416231967452,47.76431,55.17859,173.2067,0.4439928,-0.3331003,0.7978736,14
12.4,-18.90583,1.380419,-28.77235,-0.1386846451600374,0.1507104061917252,0.7584295939641068,50.37132,54.99221,172.3083,0.4421753,-0.3486105,0.7877289,14
12.42,-18.84978,1.231646,-28.74966,-0.0822006849422209,0.1275504031554414,0.7743645369729872,37.45496,57.64691,174.6462,0.4692265,-0.2596589,0.8215904,14
12.44,-18.75485,1.254938,-28.70577,-0.0200234635079183,0.1740592976485467,0.7890767917507171,25.65021,59.9947,175.9192,0.4940227,-0.1747634,0.839956,14
12.46,-18.65728,1.429358,-28.66933,0.0419463277030822,0.2177863204650514,0.8013189163058008,28.6255,60.2956,175.5023,0.4946572,-0.1945143,0.832375,14
12.48,-18.63885,1.268143,-28.64364,0.0851201593637833,0.232035523140885,0.8104250282305587,13.36405,62.42967,177.1335,0.5170561,-0.08660812,0.8476466,14
12.5,-18.54113,1.44133,-28.60382,0.126226408195377,0.245494099381148,0.8176256163647317,16.38549,62.88026,176.9795,0.519309,-0.1079327,0.8422257,14
12.52,-18.53778,1.275593,-28.57857,0.1736731006087781,0.2575906173710415,0.8317058067938157,1.950936,64.30891,177.9288,0.5322999,-0.004793475,0.8461918,14
12.54,-18.44644,1.282207,-28.51311,0.2129361739749318,0.2457029410819964,0.8434274872428653,354.133,65.14267,178.4048,0.5369914,0.05060827,0.8419196,14
12.56,-18.34332,1.450575,-28.46516,0.2540996632535846,0.280288683094233,0.8534662324080444,357.3821,65.61996,178.5591,0.541429,0.02600955,0.8403422,14
12.58,-18.30364,1.292242,-28.4209,0.2786675052462359,0.2653590483546308,0.8585106371911784,352.1356,65.20618,179.075,0.537064,0.06210778,0.8407111,14
12.6,-18.19358,1.455151,-28.36542,0.2982249592783228,0.2482190609692557,0.8609986749726737,355.645,65.66386,179.3573,0.5415974,0.03496449,0.8397602,14
12.62,-18.19853,1.29631,-28.34418,0.3081351010634843,0.2477176273878622,0.8570271216208494,353.4288,64.77435,179.5255,0.5345523,0.05061197,0.8431796,14
12.64,-18.15899,1.270058,-28.29868,0.3066002257027249,0.2439808279797657,0.8484136826070952,354.0697,64.35462,180.0006,0.5318284,0.0437803,0.8452708,14
12.66,-18.05161,1.433662,-28.24077,0.3002297551319515,0.2399939976862281,0.8365954202554202,357.5782,64.81718,180.326,0.5358824,0.01631665,0.8440235,14
12.68,-18.06541,1.254518,-28.23556,0.2729132005181638,0.1833587460114309,0.8179892352508618,357.4485,64.13565,181.1313,0.5309516,0.01362644,0.8470522,14
12.7,-17.95687,1.418724,-28.17735,0.2631556233898173,0.2024791365199277,0.8013456037260624,1.020715,64.61694,181.4335,0.5343201,-0.01421318,0.8451429,14
12.72,-17.99568,1.24574,-28.17478,0.2285916812731336,0.1696321459099571,0.777029896598529,1.432223,63.9984,181.5892,0.5296682,-0.01794657,0.8479998,14
12.74,-17.95915,1.237865,-28.13204,0.1789400562020056,0.1092742652903696,0.750547629297003,6.160808,63.49274,182.5691,0.5242433,-0.05746428,0.8495774,14
12.76,-17.85158,1.405862,-28.07444,0.1430436493139981,0.1263187949860587,0.725083461806538,9.73232,63.93933,182.796,0.5256491,-0.08481208,0.8461151,14
12.78,-17.89788,1.228492,-28.08454,0.0944603486652462,0.1154740432921562,0.6942744851350051,10.14991,62.99432,182.8499,0.5183717,-0.08834384,0.8502102,14
12.8,-17.79158,1.401951,-28.03808,0.0426222930721298,0.1055852966790598,0.6621063331399522,13.55798,63.28194,182.7215,0.518394,-0.1128357,0.8466324,14
12.82,-17.86127,1.211387,-28.05992,-0.0341057289590782,0.0397351967918577,0.6213157180989897,13.22335,62.95562,183.0457,0.5159028,-0.1119459,0.8484693,14
12.84,-17.84297,1.193641,-28.04399,-0.0958817352290488,0.0237925046642772,0.5838118323591641,15.8449,62.58447,183.1997,0.5109571,-0.1320988,0.8480422,14
12.86,-17.73735,1.375553,-28.00485,-0.159706608864331,0.0094600338101108,0.5462409676199438,19.17758,62.9336,182.8483,0.5110213,-0.1548281,0.8429274,14
12.88,-17.78838,1.177893,-28.00928,-0.2221585993518264,-0.0046241695845304,0.5063282230616242,18.51394,61.69753,183.5711,0.501547,-0.1538067,0.849502,14
12.9,-17.68541,1.363291,-27.96789,-0.285418023523819,-0.0170710949452568,0.4670928163684671,21.827,62.05879,183.2513,0.5013489,-0.1765285,0.8438352,14
12.92,-17.75523,1.162687,-27.98365,-0.3469408668418676,-0.0303638535472159,0.4257744663723972,21.3389,60.05884,183.6282,0.486472,-0.175779,0.8533076,14
12.94,-17.74012,1.147139,-27.96538,-0.4172714207424899,-0.0713019738583919,0.3842176259367895,24.35757,58.25436,183.5766,0.4698125,-0.199043,0.8566703,14
12.96,-17.64112,1.340012,-27.92181,-0.4665449171955314,-0.0522741859568144,0.3488373640384847,27.61811,58.51032,183.1025,0.4687635,-0.2210137,0.8500824,14
12.98,-17.6834,1.133958,-27.92218,-0.5176329174861467,-0.0604399164647591,0.3134811413802469,27.85493,56.30016,183.5381,0.4511431,-0.2262579,0.8588912,14
13.0,-17.58537,1.329738,-27.87528,-0.5669293574099954,-0.0668300178392594,0.2820295787482401,31.15093,56.50745,183.0193,0.4496039,-0.2484488,0.8515669,14
13.02,-17.63143,1.122597,-27.86833,-0.6254635420677646,-0.1317083729791731,0.2477145030373497,34.63045,52.82558,182.9457,0.4176842,-0.2773875,0.8581455,14
13.04,-17.53521,1.321305,-27.81596,-0.6491908434101179,-0.1362693428968391,0.2210782231900809,37.9647,52.92252,182.3294,0.4153547,-0.2997041,0.8493233,14
13.06,-17.43896,1.517034,-27.76404,-0.6688317095527212,-0.1394932002340298,0.2008862648166047,41.29866,52.9762,181.6903,0.4126575,-0.3217508,0.8397561,14
13.08,-17.4833,1.115783,-27.76883,-0.6769958497817081,-0.1408481735954427,0.1820561599328893,41.83582,52.2799,182.2676,0.4051063,-0.3285933,0.8415027,14
13.1,-17.39042,1.315906,-27.7115,-0.6801662613403066,-0.1410294189615561,0.1703583508030255,45.18749,52.40712,181.7836,0.4022582,-0.3510145,0.8309106,14
13.12,-17.38697,1.113846,-27.69267,-0.6805956503671555,-0.2005293567623041,0.1600319049660048,46.34859,51.47116,180.3116,0.3982169,-0.3555786,0.828585,14
13.14,-17.29636,1.314392,-27.63466,-0.6599186611948029,-0.1713026368030432,0.1588625573059059,49.65587,51.55045,179.8,0.3953099,-0.3774288,0.8169559,14
13.16,-17.2056,1.512064,-27.57703,-0.6345692667465082,-0.143296929379075,0.1640516635951714,52.96225,51.58681,179.2585,0.3920641,-0.3989488,0.8046312,14
13.18,-17.18791,1.107181,-27.54884,-0.6063130630564746,-0.2045596617631071,0.1786444289824968,53.29953,49.64338,177.6679,0.3834054,-0.3993797,0.8071982,14
13.2,-17.09873,1.305685,-27.49249,-0.5624189117909935,-0.2052667307852579,0.1983400527424699,56.53803,49.46773,176.8714,0.380108,-0.4199435,0.7942284,14
13.22,-16.97919,1.104628,-27.39798,-0.5077079395515616,-0.2312630587161674,0.2341910104824514,61.16763,44.39841,171.1906,0.3604858,-0.444712,0.7799552,14
13.24,-16.89065,1.296127,-27.34462,-0.4572309758072421,-0.1981874318787825,0.26860557329795,64.27551,43.42965,169.4748,0.3573031,-0.4633886,0.7653142,14
13.26,-16.80227,1.485036,-27.29232,-0.4062317490998783,-0.1862096596298256,0.309082174641663,67.35989,42.08842,167.3821,0.3538801,-0.4815956,0.750061,14
13.28,-16.71468,1.129564,-27.21053,-0.3529122572420764,-0.1751197566932162,0.3528430644370912,60.82809,37.99841,166.6518,0.3344842,-0.4427928,0.790729,14
13.3,-16.62782,1.314681,-27.15849,-0.3047875321482216,-0.1571946906000838,0.397613064281157,63.73829,36.36945,164.2914,0.3310982,-0.460687,0.7767543,14
13.32,-16.51813,1.178765,-27.07453,-0.2501438918846972,-0.1608633492706344,0.453259584387184,51.99783,42.95988,171.1855,0.3594919,-0.3814115,0.8215691,14
13.34,-16.42964,1.357964,-27.02243,-0.1932479815626822,-0.1139164403592968,0.50979641311292,54.9687,42.28778,169.8185,0.3569325,-0.4003439,0.8093774,14
13.36,-16.34216,1.534683,-26.97168,-0.1475317340384385,-0.0920596186691331,0.5615574684302986,57.91535,41.41578,168.2648,0.3540727,-0.4188821,0.7966602,14
13.38,-16.28347,1.232562,-26.96577,-0.1015545358046414,-0.0723512444907655,0.6157026579349791,37.40809,48.02684,174.1945,0.399798,-0.2730293,0.85749,14
13.4,-16.18481,1.407051,-26.91716,-0.0629425592443486,-0.0531795536494929,0.6642808412815722,40.52329,47.98299,173.2368,0.3994394,-0.2933382,0.8472748,14
13.42,-16.1554,1.261619,-26.91249,-0.0251785538318138,-0.0585259911487542,0.7184787253760962,19.61123,52.24232,176.1803,0.4386941,-0.1383682,0.881758,14
13.44,-16.05462,1.43395,-26.86333,0.0160191219037617,-0.0185233911171906,0.7757018560272497,22.78928,52.711,175.6637,0.4415752,-0.1604391,0.8744483,14
13.46,-15.9551,1.60324,-26.81545,0.0460713615651822,-0.0054056292553384,0.8292222814564081,25.96576,53.15929,175.1659,0.4440889,-0.1823501,0.8664375,14
13.48,-15.96651,1.276083,-26.78888,0.0729212538645096,0.0053851465098433,0.8836441248400266,1.969186,56.35499,177.6438,0.4723465,-0.005436724,0.8810058,14
13.5,-15.86568,1.447325,-26.73997,0.0975063128844129,0.015773090872527,0.9358872620607026,5.141984,57.04617,177.4139,0.4778001,-0.02863811,0.8770337,14
13.52,-15.79049,1.289246,-26.65831,0.1184107020097848,0.0016304665301397,0.9940350668468284,352.9606,58.07642,178.4831,0.4837244,0.06008279,0.8729653,14
13.54,-15.72616,1.296886,-26.6096,0.1491104478838358,0.0337900547333911,1.0545844164705698,351.7285,58.24272,178.8107,0.4847139,0.06803726,0.8716335,14
13.56,-15.63126,1.46583,-26.55795,0.1649095729133967,0.0393455320115589,1.104236464770764,354.7791,58.83826,178.8281,0.4902535,0.04468855,0.8703294,14
13.58,-15.61894,1.302405,-26.52146,0.1754221367340052,0.0427007510857229,1.152421242985875,352.9053,57.87622,179.1868,0.4825413,0.05757416,0.8736568,14
13.6,-15.52552,1.471069,-26.47062,0.1744159738675859,0.0412389033875327,1.188229910374596,355.9005,58.43916,179.1796,0.4876097,0.03470823,0.8722998,14
13.62,-15.57158,1.275548,-26.46551,0.1568155542025329,0.014486340495606,1.2128815620046276,353.5808,57.5362,179.6809,0.4803723,0.05041588,0.8752715,14
13.64,-15.52557,1.260935,-26.42178,0.1498497922351338,0.033601263552732,1.2400478308873413,356.8491,56.96628,180.7319,0.4768646,0.02112024,0.8785238,14
13.66,-15.43465,1.433619,-26.37637,0.1339205011335347,0.0303053606329143,1.260834972708321,359.7409,57.71025,180.6196,0.4825991,-0.0006294325,0.8758221,14
13.68,-15.45392,1.253626,-26.35826,0.1034358027493564,0.0026934100318,1.2716833619447234,0.6739888,57.06782,181.1039,0.4775987,-0.009768575,0.8785058,14
13.7,-15.3629,1.428173,-26.31647,0.0852363194657828,0.0247497136347489,1.287508700617944,3.509953,57.95847,180.9426,0.4840287,-0.03077336,0.8744777,14
13.72,-15.414,1.245923,-26.30838,0.0427228116900977,-0.0037700423385655,1.2861439376424904,5.310961,56.59245,182.1017,0.4726934,-0.04947184,0.879818,14
13.74,-15.4013,1.233271,-26.26496,0.0073196397338193,-0.0094353610977395,1.2852786329509531,9.527987,55.59752,182.7427,0.4628651,-0.08456837,0.8822098,14
13.76,-15.3173,1.41289,-26.22072,-0.022214731179007,0.0117942022926364,1.284280189303034,12.24728,56.38231,182.6147,0.4674518,-0.1047127,0.8772692,14
13.78,-15.36648,1.214966,-26.2188,-0.0732277368199529,-0.0197783496227495,1.2670040042316448,12.62844,55.36695,183.0929,0.4589718,-0.1098176,0.8812141,14
13.8,-15.28241,1.397283,-26.17347,-0.1061233741849556,0.0003095826427781,1.257444700500029,15.39131,56.12726,182.9473,0.4630215,-0.1301171,0.8758089,14
13.82,-15.34877,1.196289,-26.18028,-0.1637902288201691,-0.0342944258163193,1.2330817407888657,15.27111,54.53175,183.323,0.4504429,-0.1312236,0.8824034,14
13.84,-15.34575,1.180254,-26.14887,-0.1994572172780153,-0.0141793214732191,1.2189680947012018,17.91558,52.68639,183.6119,0.4337195,-0.1532817,0.88696,14
13.86,-15.2654,1.368746,-26.1014,-0.2255383362408793,0.0343229401464339,1.2095066365622271,20.65416,53.42812,183.3898,0.4373261,-0.1731433,0.8807899,14
13.88,-15.31483,1.164371,-26.10266,-0.2763884269609817,-0.0007850814495587,1.1826699269061205,20.74532,50.544,183.6793,0.4144959,-0.1762145,0.8915222,14
13.9,-15.23678,1.356081,-26.05447,-0.306977118040274,0.021202867659459,1.1645079533700748,23.44864,51.24212,183.3728,0.4178202,-0.1956034,0.8850653,14
13.92,-15.29761,1.148144,-26.06239,-0.3562733866163066,-0.0134045068415557,1.1352637265487449,23.76712,48.49373,183.658,0.3956703,-0.2004884,0.8944879,14
13.94,-15.28754,1.134657,-26.02665,-0.3820939301212813,0.0104507370780388,1.117055941464109,27.19036,45.84174,183.5655,0.3716288,-0.2281725,0.8976514,14
13.96,-15.2143,1.33209,-25.97614,-0.3962765085732938,0.0646305029415484,1.1049106866759453,29.83152,46.42811,183.0949,0.3743588,-0.2467589,0.8904881,14
13.98,-15.23867,1.125734,-25.95876,-0.4260815070628727,0.0328726436033572,1.0817892900131445,31.39881,43.78018,183.3229,0.3514881,-0.2613819,0.8958344,14
14.0,-15.16625,1.324609,-25.90161,-0.441812521340772,0.0328574966289236,1.0601171093741637,34.16568,44.35633,182.8922,0.3538537,-0.2810402,0.8876762,14
14.02,-15.16843,1.118878,-25.89213,-0.458191722082097,0.0060036886039173,1.0414623661156752,37.01628,42.22339,182.979,0.3337449,-0.3049111,0.8873034,14
14.04,-15.08556,1.115601,-25.84217,-0.4533110144225527,0.0396409816307651,1.0312312796146583,41.74353,41.67734,182.3435,0.3255156,-0.3396997,0.8756678,14
14.06,-15.00758,1.315647,-25.76869,-0.4540844946832105,0.0162168567511155,1.0167112487995102,45.00809,42.22788,181.9702,0.3266059,-0.3627219,0.8640736,14
14.08,-14.98167,1.114439,-25.74898,-0.4545106820763622,-0.0070444675823464,1.0039090910851476,44.64502,41.44504,181.1487,0.3237484,-0.3585104,0.8665177,14
14.1,-14.90419,1.314836,-25.67319,-0.4399266648511222,-0.0012054090048722,0.9953722848059772,47.95336,42.011,180.8176,0.3248117,-0.3816874,0.8540089,14
14.12,-14.83934,1.110008,-25.63737,-0.4288876340491374,-0.0227996982738915,0.9827062989041208,50.52561,39.70996,178.7208,0.311619,-0.3979479,0.8489295,14
14.14,-14.76309,1.309454,-25.56365,-0.4034145059253713,0.0151842616869266,0.9767529103042668,53.75712,40.12064,178.17,0.3126954,-0.4197331,0.83527,14
14.16,-14.68643,1.506104,-25.49055,-0.3688398134475568,-0.0040129078015828,0.9848067076885636,56.98999,40.50859,177.615,0.3134989,-0.4411529,0.8208993,14
14.18,-14.61947,1.102191,-25.39513,-0.3346446315078923,-0.0509435112559894,0.992792392607702,59.63937,36.53562,174.1008,0.2958938,-0.4575907,0.8147572,14
14.2,-14.5457,1.104437,-25.33142,-0.2892206133779227,-0.0110312971048186,1.0044127842299555,61.18793,33.22236,171.2951,0.2823838,-0.4676287,0.8114513,14
14.22,-14.41965,1.118046,-25.18076,-0.245107818032173,-0.0233966372653336,1.0166740971687491,61.80202,27.82443,167.2634,0.2603258,-0.4725322,0.8140497,14
14.24,-14.34325,1.30438,-25.10801,-0.1995195167691466,0.0001497636340362,1.0330337411285928,64.8864,26.76604,165.1384,0.2611898,-0.4922499,0.798053,14
14.26,-14.26954,1.144296,-25.00796,-0.1544846526316923,0.0228863701045089,1.0479086606593726,58.37828,27.06842,167.8496,0.2533419,-0.4498655,0.8319253,14
14.28,-14.19233,1.326183,-24.93486,-0.1123590188804284,-0.0040224104937123,1.061684049049144,61.44375,26.25357,165.938,0.2546659,-0.4698827,0.816697,14
14.3,-14.13999,1.178183,-24.85383,-0.0713789788433072,0.0462109134668985,1.0694047317399118,52.08137,30.08433,171.2129,0.2649766,-0.4048573,0.8564183,14
14.32,-14.0231,1.211316,-24.72217,-0.0337671928217655,0.0487581953509972,1.0719329925613763,43.16377,33.74155,173.9175,0.2881633,-0.3371861,0.882955,14
14.34,-13.93956,1.384609,-24.64282,0.0014390927982235,0.0751079610243095,1.0711905228261047,46.49453,34.03638,173.1484,0.2909855,-0.3606732,0.8701042,14
14.36,-13.87906,1.239199,-24.57717,0.0350345831296692,0.0995470517637668,1.0690224316594752,32.08181,37.0382,175.3051,0.3157299,-0.2492921,0.9069393,14
14.38,-13.7896,1.4086,-24.49389,0.0593361223640993,0.0736288383833195,1.0583356216877693,35.60195,37.61101,174.8334,0.3196552,-0.2752644,0.8959407,14
14.4,-13.76885,1.257193,-24.45477,0.085910510528212,0.114596249487652,1.053192509432498,20.06815,39.9859,176.5763,0.3414159,-0.153603,0.9231683,14
14.42,-13.68323,1.26843,-24.34614,0.0982181516292555,0.1060103022864213,1.038335295270167,8.116545,42.31782,177.5566,0.3613761,-0.05830805,0.9294885,14
14.44,-13.59415,1.435816,-24.26156,0.1158177531085302,0.1192124366631935,1.0334602900654906,11.63472,43.14939,177.5473,0.3677536,-0.08640572,0.9241403,14
14.46,-13.56443,1.275706,-24.20095,0.1288383587099135,0.1299640226156225,1.0283468458255445,358.3993,44.49089,178.2042,0.378289,0.01885915,0.9254497,14
14.48,-13.47438,1.441298,-24.11474,0.1276742294471722,0.0910023563747553,1.0194761306558071,1.958361,45.32284,178.3503,0.3854156,-0.01022248,0.9224727,14
14.5,-13.45648,1.28512,-24.05974,0.1375446022640063,0.1210067062100817,1.014056869997579,353.3272,45.35678,178.7567,0.3842993,0.05787159,0.921309,14
14.52,-13.36851,1.293684,-23.93318,0.125694025430169,0.0998110186230467,1.002366941153174,352.8273,45.23039,179.3073,0.383431,0.06006185,0.9214292,14
14.54,-13.28026,1.454956,-23.84234,0.111612545608867,0.1237350795042934,0.9860139669065489,356.409,46.02691,179.6535,0.3906663,0.03002051,0.9199941,14
14.56,-13.2741,1.282896,-23.80154,0.0963306090771249,0.1673802544444023,0.9690632972536362,353.7624,45.50439,179.7901,0.386081,0.0508802,0.9208575,14
14.58,-13.18773,1.444997,-23.71182,0.0556021316034329,0.1333123774967985,0.9339829496985868,357.2997,46.30241,180.1662,0.3930809,0.02109427,0.919201,14
14.6,-13.20742,1.262123,-23.70052,0.0122226980004318,0.1216448787651995,0.8919482425157108,355.7357,45.43738,180.5837,0.3861094,0.03235162,0.9216886,14
14.62,-13.19328,1.254474,-23.67101,-0.0436688109105938,0.0833804995574332,0.8471843606449139,357.4432,45.00433,181.1315,0.382808,0.01683318,0.9235058,14
14.64,-13.10703,1.418503,-23.58161,-0.0839936289435265,0.0965339894067038,0.8102057261737938,1.024081,45.82479,181.4605,0.3891712,-0.01319271,0.921034,14
14.66,-13.1134,1.240403,-23.52838,-0.1365275922199407,0.0861144367718284,0.7614780761386548,4.009376,44.76388,182.0666,0.3799007,-0.03920334,0.9241902,14
14.68,-13.09142,1.23783,-23.4869,-0.1930029859043762,0.074184830732983,0.7151696214782115,6.150405,44.62328,182.5801,0.377884,-0.05815263,0.9240249,14
14.7,-13.00626,1.404991,-23.39551,-0.2547581477141114,0.0608641533197242,0.6572000578170885,9.775558,45.49434,182.9311,0.3831236,-0.08840494,0.9194086,14
14.72,-13.05194,1.226471,-23.40464,-0.3312752551644446,0.0208230058583185,0.5898099958525966,10.31299,44.25464,183.1524,0.3727097,-0.09354423,0.9231825,14
14.74,-13.03379,1.208928,-23.35046,-0.3900693375995352,0.0320445380058227,0.5318691946336491,13.41721,44.06777,183.5245,0.36908,-0.1196942,0.9215279,14
14.76,-12.95175,1.383565,-23.2605,-0.4571337444971217,0.0161368533481498,0.4622611484492318,16.99354,44.97072,183.8409,0.3734623,-0.14912,0.9152165,14
14.78,-12.98659,1.191091,-23.26676,-0.5254606308693741,-1.060000369559888e-05,0.3974974859036675,16.06007,44.06512,183.7646,0.3670015,-0.1416217,0.919108,14
14.8,-12.90606,1.369844,-23.17781,-0.5756256627923402,0.0366201256045591,0.343539002962248,19.61214,44.9773,184.071,0.3710849,-0.1706506,0.9121957,14
14.82,-12.97094,1.168473,-23.18927,-0.6530677707952719,-0.0107494547286887,0.2679069497511888,20.11462,40.51586,184.0308,0.3349538,-0.1757194,0.9252827,14
14.84,-12.89503,1.353349,-23.09972,-0.709108275188383,-0.0012650831047766,0.2063546457486782,23.62951,41.39085,184.1874,0.3386848,-0.2040458,0.9176863,14
14.86,-12.8192,1.534828,-23.01155,-0.753297760670351,0.036988255907023,0.1532798068541572,27.14068,42.30162,184.4088,0.342074,-0.2321616,0.9091829,14
14.88,-12.89406,1.145521,-23.0543,-0.8157723399386738,-0.0101844343203101,0.0835519448617603,24.59056,38.73371,184.0467,0.316714,-0.2122147,0.9236945,14
14.9,-12.8206,1.336353,-22.96523,-0.8657664678494765,-0.0268110230785575,0.017905457311794,28.08318,39.56874,184.0937,0.3200037,-0.2398873,0.9152077,14
14.92,-12.86403,1.128824,-22.96823,-0.9187102745088552,-0.070930158635746,-0.042774472188872,30.01407,34.9016,183.6946,0.2815453,-0.2562292,0.923463,14
14.94,-12.79462,1.324519,-22.87912,-0.9492873996114316,-0.0552782226540279,-0.086937012372072,33.44873,35.63519,183.5445,0.2844313,-0.2828972,0.9140518,14
14.96,-12.72486,1.517051,-22.79078,-0.9747613579153378,-0.0654968090757764,-0.1317934134891025,36.88376,36.38838,183.4429,0.2870419,-0.3092892,0.9037769,14
14.98,-12.7598,1.118704,-22.79587,-0.9965363780786768,-0.0745721297146361,-0.1680840325567056,37.37398,33.28778,183.0324,0.2631057,-0.3140459,0.9097056,14
15.0,-12.73659,1.117177,-22.76355,-1.0081281623285083,-0.081996559764724,-0.2036081743483886,39.59034,33.11103,182.6732,0.2604618,-0.3307848,0.9039088,14
15.02,-12.67579,1.114988,-22.67427,-1.0170304157748715,-0.1167499421275178,-0.2303081750166824,43.25547,32.99414,181.7587,0.2585198,-0.3574117,0.8928321,14
15.04,-12.60915,1.315099,-22.58711,-1.0107335750685436,-0.0913795759932454,-0.2419972445518694,46.60353,33.56112,181.4169,0.2604553,-0.381979,0.88067,14
15.06,-12.58674,1.113667,-22.54232,-1.0015679840377187,-0.0365918462779541,-0.2445838698620202,46.35771,32.85231,180.4016,0.2586288,-0.3784465,0.8821449,14
15.08,-12.52058,1.313965,-22.45596,-0.9935868835290292,-0.0695576902352808,-0.247134350209933,49.67802,33.37651,180.0215,0.2605236,-0.4024262,0.8692921,14
15.1,-12.49591,1.109934,-22.40973,-0.974623113651198,-0.0431790497156018,-0.2364010013182107,50.65508,31.95252,178.7599,0.2532186,-0.4085528,0.8676406,14
15.12,-12.46413,1.107123,-22.36092,-0.9522617027528464,-0.0180473826368434,-0.2206983331073639,53.28469,30.989,177.7149,0.2473503,-0.4272752,0.8587782,14
15.14,-12.39841,1.305365,-22.27626,-0.916930646803164,-0.0197485130868392,-0.1752282352695071,56.55759,31.26496,177.0693,0.2488952,-0.4500202,0.8445356,14
15.16,-12.27973,1.104431,-22.09865,-0.8787218259210827,-0.0217602553804292,-0.1263105065463343,61.20873,25.51621,171.2468,0.2274112,-0.4805848,0.8284261,14
15.18,-12.22123,1.108992,-22.0133,-0.8380521370218703,-0.027411116240359,-0.0742248756531389,62.64001,22.1242,167.9619,0.2165037,-0.490159,0.8233244,14
15.2,-12.15506,1.297499,-21.93099,-0.7938453951026867,0.0496974965912287,-0.0226978497352532,65.77007,21.11246,165.9482,0.2179786,-0.51094,0.8071834,14
15.22,-12.1027,1.128709,-21.84002,-0.7454905653307526,0.0534404087465221,0.0398261325315836,60.96552,19.36514,166.7981,0.2014647,-0.4800763,0.8340665,14
15.24,-11.9958,1.161788,-21.68193,-0.7028630590050062,0.0831849000431678,0.0928227108873054,55.75757,20.15873,168.8314,0.198766,-0.443147,0.8582026,14
15.26,-11.92833,1.341331,-21.59847,-0.6536712200609882,0.0677039443233809,0.1550221638423097,58.84533,19.54268,167.1498,0.2010733,-0.4645385,0.8436625,14
15.28,-11.87416,1.195318,-21.512,-0.6035625658489114,0.0789420987499036,0.2112824654864109,48.32784,25.81543,173.2072,0.2270887,-0.3862297,0.8823441,14
15.3,-11.8056,1.371478,-21.4278,-0.5524410148017525,0.0886800587823422,0.269388380018444,51.48241,25.94268,172.3307,0.2300404,-0.4087554,0.869295,14
15.32,-11.74993,1.227009,-21.36592,-0.4937080649790797,0.0996651054309252,0.328117651860516,38.04251,29.10013,174.6962,0.2518501,-0.3041393,0.9103092,14
15.34,-11.66041,1.250163,-21.25662,-0.4405269949874519,0.1307049362558114,0.3789274004538838,26.2329,32.26252,176.0023,0.2780292,-0.2084256,0.9327976,14
15.36,-11.58146,1.418836,-21.1633,-0.3929339557863225,0.1130644588157208,0.4216334363344431,29.75325,32.91623,175.7,0.2828623,-0.2357735,0.9235004,14
15.38,-11.55356,1.263384,-21.11979,-0.3432440509306262,0.1402217384500242,0.4655946419923813,13.94629,35.62782,177.1856,0.3064105,-0.1080913,0.9438161,14
15.4,-11.47313,1.430793,-21.02571,-0.3030744271435899,0.118697996841141,0.4992064926120587,17.50365,36.40195,177.112,0.3122587,-0.1367166,0.9374104,14
15.42,-11.4646,1.271806,-20.99533,-0.2553376825667925,0.1424082514759703,0.5379628845276319,2.41246,38.31916,177.9636,0.3284293,-0.01405113,0.9441271,14
15.44,-11.39036,1.2791,-20.87459,-0.2099484074314008,0.1423242782014291,0.573942196336612,354.4516,39.31054,178.4318,0.3353109,0.05017296,0.9407647,14
15.46,-11.30964,1.443666,-20.77858,-0.1679058160220732,0.1402604363232378,0.6077280360855801,358.0284,40.08901,178.6337,0.3424822,0.02024787,0.9392914,14
15.48,-11.29285,1.291277,-20.70731,-0.1281476582816783,0.1373938067705063,0.6346283731781286,352.2308,39.21072,179.0866,0.3342496,0.06648617,0.9400133,14
15.5,-11.21391,1.453007,-20.60777,-0.0924975810809369,0.1325738473045426,0.6589783036023422,355.8314,39.96824,179.4001,0.34135,0.03596767,0.939218,14
15.52,-11.2492,1.283244,-20.55307,-0.0578710439840426,0.1209902736987519,0.6779757715958552,353.7491,37.21535,179.7204,0.3184846,0.05244972,0.9463558,14
15.54,-11.17541,1.445661,-20.4534,-0.027485134547893,0.1316369545290287,0.6877960020483385,357.2759,37.97995,180.0262,0.325316,0.02240175,0.9453068,14
15.56,-11.10233,1.604346,-20.35636,-0.0109148808349206,0.092128235753093,0.6828462840611187,0.7966547,38.76176,180.3796,0.3318149,-0.007657392,0.9433133,14
15.58,-11.16552,1.254764,-20.37888,0.0131425107409071,0.1006432046971622,0.6811024491978985,357.4104,37.14764,181.1334,0.3186412,0.0182692,0.9475546,14
15.6,-11.15856,1.249873,-20.34414,0.0325156802965658,0.1066060713150642,0.674891729610771,359.451,36.8707,181.3712,0.3162626,0.0007606251,0.9485844,14
15.62,-11.13952,1.240551,-20.26741,0.0442165479846998,0.0886093674470742,0.6575776603968788,3.992737,36.29021,182.0525,0.3105928,-0.03867292,0.9497364,14
15.64,-11.0683,1.406664,-20.16454,0.0559071832960873,0.0709672472955958,0.6414487679530736,7.62315,37.10935,182.3934,0.3161202,-0.06963757,0.9461591,14
15.66,-11.09978,1.232311,-20.1599,0.0639650721232283,0.0537574387647704,0.62245864735333,8.224856,36.05418,182.8592,0.3068725,-0.07587296,0.9487205,14
15.68,-11.02959,1.401262,-20.05788,0.0814694067942554,0.0848795912427252,0.605339658469878,11.82937,36.89354,183.1824,0.3119032,-0.1064546,0.9441097,14
15.7,-11.08128,1.217741,-20.08307,0.0831985801970462,0.0631978613050248,0.5698232316129803,11.85376,35.67946,183.3277,0.3017353,-0.1071004,0.9473482,14
15.72,-11.09265,1.209073,-20.07532,0.0818586584549918,0.0427635432015977,0.5317163772382263,13.40116,35.23499,183.5055,0.2970515,-0.1203504,0.9472255,14
15.74,-11.02534,1.383843,-19.97438,0.0963000597339001,0.0719464005221673,0.5054546182810582,16.96771,36.09295,183.8004,0.3015788,-0.1503556,0.9413998,14
15.76,-11.07853,1.18342,-19.98633,0.1173042782311231,0.1262091543246766,0.4817723668463127,17.37734,33.99108,183.8784,0.2838887,-0.1541627,0.9463053,14
15.78,-11.0142,1.364272,-19.88629,0.1082334162334173,0.0727137658937701,0.4315335020117801,20.91549,34.84959,184.1203,0.2880636,-0.1836552,0.9396098,14
15.8,-10.94993,1.541646,-19.78784,0.1143804453281258,0.0750218681774426,0.3941473853303905,24.44869,35.74611,184.4266,0.2919438,-0.212955,0.931975,14
15.82,-11.07012,1.153306,-19.87473,0.1067394541873036,0.0216949316859615,0.3461983705545473,23.03385,28.76888,184.0063,0.2365161,-0.2017889,0.9503014,14
15.84,-11.01291,1.342285,-19.77421,0.1125842741632905,-0.0014656810058048,0.306139952948095,26.52371,29.56592,184.0546,0.2403516,-0.2304552,0.9425955,14
15.86,-10.95545,1.527958,-19.67479,0.1180649854554336,-0.0222882705748711,0.2659674828170022,30.01159,30.3921,184.1604,0.2439476,-0.2588891,0.9339759,14
15.88,-11.03073,1.13282,-19.73594,0.122644821537261,-0.0440039583915114,0.2254487102087181,28.00459,26.00513,183.9464,0.2100622,-0.2431338,0.9467219,14
15.9,-11.03092,1.128795,-19.71068,0.1318164873617606,-0.067140839498241,0.1875044160648302,30.00101,24.64468,183.7138,0.1978371,-0.2594116,0.9449654,14
15.92,-11.01321,1.121819,-19.63296,0.1414964534451528,-0.0880434508044895,0.1503985644173879,34.69558,22.57622,183.2565,0.1784549,-0.2975939,0.9373283,14
15.94,-10.96305,1.319631,-19.53315,0.1687176525782039,-0.0507575454292567,0.127557224600924,38.0994,23.19364,182.9946,0.1815955,-0.3245813,0.9273384,14
15.96,-10.96568,1.117136,-19.51105,0.187641494648302,-0.0994950812902105,0.0965328808758489,39.60953,22.05736,182.6866,0.1721399,-0.3366867,0.9247423,14
15.98,-10.91599,1.316369,-19.41213,0.2020000209920764,-0.1757322061734606,0.0606168872205166,42.98686,22.60831,182.3528,0.1749714,-0.3629554,0.9136915,14
16.0,-10.9217,1.114987,-19.40235,0.2327292335478206,-0.1641672248323792,0.0398811051899761,43.25407,21.8511,181.7621,0.1706054,-0.3645492,0.9137192,14
16.02,-10.88478,1.113691,-19.29965,0.2713433139164345,-0.1798493457000929,0.0308629992103148,46.35125,21.31519,180.3946,0.1686825,-0.3873452,0.9036904,14
16.04,-10.83703,1.314016,-19.20199,0.312367129718911,-0.1637787330134666,0.0232649886953799,49.67182,21.7908,180.0,0.1715354,-0.4124497,0.8911557,14
16.06,-10.78871,1.511402,-19.10472,0.3545756965778839,-0.1483825766359778,0.01709077561443,52.99355,22.26349,179.6216,0.1742307,-0.4371806,0.8778325,14
16.08,-10.77143,1.107087,-19.04578,0.4041852905469838,-0.0772268057190798,0.0183902250910623,53.28675,20.46389,177.7406,0.1674413,-0.4380882,0.8778591,14
16.1,-10.72264,1.305283,-18.95023,0.4559552957028328,-0.1218314668419599,0.0255823923374713,56.56835,20.72075,177.1179,0.1700399,-0.4619894,0.863834,14
16.12,-10.67337,1.500625,-18.85517,0.5143400229248261,-0.1071007497668246,0.0393486890128196,59.85024,20.93038,176.4636,0.1724839,-0.4854784,0.8490596,14
16.14,-10.56716,1.108941,-18.62491,0.5866282769643942,-0.1136225381821042,0.0720655669256147,62.65273,13.02558,167.9661,0.1505031,-0.503555,0.8378501,14
16.16,-10.51495,1.297384,-18.53283,0.6581987751049976,-0.1443662424782915,0.1056025462660075,65.79478,11.97518,165.9515,0.1529859,-0.5254081,0.8218681,14
16.18,-10.46254,1.483072,-18.44176,0.7212406504518691,-0.1177978299831292,0.1253906669969775,68.91551,10.47071,163.4949,0.1553322,-0.5468042,0.805191,14
16.2,-10.41003,1.666054,-18.35186,0.7838439833722513,-0.0649309316713671,0.1441411722588028,72.00359,8.28586,160.3682,0.1575401,-0.5677278,0.7878329,14
16.22,-10.34376,1.161414,-18.21106,0.8435100496362038,-0.0839428334040877,0.1628358386985973,55.80818,12.78579,168.8505,0.1431143,-0.453324,0.8690213,14
16.24,-10.28839,1.340939,-18.11929,0.9033086194132272,-0.0515352255102307,0.179574329223815,58.90218,12.15797,167.2014,0.1461331,-0.4755915,0.8546808,14
16.26,-10.19266,1.211451,-17.97142,0.9546498679013028,0.0015825446619899,0.1838644327058778,43.13707,20.8714,174.0383,0.1870215,-0.3522843,0.9098954,14
16.28,-10.13423,1.226871,-17.89684,1.008617696237508,-0.0144739289179778,0.187190877000797,38.05548,22.71822,174.7585,0.2006169,-0.3107916,0.9229376,14
16.3,-10.06833,1.396615,-17.79372,1.0557949206704076,-0.0071176378919607,0.1824751352952511,41.60773,23.13224,174.2199,0.2047319,-0.3380655,0.9110646,14
16.32,-9.978383,1.257152,-17.6887,1.100259853742798,-0.0006950709922075,0.1766042977831603,20.07642,28.74746,176.6298,0.249305,-0.1615874,0.9521833,14
16.34,-9.909387,1.425264,-17.58768,1.1432467595150306,0.0494174657040661,0.1724224038656012,23.60243,29.45541,176.4964,0.2547825,-0.1900976,0.9446708,14
16.36,-9.869646,1.26794,-17.53788,1.176560418008236,0.0499358186815682,0.1601226182045716,8.187561,32.47887,177.5978,0.2803139,-0.06267885,0.9570229,14
16.38,-9.797379,1.434791,-17.43712,1.204708154683659,0.0496603627807527,0.1448284834227049,11.74824,33.24002,177.627,0.2864908,-0.09215498,0.9523807,14
16.4,-9.77338,1.275526,-17.39821,1.2344875317932706,0.0937968628099677,0.1333990957666133,358.4364,35.24743,178.2244,0.3024984,0.0176929,0.9529265,14
16.42,-9.699343,1.440956,-17.29768,1.256771804480955,0.0672181458006315,0.1209459264062624,2.006953,36.00264,178.3868,0.3091954,-0.01230435,0.9507332,14
16.44,-9.625732,1.291313,-17.17955,1.2787373860191116,0.0642015474246314,0.1116920929703686,352.2315,37.35143,179.0861,0.3189539,0.0667204,0.945313,14
16.46,-9.550689,1.453193,-17.07762,1.2949334898099512,0.083596463843744,0.0954731786745768,355.8208,38.07192,179.399,0.3257594,0.03617756,0.9447349,14
16.48,-9.52598,1.295991,-17.03161,1.3035582811297295,0.0998417995423615,0.075101281119301,353.4448,38.14136,179.5556,0.3259878,0.0553006,0.9436356,14
16.5,-9.451712,1.456841,-16.92993,1.2935072904224327,0.0857856383294382,0.0382813207109153,357.0049,38.86115,179.9371,0.3325372,0.02482819,0.9427278,14
16.52,-9.427008,1.26216,-16.8784,1.2765901611595347,0.0715632868824138,-0.0027844437753055,355.7213,39.09524,180.6059,0.3345384,0.03340949,0.9416279,14
16.54,-9.352979,1.42596,-16.78017,1.2690845754781703,0.1035623220229357,-0.0420514872700914,359.2551,39.82895,180.979,0.3406498,0.003201691,0.9401293,14
16.56,-9.341338,1.250147,-16.75432,1.238711081646761,0.0605969778014774,-0.0956339106180994,359.412,39.9086,181.3966,0.3412994,0.0006637019,0.9398617,14
16.58,-9.264775,1.414479,-16.65586,1.1933212807306206,-0.0067557569008915,-0.1600068239231209,3.017637,40.66495,181.7635,0.3469257,-0.0300326,0.9373969,14
16.6,-9.188989,1.575019,-16.5599,1.1625221963961383,0.000364298793997,-0.210290419958373,6.617691,41.44775,182.1797,0.352184,-0.06069324,0.9339571,14
16.62,-9.241814,1.237622,-16.59141,1.1215634885607524,-0.0183002996190139,-0.2621767810673607,6.159643,40.64052,182.6137,0.3455264,-0.05827895,0.9365937,14
16.64,-9.213782,1.226358,-16.52652,1.0840127184637527,-0.0095217789913949,-0.3136839374940481,10.30759,40.55825,183.1871,0.3427159,-0.09382833,0.9347275,14
16.66,-9.137094,1.396707,-16.42958,1.0417823590771285,-0.0015200811060151,-0.3691513665899204,13.91575,41.37779,183.5394,0.3470246,-0.1241035,0.9295017,14
16.68,-9.061011,1.563323,-16.33481,0.9843468459941356,-0.0220067946260238,-0.4316676150737211,17.51744,42.2344,183.9518,0.3509661,-0.1542406,0.9233103,14
16.7,-9.133906,1.199677,-16.39555,0.911549946772493,-0.0668465456199714,-0.5056713149868424,14.74806,41.56921,183.6928,0.347872,-0.1312703,0.9281749,14
16.72,-9.057784,1.376145,-16.30128,0.8537173193064259,-0.0579609915591404,-0.563146070743402,18.32575,42.41263,184.0442,0.3516508,-0.1609667,0.9218472,14
16.74,-8.982076,1.549011,-16.2088,0.7879713236617297,-0.0758157132106312,-0.6182620980514719,21.89693,43.29836,184.4603,0.3550639,-0.1904896,0.9145781,14
16.76,-8.906938,1.718393,-16.1183,0.7206964703054605,-0.0909762284054986,-0.6739297204961985,25.46034,44.23621,184.948,0.3581073,-0.2198066,0.9063765,14
16.78,-9.022469,1.160694,-16.19585,0.6694297099629426,-0.0507700246040782,-0.7137404976904349,21.57455,40.14368,184.1525,0.3305431,-0.1878942,0.9243867,14
16.8,-8.948443,1.347276,-16.10453,0.6170472858267441,-0.0126546621255102,-0.7540385366319768,25.11222,40.9613,184.3473,0.3335528,-0.2164611,0.9166129,14
16.82,-8.95967,1.138938,-16.08129,0.5302623928599889,-0.0863448899718281,-0.8173453384715088,26.29706,38.1139,184.0352,0.3101812,-0.2260698,0.9224594,14
16.84,-8.932813,1.132639,-16.0358,0.4707146490221986,-0.0744013220856261,-0.8521250451686355,28.02382,37.51046,184.0116,0.3037435,-0.2400452,0.920888,14
16.86,-8.861745,1.326703,-15.94633,0.3999009986679978,-0.118170037335222,-0.8927484753014974,31.50431,38.2504,184.0152,0.3061503,-0.2673816,0.9118807,14
16.88,-8.790451,1.517533,-15.85768,0.3232580727534725,-0.1884815142282013,-0.9378005513257888,34.98347,39.01992,184.0737,0.3082572,-0.2944528,0.9019985,14
16.9,-8.836093,1.121713,-15.88515,0.2684226972970169,-0.1713517545931852,-0.9569541368728296,34.69751,35.57555,183.3064,0.2832819,-0.2922264,0.9111267,14
16.92,-8.765518,1.319372,-15.798,0.2193908989144245,-0.1804084173411282,-0.965855356235211,38.1207,36.18518,183.0937,0.2850411,-0.3182276,0.9008521,14
16.94,-8.694595,1.513909,-15.71148,0.1793661215080612,-0.1565254559439032,-0.9681464836917744,41.54457,36.80828,182.9187,0.286529,-0.3439243,0.8897393,14
16.96,-8.690079,1.114929,-15.68969,0.135425176271315,-0.188826052508414,-0.9733917620745628,43.27738,35.37827,181.7916,0.2769123,-0.3556901,0.8872224,14
16.98,-8.659241,1.114403,-15.64736,0.103703435079495,-0.1604682860064643,-0.9638555277544044,44.66724,35.35738,181.1767,0.2771665,-0.3649186,0.8824425,14
17.0,-8.59018,1.314719,-15.56285,0.0689715584080815,-0.1888300095289034,-0.9564932172800844,48.00677,35.86517,180.8655,0.27834,-0.389142,0.8700635,14
17.02,-8.522404,1.109923,-15.46704,0.0527331096060242,-0.1858406892090922,-0.9249259203448048,50.6544,34.22783,178.7738,0.2703465,-0.4059757,0.8624608,14
17.04,-8.453007,1.309171,-15.38463,0.0431075913431701,-0.1511403283677512,-0.8905605763289597,53.95055,34.53909,178.2429,0.2711794,-0.4290493,0.8488611,14
17.06,-8.383227,1.505538,-15.30277,0.0384139499059182,-0.1170236483102546,-0.8530449798235891,57.24717,34.82015,177.6981,0.2717699,-0.451739,0.8345244,14
17.08,-8.313182,1.699038,-15.22156,0.0401323794587372,-0.167986704353153,-0.8066501170363491,60.54425,35.06499,177.1316,0.2721185,-0.4740276,0.8194629,14
17.1,-8.233302,1.104324,-15.10858,0.0509075338730828,-0.1313086072458973,-0.7522953948708249,61.21841,29.24651,171.303,0.2540153,-0.4747923,0.8206366,14
17.12,-8.162199,1.295277,-15.03007,0.066102417410544,-0.0958625227745137,-0.6955248597362196,64.41841,28.63532,169.7975,0.2543328,-0.4958062,0.8048598,14
17.14,-8.03138,1.12866,-14.86258,0.0929462373150884,-0.1362929296073166,-0.6213666940624476,60.96986,23.33639,166.7911,0.2302718,-0.4734858,0.8265536,14
17.16,-7.963395,1.144,-14.78115,0.1126239960104203,-0.1156599600282333,-0.5663054757761592,58.41837,24.16506,167.9167,0.2319139,-0.4553088,0.8380162,14
17.18,-7.891654,1.325774,-14.70306,0.1349235374151548,-0.0949016888555998,-0.5105692730867808,61.50001,23.30065,166.0798,0.2329493,-0.4760393,0.822987,14
17.2,-7.82021,1.504789,-14.62627,0.1563244514357259,-0.1223932558878019,-0.4557890249306271,64.56384,22.11058,163.9311,0.2337881,-0.4963706,0.8072827,14
17.22,-7.755683,1.195257,-14.54479,0.1810060418106329,-0.1531672877170269,-0.3997004497681526,48.33844,30.78096,173.2348,0.265001,-0.3797763,0.8716796,14
17.24,-7.681428,1.37149,-14.46649,0.2075185924374729,-0.1306781934906432,-0.3478149539655901,51.48371,30.85992,172.3918,0.2669049,-0.4018402,0.8587139,14
17.26,-7.607668,1.544871,-14.38976,0.2312612276947092,-0.1319535524086027,-0.2995513463369865,54.62847,30.86442,171.4925,0.2685868,-0.4235708,0.845053,14
17.28,-7.491604,1.250009,-14.30545,0.2518702768634696,-0.0894821575535249,-0.2593964787657139,26.25606,38.49191,176.0561,0.3281979,-0.2032613,0.9163175,14
17.3,-7.450415,1.257679,-14.26659,0.274176385943818,-0.0258100076714874,-0.2174736882570944,20.02754,40.13885,176.6351,0.3425804,-0.1533342,0.922818,14
17.32,-7.36463,1.426471,-14.18253,0.280862993639409,-0.0341627461435065,-0.1869942279752632,23.48944,40.81175,176.5045,0.3470283,-0.1802777,0.9150328,14
17.34,-7.279728,1.591726,-14.10052,0.2850722028812829,0.00189174382862,-0.1586416839830269,26.95296,41.4945,176.4156,0.3511395,-0.2070532,0.9063767,14
17.36,-7.213691,1.275799,-14.03756,0.2892002261633165,0.035481089970545,-0.1326321798344465,358.4006,46.29929,178.2292,0.3928505,0.01890612,0.9193668,14
17.38,-7.122854,1.441562,-13.95352,0.2823879452207712,0.045726788840832,-0.101241587034456,1.940884,47.01898,178.3931,0.3990224,-0.009936387,0.9166777,14
17.4,-7.033117,1.603591,-13.8717,0.2666314868222154,0.0322070869277515,-0.0776330708430304,5.47783,47.751,178.6021,0.4047912,-0.03876091,0.9130787,14
17.42,-6.950476,1.29382,-13.77191,0.2574741208286012,0.0648658780210251,-0.0464291486233006,352.8132,48.49272,179.293,0.4094932,0.05967451,0.910137,14
17.44,-6.88887,1.296047,-13.70677,0.2358655460362215,0.0459500335239531,-0.0221067914875443,353.4394,48.82075,179.5506,0.4123847,0.05372306,0.9092028,14
17.46,-6.797344,1.456969,-13.62063,0.2132496291618221,0.0721731812242186,-0.0023844468944418,356.9953,49.50582,179.9255,0.4185463,0.02408118,0.9078168,14
17.48,-6.707108,1.614051,-13.53697,0.1767862009514961,0.0483526524551797,0.0025767239799172,0.5453473,50.21248,180.3422,0.4242785,-0.005576412,0.9055145,14
17.5,-6.758383,1.262185,-13.56432,0.1467323128385146,0.0709312952709175,0.0132046331443096,355.7194,49.70048,180.6022,0.4201271,0.03168113,0.9066815,14
17.52,-6.667769,1.426013,-13.48132,0.0991412748940471,0.0445259493394085,0.007203560164344,359.2521,50.39854,180.9697,0.4257935,0.002302631,0.9047574,14
17.54,-6.57836,1.586165,-13.40061,0.0588293420445479,0.0703854761830116,0.0059645673330199,2.778974,51.11929,181.3804,0.4310289,-0.02706972,0.9019321,14
17.56,-6.603889,1.240602,-13.38655,-0.0031346607806409,0.0465311841861368,-0.0085924763210931,3.968004,50.39477,182.0889,0.4248412,-0.03907654,0.9044226,14
17.58,-6.577216,1.2379,-13.35195,-0.0554065210334979,0.0735438658083816,-0.0161652541585641,6.122035,50.40453,182.6075,0.4239982,-0.05797867,0.903803,14
17.6,-6.485092,1.405152,-13.26866,-0.1314914659357623,0.0498016476116916,-0.0416553397176915,9.731494,51.16754,182.982,0.4281377,-0.08767483,0.8993533,14
17.62,-6.497511,1.217626,-13.24051,-0.2083657892618893,0.0274620546860931,-0.0704468613598592,11.85003,50.33743,183.3809,0.4200731,-0.1058645,0.9011278,14
17.64,-6.407117,1.390194,-13.15854,-0.2893111786609182,0.0237911863142762,-0.0946241485917389,15.42671,51.13078,183.7346,0.423464,-0.1349466,0.8953438,14
17.66,-6.317598,1.559118,-13.07843,-0.372710238783965,0.0226525797351705,-0.1236884525092927,18.99717,51.96217,184.1473,0.4264176,-0.1638827,0.8886492,14
17.68,-6.407443,1.191026,-13.1218,-0.4556909048402957,0.0243129933207913,-0.1546034960410731,16.05922,50.62858,183.7958,0.4189772,-0.1402247,0.8966005,14
17.7,-6.403614,1.183352,-13.10413,-0.5386881051028837,0.0259558842803596,-0.1878009677014596,17.36826,49.88967,183.9236,0.4119796,-0.1510941,0.8979742,14
17.72,-6.315677,1.364096,-13.02437,-0.626190045274065,0.0226563292534688,-0.2218252024493137,20.90416,50.69023,184.2086,0.4146626,-0.1792983,0.8910022,14
17.74,-6.350347,1.160832,-13.01511,-0.7118474936002862,0.022328098315013,-0.2552094910209537,21.55714,47.60664,184.1244,0.3900639,-0.185262,0.9009284,14
17.76,-6.264923,1.347541,-12.93506,-0.7959331341746441,0.0219818146860797,-0.2882149814329544,25.0834,48.37694,184.2876,0.3922726,-0.2129079,0.8931411,14
17.78,-6.179739,1.530869,-12.85619,-0.9040368606809468,-0.0652066695249933,-0.3420735391334,28.60622,49.1823,184.5098,0.39409,-0.2403359,0.884477,14
17.8,-6.094955,1.710886,-12.77864,-0.9899800893841786,-0.0711417450713828,-0.3786139828693891,32.12447,50.03243,184.7983,0.3955147,-0.2675163,0.8749467,14
17.82,-6.242542,1.132755,-12.85984,-1.072769714891566,-0.0740741391960038,-0.4118752123618556,28.01651,44.36856,183.9699,0.3583742,-0.2366977,0.9010632,14
17.84,-6.160645,1.32694,-12.7805,-1.1504129089654191,-0.0755703172832598,-0.4390047292827226,31.49215,45.05025,183.9273,0.3599068,-0.2631586,0.8920884,14
17.86,-6.171156,1.1218,-12.75448,-1.2178283083009058,-0.0446468197935902,-0.4542706271460877,34.69294,41.47501,183.2724,0.3298836,-0.2883698,0.895329,14
17.88,-6.145953,1.118776,-12.72038,-1.287646247576285,-0.0698118031394403,-0.4766211843605725,37.34791,40.75288,183.0128,0.3218523,-0.3087148,0.8906993,14
17.9,-6.066881,1.317392,-12.6424,-1.353649259270952,-0.0936081617587407,-0.4932080122895381,40.73943,41.24916,182.6884,0.3224832,-0.3334246,0.8800173,14
17.92,-6.02712,1.115002,-12.59097,-1.401278974269874,-0.0882926362598743,-0.4909504029477951,43.25532,40.64745,181.7599,0.3175258,-0.3505458,0.87359,14
17.94,-5.949345,1.315122,-12.51357,-1.444297722032717,-0.0808281891298375,-0.4825769785122673,46.61307,41.09593,181.405,0.3177846,-0.3744027,0.8616095,14
17.96,-5.928846,1.113693,-12.47952,-1.4854411548797335,-0.1313920943210429,-0.4746600672037862,46.34726,40.28663,180.398,0.3152996,-0.3705463,0.8635515,14
17.98,-5.852003,1.314026,-12.40283,-1.5120655688059972,-0.0938850589515999,-0.45171713990135,49.6696,40.68704,179.9979,0.3155057,-0.3938,0.8509135,14
18.0,-5.829026,1.109971,-12.36713,-1.5276767988896085,-0.026716797208234,-0.4168052454852136,50.64101,39.20116,178.7534,0.3075983,-0.3995763,0.8499393,14
18.02,-5.714441,1.103748,-12.23972,-1.5332141107304502,-0.0462094034648616,-0.3685701478178202,56.46431,37.2803,176.231,0.296188,-0.4387289,0.8293996,14
18.04,-5.638307,1.299711,-12.16542,-1.53317890424008,-0.0061062231296948,-0.3178851684403989,59.71984,37.24335,175.3682,0.2957664,-0.4602402,0.8147476,14
18.06,-5.562011,1.492873,-12.09179,-1.5279730755190115,0.0327534793454078,-0.2633666057331838,62.97339,37.09402,174.4063,0.2950875,-0.4813485,0.7994022,14
18.08,-5.47344,1.109057,-11.97618,-1.5148776876535646,-0.0093428384245771,-0.2006909120358975,62.64215,29.36906,167.9036,0.268332,-0.4772372,0.8078796,14
18.1,-5.397164,1.297619,-11.90336,-1.4970088204698797,-0.0544582295182271,-0.134987810229441,65.76772,28.1803,165.8136,0.2679036,-0.4973273,0.7919519,14
18.12,-5.321039,1.483443,-11.8315,-1.469277272443583,-0.0327291172009411,-0.0595374039381162,68.86885,26.51152,163.2548,0.2672469,-0.5169929,0.7753629,14
18.14,-5.192166,1.161491,-11.65263,-1.4376811267067986,-0.0115191896690685,0.0177745083496121,55.80296,26.89739,168.77,0.2490831,-0.4328263,0.8447469,14
18.16,-5.131705,1.177959,-11.58034,-1.4093718409238567,0.0140598915400253,0.081992653636449,52.12067,29.68688,171.2332,0.2619169,-0.4058259,0.8572125,14
18.18,-5.055696,1.355935,-11.50484,-1.3772360506172538,0.0643209383757202,0.1470796500002529,55.23491,29.39036,170.0081,0.2629686,-0.4271243,0.8435814,14
18.2,-5.003147,1.211138,-11.44021,-1.3421493906091742,0.1122568632931708,0.2128386678209437,43.20804,33.45185,173.9213,0.2858962,-0.3379294,0.8835445,14
18.22,-4.92112,1.384403,-11.35976,-1.303725807873972,0.0883009714732633,0.2686507141026573,46.54285,33.59622,173.1489,0.2876135,-0.3616897,0.8710506,14
18.24,-4.833164,1.250109,-11.26233,-1.260760071951441,0.1335166871339228,0.3255347889178945,26.27295,37.6629,175.9593,0.3217266,-0.2038904,0.9185452,14
18.26,-4.786561,1.257745,-11.20666,-1.2150965493456218,0.1757709155264935,0.383166157423086,20.05332,39.00223,176.5371,0.3335354,-0.1541114,0.9260582,14
18.28,-4.700127,1.426587,-11.12255,-1.1680006192500536,0.1454695227087431,0.4331218730117683,23.52412,39.60361,176.3051,0.3376651,-0.1810025,0.9184093,14
18.3,-4.614611,1.591864,-11.04045,-1.12850236228558,0.1583955895587187,0.475067911733277,26.99716,40.20602,176.1073,0.3414664,-0.2077228,0.9098834,14
18.32,-4.641545,1.272048,-11.02024,-1.081929709189322,0.1945353738112727,0.5234376097824645,2.43644,42.33361,177.9275,0.3613022,-0.01329388,0.9320311,14
18.34,-4.554185,1.438708,-10.93277,-1.0333063773244435,0.1837396101115444,0.572298393547853,5.981794,43.02229,177.971,0.3669848,-0.04205205,0.9285947,14
18.36,-4.467829,1.601638,-10.84748,-0.9848461546031552,0.1703724366152121,0.6205969132913184,9.525346,43.71884,178.0581,0.3722975,-0.07076032,0.9242391,14
18.38,-4.486423,1.291566,-10.75867,-0.9343839798876894,0.2232177276263232,0.6703439560424121,352.2239,43.34821,179.0169,0.3679226,0.06617182,0.9273416,14
18.4,-4.46161,1.29389,-10.70863,-0.8942944808178532,0.2026919531471044,0.7022925356804763,352.8018,43.04698,179.3039,0.3657975,0.06062056,0.9285553,14
18.42,-4.378591,1.455448,-10.61437,-0.8562289055852943,0.1800428920388248,0.7331223925382269,356.3627,43.69809,179.6388,0.3718804,0.03062849,0.9277327,14
18.44,-4.377222,1.269989,-10.5572,-0.8198412508860775,0.22268699879673,0.759309602178661,354.0849,42.60719,180.01,0.36283,0.04803905,0.9304259,14
18.46,-4.297186,1.433308,-10.46373,-0.7901456220713446,0.2129372385551427,0.7706887700211972,357.6111,43.26324,180.3596,0.3686166,0.01822099,0.9293426,14
18.48,-4.303516,1.254558,-10.45452,-0.7688474201780635,0.1792264167590862,0.7711519953557013,357.4242,42.97279,181.1402,0.3663777,0.01727006,0.9301417,14
18.5,-4.222116,1.418643,-10.36137,-0.7506328041419342,0.1446793344951757,0.7696154295631815,0.9989525,43.64823,181.4729,0.3716098,-0.01287003,0.9282593,14
18.52,-4.257457,1.245777,-10.36643,-0.7221926678381936,0.1343341011426003,0.7726067322913931,1.408429,42.47477,181.5895,0.3620118,-0.01647891,0.9319896,14
18.54,-4.173758,1.411376,-10.27543,-0.6964417434596437,0.124467542099488,0.7739976318896246,4.987398,43.28214,181.8273,0.36775,-0.04631253,0.9287702,14
18.56,-4.242107,1.234037,-10.26205,-0.6846509966522412,0.0630119890341856,0.7582366217223475,8.055609,39.7488,182.6662,0.3374912,-0.07392877,0.9384192,14
18.58,-4.16078,1.407213,-10.18293,-0.6588238800742288,0.0762411483007692,0.7509389022587798,11.3129,40.76646,182.5913,0.3444241,-0.1002053,0.9333576,14
18.6,-4.248163,1.222126,-10.20445,-0.6393438240160894,0.0629774689631035,0.7307553404417081,11.32594,37.69919,183.0203,0.3189355,-0.1018252,0.9422644,14
18.62,-4.180243,1.400942,-10.12834,-0.6283211829741486,0.0239418754837099,0.7036403212584516,14.30051,38.28374,182.9434,0.3222308,-0.1259072,0.9381018,14
18.64,-4.269296,1.194466,-10.12877,-0.6048269659625052,0.0388856303103631,0.6836002326407753,15.60933,34.08283,183.3685,0.2864067,-0.1383116,0.9479972,14
18.66,-4.275813,1.186697,-10.1039,-0.5955183532337323,0.0006881818676314,0.6474527173466961,16.89473,32.5221,183.4798,0.2725668,-0.1493688,0.9503923,14
18.68,-4.215047,1.372428,-10.02583,-0.5889309157349911,-0.0361896455210483,0.6109664931960036,19.8359,32.83666,183.2491,0.2736287,-0.1730413,0.9458889,14
18.7,-4.155552,1.556099,-9.950166,-0.5588445257710445,0.0052423953700776,0.5920951334157988,22.72629,33.08694,183.018,0.2740908,-0.1961565,0.9409651,14
18.72,-4.283551,1.163661,-10.02654,-0.5371895598461286,-0.0079756580743305,0.557053491187596,21.0295,27.45099,183.6357,0.2275451,-0.1845886,0.9560239,14
18.74,-4.226673,1.354143,-9.944153,-0.5229610726913116,-0.0475461736924273,0.5171671036053667,24.03123,27.65776,183.261,0.2279397,-0.2087142,0.9507712,14
18.76,-4.169878,1.542144,-9.862405,-0.4920339511956161,-0.0280866272809039,0.489163837202178,27.03627,27.84664,182.8873,0.2281666,-0.2327073,0.9448461,14
18.78,-4.292434,1.134348,-9.929981,-0.4619468541649602,-0.0084374745872204,0.4625849419054504,27.54293,20.3063,183.5543,0.1638633,-0.2395189,0.9568848,14
18.8,-4.299157,1.130194,-9.911967,-0.4468885056973418,-0.0744059571293661,0.4188665952849423,29.53877,18.66906,183.3131,0.1495019,-0.2559822,0.9549522,14
18.82,-4.252384,1.327976,-9.825319,-0.4330771164487684,-0.1397046915716301,0.3772017154331473,32.51981,18.71623,182.7278,0.1494808,-0.2799059,0.9480405,14
18.84,-4.280283,1.119134,-9.787457,-0.3862162860767569,-0.094367180179141,0.3610026406427338,37.20462,15.553,182.8787,0.1202603,-0.3191854,0.9398275,14
18.86,-4.239888,1.318364,-9.689324,-0.3458505321969787,-0.1348744196238172,0.3372349126991668,40.46141,15.59058,182.3834,0.1201137,-0.3451783,0.9304115,14
18.88,-4.243495,1.115696,-9.677461,-0.2958482068359501,-0.1431914685760006,0.3174183180756741,41.78023,15.74404,182.3181,0.120787,-0.3557327,0.9262607,14
18.9,-4.204348,1.315779,-9.576974,-0.2371453319796533,-0.1194489470080246,0.3073687857951765,45.10445,15.78713,181.8754,0.1205976,-0.3819163,0.9155194,14
18.92,-4.185107,1.113732,-9.503217,-0.1778109685890091,-0.095979262803738,0.3005524146092195,46.33677,15.50965,180.3816,0.1227533,-0.3902475,0.9111166,14
18.94,-4.147144,1.314168,-9.402769,-0.1121954698032723,-0.1012354074644633,0.3022635920376429,49.65149,15.52071,179.9298,0.1228065,-0.4159395,0.899242,14
18.96,-4.127118,1.109969,-9.345751,-0.0463987526386963,-0.1050189808817714,0.3065811459517855,50.63078,15.31578,178.7628,0.125029,-0.4224619,0.8952384,14
18.98,-4.088091,1.309333,-9.246831,0.0277111261104535,-0.0509357049071134,0.3197000563579396,53.91508,15.19823,178.1767,0.1250066,-0.4474165,0.8824491,14
19.0,-4.048844,1.505894,-9.14816,0.1017097634670454,0.000468930702079,0.3352839180850514,57.19731,15.00774,177.5266,0.124876,-0.4719866,0.8689233,14
19.02,-3.976977,1.104249,-8.994394,0.1868602024686799,-0.0033788409968499,0.3672813105141785,61.20035,11.74117,171.3961,0.1257744,-0.4983437,0.8499086,14
19.04,-3.935282,1.295251,-8.898931,0.265642743001426,0.0239870322266806,0.3933187608040056,64.38565,10.79244,169.9418,0.1257746,-0.5213908,0.8348741,14
19.06,-3.893569,1.483581,-8.804153,0.342999262691083,0.0503103540505827,0.420601367305663,67.55659,9.506623,168.1572,0.1256704,-0.5440065,0.8191639,14
19.08,-3.830941,1.128477,-8.676504,0.425242818171696,0.0009195535770454,0.4643066596224279,60.99008,6.674575,166.874,0.1077351,-0.4975502,0.8511983,14
19.1,-3.787488,1.3124,-8.58104,0.5006378726971357,0.0112937249176535,0.499153200016031,64.0783,5.130837,164.7471,0.1079409,-0.5202437,0.8361941,14
19.12,-3.696135,1.17765,-8.401559,0.5789690784904671,0.0011130045612075,0.5429758465582311,52.15922,11.30111,171.3077,0.1213353,-0.4295235,0.8879694,14
19.14,-3.651545,1.355385,-8.30467,0.653783494769325,-0.0113341142511885,0.587390907910156,55.2999,10.70152,170.1384,0.1220115,-0.4532364,0.8749561,14
19.16,-3.592559,1.210738,-8.216564,0.716573495871089,0.0465524543599856,0.6159038881059326,43.25613,16.10217,174.0462,0.1489726,-0.3576932,0.9165108,14
19.18,-3.543695,1.383727,-8.113424,0.7766670278684892,0.0582738829277432,0.6378734011337474,46.61283,15.97867,173.3864,0.1500357,-0.3837927,0.9048018,14
19.2,-3.495244,1.553526,-8.012005,0.8321858549653562,0.0689486376390786,0.6596372106957401,49.96731,15.78648,172.6705,0.150964,-0.4095462,0.8922973,14
19.22,-3.442349,1.249524,-7.984207,0.8797778587116988,0.0783788506775172,0.6709069284156417,26.34226,21.75935,176.0424,0.1913989,-0.2172853,0.9541374,14
19.24,-3.385964,1.417617,-7.875132,0.9218985443667812,0.0645204567855854,0.6825809963649709,29.91624,21.96603,175.756,0.1933183,-0.2463962,0.9459481,14
19.26,-3.330198,1.58201,-7.768149,0.9566594684317696,0.0942290846443734,0.690509203691685,33.49152,22.15849,175.4726,0.195042,-0.2752664,0.9368253,14
19.28,-3.281224,1.27166,-7.719194,0.989435939311291,0.1454389135655872,0.7001549989108209,2.469875,28.58676,177.9795,0.2471596,-0.0165297,0.9685749,14
19.3,-3.248967,1.275406,-7.66495,1.0070860645750936,0.1249409155933182,0.6982461824152281,358.4747,29.62498,178.2219,0.2554034,0.01683318,0.9666186,14
19.32,-3.188441,1.440774,-7.556404,1.011117604222488,0.0799833874018919,0.6871874685484032,2.0569,29.96601,178.3574,0.2587129,-0.01363174,0.9656814,14
19.34,-3.115067,1.291258,-7.440969,1.0232991022409252,0.0816454700007843,0.685483133209091,352.242,31.81205,179.0761,0.2728991,0.0672617,0.9596277,14
19.36,-3.053699,1.453166,-7.331121,1.0264175668857876,0.0817304736753392,0.6817237941112513,355.8371,32.12282,179.3548,0.276284,0.03645818,0.9603731,14
19.38,-2.993204,1.611212,-7.223726,1.0198040731349185,0.0774258376720457,0.6754581811992937,359.4296,32.44991,179.6523,0.2793902,0.005627079,0.9601601,14
19.4,-2.9913,1.282943,-7.227946,1.0060803190433432,0.0650183322441748,0.6455632144895841,353.7685,32.92366,179.7868,0.2828602,0.05265152,0.9576183,14
19.42,-2.930835,1.444966,-7.119795,0.9859028963781652,0.0519829439537769,0.6078030564349326,357.3186,33.23553,180.132,0.2859329,0.02209119,0.9579635,14
19.44,-2.871231,1.603244,-7.014058,0.9573469524428174,0.0387552859509698,0.5670879214719655,0.8656119,33.56813,180.496,0.2887233,-0.008481927,0.9573731,14
19.46,-2.865657,1.250447,-7.012613,0.9242939330546333,0.0261808618038134,0.5194187582677946,359.3721,33.96465,181.3936,0.2921145,0.00168842,0.9562905,14
19.48,-2.84116,1.24579,-6.965388,0.8832444453245856,0.0137354062645408,0.4690030284880612,1.394814,34.20304,181.6234,0.2938496,-0.015798,0.9556694,14
19.5,-2.778135,1.410465,-6.857625,0.8463825871913042,0.0493442192303609,0.4276848396446057,5.036185,34.56034,181.9785,0.2959891,-0.04706909,0.954025,14
19.52,-2.766515,1.232101,-6.817869,0.7842020322882932,0.0104500657373416,0.36062164092038,8.224705,34.50835,182.8908,0.2940259,-0.07592615,0.9527731,14
19.54,-2.702946,1.400759,-6.711778,0.72492550392157,-0.0049560482606969,0.2985887730704684,11.85499,34.90266,183.2212,0.2954053,-0.1068616,0.9493672,14
19.56,-2.715755,1.21757,-6.71476,0.6575116908726373,-0.0188852394665099,0.2352570388404926,11.8603,34.78381,183.3691,0.2942796,-0.10729,0.9496735,14
19.58,-2.652482,1.390012,-6.610615,0.5920277201683065,-0.0346779993535784,0.1649293160339308,15.46032,35.19517,183.6881,0.2953014,-0.1377871,0.9453607,14
19.6,-2.680484,1.19979,-6.636675,0.5193509718424085,-0.0493026026191592,0.0956952966582447,14.73358,34.89882,183.6845,0.2933024,-0.1318175,0.9468548,14
19.62,-2.658762,1.183262,-6.57656,0.4537400230519199,-0.0657791223156756,0.0304983434963325,17.37913,34.23953,183.9399,0.2858558,-0.1543042,0.9456921,14
19.64,-2.597599,1.363898,-6.475212,0.3778823749684264,-0.1079472349864521,-0.0402165390713369,20.9329,34.66589,184.2182,0.2863865,-0.1840749,0.9400626,14
19.66,-2.617647,1.168296,-6.481016,0.3207350481312226,-0.0920854424965234,-0.0970568067645946,20.1209,32.84448,184.0995,0.2721956,-0.1774098,0.9456179,14
19.68,-2.557811,1.352944,-6.380677,0.2707646394941192,-0.0482772663619469,-0.1435484728358387,23.65591,33.25222,184.2963,0.2724912,-0.2067634,0.939387,14
19.7,-2.498251,1.534229,-6.281445,0.2011589583720279,-0.0883214274028378,-0.2099640653659826,27.18844,33.68535,184.5271,0.2725226,-0.2359093,0.9322546,14
19.72,-2.571752,1.145579,-6.361306,0.1293827747485194,-0.1275590686426909,-0.2725102456550626,24.57128,30.35707,184.0642,0.2483886,-0.2143049,0.9443952,14
19.74,-2.557797,1.132845,-6.307139,0.0744013944031614,-0.1393063268636593,-0.3184219897992347,28.00073,28.16834,183.9489,0.2278932,-0.2426514,0.9425961,14
19.76,-2.50161,1.327161,-6.209398,0.0187871581594287,-0.1487556495514976,-0.3602008831083357,31.46795,28.45626,183.8581,0.2275919,-0.2706676,0.9347201,14
19.78,-2.445395,1.518332,-6.112219,-0.0456106610371183,-0.2154508762986156,-0.4090738198880332,34.93454,28.74879,183.7848,0.2270785,-0.2984257,0.9259831,14
19.8,-2.485766,1.121835,-6.145035,-0.0839616951553897,-0.1931586161474136,-0.4313903437448893,34.67753,25.66264,183.2661,0.203623,-0.296502,0.9322306,14
19.82,-2.430803,1.319672,-6.048796,-0.1144779087699059,-0.1972978920110371,-0.4425072009760314,38.09391,25.82384,182.9783,0.2028814,-0.323473,0.9229346,14
19.84,-2.375708,1.514464,-5.952924,-0.1428452653685066,-0.1994546417522593,-0.4487550585716273,41.50994,25.97008,182.6888,0.2019553,-0.350145,0.9128102,14
19.86,-2.36717,1.115005,-5.927846,-0.1580472601482377,-0.142488930760829,-0.443099456603678,43.2648,25.08691,181.7619,0.1963271,-0.3629126,0.9085049,14
19.88,-2.341643,1.114453,-5.879775,-0.1698682345500804,-0.0878624321315236,-0.4344534489989316,44.6559,25.05902,181.1589,0.1969162,-0.3728703,0.9037821,14
19.9,-2.28856,1.314883,-5.785785,-0.1796581115018052,-0.0904756991121338,-0.4207825579235446,47.99234,25.12144,180.7882,0.1959435,-0.3982995,0.8922948,14
19.92,-2.235275,1.512421,-5.692015,-0.1854600901919723,-0.0912722297646287,-0.4038835739646287,51.32803,25.1535,180.397,0.1948005,-0.4233786,0.8800433,14
19.94,-2.180284,1.107142,-5.586879,-0.1784808399482774,-0.0908495542303693,-0.3687103609551622,53.28285,23.16207,177.7171,0.1881547,-0.4356151,0.8736666,14
19.96,-2.126966,1.305449,-5.494976,-0.1676424021904605,-0.1164586356981978,-0.3305093583306383,56.56704,22.9185,177.017,0.1869806,-0.4596785,0.8603173,14
19.98,-2.073513,1.500963,-5.403397,-0.1505747693783573,-0.0824743649981407,-0.2844589620288828,59.84787,22.57099,176.221,0.185647,-0.4833459,0.8462495,14
20.0,-2.020008,1.693699,-5.312279,-0.130064074480773,-0.0496705572044509,-0.2368683925493397,63.12471,22.08401,175.2927,0.1841559,-0.5066006,0.8314744,14
20.02,-1.940657,1.108985,-5.16431,-0.0988300697570663,-0.0956567899225284,-0.1744454753290094,62.63697,14.71713,167.9274,0.1630202,-0.5011493,0.8355568,14
20.04,-1.886475,1.297596,-5.074776,-0.0695020407914099,-0.0557411727183168,-0.1200366767392873,65.76457,13.11202,165.7808,0.1619012,-0.5233502,0.8202095,14
20.06,-1.832448,1.483517,-4.986039,-0.0379747067216322,-0.0172702177987232,-0.0658155201005087,68.85889,10.96072,163.0945,0.1606475,-0.5451138,0.8041968,14
20.08,-1.730236,1.161389,-4.789369,-0.0034488975736222,-0.0521246034371749,-0.0083349464863297,55.81736,12.92284,168.7707,0.1444721,-0.4531296,0.8687155,14
20.1,-1.691733,1.177857,-4.719297,0.0301135024916225,-0.0090739265533795,0.0438467048369852,52.13986,15.78129,171.2307,0.1562346,-0.4246052,0.8825371,14
20.12,-1.593866,1.210984,-4.5659,0.0652205314766387,0.0322113869865419,0.0948036053899624,43.24368,19.9853,173.9315,0.1802948,-0.3538417,0.9108658,14
20.14,-1.535758,1.384254,-4.467875,0.1013170626808673,0.0502768720901639,0.1370838180599923,46.58006,19.75542,173.1435,0.1805786,-0.3794051,0.8992242,14
20.16,-1.478228,1.554343,-4.371499,0.1357100116930648,0.044750502862721,0.1728827136462777,49.9128,19.43871,172.2818,0.1807017,-0.4046281,0.8867958,14
20.18,-1.420403,1.249678,-4.314001,0.1694222357789725,0.0851586652380678,0.2084084168105328,26.29891,25.27823,176.0113,0.2206683,-0.2144296,0.9478751,14
20.2,-1.356623,1.417849,-4.209126,0.2035312307607026,0.1231839569448529,0.2408267013259976,29.86928,25.45107,175.6866,0.2221494,-0.2431988,0.9396827,14
20.22,-1.337379,1.263203,-4.186369,0.2297536581901875,0.0878068383363616,0.2584292369050734,14.0269,28.407,177.168,0.2463814,-0.1123156,0.9611427,14
20.24,-1.269531,1.271755,-4.073171,0.2562780866501598,0.1201468326441876,0.2846704496157077,2.478369,31.04627,177.9452,0.2678955,-0.01603625,0.9630386,14
20.26,-1.204002,1.438127,-3.968291,0.2807519501644315,0.1053388734359294,0.308484674027857,6.050842,31.37397,177.9845,0.2708569,-0.0460565,0.9610118,14
20.28,-1.139336,1.600758,-3.865536,0.3045341489748245,0.0885909015513647,0.3290412965176209,9.622007,31.70665,178.0448,0.2735501,-0.07602307,0.9580446,14
20.3,-1.122977,1.285105,-3.825689,0.3217196980768438,0.0932567122500803,0.346370444996989,353.3392,33.34226,178.7327,0.2857605,0.05881561,0.9564753,14
20.32,-1.09497,1.29109,-3.772221,0.3413300510892944,0.1209631859242907,0.3685879797621641,352.2574,33.52645,179.0882,0.2872357,0.06693466,0.9554448,14
20.34,-1.029622,1.295953,-3.654043,0.3530734984871393,0.0970981723526865,0.3809409482248994,353.4457,33.70651,179.5343,0.2892227,0.05588669,0.955545,14
20.36,-0.9667759,1.456817,-3.545656,0.3607014429663307,0.1182754582994431,0.388449828459283,357.0152,34.00171,179.8703,0.2922585,0.02523713,0.9559842,14
20.38,-0.9048812,1.613853,-3.43974,0.3654313349126865,0.1371643999063402,0.3910402385982251,0.5818478,34.31713,180.2242,0.2950033,-0.005428614,0.9554809,14
20.4,-0.9310587,1.262237,-3.476789,0.3669051793319552,0.1510906991896086,0.3882081932631812,355.7125,34.35271,180.5815,0.2952847,0.03424037,0.9546633,14
20.42,-0.9135775,1.25455,-3.449123,0.3583312658423705,0.1384199690097952,0.3741925351248263,357.4286,34.30657,181.1238,0.2950509,0.0185474,0.9551678,14
20.44,-0.8496556,1.418645,-3.343838,0.3478014910122246,0.1258795913283934,0.3566936829743223,1.011283,34.62442,181.4183,0.2974397,-0.01210756,0.9546196,14
20.46,-0.8402071,1.240441,-3.302801,0.3252306211325378,0.0612699747413786,0.3244810918125587,3.982621,34.71487,182.0597,0.2975075,-0.03851903,0.9539183,14
20.48,-0.7756562,1.406431,-3.19626,0.3015976818614467,0.0472360213174793,0.2945975233343338,7.627911,35.06889,182.3837,0.2992276,-0.06966542,0.9516354,14
20.5,-0.7119852,1.568629,-3.091917,0.2818143260147162,0.0595476613335669,0.2707964070402265,11.27024,35.44732,182.734,0.3006378,-0.100733,0.9483761,14
20.52,-0.7647864,1.226279,-3.146947,0.2494576493944478,0.0194396051253165,0.2315304969092176,10.31588,34.80019,183.1687,0.2953457,-0.09398941,0.9507559,14
20.54,-0.744266,1.208866,-3.094904,0.2228913514202649,0.031437682517294,0.1993745754281367,13.41666,34.98498,183.5403,0.294939,-0.1205813,0.9478593,14
20.56,-0.6806912,1.383326,-2.991632,0.1943088739949042,0.0430231027383564,0.1642332126827626,17.01558,35.38441,183.843,0.2956643,-0.1509451,0.9431969,14
20.58,-0.7024754,1.191075,-3.00797,0.1577869153078777,0.02677479972416,0.1198020573042194,16.05856,35.01126,183.782,0.293293,-0.1429661,0.9452106,14
20.6,-0.6397631,1.36967,-2.906291,0.1118784847149515,-0.0140870423709582,0.0626180559397589,19.63296,35.42056,184.0755,0.2937856,-0.1729686,0.9399105,14
20.62,-0.6506731,1.168286,-2.888344,0.078535874875433,0.0005532327073771,0.0235627243423409,20.13132,33.30691,184.09,0.2760164,-0.1774082,0.9444961,14
20.64,-0.6296203,1.160846,-2.84347,0.0395006088279748,-0.0107699984735361,-0.0226226369445195,21.55802,32.56903,184.1242,0.2688217,-0.189314,0.9442213,14
20.66,-0.5691636,1.34756,-2.744062,0.0004689807308324,-0.0193685937128429,-0.0685572800287728,25.09388,32.94176,184.2616,0.26882,-0.2184707,0.9377053,14
20.68,-0.5089419,1.530937,-2.645641,-0.0267266455685279,0.0275233290031299,-0.098707358775952,28.62754,33.33549,184.429,0.2685578,-0.2474064,0.9302918,14
20.7,-0.5682677,1.139122,-2.706406,-0.0695122678669168,-0.0094001727702357,-0.1487993905265475,26.27052,30.24285,183.9902,0.2462485,-0.2280934,0.9416113,14
20.72,-0.509728,1.331669,-2.609222,-0.1116654728607541,-0.0443176046333538,-0.1976354166497352,29.75277,30.54975,183.968,0.2458929,-0.2563313,0.9341218,14
20.74,-0.5131919,1.124906,-2.5814,-0.1335271027724695,0.0045336219513279,-0.2188282016486959,32.04445,27.28596,183.548,0.2182966,-0.2751121,0.9356028,14
20.76,-0.4563633,1.321901,-2.485532,-0.1565327493337082,-0.0012266003587388,-0.2428499995163821,35.4797,27.47688,183.3217,0.2175238,-0.3024098,0.9269089,14
20.78,-0.4548912,1.118805,-2.467891,-0.1814516086816724,-0.0327794580716952,-0.271605636657787,37.33676,26.13709,183.0086,0.2059607,-0.3173161,0.924432,14
20.8,-0.3982935,1.317492,-2.373549,-0.204189458287314,-0.0628774936034044,-0.2976413753518864,40.73016,26.2262,182.6483,0.2048041,-0.3437509,0.914629,14
20.82,-0.3563622,1.115028,-2.304533,-0.2179720724413724,-0.0634746051420853,-0.3130971830220445,43.24771,26.11695,181.753,0.2045279,-0.3621531,0.906751,14
20.84,-0.300507,1.315234,-2.211359,-0.2288137632261058,-0.061793849316645,-0.3246244517920559,46.60418,26.15014,181.3535,0.203209,-0.3877506,0.8956159,14
20.86,-0.2444715,1.512513,-2.118417,-0.2377299949520854,-0.118131764490232,-0.3324141309681507,49.95977,26.149,180.9299,0.2017116,-0.4130032,0.8837041,14
20.88,-0.188346,1.706876,-2.025855,-0.239475924459949,-0.1147550308145803,-0.3298410475533178,53.3143,26.10607,180.4738,0.2000374,-0.4378892,0.8710267,14
20.9,-0.1874681,1.109993,-2.008068,-0.234014972335047,-0.0795838420223699,-0.3165722985542119,50.64427,24.67594,178.7552,0.1976745,-0.4157062,0.881996,14
20.92,-0.1324601,1.309347,-1.916424,-0.217045540999003,-0.1009265651296318,-0.2833788270845758,53.94768,24.51477,178.1546,0.1963212,-0.4401393,0.869234,14
20.94,-0.03554441,1.102187,-1.744234,-0.1976405424546094,-0.122914317360024,-0.2477466830343771,59.61744,21.5428,174.1135,0.1870246,-0.4793766,0.8465071,14
20.96,0.02020484,1.104338,-1.645923,-0.176255685008277,-0.0588952638270289,-0.2117256343729842,61.18962,18.71653,171.3268,0.1775432,-0.4901678,0.8406423,14
20.98,0.07436965,1.295456,-1.556828,-0.1528654002265236,0.0021504043891375,-0.1737887080433021,64.37014,17.64171,169.7665,0.1762076,-0.5126838,0.8257048,14
21.0,0.128438,1.483898,-1.468395,-0.1247126221971546,-0.04325563781417,-0.1245599947239534,67.53345,16.19892,167.8446,0.174727,-0.534775,0.8100981,14
21.02,0.2348282,1.143879,-1.284157,-0.0975510094099582,-0.1150853592214923,-0.076928044834804,58.43576,14.73398,167.927,0.1621988,-0.4696497,0.8541837,14
21.04,0.2902175,1.325731,-1.195283,-0.0729190970433997,-0.0756581509381252,-0.036416746315758,61.51026,13.4315,166.0626,0.1613717,-0.4919164,0.8399039,14
21.06,0.3452461,1.504892,-1.107517,-0.0421595191038877,-0.0811893286989643,0.0132516404575147,64.55869,11.753,163.8301,0.1604153,-0.5137868,0.8249625,14
21.08,0.4066793,1.195135,-0.9943216,-0.0106053423075757,-0.0888857559944631,0.0639702228140277,48.36757,20.31985,173.1926,0.1845719,-0.392976,0.8920574,14
21.1,0.4633826,1.371406,-0.9035211,0.0142243114447711,-0.0260958814330474,0.0990605852822991,51.51442,19.92899,172.2755,0.1843211,-0.4165338,0.8799779,14
21.12,0.5195784,1.544866,-0.8141049,0.0428978169517977,-0.0086097043173358,0.1336718020787209,54.65564,19.42145,171.252,0.1839234,-0.4397569,0.8672094,14
21.14,0.6235583,1.249971,-0.6863417,0.0655011809580946,0.0295811069682492,0.1592087917933875,26.3071,26.73195,176.0098,0.2326765,-0.2134267,0.9449823,14
