t,pX,pY,pZ,aX,aY,aZ,reX,reY,reZ,rtX,rtY,rtZ,ID
1.34,-43.42952,1.074834,-36.77256,2.8981638549428785,-0.1259311753279137,1.6097256464720129,16.70583,356.219,167.1866,-0.01623491,-0.1479263,0.9832129,3
1.36,-43.55846,1.241699,-36.71815,2.956736316129583,-0.1126273115891705,1.6112441366991002,18.84879,356.3686,171.0975,-0.01846056,-0.165596,0.9834362,3
1.38,-43.46875,1.154613,-36.74686,3.0151099564633563,-0.1209194200975657,1.6068467832001625,14.71094,357.2784,163.6836,-0.005151577,-0.1300357,0.9818889,3
1.4,-43.45899,1.153828,-36.71482,3.070921335431035,-0.1051058968834511,1.603645059544081,16.60973,358.202,164.6764,0.003868449,-0.145203,0.9808609,3
1.42,-43.47535,1.350534,-36.70825,3.124094769564889,-0.1104169797621567,1.5909556735295336,16.94343,357.5768,165.1011,-0.001641004,-0.1487565,0.9809251,3
1.44,-43.40332,1.162627,-36.65021,3.1743162623023835,-0.0919805188687799,1.5793570961960457,17.95369,1.096341,166.0152,0.02837431,-0.1537172,0.9801784,3
1.46,-43.33082,1.172734,-36.56823,3.2210512187791744,-0.0516786801183714,1.5686014472445011,16.86357,5.646985,167.8494,0.06395322,-0.1404742,0.981677,3
1.48,-43.28606,1.178454,-36.51491,3.2582592082816904,-0.059362789134642,1.5466621705070225,15.25653,8.236643,168.8628,0.08369291,-0.1248706,0.9830005,3
1.5,-43.28408,1.369034,-36.4638,3.2870839328444177,-0.0665799403471935,1.5202802590434483,16.87726,7.499084,168.8889,0.07855982,-0.1394856,0.9814909,3
1.52,-43.12735,1.200758,-36.36362,3.319590360528844,-0.0724739596748849,1.4949261002694954,7.076192,16.70704,171.9155,0.1489469,-0.05068398,0.9844162,3
1.54,-43.10847,1.381404,-36.27768,3.3475466772913007,-0.0775852649801726,1.46818563410406,9.777987,15.96716,171.9395,0.1439737,-0.07446475,0.983433,3
1.56,-42.9897,1.218224,-36.20816,3.372449242933371,-0.0599132532901398,1.4434016291473064,2.23835,21.30109,174.1813,0.1855193,-0.009791936,0.9811356,3
1.58,-42.96094,1.39113,-36.10449,3.3873025854920504,-0.0658799271705493,1.4115043780287193,5.493376,20.56733,174.3031,0.1804394,-0.03823101,0.9811663,3
1.6,-42.82021,1.24399,-36.04049,3.3895206870851604,-0.0737300167768836,1.3734013798362747,358.9167,25.42456,176.8212,0.219705,0.01532175,0.9751262,3
1.62,-42.64087,1.272701,-35.91234,3.388157827783824,-0.0844186420071965,1.332825913380411,354.7085,29.65254,179.988,0.2556116,0.04465054,0.965677,3
1.64,-42.59197,1.272363,-35.90081,3.383860836976776,-0.0715819175294956,1.2943271523106938,353.8136,31.18003,180.0099,0.2683649,0.05195157,0.961805,3
1.66,-42.5495,1.43908,-35.79777,3.3669812740918923,-0.0846583157746889,1.248042245978798,357.0703,30.42045,180.2686,0.2623328,0.02405355,0.964636,3
1.68,-42.46258,1.255137,-35.82651,3.340195399901938,-0.0978293749422855,1.19800051593488,357.3849,34.18508,181.1648,0.2940459,0.01882296,0.955465,3
1.7,-42.41037,1.420351,-35.72013,3.3116223287170365,-0.0870922283835413,1.1506820250909309,0.8801959,33.44367,181.4184,0.2876039,-0.01091692,0.9576388,3
1.72,-42.31609,1.240658,-35.77959,3.266176374641315,-0.1023759729773034,1.0932406967204953,3.998761,39.11257,182.1306,0.33386,-0.0390898,0.9417938,3
1.74,-42.25431,1.407199,-35.67527,3.2196198554828355,-0.0929562525929305,1.0386368442735687,7.59844,38.40799,182.4424,0.3268015,-0.06955393,0.9425288,3
1.76,-42.20344,1.232171,-35.71023,3.1569331956118125,-0.1101613971222327,0.9763565023044488,8.226766,41.53615,182.985,0.3518057,-0.07625852,0.9329609,3
1.78,-42.16233,1.226392,-35.69643,3.093775235041334,-0.1019418309337465,0.9172307950450254,10.29508,42.76329,183.2932,0.3605576,-0.09394496,0.9279742,3
1.8,-42.09576,1.397213,-35.59761,3.012006470786246,-0.1210944267758564,0.8488363984951253,13.85514,42.10447,183.652,0.3528287,-0.1238693,0.9273502,3
1.82,-42.07032,1.199574,-35.68435,2.9178799976020704,-0.1402506902320145,0.7757717967750297,14.69163,46.13793,183.8464,0.3844562,-0.1306093,0.9136503,3
1.84,-42.00063,1.376562,-35.59217,2.824823604298545,-0.1327844892715412,0.7065061763238223,18.18789,45.52164,184.2566,0.3763461,-0.1598325,0.9121802,3
1.86,-41.98057,1.182873,-35.63054,2.7177734723864244,-0.1540108974634752,0.6308773273166928,17.34063,47.36261,184.147,0.3918041,-0.1523306,0.9069262,3
1.88,-41.94908,1.175384,-35.61955,2.6020924162739663,-0.1747031756575996,0.5530604551097396,18.66585,47.84475,184.3081,0.3942763,-0.1631745,0.90383,3
1.9,-41.87722,1.35816,-35.53239,2.4887044872468573,-0.167286805294121,0.4795495960284235,22.12945,47.25639,184.7149,0.385784,-0.1918598,0.9015382,3
1.92,-41.88409,1.160204,-35.58915,2.3586320491064106,-0.1883837400875451,0.3991357191181501,21.50828,48.05917,184.398,0.3932227,-0.1856486,0.8995492,3
1.94,-41.83366,1.144698,-35.57148,2.225438122632056,-0.2094219924564732,0.3195479433788373,24.53441,48.44778,184.3988,0.3932035,-0.2090069,0.8938162,3
1.96,-41.79778,1.138178,-35.54776,2.095826905656552,-0.2009843808769254,0.2448646592308749,26.24129,48.13737,184.3355,0.3890606,-0.2221413,0.8920866,3
1.98,-41.72408,1.33037,-35.46873,1.95631325840378,-0.2208063792103976,0.1671645374196986,29.63891,47.53668,184.6056,0.3799131,-0.2495465,0.8881681,3
2.0,-41.71682,1.128152,-35.49995,1.812658021663612,-0.2389523284712293,0.0896958430916878,30.03987,47.45435,183.9315,0.3802682,-0.2504405,0.8872522,3
2.02,-41.69258,1.124565,-35.4972,1.6739248011114016,-0.2269452178801017,0.017598496292484,32.09342,47.31063,183.6265,0.3773955,-0.2652693,0.883355,3
2.04,-41.61175,1.118647,-35.45883,1.5360517268250762,-0.2433847415297835,-0.0541709396459877,37.41267,47.46937,183.0281,0.3733494,-0.3035617,0.8701701,3
2.06,-41.52745,1.317503,-35.39367,1.3985718272075047,-0.2576752715822169,-0.1233608851968259,40.79326,46.48275,182.6125,0.3624685,-0.3285834,0.8641524,3
2.08,-41.48975,1.115582,-35.40191,1.2666389366025983,-0.2413828849763381,-0.1865409350693054,41.87634,48.38453,182.3448,0.3759896,-0.3337383,0.8547598,3
2.1,-41.44661,1.114993,-35.38301,1.1320276750766445,-0.2530517012011923,-0.2494298650245623,43.26823,48.95609,181.7391,0.3800204,-0.3413479,0.8482295,3
2.12,-41.36147,1.31541,-35.32189,1.0091204049092817,-0.2629492858482939,-0.3046336558205524,46.59489,47.89384,181.2579,0.3688055,-0.3655304,0.841116,3
2.14,-41.33855,1.113714,-35.33018,0.8922544598910296,-0.2422837617287775,-0.3533903184657001,46.3925,49.40769,180.3496,0.3830497,-0.3590042,0.8355381,3
2.16,-41.22739,1.109934,-35.27676,0.7839109596358025,-0.2500563146551142,-0.3957936975814604,50.70604,49.52835,178.7086,0.3828981,-0.3845266,0.8185099,3
2.18,-41.15714,1.107096,-35.24067,0.6817132047375054,-0.2276407934056734,-0.4314790562372641,53.33289,49.28524,177.6783,0.3807951,-0.4002896,0.8082901,3
2.2,-41.07139,1.305605,-35.18425,0.5893567997651594,-0.232072377140861,-0.459840404079662,56.59138,47.89274,176.8564,0.3691325,-0.423255,0.7991436,3
2.22,-40.96704,1.102254,-35.13862,0.5018333880864434,-0.2333712459198016,-0.4826785799589075,59.71249,47.46553,173.9819,0.3724957,-0.4367743,0.7823216,3
2.24,-40.78978,1.109126,-35.04581,0.4208946231648323,-0.2055297933564977,-0.4980608757556126,62.66663,42.00486,167.8751,0.3556956,-0.4504219,0.7732677,3
2.26,-40.69388,1.118075,-34.99411,0.3615540766030394,-0.1985447329144166,-0.5008466774654341,61.80413,40.83455,167.318,0.3506604,-0.4453033,0.779434,3
2.28,-40.61015,1.304508,-34.93752,0.3086967209074247,-0.1869052465500176,-0.4969165705769622,64.87663,38.10858,165.0703,0.3390591,-0.4669094,0.7682168,3
2.3,-40.50066,1.144489,-34.89272,0.2625290610232191,-0.1477788980213892,-0.4847207544790874,58.34584,40.48674,167.9026,0.3486276,-0.4229568,0.796886,3
2.32,-40.32996,1.178289,-34.8096,0.2228649087142002,-0.1287619750269756,-0.4674588658116105,52.03658,44.41741,171.3045,0.3694849,-0.3791959,0.8170221,3
2.34,-40.23363,1.195619,-34.76073,0.2019547897182727,-0.1034181595774692,-0.4411000246162668,48.25798,46.94669,173.2598,0.3849337,-0.3529447,0.8260838,3
2.36,-40.14839,1.371945,-34.70045,0.1871377471915893,-0.0748147000310564,-0.4088453531182905,51.3994,45.48226,172.2775,0.3744702,-0.3755781,0.8178551,3
2.38,-40.03612,1.227631,-34.68237,0.2012541571192923,-0.0457361895814966,-0.3743752282074783,37.878,50.39343,174.7281,0.4157609,-0.2748498,0.848607,3
2.4,-39.93781,1.397593,-34.61541,0.2126805744611815,0.0185474787624958,-0.3256220422092415,41.41654,49.22742,174.0172,0.4058357,-0.3007104,0.8415555,3
2.42,-39.83825,1.257607,-34.62254,0.2302197775534082,0.0374874832997852,-0.2808689209805219,19.90783,56.24033,176.604,0.4685411,-0.1386296,0.8658895,3
2.44,-39.73917,1.426258,-34.55788,0.261709836039488,0.051247702868287,-0.226014985558419,23.4011,55.42996,176.3342,0.460919,-0.1648721,0.8634168,3
2.46,-39.64228,1.591492,-34.4937,0.2890527627936041,0.0681871794829978,-0.1745373986221086,26.89021,54.57793,176.0002,0.4528526,-0.1909491,0.8601024,3
2.48,-39.58678,1.272083,-34.51343,0.3176652833831825,0.1076256847270118,-0.1240543494605779,2.284389,60.50926,177.9382,0.5039721,-0.008152841,0.8633029,3
2.5,-39.52445,1.275641,-34.48942,0.3448691631086893,0.1232377936534944,-0.0775078807074551,358.3579,61.67408,178.1931,0.5122878,0.02038395,0.8585498,3
2.52,-39.37769,1.28523,-34.42801,0.3893627438202527,0.1118873756590978,-0.0275277639065283,353.3143,63.23845,178.7367,0.5228004,0.05542164,0.8503876,3
2.54,-39.28509,1.291328,-34.38276,0.4226268629220326,0.1473013035453185,0.018488130658385,352.2235,63.47354,179.0747,0.5243241,0.06190662,0.8487767,3
2.56,-39.18126,1.45317,-34.31399,0.4551595093905378,0.1300314301559227,0.053346338637926,355.838,62.7459,179.2778,0.5200576,0.03428185,0.853336,3
2.58,-39.12571,1.296069,-34.30815,0.4816904266170283,0.1589019923120822,0.0877614848926739,353.4675,63.74173,179.5134,0.5269387,0.0506241,0.8479809,3
2.6,-39.09027,1.282981,-34.29852,0.5018717802749499,0.1347132061005075,0.1044344126081,353.7471,64.20251,179.7455,0.5305223,0.0473801,0.8459117,3
2.62,-38.99387,1.262083,-34.26489,0.5035797074925723,0.1303336545245617,0.1124582472588056,355.7697,64.75365,180.5596,0.5352663,0.02855698,0.8438626,3
2.64,-38.89237,1.426178,-34.20006,0.4904702906114231,0.1450305299802407,0.1101287978661282,359.3148,64.04044,180.7816,0.5302313,0.001452886,0.8478046,3
2.66,-38.85841,1.250162,-34.20415,0.472515545965015,0.1330979294671895,0.1057055040233034,359.4628,64.87622,181.3389,0.5363919,-0.002310724,0.8438751,3
2.68,-38.80898,1.2458,-34.1831,0.4510507852684888,0.0958474601883938,0.0878333635825319,1.454641,65.17596,181.574,0.538353,-0.01809148,0.8425121,3
2.7,-38.70469,1.410761,-34.11806,0.4286004474305693,0.1084599099256591,0.0818388720717173,5.102283,64.48768,181.8067,0.532335,-0.04604539,0.8452165,3
2.72,-38.70646,1.232212,-34.14313,0.3986311461029324,0.0685173118680211,0.0592999756920686,8.267933,65.57494,182.8429,0.5384459,-0.07398351,0.8392081,3
2.74,-38.60256,1.401369,-34.08124,0.3586664240453165,0.0532428283659882,0.0476542271651734,11.88626,64.91079,183.0487,0.5312454,-0.1015373,0.8404553,3
2.76,-38.6044,1.217386,-34.0932,0.3214424734949253,0.0382675955771451,0.0281737562739676,11.9134,65.49155,183.3301,0.5352286,-0.10288,0.8378156,3
2.78,-38.50143,1.390169,-34.03252,0.2881801132783108,0.0713898152234404,0.0208535099717916,15.51753,64.84133,183.5349,0.5274556,-0.1302906,0.8382413,3
2.8,-38.52645,1.199659,-34.05933,0.2362611249774255,0.050472057542475,0.0030953637973949,14.77027,65.63421,183.6427,0.5337584,-0.1250518,0.8352264,3
2.82,-38.51471,1.190942,-34.05854,0.1748300426915516,0.0038214758081135,-0.0292114162809742,16.08626,65.89452,183.7617,0.5343731,-0.135027,0.8329667,3
2.84,-38.41322,1.369905,-34.00108,0.123190889341604,0.0121892723250586,-0.0411315431880074,19.65203,65.25976,183.9634,0.5260125,-0.1620089,0.832503,3
2.86,-38.41816,1.168164,-34.01535,0.0596644675960327,-0.0354382678418656,-0.0679288008692484,20.16023,64.41203,184.0721,0.5191455,-0.1666447,0.8358645,3
2.88,-38.39154,1.160712,-34.0043,-0.0026728166749645,-0.055225120342079,-0.087047707334448,21.58532,63.6866,184.1074,0.512232,-0.1775429,0.8374723,3
2.9,-38.29212,1.347763,-33.94999,-0.054746849892111,-0.0452797186060173,-0.0993321676479999,25.10908,63.01103,184.1554,0.5030313,-0.2036976,0.8357754,3
2.92,-38.32709,1.145387,-33.97507,-0.1126218681192661,-0.0920949035511265,-0.1221844086116208,24.61276,62.28557,184.0579,0.4985136,-0.200197,0.8395931,3
2.94,-38.27444,1.132657,-33.9504,-0.160324053814727,-0.109549650253667,-0.1321646796256441,28.05253,60.6483,183.9536,0.4823299,-0.2259793,0.8411697,3
2.96,-38.17739,1.327176,-33.89879,-0.199613812031,-0.0948310650313523,-0.1360643191612531,31.52118,59.87582,183.7927,0.472247,-0.2511405,0.8380173,3
2.98,-38.17616,1.124873,-33.90354,-0.2389606042202023,-0.1074852871354583,-0.1415009039390842,32.09446,58.53642,183.5094,0.462244,-0.255415,0.8420945,3
3.0,-38.14047,1.121892,-33.88908,-0.2726915895403339,-0.118620119350834,-0.1499110285038032,34.72842,58.11205,183.2035,0.456058,-0.273739,0.8380336,3
3.02,-38.04489,1.320119,-33.84087,-0.3023843663566055,-0.1291636356956158,-0.1539082608941244,38.11327,57.16842,182.7773,0.4451484,-0.2975819,0.8335331,3
3.04,-37.97872,1.115646,-33.82894,-0.3178779713995689,-0.136998815729895,-0.1504604149673269,41.87523,57.72385,182.3199,0.4444003,-0.3220251,0.8212818,3
3.06,-37.91841,1.115042,-33.80392,-0.3317350575650826,-0.1416769481347977,-0.1463222147395422,43.26634,57.63912,181.7182,0.4432052,-0.3296836,0.8170028,3
3.08,-37.82463,1.315495,-33.7567,-0.3406760364716543,-0.1453839244577866,-0.1428432863212956,46.59391,56.59565,181.2156,0.4316853,-0.3528325,0.8106499,3
3.1,-37.79009,1.113783,-33.7507,-0.3379970084318309,-0.0918335667949504,-0.1293630265306209,46.37766,57.06672,180.3253,0.4380966,-0.3471812,0.8080947,3
3.12,-37.65853,1.110005,-33.69569,-0.3198536321296252,-0.096921842612823,-0.1104623434868594,50.6965,56.25035,178.678,0.4303415,-0.3726269,0.7946295,3
3.14,-37.56597,1.309628,-33.6498,-0.2972809142638928,-0.1017234531279583,-0.0921110143505528,53.96737,54.96378,177.92,0.4184694,-0.3950051,0.7866464,3
3.16,-37.4573,1.103809,-33.60555,-0.2612352625827929,-0.0497117816866841,-0.0641944742670617,56.52961,54.41502,176.1186,0.4167314,-0.4072733,0.7755356,3
3.18,-37.36603,1.30008,-33.55985,-0.2159424137662409,-0.0521735312882569,-0.0329058950950376,59.75681,52.79213,175.0148,0.4045249,-0.4290366,0.7663177,3
3.2,-37.25038,1.104623,-33.51096,-0.1661006200494679,-0.0502809209535514,0.000142075607191,61.21835,49.96214,171.1196,0.3981143,-0.4320194,0.7611542,3
3.22,-37.17057,1.109244,-33.47577,-0.0999202701469927,-0.0718260587625923,0.0382353463848978,62.65525,46.88251,167.8025,0.3885677,-0.4382181,0.7572992,3
3.24,-37.08107,1.298085,-33.42875,-0.0342855361995919,-0.0364773761787425,0.0775331074002716,65.74075,44.11142,165.484,0.3764129,-0.4591459,0.7464505,3
3.26,-36.88758,1.144536,-33.34654,0.0233088220368946,-0.0222405373606521,0.1103696263462898,58.34648,44.78848,167.8095,0.3786249,-0.4128212,0.7830181,3
3.28,-36.7971,1.161968,-33.30505,0.0801349355448923,0.0179484900229559,0.1429603597199999,55.73582,45.30268,168.7782,0.3810046,-0.3960251,0.7943289,3
3.3,-36.70766,1.341879,-33.25426,0.1388328001913858,0.0101702811626624,0.1701707703670223,58.7821,43.02528,166.8807,0.3695745,-0.4170905,0.7847281,3
3.32,-36.62221,1.195781,-33.22726,0.1919504263458158,0.0288146781837473,0.1929240408396904,48.2473,50.67073,173.1812,0.4118212,-0.3455174,0.8130233,3
3.34,-36.45312,1.227605,-33.17439,0.2342683277532753,0.0678536803706601,0.2112840461720351,37.91785,54.09069,174.6561,0.4430509,-0.2690012,0.8345287,3
3.36,-36.3717,1.239494,-33.14529,0.2786280112944386,0.0841432995381746,0.2236968040097648,31.98703,55.71973,175.3045,0.4588242,-0.2249862,0.8438848,3
3.38,-36.26911,1.409292,-33.0871,0.3181940524216609,0.0756772054987306,0.2293145933729325,35.47924,54.71191,174.711,0.4496875,-0.2501361,0.8385767,3
3.4,-36.16864,1.575681,-33.02926,0.3541115479404615,0.1118079006927515,0.2394108154451508,38.96281,53.61067,174.0107,0.4401133,-0.2750472,0.8324396,3
3.42,-36.08795,1.268192,-33.03901,0.3790995321757604,0.0987680179494794,0.2380665473804386,8.072526,61.48788,177.5322,0.5111188,-0.04950061,0.8563552,3
3.44,-35.98293,1.435395,-32.97913,0.4063597536291086,0.1066130368602804,0.24395694595768,11.62899,60.78887,177.3982,0.5052011,-0.07593459,0.8567402,3
3.46,-35.91579,1.275747,-32.96042,0.4312411423961659,0.11249043630782,0.2476600761222052,358.3583,63.3365,178.1599,0.5246828,0.02062067,0.8510259,3
3.48,-35.81039,1.441491,-32.89923,0.4489015132305498,0.0691457576080829,0.2431238615070139,1.932201,62.66178,178.1657,0.5200697,-0.00607859,0.8538075,3
3.5,-35.7516,1.28531,-32.88495,0.470139285208714,0.093597205008676,0.248873839703033,353.3089,64.38988,178.7196,0.5313086,0.0553247,0.8450928,3
3.52,-35.60873,1.29378,-32.82114,0.4864465747040611,0.0918191814610332,0.2495436965230517,352.8441,64.89423,179.277,0.5351322,0.05604152,0.8424367,3
3.54,-35.50382,1.45525,-32.75497,0.4924785074232964,0.111410761121569,0.2486909490552769,356.4366,64.20113,179.495,0.5310289,0.02867837,0.8467717,3
3.56,-35.46416,1.282775,-32.74899,0.4951372256080937,0.1509278345593547,0.2481537240020834,353.7715,64.86274,179.745,0.5353937,0.04704595,0.8428508,3
3.58,-35.36146,1.445134,-32.68329,0.4773442084422683,0.1136903046098986,0.22964404722057,357.3207,64.17309,179.9803,0.5310512,0.01989966,0.8470175,3
3.6,-35.35243,1.262083,-32.69972,0.4536181073912742,0.0979157049340552,0.2108404215696238,355.7652,64.98401,180.5486,0.5369582,0.02859342,0.8427859,3
3.62,-35.31725,1.254406,-32.69271,0.4341609757843363,0.0827633688552146,0.1945028257883212,357.4747,65.30157,181.1089,0.5395406,0.01333315,0.8416156,3
3.64,-35.21356,1.418671,-32.62939,0.4121396208789747,0.0944188645018666,0.1805232413650106,1.064999,64.62962,181.3121,0.5344228,-0.01397424,0.8450888,3
3.66,-35.16943,1.240419,-32.62366,0.3729030147511798,0.0557067993204767,0.1547392814727368,4.04491,65.7716,182.044,0.5420132,-0.03930972,0.8394396,3
3.68,-35.12598,1.237833,-32.60406,0.3304190918871228,0.0415725703350411,0.1304512478720907,6.187718,65.83541,182.5621,0.5414933,-0.05742701,0.8386748,3
3.7,-35.02124,1.405245,-32.54151,0.2927622602416901,0.0527986682161036,0.1103145645864138,9.822546,65.19985,182.7904,0.5348764,-0.08517334,0.8402343,3
3.72,-34.99684,1.217484,-32.53854,0.2321323642994208,0.0117735904370517,0.0752482898263924,11.89777,65.74519,183.3265,0.537096,-0.1026786,0.8366375,3
3.74,-34.94961,1.208849,-32.51463,0.1771824749644341,-0.005677228288454,0.0457306733018061,13.44049,65.67863,183.508,0.5352973,-0.1147593,0.8359735,3
3.76,-34.84704,1.383766,-32.45553,0.1109543918477218,-0.0485963868233826,0.0092401950134828,17.02445,65.06574,183.7076,0.527544,-0.1419335,0.8359347,3
3.78,-34.74633,1.555262,-32.39669,0.0583157804708145,-0.0387439969584688,-0.0182820806292332,20.60912,64.45366,183.8706,0.5192617,-0.168955,0.8350461,3
3.8,-34.81574,1.183235,-32.44852,0.003759540437902,-0.0300484121801169,-0.0475382186931163,17.41361,64.87435,183.8776,0.5255675,-0.1456244,0.8365234,3
3.82,-34.80408,1.17579,-32.44547,-0.0595911795570183,-0.0511755547344631,-0.0803500429937624,18.74454,64.6179,184.0224,0.5221945,-0.1560583,0.8364373,3
3.84,-34.70356,1.358837,-32.38979,-0.1096213658994829,-0.0426270663904842,-0.1053913241064714,22.28724,63.99491,184.1356,0.5136386,-0.182558,0.8352353,3
3.86,-34.71066,1.153041,-32.39959,-0.1739262575537052,-0.0895880736277029,-0.1391798008981744,23.08657,62.37506,184.0281,0.5010372,-0.1889133,0.8412982,3
3.88,-34.68293,1.145445,-32.3872,-0.2218018455122621,-0.0787635927215881,-0.1628004193849133,24.61677,61.68368,184.0337,0.4941343,-0.2005423,0.8421773,3
3.9,-34.5848,1.336552,-32.33392,-0.257606864906299,-0.0396205981822701,-0.1797702303009178,28.11557,60.992,183.964,0.4847468,-0.2261991,0.8396221,3
3.92,-34.55846,1.128761,-32.32296,-0.3106960567495616,-0.0862411643222661,-0.2080880600850512,30.06314,58.72061,183.6843,0.4660125,-0.2411438,0.8453847,3
3.94,-34.50553,1.124903,-32.2968,-0.3417015907695719,-0.0738400101577352,-0.2243429822649063,32.08601,57.58008,183.5012,0.4552301,-0.2562247,0.8459319,3
3.96,-34.41037,1.322251,-32.24556,-0.3630547817711718,-0.0312044774725403,-0.2355769991560121,35.49941,56.72901,183.1555,0.4449064,-0.2806153,0.8417256,3
3.98,-34.39065,1.118819,-32.2416,-0.3937911935048395,-0.075076763558946,-0.25544837350074,37.41013,56.23495,182.9583,0.4389388,-0.2942776,0.8390216,3
4.0,-34.29624,1.317819,-32.19142,-0.4068160168324017,-0.0593679720630067,-0.2658469199230922,40.78954,55.27137,182.473,0.4280076,-0.3180397,0.8336752,3
4.02,-34.28221,1.115662,-32.20205,-0.4124311220322925,-0.0707864842740219,-0.2748319335015527,41.87654,56.41747,182.308,0.43504,-0.3237457,0.8262752,3
4.04,-34.18599,1.114533,-32.16174,-0.4136133490499336,-0.0808140346875448,-0.2820720387228133,44.68588,56.57333,181.1002,0.4350725,-0.3389477,0.8161699,3
4.06,-34.12031,1.113828,-32.13282,-0.4063173116221588,-0.0328734955451081,-0.2823013115073349,46.36694,56.03168,180.3019,0.4308684,-0.3486812,0.8120137,3
4.08,-34.02786,1.314569,-32.08493,-0.3930427351639451,-0.0427055927753918,-0.2812529362529368,49.65945,54.92366,179.6924,0.4195268,-0.3714804,0.8047717,3
4.1,-33.93571,1.512635,-32.03661,-0.3754640004201022,-0.0515974675139782,-0.2783104189857464,52.94192,53.67618,178.9324,0.4078268,-0.3939489,0.7968295,3
4.12,-33.8118,1.103787,-31.99352,-0.3269126561366278,-0.0591828017184445,-0.2611162735289487,56.51979,54.80331,176.142,0.4192905,-0.4064659,0.7742062,3
4.14,-33.72041,1.30004,-31.94817,-0.278103244927109,-0.0625822191873189,-0.2428994147214433,59.74526,53.2358,175.0654,0.4073189,-0.4281469,0.7649057,3
4.16,-33.62953,1.493737,-31.9025,-0.2270714338647947,-0.0662738032514936,-0.2232090950326948,62.9514,51.36648,173.6789,0.3950077,-0.4494572,0.754957,3
4.18,-33.47728,1.109268,-31.83702,-0.1723908116049948,-0.063376340775378,-0.2017689561587592,62.64626,46.49187,167.7697,0.3861194,-0.4390271,0.7585772,3
4.2,-33.39495,1.118184,-31.79823,-0.1162067271771665,-0.0610239454273333,-0.1789867304775674,61.79041,45.31355,167.2353,0.3811768,-0.4341628,0.7649918,3
4.22,-33.21284,1.144528,-31.71421,-0.0504628301146836,-0.0488888571326676,-0.1557807359775282,58.34719,44.68792,167.8106,0.3779331,-0.413067,0.7833498,3
4.24,-33.12356,1.326641,-31.66442,0.0173925705024418,-0.0098552241291607,-0.130033053842113,61.38519,42.19112,165.6755,0.366466,-0.4339184,0.773122,3
4.26,-33.00758,1.178458,-31.61716,0.0855781077883302,0.0265318168879054,-0.1036714231044753,52.02605,47.77523,171.2041,0.3936001,-0.3719202,0.8056753,3
4.28,-32.91798,1.356678,-31.56514,0.143243425433702,0.0408715377246384,-0.0874722506458525,55.11709,45.97059,169.7673,0.3827925,-0.3933529,0.7967889,3
4.3,-32.82069,1.211505,-31.54206,0.1964003133669303,0.0559016934815053,-0.0746896548534223,43.10197,51.92786,173.8993,0.424196,-0.3081179,0.8264744,3
4.32,-32.74714,1.227548,-31.5242,0.2557476898521527,0.0480257827893507,-0.0634216365610167,37.93591,53.79628,174.645,0.4409146,-0.2695713,0.8355973,3
4.34,-32.64375,1.397718,-31.46547,0.3159502512276222,0.0856876360392112,-0.0484099729161111,41.46084,52.64523,173.8552,0.4311249,-0.2945847,0.8286633,3
4.36,-32.52098,1.257427,-31.44945,0.3586675823553662,0.0958776725757029,-0.039838504689913,19.97034,59.02953,176.5572,0.4894994,-0.1362489,0.8540944,3
4.38,-32.45427,1.26407,-31.42736,0.3964983817116687,0.1055430159232873,-0.0322157618330805,13.79689,60.61421,177.1564,0.5034002,-0.09123208,0.8553153,3
4.4,-32.3508,1.432379,-31.36923,0.4320902470089991,0.1138881117692514,-0.0254591041570422,17.29015,59.91505,176.952,0.4969733,-0.1170549,0.8542531,3
4.42,-32.30976,1.272108,-31.37119,0.4698970328275065,0.0733051880856777,-0.0217451028311375,2.297279,63.39263,177.9283,0.5255339,-0.007556882,0.8503446,3
4.44,-32.17472,1.279237,-31.31962,0.5055671055457971,0.0772239491793771,-0.0112663228001186,354.3991,65.40092,178.409,0.5389793,0.04860155,0.8407872,3
4.46,-32.06802,1.444077,-31.2598,0.5373379842326851,0.0790870763830166,-0.0015584168295887,357.976,64.75267,178.4963,0.5351527,0.02194049,0.844469,3
4.48,-31.9946,1.291403,-31.23968,0.5626831138341801,0.0799879358293267,0.0059948470633028,352.2201,65.91116,179.0617,0.5422512,0.06136663,0.8374337,3
4.5,-31.88756,1.453344,-31.17634,0.5836533459230426,0.0788277749817168,0.0126037986494775,355.8282,65.24962,179.2571,0.5385683,0.0341472,0.8417706,3
4.52,-31.83284,1.283022,-31.17666,0.590091653945747,0.0718502353374039,0.0132684182239239,353.7538,66.44493,179.7311,0.5469692,0.04685995,0.835375,3
4.54,-31.72849,1.445601,-31.11469,0.5854997333030596,0.0616102169894815,0.007842561532064,357.2868,65.78751,179.9556,0.542923,0.02008987,0.8394488,3
4.56,-31.62669,1.604604,-31.05333,0.5761836397862194,0.0506177001764064,7.796753979238957e-05,0.820479,65.14523,180.1393,0.5383466,-0.006687942,0.8426924,3
4.58,-31.63117,1.254692,-31.09389,0.559286118794792,0.038447912409509,-0.0095930780912829,357.4392,66.59708,181.1164,0.5490204,0.01332847,0.8354536,3
4.6,-31.58725,1.249837,-31.07835,0.5385780145748806,0.0256207456265827,-0.0214425608694202,359.4915,66.98141,181.3475,0.5518016,-0.002788001,0.8338808,3
4.62,-31.49555,1.240525,-31.04187,0.5115171545768158,0.0125973754140606,-0.0339650181408637,4.029155,67.4245,182.0514,0.554067,-0.03916695,0.8315376,3
4.64,-31.38892,1.406843,-30.98181,0.49143220204955,0.0253023505660592,-0.0398936032894789,7.667615,66.8123,182.2918,0.5481123,-0.06679077,0.8334904,3
4.66,-31.37731,1.232262,-30.98707,0.4678286472337412,0.0360621939404597,-0.0476965440633083,8.249012,67.27327,182.8546,0.5508264,-0.07362475,0.8311458,3
4.68,-31.34075,1.226511,-30.97163,0.4258942479114567,0.0194379136654871,-0.0623796894195165,10.32608,67.316,183.1421,0.5497246,-0.09000983,0.8300393,3
4.7,-31.23545,1.397359,-30.91395,0.3905416586833401,0.0290126846205948,-0.0721728177900744,13.92478,66.72569,183.3538,0.5426876,-0.1171726,0.8306416,3
4.72,-31.2683,1.208875,-30.94371,0.3320541380294992,-0.0151423736607904,-0.0940537951510962,13.42912,67.75375,183.5257,0.5503387,-0.1140577,0.8261576,3
4.74,-31.21565,1.191051,-30.92592,0.2833716972554554,-0.0056444743848545,-0.1086995781188817,16.063,67.99654,183.7691,0.5495745,-0.1339788,0.8230476,3
4.76,-31.17679,1.183317,-30.90877,0.2410781263792003,0.0302521064211412,-0.1191779486286943,17.38038,67.48788,183.9078,0.5445024,-0.1442859,0.8243662,3
4.78,-31.07449,1.364444,-30.85623,0.1735426638095045,-0.0154054625339276,-0.1435198419842613,20.90702,66.91357,184.0844,0.536419,-0.1705978,0.8234981,3
4.8,-30.97364,1.542331,-30.80375,0.1053588031618826,-0.0600276096144274,-0.1688281635074413,24.43414,66.33688,184.2268,0.5278159,-0.1967349,0.8218219,3
4.82,-31.05391,1.153184,-30.85399,0.0421229830064233,-0.0802524400357902,-0.1889079636062276,23.05368,63.78172,184.011,0.5113932,-0.1876757,0.8351165,3
4.84,-30.95423,1.342426,-30.80342,-0.0132907559688244,-0.0990076221502337,-0.2044717124425883,26.54001,63.13339,183.9682,0.5024365,-0.2130985,0.8329446,3
4.86,-30.95686,1.1391,-30.81036,-0.0671764906302776,-0.1154105884891297,-0.2197926023271059,26.3065,62.03376,183.9367,0.4947775,-0.2121389,0.8380668,3
4.88,-30.85822,1.332008,-30.76039,-0.1177535172078934,-0.1305001941373022,-0.2324360371446201,29.77833,61.33648,183.7917,0.4853592,-0.2371986,0.8351368,3
4.9,-30.76035,1.521908,-30.71019,-0.1551850153548404,-0.113988546513374,-0.2382405853321607,33.24724,60.603,183.5909,0.4754864,-0.2620255,0.8314134,3
4.92,-30.79451,1.121926,-30.74165,-0.203370340169438,-0.1539360448611532,-0.2504927765706952,34.72749,58.63706,183.1949,0.4599146,-0.2731377,0.8359279,3
4.94,-30.69789,1.320136,-30.69424,-0.2382149782597915,-0.1621293274960991,-0.2584698015718705,38.12379,57.75321,182.7629,0.4494172,-0.2969028,0.8312079,3
4.96,-30.6017,1.515491,-30.64646,-0.262887558310509,-0.1385928921849471,-0.2617185499190229,41.51304,56.7912,182.2393,0.438514,-0.320388,0.8257253,3
4.98,-30.59324,1.115657,-30.66628,-0.2837229559565091,-0.1155703307340569,-0.2640031250355958,41.87289,58.18979,182.3179,0.4477453,-0.3213644,0.8194716,3
5.0,-30.49753,1.315838,-30.61977,-0.3009240512802362,-0.1206937153740632,-0.2654816715196215,45.23607,57.20745,181.8,0.4365701,-0.3445477,0.8132201,3
5.02,-30.4415,1.113802,-30.61131,-0.3213341876679561,-0.1527626261486359,-0.2697027912329708,46.37263,58.73465,180.3205,0.4498349,-0.3443862,0.8016396,3
5.04,-30.34669,1.31449,-30.56726,-0.3251008030502245,-0.124873752224123,-0.2636261041810654,49.67815,57.67244,179.7314,0.4385512,-0.3669562,0.7944872,3
5.06,-30.25215,1.512482,-30.52278,-0.3150739836921263,-0.1251668738264017,-0.2525251688448136,52.97392,56.47502,178.9965,0.4268907,-0.389195,0.7866433,3
5.08,-30.18104,1.10719,-30.50552,-0.2968300844878038,-0.0944774230423744,-0.2371674477500427,53.33903,56.9377,177.6207,0.4340673,-0.3856388,0.7809404,3
5.1,-30.08759,1.305763,-30.46175,-0.2709790076611256,-0.1200437737950962,-0.2201418048659076,56.60063,55.5964,176.7428,0.4223704,-0.4075413,0.772266,3
5.12,-29.86627,1.104582,-30.37273,-0.2275445542786269,-0.1720125400035294,-0.1971248224138184,61.22259,51.73097,171.1313,0.409766,-0.4277974,0.7549294,3
5.14,-29.75321,1.109169,-30.32356,-0.1864430937613703,-0.1367786251500214,-0.1725526213330339,62.65089,48.29569,167.8358,0.397756,-0.4347071,0.7525547,3
5.16,-29.66225,1.29798,-30.27859,-0.1382415911439771,-0.1521792939719001,-0.1463574584130436,65.74514,45.60163,165.5333,0.3858878,-0.4553959,0.741604,3
5.18,-29.54245,1.129,-30.23193,-0.0884234168651074,-0.1697792838109761,-0.1191686821396134,60.94211,45.54813,166.7185,0.3854672,-0.4258487,0.7666593,3
5.2,-29.4519,1.313283,-30.18514,-0.0448763914029948,-0.1528155983219248,-0.0960168095566169,63.9785,42.78624,164.3028,0.3738339,-0.4463919,0.7559243,3
5.22,-29.27695,1.178197,-30.13989,0.0123788087029557,-0.1300512861111484,-0.0698544297549479,52.05408,52.0439,171.3121,0.4229582,-0.3633204,0.7905933,3
5.24,-29.1846,1.356192,-30.09252,0.0568016330527654,-0.0846169846284564,-0.0485562208363909,55.16741,50.37422,170.006,0.4122672,-0.3845709,0.7818521,3
5.26,-29.09371,1.531559,-30.04528,0.1012546685904447,-0.0866533067643835,-0.0331570952585305,58.25389,48.42781,168.4165,0.4012476,-0.4055016,0.7724769,3
5.28,-28.96786,1.228347,-30.03526,0.1424441324825589,-0.0424038732830554,-0.0173612609634736,37.82928,57.32481,174.7284,0.4663486,-0.2632695,0.8220521,3
5.3,-28.89885,1.239369,-30.0191,0.1767008351374133,-0.0463596988770372,-0.0102751571503869,31.99209,59.17897,175.3485,0.483997,-0.2201729,0.8297054,3
5.32,-28.75507,1.257541,-29.98007,0.2144202995452526,-0.0272579355025266,-0.0010560859000374,19.95602,62.49422,176.5848,0.5150713,-0.1328459,0.8389543,3
5.34,-28.64863,1.42615,-29.92756,0.2513384799412783,-0.0091835191516965,0.0097111290282208,23.45467,61.77576,176.3046,0.5080065,-0.1581303,0.8364588,3
5.36,-28.58109,1.268198,-29.91877,0.286123963629544,0.0076336606245344,0.0190219099063675,8.088521,65.0638,177.5371,0.537584,-0.04791842,0.8399834,3
5.38,-28.51252,1.271946,-29.89653,0.3150854939915612,0.0663517979436919,0.0327880677900358,2.347286,66.44022,177.9234,0.5479626,-0.007206814,0.8360561,3
5.4,-28.4031,1.438559,-29.84363,0.3385739656257254,0.0770018322218226,0.0419928469201624,5.91423,65.82381,177.8752,0.5433352,-0.0332407,0.8377255,3
5.42,-28.26098,1.285332,-29.80363,0.3522303435421872,0.063587765286858,0.0449029674581753,353.3134,68.46367,178.7059,0.561005,0.05455467,0.8256789,3
5.44,-28.16537,1.291303,-29.7639,0.372503015298224,0.0959132867025068,0.0558594565965089,352.2327,68.61445,179.0639,0.56186,0.06053927,0.8244147,3
5.46,-28.05522,1.45319,-29.70572,0.3818052844743032,0.1018968655858089,0.0603066620252006,355.8447,67.98239,179.2655,0.5584937,0.03363957,0.8286912,3
5.48,-27.99958,1.296076,-29.69776,0.3871283633269771,0.1063202438174078,0.0634570841490695,353.4656,68.71491,179.5095,0.5632304,0.04946053,0.8243211,3
5.5,-27.89091,1.457085,-29.63848,0.3787803155010683,0.1052295615909899,0.0602537446831998,357.0414,68.08455,179.7569,0.5595713,0.02257896,0.8283774,3
5.52,-27.90005,1.269873,-29.66093,0.3661305665170333,0.0784736525334927,0.0517966031380767,354.0821,69.11858,179.9887,0.5664983,0.04256713,0.8224445,3
5.54,-27.80167,1.254463,-29.63626,0.3571865350492982,0.0995089780249219,0.0503556974826944,357.4665,69.51317,181.1182,0.570102,0.01260009,0.8212186,3
5.56,-27.69366,1.418797,-29.58099,0.3319158038071332,0.0705671703090268,0.0388027183698342,1.047738,68.90231,181.3344,0.5655537,-0.01412622,0.8245786,3
5.58,-27.67154,1.245727,-29.58295,0.3036154232265011,0.0403747072306234,0.0250350509120327,1.45816,69.71712,181.568,0.5713099,-0.01826015,0.8205218,3
5.6,-27.56151,1.410558,-29.52705,0.2710239324954671,0.0342957467360595,0.0142049641911938,5.117037,69.12366,181.8016,0.5660819,-0.04566648,0.82299,3
5.62,-27.5653,1.232168,-29.54404,0.2393213144895001,0.0276805515786214,0.0044111984068595,8.264281,69.87385,182.8376,0.5695479,-0.07319576,0.8184232,3
5.64,-27.45617,1.40119,-29.49062,0.2071982860815815,0.0478458622844501,-0.0037067224657545,11.89431,69.30476,183.0464,0.5630704,-0.1002349,0.8194664,3
5.66,-27.34927,1.566614,-29.43753,0.1555275242023874,0.015713558991299,-0.0227131468089409,15.52511,68.74112,183.2209,0.5560156,-0.1271623,0.8196599,3
5.68,-27.407,1.2086,-29.47771,0.115376703009463,0.0345256544498459,-0.0341454962118032,13.47587,69.83495,183.5203,0.5652194,-0.1136211,0.8159927,3
5.7,-27.29946,1.383267,-29.42583,0.0830968853646298,0.078479322260946,-0.0410024917343068,17.08628,69.28783,183.7353,0.5578852,-0.1404723,0.8158926,3
5.72,-27.33734,1.183275,-29.44795,0.0215350664185871,0.0412147151605997,-0.0629049372615986,17.40876,68.45691,183.8725,0.5514703,-0.1438401,0.8196881,3
5.74,-27.23268,1.364274,-29.39788,-0.0206901692403307,0.058543263349514,-0.073315864419392,20.96698,67.90104,184.0146,0.5435306,-0.1700758,0.8187322,3
5.76,-27.12947,1.541974,-29.34785,-0.055816466278963,0.1044660992653156,-0.0790062075827902,24.52527,67.34076,184.1225,0.5350566,-0.1961342,0.8169618,3
5.78,-27.19156,1.160744,-29.38734,-0.1049411248899043,0.0952622954468991,-0.0921394743646426,21.6035,66.26416,184.0721,0.5309717,-0.1759163,0.8256952,3
5.8,-27.08845,1.347767,-29.33839,-0.1529274523633437,0.0881787262961524,-0.1052591695437654,25.14668,65.67021,184.0894,0.5223566,-0.2016756,0.8237736,3
5.82,-27.12309,1.145457,-29.36017,-0.2000830651262202,0.0800403140254563,-0.1186852765748249,24.62415,64.93674,184.0298,0.5178374,-0.1982344,0.8277987,3
5.84,-27.06706,1.132744,-29.337,-0.2358211080910059,0.0696377795686959,-0.126215294568051,28.06087,63.33554,183.9251,0.5019658,-0.2236618,0.8295902,3
5.86,-26.96649,1.327245,-29.29037,-0.2752827418614827,0.0331287839803885,-0.1367521023893134,31.54907,62.64504,183.7411,0.4924297,-0.2484374,0.8262575,3
5.88,-26.9646,1.124901,-29.2935,-0.2969058690514474,0.0561889767500948,-0.1385556708101289,32.09047,61.31782,183.5056,0.4825596,-0.2526397,0.8306318,3
5.9,-26.86587,1.322198,-29.2482,-0.3153885654078925,0.0790493736121681,-0.1399181377250378,35.51587,60.5324,183.1685,0.4725373,-0.2765931,0.826477,3
5.92,-26.86323,1.118816,-29.25377,-0.3463236326439465,0.0147081447434203,-0.1511406743133507,37.39761,60.24091,182.9683,0.4679904,-0.2895225,0.8232086,3
5.94,-26.76952,1.115656,-29.22921,-0.3539552478899845,0.0382101479705848,-0.1499035149035346,41.85916,60.63517,182.3199,0.4651474,-0.3178485,0.8097695,3
5.96,-26.6721,1.315842,-29.18689,-0.3571072943910511,0.0611839826470294,-0.1475663831320721,45.21383,59.68493,181.8058,0.4540707,-0.3406309,0.8036645,3
5.98,-26.57497,1.513244,-29.14416,-0.3560748304936449,0.0802739081158736,-0.1444092938652303,48.56053,58.62872,181.1749,0.442594,-0.3631016,0.796841,3
6.0,-26.55706,1.113795,-29.15073,-0.3434531474229771,0.0694226645677617,-0.1368639496677599,46.37759,59.89592,180.3289,0.4579017,-0.3425025,0.7970394,3
6.02,-26.51549,1.113006,-29.13726,-0.3316780861362027,0.0313548924850121,-0.1313041932352221,48.05758,59.64794,179.4962,0.455787,-0.3512651,0.7914779,3
6.04,-26.41989,1.313643,-29.09588,-0.3093897824914409,0.0531272074949265,-0.1190432743963429,51.34536,58.5486,178.8334,0.4445442,-0.3733949,0.7839822,3
6.06,-26.26005,1.103776,-29.03963,-0.2665290743760962,0.0178808556181613,-0.1004860246108108,56.51682,57.80759,176.1555,0.4393997,-0.3999589,0.7629898,3
6.08,-26.166,1.299989,-28.99877,-0.2202385204206525,-0.0185235834551009,-0.0811016935449506,59.75418,56.31194,175.0924,0.4275878,-0.4212739,0.7537247,3
6.1,-26.04772,1.104593,-28.95562,-0.1640582193523192,-0.0211677267957626,-0.0568795697335016,61.21902,53.34727,171.1368,0.4203579,-0.4237824,0.7491037,3
6.12,-25.85596,1.118124,-28.87965,-0.1070756233200107,-0.0489348139842081,-0.0336172120871141,61.80228,48.73435,167.2162,0.4038986,-0.4254902,0.7531717,3
6.14,-25.7638,1.304668,-28.83683,-0.0662931070329881,-0.019169071276299,-0.0161978710667947,64.86488,46.03462,164.8569,0.3921837,-0.4458192,0.742425,3
6.16,-25.63595,1.144435,-28.7897,-0.0129822211185923,-0.0076948308482586,0.0035958338890971,58.36148,47.81034,167.8136,0.3991105,-0.4056694,0.7727095,3
6.18,-25.54381,1.326516,-28.74485,0.0401121325771662,-0.0194863258458448,0.0213087622350354,61.40466,45.3849,165.6919,0.3877911,-0.4260761,0.7625648,3
6.2,-25.44094,1.178308,-28.71285,0.0897776985055336,0.0198376855672907,0.0387940464573568,52.05419,51.16754,171.2042,0.4172434,-0.3648532,0.793568,3
6.22,-25.26506,1.211404,-28.65714,0.1528126699067193,0.0135216421696889,0.053399739179671,43.12102,55.55292,173.9142,0.4500642,-0.3016736,0.812614,3
6.24,-25.16509,1.384788,-28.60716,0.2047092244964825,0.0517602715723224,0.0682257920305167,46.4502,54.33063,173.0137,0.4401583,-0.3246303,0.8051059,3
6.26,-25.06513,1.239233,-28.59639,0.2519567893443577,0.0419835472693946,0.0760952954286096,32.03704,58.688,175.2972,0.4804971,-0.2210141,0.8315938,3
6.28,-24.95832,1.408744,-28.54378,0.2996623377403802,0.029527781818492,0.0836648330791134,35.55692,57.77137,174.704,0.4718549,-0.2458118,0.8260664,3
6.3,-24.90158,1.257231,-28.54815,0.333847543810974,0.0371190618773934,0.0887168379940286,20.00416,61.96103,176.5519,0.5111737,-0.1335879,0.8412402,3
6.32,-24.7639,1.268401,-28.50727,0.3715530373757141,0.0675128593953536,0.0982702293697315,8.073621,65.0435,177.5387,0.5374371,-0.04782641,0.8400886,3
6.34,-24.67696,1.272006,-28.47583,0.4035182056229733,0.0724503104220096,0.1053098242486854,2.34983,66.27002,177.9212,0.5467203,-0.0072539,0.8368677,3
6.36,-24.56773,1.438695,-28.42295,0.4324445754158632,0.07591893124183,0.111360117741762,5.909868,65.68237,177.8732,0.5423017,-0.03325286,0.8383965,3
6.38,-24.46082,1.601792,-28.37043,0.4584439040751284,0.0791254456111426,0.1176196962981372,9.468184,65.08733,177.7879,0.53735,-0.05921109,0.8390923,3
6.4,-24.40663,1.285351,-28.37479,0.4868446456341422,0.1049919870054311,0.127845248265098,353.312,68.26694,178.7052,0.5595859,0.05460871,0.8266404,3
6.42,-24.34662,1.291288,-28.35578,0.5008778790545594,0.0825647435100932,0.1289866559523624,352.2324,68.84321,179.072,0.5635089,0.06043829,0.8232891,3
6.44,-24.2362,1.453163,-28.29802,0.5060720092613789,0.1047058853512911,0.1314842626519539,355.8433,68.23936,179.2836,0.5603557,0.03352746,0.8274342,3
6.46,-24.15095,1.282656,-28.28673,0.4993215380977833,0.0971781468835552,0.1259292002924938,353.7819,69.53413,179.7617,0.5693083,0.04573788,0.8203307,3
6.48,-24.04256,1.444816,-28.22964,0.4876338607634873,0.0889628960894866,0.118462811449151,357.3423,68.93345,180.0196,0.5657786,0.0190228,0.8242311,3
6.5,-24.03461,1.262072,-28.24697,0.4655210035611494,0.0770293242057404,0.1068716748940059,355.7595,69.75663,180.5545,0.5715841,0.0275857,0.8196948,3
6.52,-23.92937,1.250155,-28.21411,0.4392365367363773,0.0646679637692975,0.0931864394372725,359.4475,70.17944,181.3457,0.5748586,-0.002805699,0.8181546,3
6.54,-23.81966,1.4147,-28.15971,0.4173069291554006,0.0529955517251236,0.0824194464044381,3.068051,69.60551,181.575,0.5701926,-0.02982167,0.8209601,3
6.56,-23.79864,1.240393,-28.16072,0.3933679781500605,0.0680528279838739,0.0748165327721168,4.038579,70.19791,182.0391,0.5740294,-0.03904868,0.8178833,3
6.58,-23.6882,1.406515,-28.10636,0.3487222731454649,0.032730317577493,0.0569375221412054,7.696569,69.64402,182.273,0.5685366,-0.0663863,0.819678,3
6.6,-23.6961,1.232139,-28.1202,0.3133887506441475,0.0470808073666209,0.045895854296496,8.264256,70.19926,182.8469,0.5718639,-0.07318173,0.8168042,3
6.62,-23.62637,1.217503,-28.09489,0.253711359147144,0.0097316547757472,0.0224693334605103,11.8927,70.45867,183.327,0.5710485,-0.1012432,0.813847,3
6.64,-23.51789,1.390223,-28.04395,0.2001437522436657,-0.0035791076825661,0.0036958238993953,15.4984,69.93288,183.5393,0.5641798,-0.1279811,0.8140033,3
6.66,-23.52629,1.199743,-28.05515,0.1443659857177119,-0.0154633505900101,-0.0162615387700704,14.76011,70.3689,183.6367,0.5678182,-0.1230622,0.8124712,3
6.68,-23.41927,1.376607,-28.00562,0.0859796836380231,-0.0288718673982869,-0.037739154835525,18.34046,69.85244,183.8419,0.5605063,-0.1495372,0.8120148,3
6.7,-23.31397,1.55007,-27.95624,0.0238389652829162,-0.046365503112516,-0.0591018744884221,21.92134,69.33839,184.017,0.5526369,-0.1758536,0.8107414,3
6.72,-23.39959,1.168422,-28.00052,-0.0457200608653103,-0.0903305450764515,-0.084490974506358,20.13554,67.26558,184.0117,0.539911,-0.1645485,0.8226705,3
6.74,-23.29618,1.353556,-27.95258,-0.0944865348856329,-0.0771094408700853,-0.0999147767380854,23.65838,66.70826,184.0542,0.5317424,-0.1901577,0.8210247,3
6.76,-23.19395,1.535499,-27.90459,-0.15855069487105,-0.1191694842245071,-0.122608000086696,27.18044,66.13792,184.0595,0.5230634,-0.215575,0.8185813,3
6.78,-23.25584,1.145533,-27.94296,-0.2219531481946535,-0.1598927582937765,-0.1458507135642057,24.60533,65.01663,184.0183,0.518458,-0.1979881,0.8274556,3
6.8,-23.15434,1.336657,-27.89592,-0.2604171702107805,-0.1191002037670491,-0.1564976551858339,28.10238,64.40988,183.9389,0.5096377,-0.2230812,0.824792,3
6.82,-23.05368,1.524702,-27.8487,-0.3201760435852794,-0.1632680166648447,-0.1774080474815194,31.59711,63.77664,183.8137,0.5003366,-0.2479526,0.8213387,3
6.84,-23.0676,1.12487,-27.86409,-0.3572476016833996,-0.1482155659885949,-0.1877498649299593,32.10064,61.50667,183.5164,0.4838892,-0.2525672,0.8298265,3
6.86,-23.01311,1.121909,-27.84312,-0.3844850775726649,-0.1027238234962408,-0.1938971112936798,34.71265,60.93252,183.2076,0.476559,-0.2705685,0.8265938,3
6.88,-22.91485,1.320093,-27.79934,-0.4192336503739735,-0.1435297814478345,-0.2070416853170473,38.1032,60.11713,182.793,0.4664231,-0.2939751,0.8218471,3
6.9,-22.81699,1.515423,-27.75522,-0.4358034481304726,-0.1243928973425197,-0.2122234836225374,41.48751,59.22851,182.2932,0.4558696,-0.3171079,0.8163537,3
6.92,-22.82797,1.115649,-27.78161,-0.4484600510266512,-0.1620451832164532,-0.2184836301968715,41.85806,60.56504,182.3271,0.4646337,-0.3179701,0.8100671,3
6.94,-22.73042,1.315805,-27.73886,-0.4460195888194045,-0.1679350051226865,-0.2182634191409311,45.22023,59.64953,181.8221,0.4537626,-0.340795,0.8038117,3
6.96,-22.63314,1.51316,-27.69572,-0.4385644463891376,-0.1418643603940217,-0.214040394896791,48.57485,58.63088,181.2036,0.4424915,-0.363308,0.7968367,3
6.98,-22.53631,1.707726,-27.65226,-0.4293043750364811,-0.1735558187745833,-0.2105942573075863,51.91991,57.48011,180.4438,0.4308305,-0.3854889,0.7891495,3
7.0,-22.47816,1.109975,-27.65334,-0.4161029615199547,-0.2053197841774062,-0.2060027187705175,50.70943,59.36784,178.7087,0.4516767,-0.3669593,0.782646,3
7.02,-22.42115,1.107184,-27.63405,-0.3691305135612883,-0.2076043120876497,-0.1872590031653924,53.30811,59.01083,177.6534,0.4480703,-0.3813279,0.7731357,3
7.04,-22.32633,1.305733,-27.59328,-0.3110187929089409,-0.179517085261026,-0.1632829476500421,56.56751,57.75301,176.8069,0.4366634,-0.402913,0.7644441,3
7.06,-22.1198,1.104548,-27.51825,-0.2441462047363685,-0.2050825611118674,-0.136950900110615,61.215,53.91151,171.1607,0.4239592,-0.4224233,0.7471021,3
7.08,-22.02635,1.295886,-27.47786,-0.1842851926500155,-0.171432875526518,-0.1117146697486104,64.37274,51.74396,169.3578,0.4121577,-0.4429725,0.7366571,3
7.1,-21.91053,1.11812,-27.43648,-0.11962625702491,-0.1882920873471856,-0.0861456476836428,61.79901,49.13465,167.2164,0.4065297,-0.4244263,0.7517712,3
7.12,-21.83387,1.128937,-27.40811,-0.0568069962296,-0.1488403925203635,-0.0599436951069241,60.94146,48.11716,166.7344,0.4024992,-0.419362,0.7578694,3
7.14,-21.74138,1.313272,-27.36555,0.0064824215185477,-0.1285192591506015,-0.0359038245293259,63.97224,45.43356,164.3423,0.3910499,-0.4394507,0.7472226,3
7.16,-21.55119,1.178302,-27.30274,0.0697997912337893,-0.1087931164620887,-0.0117545526632496,52.0561,52.18861,171.2049,0.4242933,-0.3626181,0.7898133,3
7.18,-21.46599,1.19558,-27.27271,0.1298885339744315,-0.0861809587871557,0.0069052959030178,48.2876,54.79317,173.1781,0.4407569,-0.3375267,0.7975424,3
7.2,-21.37206,1.372081,-27.22683,0.1910916602836341,-0.0648674707850134,0.0258672940445712,51.41443,53.43721,172.1373,0.4307192,-0.3587703,0.789551,3
7.22,-21.18716,1.239182,-27.19755,0.2562946131888366,-0.0422248716307512,0.0421040799161582,32.04374,59.85719,175.3084,0.4889291,-0.2193704,0.82665,3
7.24,-21.07922,1.408641,-27.14694,0.3091540096367362,0.0006973073375746,0.056771510108625,35.56762,58.97599,174.7297,0.4804474,-0.2440301,0.821076,3
7.26,-21.00565,1.257326,-27.14261,0.3541940039274327,-0.0049651779286558,0.0642696351352962,20.01065,62.91499,176.5509,0.5181565,-0.1326713,0.8369454,3
7.28,-20.89726,1.425686,-27.09174,0.3974793067581079,0.0344046516299723,0.0766149410536534,23.5365,62.24204,176.241,0.511438,-0.1579111,0.8341753,3
7.3,-20.84839,1.268106,-27.09363,0.4372727812511621,0.0708814746977722,0.0874614985820505,8.124028,65.80927,177.5341,0.5430321,-0.04779879,0.836445,3
7.32,-20.73844,1.435233,-27.04242,0.4703423691922488,0.0814685891202383,0.0957312507428591,11.68572,65.23146,177.412,0.5380015,-0.0736163,0.8364758,3
7.34,-20.61359,1.27923,-27.01605,0.5012316848513954,0.0927312838077554,0.1043325017874594,354.439,69.06624,178.3957,0.5656002,0.04788536,0.8231332,3
7.36,-20.50268,1.444098,-26.96418,0.5313316157467805,0.1267920066418902,0.1152604495222591,358.0153,68.5052,178.4769,0.5625181,0.02179383,0.8264969,3
7.38,-20.42883,1.291343,-26.94743,0.5490044726955317,0.112673763978102,0.1183063751884745,352.2312,69.62727,179.0577,0.5691209,0.06030058,0.8194177,3
7.4,-20.31742,1.453291,-26.89187,0.5624191833841765,0.0957887756220402,0.1204204523871759,355.8387,69.05189,179.2576,0.5662,0.03358037,0.8234424,3
7.42,-20.2802,1.296066,-26.89497,0.5722093028872459,0.0949299412805828,0.1220888642312174,353.4596,69.96914,179.5122,0.5722181,0.04917376,0.8181042,3
7.44,-20.17004,1.457081,-26.83843,0.5844487141498882,0.1168963621659618,0.1275401789229255,357.0336,69.39453,179.7671,0.5690052,0.02243722,0.8219241,3
7.46,-20.12557,1.26215,-26.84642,0.5808694753008243,0.0887872986039806,0.1230298849466362,355.7449,70.6366,180.5651,0.577862,0.02744236,0.8152747,3
7.48,-20.01727,1.426163,-26.79298,0.576388540057065,0.1086908938749863,0.1233187713452514,359.2907,70.07357,180.811,0.5741127,0.001004877,0.8187223,3
7.5,-20.00201,1.25019,-26.80519,0.5519065244654304,0.0788649069073577,0.1126027242979299,359.4384,70.88893,181.346,0.5799135,-0.002819486,0.8145787,3
7.52,-19.89159,1.414757,-26.75234,0.5384268181281531,0.0992492956317818,0.1109867363142189,3.056138,70.34272,181.5782,0.5754641,-0.02972619,0.8172763,3
7.54,-19.84216,1.237668,-26.7474,0.5102164653966672,0.0954346561724048,0.1039548460891777,6.200007,71.28969,182.5715,0.5807738,-0.05699281,0.8119586,3
7.56,-19.73095,1.40485,-26.69532,0.4782014486465504,0.0921850797013352,0.0953791061622522,9.852043,70.77394,182.8179,0.5750611,-0.08417108,0.8132254,3
7.58,-19.73874,1.226411,-26.70471,0.4369807660414317,0.0867467243866494,0.0838785346316584,10.33283,71.08139,183.1366,0.5766972,-0.08908978,0.8115261,3
7.6,-19.62883,1.397062,-26.65445,0.3925153609058132,0.0824628485404709,0.0708012317557416,13.9508,70.5772,183.3499,0.5702769,-0.1158466,0.8119153,3
7.62,-19.66538,1.208852,-26.67936,0.3413798201672486,0.0755279918908987,0.0560215473338621,13.4327,71.44314,183.5186,0.5766518,-0.1127076,0.8080086,3
7.64,-19.61236,1.190999,-26.66265,0.2942098801578217,0.0976626659522506,0.0442171735783505,16.07748,71.59078,183.7618,0.5751103,-0.1323754,0.8053927,3
7.66,-19.50499,1.369904,-26.61602,0.2289684913701419,0.0655655580975483,0.0239065063037546,19.64498,71.10863,183.9745,0.5677933,-0.1585756,0.8045965,3
7.68,-19.39919,1.545452,-26.56948,0.1795166732585755,0.0885798215170362,0.0118149810461232,23.21299,70.62944,184.1597,0.5599163,-0.18461,0.8029985,3
7.7,-19.47282,1.168303,-26.60773,0.1097753064890958,0.0572547942684523,-0.0090862758414167,20.14689,69.66949,184.0415,0.5569938,-0.1633089,0.8111703,3
7.72,-19.41464,1.153128,-26.58586,0.0331373757057082,-0.0014368232085453,-0.0332220523545334,23.06566,68.24872,184.0304,0.5435048,-0.1847326,0.8145508,3
7.74,-19.31063,1.342199,-26.54247,-0.0153016663709939,0.023556488658336,-0.0441121305114178,26.5738,67.69649,184.0137,0.5350683,-0.2097415,0.8122712,3
7.76,-19.31634,1.139123,-26.54661,-0.0627403020107018,0.0484392698833467,-0.0550600616837435,26.28939,66.36646,183.9503,0.5261015,-0.2085827,0.818802,3
7.78,-19.21423,1.331985,-26.5039,-0.1307869927448655,-0.0123884152266856,-0.0750098242213854,29.75779,65.76376,183.8257,0.5172153,-0.2330333,0.8158352,3
7.8,-19.11283,1.521831,-26.46097,-0.1824379639528133,-0.0157160599843072,-0.0867141531351829,33.22378,65.12987,183.6529,0.5078487,-0.2572577,0.8121014,3
7.82,-19.17056,1.124902,-26.48923,-0.2308941288154851,-0.0168835019141082,-0.0981265328083349,32.08233,63.43298,183.5123,0.497806,-0.2504343,0.8216061,3
7.84,-19.07016,1.322169,-26.44737,-0.2863877287180314,-0.0757157535287622,-0.1178519025468958,35.50822,62.70903,183.1862,0.4881195,-0.274078,0.8173901,3
7.86,-18.9702,1.516518,-26.4052,-0.3215003076515501,-0.0467610917290582,-0.1282439925840299,38.92929,61.92706,182.7896,0.4779887,-0.2974619,0.8124205,3
7.88,-18.94594,1.115616,-26.41686,-0.3458680539635901,0.0118076716864042,-0.1344165178890968,41.86919,62.52007,182.3442,0.4783192,-0.3152795,0.8020192,3
7.9,-18.84675,1.315711,-26.37684,-0.3957737432761157,-0.01612876410452,-0.163072962631233,45.24469,61.64518,181.8597,0.4675362,-0.3379575,0.7957795,3
7.92,-18.74936,1.113774,-26.35066,-0.4476894708283319,-0.0725263007742362,-0.2023456220502653,46.37834,61.91629,180.3438,0.471837,-0.3390905,0.7888666,3
7.94,-18.67266,1.113018,-26.32413,-0.4775288999454399,-0.0410996207561475,-0.2291710981444019,48.05305,61.27893,179.4948,0.4670178,-0.3482611,0.7849221,3
7.96,-18.57571,1.313652,-26.28542,-0.5009779787197144,-0.0104578651471198,-0.2534925745524656,51.34253,60.23431,178.8325,0.4560368,-0.3700975,0.7773656,3
7.98,-18.49579,1.107226,-26.26137,-0.5285101985322282,-0.0685496619909972,-0.2910481045200992,53.29503,60.09256,177.6383,0.4554222,-0.3789266,0.7688851,3
8.0,-18.40012,1.305815,-26.22277,-0.5496913734744082,-0.1287018859227017,-0.3258905270833017,56.5487,58.84662,176.7738,0.4440892,-0.4002514,0.7602382,3
8.02,-18.17561,1.104561,-26.14304,-0.559098134824457,-0.0758495471194296,-0.3515449060563322,61.20969,54.80421,171.1549,0.4297959,-0.4200995,0.7437841,3
8.04,-18.08141,1.295923,-26.10431,-0.5523320050418574,-0.0733719648951869,-0.3844196167141498,64.36512,52.65451,169.3423,0.418069,-0.4404497,0.7333516,3
8.06,-17.94861,1.118092,-26.05679,-0.5481456380899445,-0.0954986236490137,-0.4292981114168599,61.80109,49.86455,167.211,0.4113276,-0.4225076,0.7491432,3
8.08,-17.8555,1.304694,-26.01615,-0.554436332550609,-0.0605772560982073,-0.4742115413663552,64.85712,47.21726,164.8492,0.399862,-0.4425129,0.738353,3
8.1,-17.74337,1.144373,-25.97947,-0.5556587800380879,-0.0276512446792468,-0.5145444667205874,58.37085,49.17874,167.8067,0.4083238,-0.4023246,0.767832,3
8.12,-17.65007,1.326505,-25.93715,-0.5619425700390384,-0.0137691279410163,-0.562109519342358,61.40876,46.81166,165.6896,0.3972603,-0.4224004,0.7576532,3
8.14,-17.45968,1.195596,-25.8782,-0.5606615036114297,0.0258452969223723,-0.6027646967961382,48.29179,55.16103,173.141,0.4434185,-0.3366538,0.7960327,3
8.16,-17.3649,1.372133,-25.83374,-0.5545423745654854,0.0632050149901254,-0.6388707999821346,51.41685,53.80294,172.0632,0.4334653,-0.3577084,0.7880012,3
8.18,-17.25402,1.227434,-25.82261,-0.5615489061724033,0.0767753201074455,-0.6923649517959487,37.96534,58.41555,174.6487,0.4741915,-0.2620738,0.8170775,3
8.2,-17.14586,1.397634,-25.77296,-0.5730345670171881,0.0902692621058714,-0.7484401952426345,41.48734,57.38837,173.8755,0.4649656,-0.2862616,0.8100742,3
8.22,-17.00382,1.257394,-25.75618,-0.5788494217751046,0.1024840290994175,-0.7992812636441822,20.01509,63.53666,176.5553,0.5226817,-0.1320931,0.8341202,3
8.24,-16.89515,1.42586,-25.70666,-0.5987344799554104,0.1110718767191322,-0.8515846141962582,23.53009,62.89275,176.2531,0.5161543,-0.1571618,0.8312824,3
8.26,-16.82776,1.268131,-25.69997,-0.6158342427586587,0.1186309660089862,-0.8995125626164606,8.125002,66.29394,177.5334,0.5465651,-0.04756294,0.8341399,3
8.28,-16.71734,1.43529,-25.64994,-0.6259087756260246,0.1698732085370671,-0.9366542730753498,11.68358,65.74242,177.4124,0.5417264,-0.07327285,0.8340706,3
8.3,-16.60918,1.59886,-25.60025,-0.6491000684846091,0.148925134374996,-0.9811296480828592,15.23981,65.1754,177.2542,0.5363576,-0.09890281,0.8331771,3
8.32,-16.57398,1.279234,-25.61596,-0.6705698899384953,0.1515646701732355,-1.01805821472594,354.4506,69.44788,178.3935,0.5683416,0.04775972,0.8212485,3
8.34,-16.42521,1.291307,-25.56786,-0.6894040377736228,0.1524513066381377,-1.0500570828023337,352.2346,70.38959,179.0637,0.5745639,0.06003254,0.8156135,3
8.36,-16.31302,1.453242,-25.51378,-0.7185791771607908,0.1502436122821792,-1.0803793349019526,355.8417,69.83934,179.272,0.5718502,0.03338166,0.8195312,3
8.38,-16.25745,1.296063,-25.50752,-0.7464017903758671,0.1466394294766921,-1.1063340463068374,353.4589,70.58595,179.5117,0.5766128,0.04902321,0.8150122,3
8.4,-16.14654,1.457075,-25.45239,-0.7683128469869702,0.1859400660509156,-1.1232835422273104,357.0329,70.03714,179.7681,0.5736055,0.02236407,0.81872,3
8.42,-16.08384,1.262152,-25.45113,-0.8158530336155976,0.149226324916664,-1.1518422030619662,355.7451,71.1404,180.5636,0.5814406,0.02733582,0.8127268,3
8.44,-15.97493,1.426164,-25.39889,-0.8567324685036957,0.1340138921085626,-1.1721512622374766,359.291,70.60329,180.8096,0.5778912,0.0009663962,0.8160599,3
8.46,-15.94156,1.250196,-25.40198,-0.8956003675723145,0.1185466185108444,-1.1893745916520713,359.4376,71.2776,181.3441,0.5826732,-0.00284563,0.8126073,3
8.48,-15.83063,1.414763,-25.35013,-0.941820124042546,0.1056504445702049,-1.2035664760032772,3.055305,70.75721,181.5759,0.5784174,-0.02969377,0.8151897,3
8.5,-15.82833,1.240404,-25.36117,-0.9854395079683932,0.0927348611215104,-1.2144040480528755,4.024931,71.54106,182.0416,0.5835796,-0.0388954,0.8111012,3
8.52,-15.71648,1.406509,-25.30962,-1.0305974169631904,0.0778013319033699,-1.2202882781092357,7.681623,71.04147,182.2845,0.5784906,-0.06606448,0.8126918,3
8.54,-15.68617,1.226329,-25.30896,-1.0838027526309737,0.0381810801009177,-1.2274398393533033,10.33762,71.68726,183.1492,0.5809671,-0.08902637,0.8084667,3
8.56,-15.57552,1.396865,-25.25952,-1.1254628541065823,0.049663016358508,-1.2246535630101325,13.96323,71.21197,183.3773,0.5747278,-0.1158121,0.8087465,3
8.58,-15.5937,1.208859,-25.27581,-1.1652332369130258,0.0601548197650055,-1.219154646185237,13.43063,71.92229,183.5201,0.5800255,-0.1125179,0.8055922,3
8.6,-15.48459,1.383631,-25.22836,-1.218936832286846,0.0418675521747383,-1.2158388323080414,17.02181,71.45876,183.7437,0.5732944,-0.1389423,0.8052392,3
8.62,-15.5218,1.191037,-25.25143,-1.2689471448543848,0.0252876973303148,-1.2093470594871318,16.07167,71.95091,183.7607,0.5776452,-0.132155,0.8035856,3
8.64,-15.41406,1.36994,-25.2056,-1.2941440131991446,0.0607317091786753,-1.1889332545429458,19.63805,71.49526,183.9745,0.5705124,-0.1582863,0.8026835,3
8.66,-15.42018,1.168261,-25.21294,-1.3407583673815897,0.0427275607626906,-1.173625858297909,20.14441,70.20397,184.0668,0.560738,-0.1630806,0.8085819,3
8.68,-15.31435,1.353144,-25.16867,-1.3951553893225124,-0.0008455682520972,-1.1602704682186382,23.68385,69.72256,184.1706,0.552929,-0.1886293,0.8068116,3
8.7,-15.34525,1.15307,-25.18189,-1.4437196823594765,-0.0429200856981317,-1.1434070180244107,23.07018,68.49366,184.0505,0.5452068,-0.1846808,0.8133963,3
8.72,-15.28836,1.139043,-25.15703,-1.4788186408561432,-0.0601987560837313,-1.1186128667074922,26.30939,66.57646,183.9717,0.5275356,-0.2086455,0.8178246,3
8.74,-15.18561,1.331766,-25.11383,-1.4996794673728528,-0.0448493106594635,-1.0866801894306295,29.80109,66.0104,183.8709,0.518815,-0.2333002,0.8146899,3
8.76,-15.08357,1.52143,-25.07044,-1.5134147972165284,-0.0294642214652211,-1.0510324416175858,33.29031,65.416,183.7251,0.509608,-0.2577234,0.8107818,3
8.78,-15.13302,1.124909,-25.08817,-1.5042177570099549,0.0410952391353233,-1.0049359690348756,32.0808,63.43871,183.5154,0.4978426,-0.2504309,0.8215873,3
8.8,-15.10141,1.121911,-25.0771,-1.519621599792843,-0.0026559605134828,-0.971038075533346,34.6995,63.06674,183.214,0.4918756,-0.2680693,0.8176101,3
8.82,-15.00153,1.320071,-25.0368,-1.5263065921070804,-0.0452285225383901,-0.9337781856380194,38.08979,62.30989,182.8092,0.4820439,-0.2911495,0.8128242,3
8.84,-14.97248,1.115608,-25.0553,-1.512715826691312,-0.0587470618566274,-0.8897643496456316,41.84908,63.52862,182.3506,0.4853779,-0.3136678,0.7978393,3
8.86,-14.87292,1.315705,-25.01704,-1.4965989440150442,-0.0987056146222422,-0.8456860654608289,45.21332,62.6848,181.8741,0.4747525,-0.3361173,0.7916164,3
8.88,-14.77362,1.512992,-24.97842,-1.4708143210067808,-0.13794182553631,-0.7987197706017639,48.57082,61.74476,181.2921,0.4637097,-0.3582602,0.7846887,3
8.9,-14.88511,1.113725,-25.10432,-1.4245591426619932,-0.0909946929304161,-0.7410911916387803,46.37584,63.81518,180.3681,0.4847775,-0.3358122,0.7809905,3
8.92,-14.84113,1.109977,-25.1542,-1.3832424830120458,-0.1314667205729306,-0.6876157372972442,50.68234,63.38564,178.7118,0.4788758,-0.358821,0.7664254,3
8.94,-14.74325,1.309523,-25.11926,-1.3319846419224102,-0.1119639197217422,-0.6292868281641919,53.96096,62.30994,178.0017,0.4677465,-0.3801537,0.7584213,3
8.96,-14.64564,1.506406,-25.08399,-1.2592837961668004,-0.1191064784379224,-0.5669751689571463,57.22897,61.06577,177.1158,0.456223,-0.4011518,0.7497731,3
8.98,-14.62026,1.102237,-25.15808,-1.1780189769378873,-0.1258833116323791,-0.5024937419452393,59.66314,60.47732,174.0377,0.4586312,-0.4064641,0.7354134,3
9.0,-14.52375,1.296076,-25.12399,-1.0861661288889488,-0.1267777858884854,-0.4372146600679181,62.87544,58.77775,172.6838,0.4468404,-0.4268101,0.7255624,3
9.02,-14.4278,1.487347,-25.08968,-0.9864043811550732,-0.1277445332771016,-0.369975163131321,66.06349,56.68104,170.9277,0.4346802,-0.4467898,0.7151066,3
9.04,-14.30227,1.128906,-25.1509,-0.8863885657528796,-0.118680495719719,-0.3096292410462715,60.94927,51.42529,166.6855,0.4243739,-0.410509,0.74577,3
9.06,-14.26794,1.144293,-25.22874,-0.7807905636340065,-0.1099006781605794,-0.2480976889761525,58.38019,52.07679,167.839,0.4274879,-0.3951475,0.7573058,3
9.08,-14.17279,1.32638,-25.19069,-0.6778115278663432,-0.0952622897072273,-0.1919681599752767,61.42397,49.7712,165.7642,0.4164079,-0.4149019,0.7472768,3
9.1,-14.07884,1.505904,-25.15265,-0.570102470267283,-0.0810658679805308,-0.1351754155951749,64.4177,46.96312,163.1834,0.4049977,-0.434315,0.7366463,3
9.12,-14.03097,1.195575,-25.19514,-0.4529790700346428,-0.0620612092051154,-0.085953789549102,48.29487,57.40503,173.1618,0.4588566,-0.332045,0.7872314,3
9.14,-13.93487,1.37215,-25.15418,-0.3306350200956742,-0.0443993816574266,-0.0364152480307589,51.41438,56.0956,172.1143,0.4489893,-0.35279,0.7792957,3
9.16,-13.84026,1.546059,-25.11335,-0.2263385707477243,-0.0294118624600463,0.0024527349982741,54.51558,54.59132,170.8664,0.4387703,-0.3732476,0.7707411,3
9.18,-13.76717,1.250427,-25.20384,-0.1184568725265198,-0.0156471184528068,0.0406012714395793,26.13416,64.4562,176.257,0.5254512,-0.1741907,0.8196499,3
9.2,-13.73765,1.257664,-25.22861,-0.0103517384837086,0.0416137763117133,0.0826520604705156,19.93273,65.9706,176.8987,0.5399405,-0.1306094,0.8233,3
9.22,-13.62941,1.426787,-25.18343,0.0817587481217683,0.0267435589930089,0.1113453252852902,23.38647,65.37068,176.6464,0.5335827,-0.1550313,0.8206266,3
9.24,-13.56129,1.272053,-25.20014,0.1708843174462639,0.0335845931249761,0.1388512689122114,2.359912,69.95081,178.0003,0.5733105,-0.006870575,0.8188938,3
9.26,-13.44936,1.438918,-25.15457,0.2597105721448187,0.0392492270069821,0.1641745088318691,5.90057,69.4416,177.9753,0.5694818,-0.03224789,0.8202019,3
9.28,-13.3397,1.602218,-25.10929,0.3532757741818664,0.0892718259830443,0.193342571554735,9.439847,68.9271,177.9182,0.5651023,-0.05758681,0.820709,3
9.3,-13.33365,1.285383,-25.14223,0.4324011262373231,0.0681799336127669,0.2125965634873461,353.3118,71.40886,178.7054,0.582038,0.05394715,0.8109887,3
9.32,-13.28796,1.291275,-25.12716,0.5101772952020143,0.0445487406533779,0.2295530752435866,352.2374,71.75889,179.0668,0.5842716,0.05960545,0.8086899,3
9.34,-13.17436,1.453177,-25.07583,0.5963539185468134,0.0874955642335102,0.2535778021023551,355.8463,71.23138,179.2799,0.5817665,0.03311751,0.812524,3
9.36,-13.13223,1.282799,-25.06998,0.6563756883708323,0.0768508461066425,0.2682932242442288,353.779,71.96589,179.7513,0.5865822,0.04518137,0.8080673,3
9.38,-13.02102,1.444961,-25.01842,0.7029399315455855,0.0415616652468092,0.2770611050300249,357.3392,71.44178,180.006,0.583681,0.01881905,0.8116513,3
9.4,-12.91236,1.603464,-24.96735,0.7543819991960696,0.0524212592587516,0.2893539254028479,0.9004841,70.93452,180.2279,0.580206,-0.007554067,0.8144298,3
9.42,-12.9849,1.254668,-25.01917,0.7908193961624979,0.0132522393013577,0.2987422086058182,357.4323,71.91969,181.1172,0.5872197,0.01241161,0.809059,3
9.44,-12.91426,1.245795,-24.9948,0.8306092301144663,0.0262514340523582,0.3122658185339166,1.429636,72.42843,181.5749,0.5905658,-0.01818321,0.8067763,3
9.46,-12.80143,1.410632,-24.94467,0.866060561769604,0.0373242364782321,0.3222016736271329,5.083285,71.94026,181.8246,0.5861399,-0.04522836,0.8088396,3
9.48,-12.81983,1.237728,-24.95917,0.8814675653197352,0.0232145877635036,0.3349388528276402,6.176253,72.43969,182.56,0.588909,-0.05663074,0.8060943,3
9.5,-12.70735,1.404928,-24.90986,0.8785258062666197,-0.0154215208216562,0.3412781123960711,9.826249,71.97224,182.8034,0.58356,-0.08360041,0.8071762,3
9.52,-12.71823,1.217493,-24.9149,0.8877173419250166,-0.0034625784111395,0.3530050874922295,11.89465,71.90175,183.3202,0.5812564,-0.1007594,0.806588,3
9.54,-12.68273,1.208878,-24.89825,0.874062983685074,-0.044573742611511,0.3590163393883823,13.43501,71.80371,183.5006,0.5792072,-0.1124955,0.8061818,3
9.56,-12.57316,1.383623,-24.85117,0.868400526177191,-0.0330628528589164,0.3683672644865927,17.03447,71.35788,183.7061,0.5726185,-0.1388957,0.8057128,3
9.58,-12.46541,1.554889,-24.80429,0.8583526772175183,-0.0219881938795964,0.3736519819931874,20.63429,70.91665,183.886,0.5654569,-0.1651479,0.8044298,3
9.6,-12.59128,1.183333,-24.85351,0.8333624413863698,-0.0386806930267131,0.3786435405436954,17.40164,70.36765,183.8659,0.5650761,-0.1427796,0.8103822,3
9.62,-12.4844,1.364284,-24.80735,0.7904058574070101,-0.0804005284025989,0.375938997959182,20.96408,69.91654,184.0097,0.5578569,-0.1687215,0.8090461,3
9.64,-12.37893,1.54191,-24.76128,0.7662518998639023,-0.0660034237006957,0.3798091005605672,24.52646,69.46387,184.1264,0.5500921,-0.1944892,0.8069105,3
9.66,-12.51006,1.153156,-24.80668,0.7213436004102987,-0.107160573282017,0.3769439459697312,23.07144,67.18211,184.0159,0.5359161,-0.1854753,0.8195567,3
9.68,-12.50045,1.145579,-24.80202,0.6910258848294824,-0.0897293264166102,0.3782171620977084,24.59218,66.68886,184.0225,0.5304869,-0.1966448,0.8198234,3
9.7,-12.39752,1.336676,-24.75789,0.6586752875195847,-0.0720285517703283,0.3758782157530413,28.08692,66.16178,183.9532,0.522181,-0.2214659,0.8169425,3
9.72,-12.42672,1.128746,-24.7691,0.6202169437126088,-0.0829533104655009,0.3727537476809002,30.03406,65.09107,183.7156,0.5122436,-0.2351474,0.8182671,3
9.74,-12.32541,1.324587,-24.72737,0.5878505764076782,-0.0606139639380435,0.3689886898501413,33.47916,64.47874,183.4934,0.5031886,-0.259075,0.814291,3
9.76,-12.22461,1.517467,-24.68538,0.5544033075802581,-0.0379979093857002,0.3615415296572397,36.92099,63.82371,183.2157,0.4936735,-0.2827559,0.8095615,3
9.78,-12.12448,1.707417,-24.64322,0.5034877074251358,-0.1021558089563559,0.343723887241925,40.35889,63.11517,182.8728,0.4837073,-0.3061682,0.8040836,3
9.8,-12.24912,1.117105,-24.71153,0.4737669140436762,-0.0785375693768289,0.3309365391182117,39.62956,64.24078,182.6998,0.4933178,-0.2987983,0.8008137,3
9.82,-12.14863,1.3165,-24.67327,0.4537468473311123,-0.0248452248711034,0.3189267990236848,43.02094,63.4684,182.2774,0.4830512,-0.3215162,0.7949374,3
9.84,-12.13134,1.114469,-24.68376,0.4275669837136711,-0.0573694872059616,0.3008456613839367,44.69031,65.33175,181.1416,0.4959972,-0.3250095,0.7806252,3
9.86,-12.08281,1.113788,-24.67172,0.4082470344428808,-0.0578260051307417,0.2863900573426576,46.34929,65.20867,180.3389,0.4943732,-0.3329822,0.775061,3
9.88,-11.98358,1.314444,-24.63823,0.3878885780089998,-0.0564677130194058,0.2683326205310132,49.64992,64.29642,179.7735,0.4836431,-0.3545189,0.7679943,3
9.9,-11.88454,1.512391,-24.60438,0.365949906814631,-0.0567084930939857,0.2461951817728787,52.94272,63.26265,179.0788,0.4725026,-0.3757435,0.7602692,3
9.92,-11.88674,1.107148,-24.62133,0.3741997797173657,-0.0574819664150477,0.2442794328022013,53.29375,65.02833,177.6938,0.4879315,-0.3684491,0.7486904,3
9.94,-11.78809,1.30563,-24.58997,0.389707788085303,-0.0265919795008787,0.2520877084898445,56.55976,63.88184,176.8925,0.4766298,-0.3892657,0.7402381,3
9.96,-11.62647,1.104409,-24.56301,0.4043048580721342,0.0034872123988942,0.2572530239934076,61.21571,61.96035,171.2592,0.4750007,-0.401496,0.7157759,3
9.98,-11.52842,1.29563,-24.53481,0.4336569206627376,-0.0479410918250182,0.2662684783658049,64.38622,59.96469,169.5663,0.4631111,-0.4211142,0.7057661,3
10.0,-11.43073,1.117907,-24.5299,0.4691903781204052,-0.0365056039301406,0.2869537307859424,61.81943,58.30364,167.3225,0.4649183,-0.3997327,0.7170917,3
10.02,-11.33297,1.30434,-24.50165,0.5022302536670611,-0.0249704498721879,0.3051627375804262,64.89699,55.82639,165.0983,0.4531917,-0.4188878,0.7068288,3
10.04,-11.14936,1.161494,-24.49038,0.544490351321589,-0.0604490324249039,0.3239344959669901,55.79449,59.61903,168.8799,0.476615,-0.3614998,0.7407042,3
10.06,-11.04988,1.341196,-24.4619,0.5785853533117837,-0.0175881353985931,0.3538279750350606,58.86868,57.65869,167.1309,0.4655615,-0.3807423,0.7316149,3
10.08,-10.96412,1.195219,-24.46857,0.6173172360660061,0.0487670822191164,0.3977287788789732,48.33199,65.69337,173.2816,0.5141622,-0.3143443,0.7521715,3
10.1,-10.86358,1.371498,-24.43906,0.6522461587698023,0.0441086919940294,0.4324459727571299,51.47658,64.51435,172.3766,0.5041181,-0.3344652,0.7446679,3
10.12,-10.70634,1.23889,-24.46962,0.68879569978899,0.0158514889179222,0.4637182036352909,32.09639,71.8978,175.4198,0.5726774,-0.2010712,0.7708864,3
10.14,-10.59079,1.408139,-24.43985,0.7288216082621863,0.0569828483417027,0.5047850279076487,35.62976,71.16203,174.971,0.5643367,-0.2242782,0.7657409,3
10.16,-10.53258,1.257176,-24.46756,0.7587489687880578,0.0494749941011092,0.5375708201933533,20.04162,75.62752,176.6214,0.6075339,-0.1196082,0.7744731,3
10.18,-10.41598,1.425418,-24.44005,0.785285303603701,0.0395771016276825,0.5679490190640384,23.5685,75.05785,176.3925,0.6011255,-0.1431108,0.7720309,3
10.2,-10.30156,1.590144,-24.4125,0.8108447074881134,0.0942504039093672,0.6150607916347597,27.0933,74.45539,176.1159,0.5941359,-0.1664696,0.7688391,3
10.22,-10.29939,1.271879,-24.46551,0.8367690726830471,0.1017176076828572,0.6637562411340547,2.393837,80.89101,177.9623,0.6487631,-0.004361449,0.7604961,3
10.24,-10.17078,1.279105,-24.4691,0.8569550796332386,0.1078320993718888,0.710763780266011,354.4671,83.40502,178.4294,0.6639315,0.04513871,0.746109,3
10.26,-10.0503,1.443857,-24.44574,0.8764598199702022,0.1577752966327921,0.7647367283889186,358.0457,82.91456,178.5492,0.6617503,0.02116017,0.7494236,3
10.28,-9.932256,1.604934,-24.42226,0.8800086683159047,0.1367000521580304,0.8076465610626666,1.624202,82.43214,178.6383,0.6589145,-0.002832235,0.7519906,3
10.3,-9.901227,1.293726,-24.44982,0.8765598167488259,0.113189502959193,0.848590594929207,352.8332,84.25901,179.273,0.6691896,0.05059985,0.7404317,3
10.32,-9.779596,1.455167,-24.42394,0.8806654524979959,0.1559089851872565,0.8986480187184052,356.4264,83.7563,179.5027,0.6671171,0.02611125,0.7442875,3
10.34,-9.660634,1.612842,-24.39801,0.8743148472204464,0.144884392750856,0.9381791425903732,0.02046322,83.26945,179.7005,0.6643775,0.001603266,0.7473928,3
10.36,-9.664539,1.262118,-24.42107,0.8537704714807408,0.1098676962782386,0.969881088912929,355.7487,83.84068,180.5468,0.6677612,0.02441256,0.7434359,3
10.38,-9.616769,1.254508,-24.41386,0.836646555148486,0.1231979096251016,1.0049904045275362,357.4518,83.56403,181.0956,0.6662619,0.01021168,0.7453252,3
10.4,-9.497705,1.418732,-24.38797,0.8122013100243118,0.1345374619412713,1.0363897189306803,1.043204,83.08199,181.3059,0.6630076,-0.01437025,0.7484707,3
10.42,-9.458067,1.240544,-24.35509,0.758535385379282,0.0713738273596498,1.049491996605632,4.018939,81.48138,181.9934,0.6516746,-0.03790921,0.7574887,3
10.44,-9.338623,1.406789,-24.32552,0.7255573552518817,0.0825202318915925,1.0740970561978131,7.673371,81.02327,182.1919,0.6470551,-0.06325954,0.7592629,3
10.46,-9.221573,1.569342,-24.29596,0.6774503555741662,0.06850574220733,1.0896711390201377,11.3284,80.57367,182.3629,0.6417683,-0.08853966,0.7602471,3
10.48,-9.290145,1.226406,-24.27625,0.6236146673222753,0.0558121137925186,1.101636664527568,10.3438,79.05624,183.085,0.6317644,-0.08656689,0.7694382,3
10.5,-9.274632,1.217756,-24.26366,0.5634886161677553,0.0409012835318786,1.1083625352871218,11.88243,78.71691,183.2494,0.6282411,-0.09788334,0.7705926,3
10.52,-9.158974,1.390629,-24.23181,0.4985363839941956,0.0277624691935629,1.1115364346302323,15.49007,78.27385,183.3902,0.6220523,-0.1229838,0.7707441,3
10.54,-9.175368,1.191202,-24.21218,0.4314121485266662,0.0132643672988504,1.110385069065321,16.09009,77.19953,183.6612,0.6139272,-0.1290527,0.7762257,3
10.56,-9.062231,1.370185,-24.17947,0.3715122804987277,0.0281356631663017,1.1103073688338587,19.67963,76.75912,183.7752,0.6069901,-0.1540435,0.7754589,3
10.58,-8.950642,1.545768,-24.14671,0.3076041383423974,0.0429202363123657,1.10653214151102,23.26884,76.31595,183.862,0.5994511,-0.1788731,0.7739161,3
10.6,-9.044876,1.168528,-24.15333,0.2134532858785075,-0.02464895624367,1.0854227004697896,20.13845,74.09309,183.9716,0.5879923,-0.1600173,0.7890307,3
10.62,-9.040239,1.161103,-24.14744,0.1445240157670066,-0.0389654690485786,1.0714489650037289,21.56166,73.03601,183.9992,0.5789709,-0.1706344,0.7928883,3
10.64,-8.931622,1.348356,-24.11348,0.0739599363150786,-0.0503473727158151,1.0539495428741938,25.08372,72.54311,183.9503,0.5711185,-0.1948736,0.7909442,3
10.66,-8.952627,1.139362,-24.10127,0.0013471411406303,-0.0619672952734632,1.0325409919676916,26.2888,69.41426,183.8626,0.5478488,-0.2055244,0.8044438,3
10.68,-8.846953,1.332377,-24.06635,-0.0588840552800045,-0.0749179892577671,1.01040550571775,29.76673,68.84155,183.6496,0.5392778,-0.2291684,0.8014526,3
10.7,-8.741945,1.522337,-24.03119,-0.1046544445119714,-0.0556506525869212,0.990967870920572,33.24121,68.23328,183.3893,0.5302078,-0.2525961,0.7977052,3
10.72,-8.805923,1.122111,-24.03356,-0.1496642176766386,-0.0359960407522368,0.968306425735515,34.69075,64.1291,183.1391,0.4996225,-0.2664362,0.8129444,3
10.74,-8.70417,1.320422,-23.99684,-0.1835515492139092,-0.0435143258760086,0.94315427745383,38.08445,63.3717,182.6569,0.4899485,-0.2890685,0.808133,3
10.76,-8.602761,1.515845,-23.95981,-0.2211568827912533,-0.0769419229475383,0.9119290378539188,41.47144,62.53855,182.0907,0.4798363,-0.3114322,0.8025902,3
10.78,-8.613513,1.115758,-23.96638,-0.2572590419792017,-0.109151636380333,0.8774390974264272,41.84792,62.59604,182.2817,0.4790599,-0.3147589,0.8016642,3
10.8,-8.513778,1.31599,-23.92795,-0.2921959635411703,-0.1435326211949774,0.8393663918120495,45.20882,61.74912,181.7344,0.4686925,-0.337031,0.7952538,3
10.82,-8.414276,1.5134,-23.88918,-0.3048661759079352,-0.1509005386834705,0.806486012112158,48.56218,60.79963,181.0768,0.4579138,-0.3589968,0.7881371,3
10.84,-8.354603,1.113062,-23.86623,-0.3145638848850131,-0.1562578738173278,0.771187468551354,48.06263,60.505,179.4819,0.4617287,-0.3496918,0.7880053,3
10.86,-8.276284,1.110079,-23.83463,-0.3010621350812539,-0.1608446224979073,0.7422923380331508,50.64528,59.86095,178.6802,0.455246,-0.3654522,0.7808503,3
10.88,-8.180557,1.309718,-23.7946,-0.2775036011296518,-0.1339235776806888,0.7144880016314716,53.91082,58.79943,177.93,0.4446303,-0.3869512,0.772421,3
10.9,-8.085096,1.506701,-23.75426,-0.2486635010145739,-0.162720225106711,0.6846269561322855,57.16535,57.56831,177.0041,0.4336454,-0.4081154,0.7633412,3
10.92,-7.98478,1.102299,-23.71325,-0.2178604150235272,-0.1922298059334411,0.6523019403640027,59.64455,56.23322,174.0121,0.4312101,-0.4166703,0.751905,3
10.94,-7.890736,1.296203,-23.67271,-0.1545475950208071,-0.186032210131599,0.63026304458409,62.85061,54.54843,172.623,0.4200366,-0.4373049,0.7415102,3
10.96,-7.797257,1.487535,-23.63201,-0.0890581580131511,-0.2039536259168094,0.605675961089907,66.03207,52.46559,170.8316,0.4085191,-0.457568,0.7304999,3
10.98,-7.589949,1.1289,-23.5422,-0.0321041337986401,-0.1643423927489465,0.5796322165098307,60.94773,46.69699,166.6635,0.3933318,-0.4228022,0.7625917,3
11.0,-7.50983,1.144266,-23.50734,0.024866799616797,-0.1262301232695712,0.5517639793719606,58.38635,47.37566,167.8133,0.3961536,-0.4069093,0.7741127,3
11.02,-7.417755,1.326399,-23.46215,0.0958146693609213,-0.1046730196437303,0.5227938559176248,61.4255,45.09731,165.7178,0.3857622,-0.427048,0.7635095,3
11.04,-7.24048,1.195502,-23.39239,0.167733338869213,-0.0840630469103049,0.4925572280286592,48.31609,52.91895,173.1075,0.4278312,-0.3412849,0.8044055,3
11.06,-7.146786,1.372047,-23.345,0.2247035108150015,-0.0624838843110067,0.4577135563399657,51.44207,51.61438,172.0083,0.4184818,-0.362425,0.7959267,3
11.08,-7.054567,1.545897,-23.29787,0.281199262160545,-0.0417550588299433,0.4217440721842251,54.54892,50.10989,170.7049,0.4088035,-0.3832694,0.7868137,3
11.1,-6.958506,1.239195,-23.29603,0.3385710423425458,0.0234807686934157,0.389666677979934,32.07407,57.64159,175.3087,0.472829,-0.2228741,0.8358796,3
11.12,-6.822392,1.257665,-23.25346,0.3890724413116669,0.0179573173477105,0.3473654341490788,20.0202,60.90767,176.5508,0.5034118,-0.1347516,0.8458793,3
11.14,-6.716764,1.426514,-23.20006,0.4300490286048788,0.0560847146105655,0.3130479055943937,23.49882,60.33517,176.2524,0.497495,-0.1598701,0.842646,3
11.16,-6.655453,1.268198,-23.18772,0.4664871591112325,0.0918055313809931,0.2779324008971509,8.153462,63.53598,177.5293,0.5263299,-0.04910592,0.8470318,3
11.18,-6.547462,1.435465,-23.13309,0.4973874137854668,0.1020470174085234,0.2432253765110985,11.7018,63.05464,177.4109,0.5220114,-0.07511882,0.8465299,3
11.2,-6.441669,1.599154,-23.07897,0.5239277772449804,0.111456193991515,0.2088130129446335,15.24799,62.55898,177.26,0.5171872,-0.1010507,0.8452008,3
11.22,-6.37055,1.285035,-23.06708,0.549393182637588,0.0731245623132136,0.1731882668606394,353.3375,66.57227,178.7512,0.5473314,0.05454282,0.8348259,3
11.24,-6.261837,1.448262,-23.00751,0.5823277581910804,0.0809128073570198,0.1473903189904759,356.9372,66.09724,178.9336,0.5449237,0.02747282,0.8380082,3
11.26,-6.155576,1.607741,-22.94863,0.608185411260765,0.1111677219975437,0.1276626437672106,0.5372834,65.63477,179.086,0.5419716,0.0003826926,0.840346,3
11.28,-6.109179,1.295955,-22.95134,0.612183535944723,0.0896306724045192,0.1009220362398579,353.4655,66.99152,179.5002,0.5507659,0.04993125,0.8327006,3
11.3,-6.001026,1.456848,-22.89005,0.6099202534485525,0.0665830009611899,0.0763727897675115,357.0506,66.5126,179.7512,0.5481556,0.02271075,0.8359779,3
11.32,-5.895445,1.613978,-22.82956,0.5989327252553993,0.0615761128651842,0.051291090278319,0.6367117,66.05042,179.9718,0.5450007,-0.004524577,0.8384172,3
11.34,-5.877389,1.254714,-22.85817,0.5788724133132823,0.0320407448794994,0.0258927366222647,357.4182,67.67616,181.132,0.5568643,0.01321215,0.8302395,3
11.36,-5.818786,1.24989,-22.8328,0.5528450366464144,0.0017311451873756,0.0030418604438278,359.4579,67.86705,181.3509,0.558232,-0.002655741,0.8295879,3
11.38,-5.709799,1.414037,-22.77423,0.522943013748511,-0.0036906497905229,-0.0184193302212074,3.109711,67.41617,181.5952,0.5543897,-0.03029257,0.8316988,3
11.4,-5.603238,1.574449,-22.71634,0.4984509830491365,0.0169440085068316,-0.0340198442989017,6.762914,66.97893,181.8118,0.5499764,-0.05789413,0.832946,3
11.42,-5.649961,1.23761,-22.75825,0.4484730032123056,-0.0124061446695374,-0.0561104982529259,6.185675,68.22328,182.5688,0.5588484,-0.05721229,0.8272111,3
11.44,-5.540932,1.404657,-22.70066,0.3969818995902218,-0.0175105493704295,-0.080489809684944,9.847119,67.80399,182.8247,0.5537913,-0.08491109,0.8278592,3
11.46,-5.540118,1.217466,-22.70993,0.3409432774527148,-0.0211601944320227,-0.1022696138789371,11.88885,68.5571,183.3412,0.5574552,-0.1018709,0.8232172,3
11.48,-5.432598,1.389984,-22.65535,0.2612929481993354,-0.0776913643965363,-0.1300980392115156,15.50741,68.15916,183.5782,0.5514613,-0.1290246,0.8226476,3
11.5,-5.463758,1.199734,-22.67726,0.2049429164228657,-0.0585585111626112,-0.1537754200849375,14.75584,68.71608,183.6532,0.5560267,-0.123795,0.8205864,3
11.52,-5.357619,1.376443,-22.62451,0.1392065208815206,-0.0652048313057617,-0.181390533680827,18.34474,68.32887,183.8846,0.5496003,-0.1506107,0.8194139,3
11.54,-5.359142,1.175744,-22.63143,0.0627476940450877,-0.0977856173398215,-0.2100508551670232,18.73801,67.92921,184.0616,0.5460973,-0.1544661,0.8210283,3
11.56,-5.254655,1.358479,-22.58064,0.0038758043718065,-0.0733038102784739,-0.2342249467623656,22.30144,67.53719,184.2334,0.539037,-0.180796,0.8190099,3
11.58,-5.151459,1.537901,-22.52999,-0.0743878365839738,-0.1034288217801965,-0.2634355774199433,25.86481,67.14639,184.3828,0.5314506,-0.2069398,0.8161848,3
11.6,-5.23175,1.153163,-22.57285,-0.1533902961103488,-0.1318793955640171,-0.2899565024993338,23.05622,65.60045,184.0383,0.5245352,-0.1865826,0.8269107,3
11.62,-5.174692,1.139081,-22.54705,-0.2222920296874883,-0.1347317155190289,-0.3158971171204729,26.29805,64.12125,183.9677,0.5099154,-0.2105684,0.8289528,3
11.64,-5.073822,1.331822,-22.49968,-0.2797976613757426,-0.1347666144401027,-0.3370252504935287,29.7829,63.62369,183.8675,0.5017682,-0.2354505,0.8253468,3
11.66,-4.973642,1.521505,-22.45219,-0.3353031044957479,-0.1320602879536565,-0.3551422495149574,33.26554,63.10046,183.7275,0.4931544,-0.2601018,0.8209648,3
11.68,-5.018852,1.124917,-22.47633,-0.3820003839038843,-0.12712603093572,-0.3723921960972833,32.06905,61.21279,183.5213,0.4817944,-0.2526577,0.831131,3
11.7,-4.919873,1.322126,-22.4302,-0.4254588187822312,-0.1198454571330506,-0.3866673109302843,35.50049,60.59103,183.2109,0.4728813,-0.2765913,0.8263169,3
11.72,-4.821319,1.516392,-22.38384,-0.479217800105853,-0.1698380124137088,-0.4052121208653143,38.92783,59.91699,182.8384,0.4635397,-0.3002644,0.8207454,3
11.74,-4.786533,1.115615,-22.38836,-0.5050166457528535,-0.1601296505723846,-0.4162747882399826,41.85052,60.36962,182.3541,0.4631895,-0.318305,0.8109163,3
11.76,-4.727149,1.115019,-22.36589,-0.5262503406471962,-0.1485121754610811,-0.424288332598401,43.24391,60.34946,181.7467,0.462361,-0.3256359,0.8063964,3
11.78,-4.630745,1.315385,-22.32221,-0.5510015316429484,-0.1949451163565423,-0.4333855241565505,46.57879,59.57418,181.2824,0.4524323,-0.3482223,0.7993106,3
11.8,-4.534576,1.512983,-22.27822,-0.554701825967089,-0.1531698596475462,-0.4331049686881183,49.90767,58.70535,180.7169,0.4421151,-0.3704987,0.7915301,3
11.82,-4.524847,1.112967,-22.28698,-0.5589808535443336,-0.1690139352886915,-0.4329927315934694,48.04887,59.40203,179.5326,0.4539908,-0.3517903,0.7925464,3
11.84,-4.429092,1.313514,-22.24414,-0.5462521469615219,-0.2135624794920557,-0.4263448806290415,51.3498,58.48393,178.9138,0.4438316,-0.3738608,0.7843721,3
11.86,-4.275888,1.103776,-22.18861,-0.5237814848839115,-0.1707728538133253,-0.4149809666819717,56.47973,57.68302,176.1966,0.4384921,-0.4001406,0.7636968,3
11.88,-4.181589,1.299957,-22.14702,-0.4902881321934234,-0.1522834345401586,-0.3992169662385265,59.72355,56.36965,175.1742,0.4277208,-0.4212379,0.7538223,3
11.9,-4.068101,1.104504,-22.10471,-0.4529883035326743,-0.133709666141044,-0.3812166182311589,61.19435,53.37303,171.2086,0.4202973,-0.4238121,0.749293,3
11.92,-3.974864,1.295855,-22.06333,-0.411530304640274,-0.1686303119749024,-0.3618450868461318,64.35126,51.35746,169.442,0.4093744,-0.4441431,0.7383599,3
11.94,-3.770793,1.128823,-21.98414,-0.3559843565471983,-0.138584717780988,-0.3373560194357159,60.95163,47.42855,166.7175,0.3979899,-0.4211476,0.7601867,3
11.96,-3.671757,1.144202,-21.94386,-0.2978549113516911,-0.1093025855700517,-0.3109042357650589,58.39286,48.08854,167.848,0.4008325,-0.4053286,0.7716913,3
11.98,-3.579411,1.326305,-21.89935,-0.2368543780273828,-0.1297082236495645,-0.2846190132964872,61.43571,45.87069,165.7974,0.3906021,-0.4254042,0.7610485,3
12.0,-3.488235,1.505841,-21.85498,-0.1906665590835945,-0.0721383751741375,-0.2637446040394615,64.43095,43.16243,163.2538,0.3800644,-0.4451329,0.7497989,3
12.02,-3.29685,1.209781,-21.82902,-0.1359070052330225,-0.0347840307448332,-0.2460935579525522,43.36954,58.23074,173.9388,0.46857,-0.298455,0.8011743,3
12.04,-3.189561,1.381467,-21.78084,-0.0785115721000559,0.0011157322468845,-0.2271554928153727,46.87297,57.18059,173.0803,0.4593398,-0.3221008,0.7926705,3
12.06,-3.1011,1.239102,-21.77293,-0.031908557423102,0.0790043244756141,-0.2109300236094298,32.08427,61.27972,175.369,0.4990004,-0.2177802,0.820518,3
12.08,-2.99263,1.408605,-21.72425,0.0071039239835052,0.0849195088552738,-0.2032999230779686,35.59763,60.56097,174.8698,0.4914316,-0.2422205,0.8145114,3
12.1,-2.886204,1.574647,-21.67597,0.0477973214805798,0.0881948535513661,-0.1950605465988948,39.10544,59.76814,174.2888,0.4833879,-0.2664234,0.8077151,3
12.12,-2.816919,1.268041,-21.68999,0.0835906370254285,0.1122885179149475,-0.1849964590936492,8.172369,67.00131,177.5491,0.5516886,-0.047632,0.8307287,3
12.14,-2.705599,1.43513,-21.64134,0.1141019285603334,0.1578003727840445,-0.1733557439084756,11.73328,66.54528,177.4525,0.5475152,-0.07330468,0.8302387,3
12.16,-2.596506,1.598614,-21.59311,0.1427805199725778,0.2000908101373185,-0.1621039616771518,15.29249,66.07654,177.3248,0.5428082,-0.09889796,0.8289332,3
12.18,-2.551272,1.279204,-21.59602,0.1682832726364657,0.2184772220509258,-0.1520033659522459,354.477,69.81435,178.3933,0.5709739,0.04752054,0.819434,3
12.2,-2.439083,1.444073,-21.54649,0.1918711325495129,0.2351459547437265,-0.1420528546247053,358.0524,69.37063,178.481,0.5687514,0.02151581,0.8222273,3
12.22,-2.301634,1.293746,-21.50637,0.2035522379612951,0.2008200195231354,-0.1395943537774826,352.8299,70.57242,179.2609,0.5761897,0.05475902,0.8148955,3
12.24,-2.217144,1.296078,-21.47303,0.2179328452427399,0.2342140498170845,-0.131303387045186,353.4478,70.58596,179.5104,0.576609,0.04910872,0.8150082,3
12.26,-2.105866,1.457133,-21.41865,0.2288072552973765,0.2645488043947698,-0.1244466459741686,357.0173,70.12738,179.7736,0.5742489,0.02243748,0.8182647,3
12.28,-2.10288,1.270133,-21.42881,0.2179680731995464,0.2176783285979039,-0.1312325972705967,354.0741,70.85413,179.987,0.5788864,0.04218556,0.8137682,3
12.3,-1.994213,1.433774,-21.37658,0.2133386422258751,0.2386246281964517,-0.130382040484482,357.5946,70.3996,180.2442,0.5763377,0.01592312,0.8169392,3
12.32,-1.991054,1.254612,-21.39684,0.1909699013366402,0.2092571535563557,-0.1394879896288041,357.433,71.08576,181.1093,0.5813156,0.01259928,0.8133125,3
12.34,-1.901708,1.245925,-21.36549,0.1665063326270983,0.1790369108010686,-0.1503756209390658,1.402159,71.63782,181.5866,0.5849881,-0.01802295,0.8108316,3
12.36,-1.789859,1.410884,-21.31403,0.1521993936245014,0.222079608189025,-0.1502124849795674,5.040076,71.21833,181.854,0.5810355,-0.04515321,0.8125294,3
12.38,-1.789008,1.237852,-21.32175,0.1195496683678385,0.2154297204989432,-0.1578304258142036,6.148924,71.66045,182.5616,0.583425,-0.05653869,0.8100879,3
12.4,-1.677372,1.405173,-21.27136,0.0850854662557227,0.2094061276199525,-0.1667793646829705,9.784301,71.26183,182.8143,0.5785623,-0.08354766,0.8108014,3
12.42,-1.708503,1.226521,-21.2888,0.0263846526132338,0.1496711235941359,-0.187415546519313,10.30145,71.62625,183.1393,0.5805678,-0.08873822,0.8087911,3
12.44,-1.658396,1.208957,-21.27234,-0.0109527002165818,0.1639715442701265,-0.1949487738569018,13.41099,72.1066,183.525,0.5813317,-0.1123345,0.8046734,3
12.46,-1.549024,1.383741,-21.22553,-0.0497247280724357,0.1776468685415591,-0.2038785294823863,16.9948,71.73617,183.761,0.5752478,-0.1386949,0.8038819,3
12.48,-1.572489,1.191133,-21.23899,-0.0996711414759297,0.1633723407461187,-0.2158761458631084,16.05429,71.95095,183.7628,0.5776595,-0.1320442,0.8036005,3
12.5,-1.464624,1.370049,-21.19347,-0.1494226407615106,0.1508947230528805,-0.228529201859732,19.61348,71.58772,183.9855,0.5711719,-0.1581127,0.802255,3
12.52,-1.505834,1.175886,-21.21247,-0.1934572350664745,0.1366188857318554,-0.2370806575193045,18.71136,71.04171,184.0505,0.568237,-0.1524873,0.8059139,3
12.54,-1.46121,1.160895,-21.19466,-0.2449190236950967,0.0969135682269463,-0.2495359241767345,21.54905,69.63216,184.1074,0.5550182,-0.1734807,0.8098225,3
12.56,-1.355979,1.347882,-21.15133,-0.279196412364014,0.1149676595584089,-0.2535421034925993,25.06718,69.22891,184.1755,0.5476398,-0.1986816,0.807338,3
12.58,-1.378917,1.145537,-21.16134,-0.3288481719988779,0.0775729506414867,-0.2643975162754466,24.57962,68.08042,184.056,0.5403622,-0.1956276,0.8133649,3
12.6,-1.275338,1.336562,-21.11891,-0.3762288533317316,0.0416646297694211,-0.2753411149185778,28.06735,67.63832,184.0272,0.5325496,-0.2203104,0.8102466,3
12.62,-1.309634,1.132857,-21.13226,-0.4119672512237899,0.0324886266179918,-0.2797535864341465,27.99669,66.23885,183.9366,0.5228885,-0.220684,0.8167213,3
12.64,-1.247087,1.124934,-21.10728,-0.4401091833065066,0.0272721949805392,-0.2819749804753089,32.05058,64.48326,183.5214,0.5053433,-0.2491387,0.817079,3
12.66,-1.145996,1.322171,-21.06705,-0.4639679657201714,0.0241361869765408,-0.2835863634868492,35.46757,63.88347,183.2124,0.4964739,-0.2724982,0.8124629,3
12.68,-1.130902,1.118842,-21.06422,-0.4947753095285208,-0.0365270248900493,-0.2909438085403257,37.3627,63.21766,182.976,0.489253,-0.285587,0.8108642,3
12.7,-1.030615,1.317753,-21.02514,-0.4996483043959855,-0.0098780453433214,-0.287323612425935,40.74546,62.50582,182.5243,0.47969,-0.3082488,0.8051945,3
12.72,-1.02368,1.11568,-21.03621,-0.5117912612447979,-0.0400070560170914,-0.288334112961996,41.81898,63.39302,182.3268,0.484552,-0.3135626,0.7984548,3
12.74,-0.9279206,1.114525,-21.00613,-0.5175541266058779,-0.0982365682601491,-0.2892463523869581,44.66107,63.48546,181.1193,0.4834728,-0.327854,0.7885589,3
12.76,-0.8293862,1.315163,-20.9679,-0.5088504194439141,-0.0684676631571889,-0.2820707793185044,47.98986,62.71471,180.6427,0.4734492,-0.3499198,0.7813169,3
12.78,-0.785679,1.113007,-20.95766,-0.4926200408877944,-0.0664877948105596,-0.2728978537449849,48.03979,62.40677,179.511,0.4746957,-0.3461442,0.7803584,3
12.8,-0.687793,1.313604,-20.92043,-0.4709718851222044,-0.0634203058800563,-0.2626390680148867,51.33135,61.49266,178.8699,0.4644464,-0.367677,0.7724227,3
12.82,-0.629939,1.107226,-20.90479,-0.4435734785514077,-0.1191370320643842,-0.2523827231342896,53.2776,61.377,177.6575,0.4639809,-0.3761677,0.7638332,3
12.84,-0.4478347,1.102275,-20.84172,-0.3858837500494428,-0.1142859206254264,-0.2302067054182703,59.63311,59.1735,174.0399,0.4502805,-0.4095355,0.7407085,3
12.86,-0.3518144,1.296156,-20.80577,-0.3239770783562991,-0.1098253361032395,-0.2071233231223117,62.8418,57.55562,172.6782,0.4391575,-0.4297706,0.730414,3
12.88,-0.2271168,1.109121,-20.76298,-0.2638918318433702,-0.0981690191865683,-0.1853258709613565,62.62338,52.8239,167.8828,0.4270383,-0.4227364,0.7365016,3
12.9,-0.1323229,1.297978,-20.72572,-0.200643236733449,-0.0869773198053213,-0.162739564358108,65.7147,50.35395,165.6094,0.4160447,-0.4423792,0.725324,3
12.92,-0.03341663,1.128793,-20.69324,-0.1371082920342475,-0.0682597622414555,-0.1414471615598511,60.95279,50.14468,166.7275,0.4158576,-0.4141088,0.7505618,3
12.94,0.1430235,1.161566,-20.6328,-0.0617797833178815,-0.0708311807767977,-0.1185673181786102,55.79244,51.37669,168.7643,0.4225391,-0.3821011,0.7727675,3
12.96,0.2385137,1.341474,-20.5927,-0.0010694953379287,-0.0227337668949163,-0.1007887901830417,58.84415,49.3812,166.8951,0.412398,-0.401894,0.7628075,3
12.98,0.3371869,1.195387,-20.56629,0.0604103199037249,0.00324382749502,-0.0879287032034787,48.3308,56.68477,173.1468,0.4538975,-0.3337667,0.7899473,3
13.0,0.433463,1.371887,-20.52447,0.1243353802643953,0.0277172690996014,-0.0749546262412375,51.45942,55.46432,172.1017,0.4446705,-0.3544762,0.7815673,3
13.02,0.5690448,1.239231,-20.52109,0.1810999435022664,0.0031978516238752,-0.0701996535994773,32.11121,62.1836,175.3033,0.5055553,-0.2163048,0.816395,3
13.04,0.6787349,1.408971,-20.47612,0.22700032899797,0.0234686284445617,-0.0656938557895787,35.60754,61.44917,174.7392,0.497994,-0.2402381,0.8104332,3
13.06,0.7863845,1.575279,-20.43147,0.2715249819980937,0.0426210571368882,-0.0619513764588277,39.09628,60.63597,174.0907,0.4899585,-0.2639336,0.8036931,3
13.08,0.8356985,1.263382,-20.44876,0.3082452895099852,0.058425245494045,-0.0589795621443203,13.96473,66.77121,177.1408,0.5485525,-0.08784585,0.8268669,3
13.1,0.9481119,1.43094,-20.40288,0.3433077864612648,0.0729206645962064,-0.0568385936214452,17.52726,66.29875,176.9429,0.5436502,-0.1131003,0.8249566,3
13.12,1.020874,1.275512,-20.39428,0.3722249447444725,0.0384147337347021,-0.060044947095184,358.4586,70.34655,178.1893,0.5757534,0.0200945,0.8173602,3
13.14,1.134101,1.441072,-20.34709,0.4046469491667713,0.0704638843379424,-0.0545770673545975,2.040286,69.9289,178.2445,0.5731335,-0.005811334,0.8191255,3
13.16,1.244995,1.602957,-20.30034,0.4336507603368543,0.098747452529142,-0.0497282312431446,5.621255,69.5134,178.2737,0.5699493,-0.0317042,0.8200779,3
13.18,1.302961,1.291372,-20.29994,0.4489623509662088,0.0544127293937781,-0.0537449972829455,352.2389,71.73947,179.0359,0.584119,0.05975818,0.8087984,3
13.2,1.417039,1.453455,-20.2503,0.4587281175334278,0.0534090292236461,-0.0563960784961756,355.8384,71.30299,179.2269,0.582257,0.03343305,0.8121658,3
13.22,1.462041,1.283292,-20.25025,0.4622447964797188,0.0247656392992743,-0.0633468175449518,353.746,72.15804,179.7244,0.587916,0.04550099,0.8070773,3
13.24,1.573222,1.445852,-20.20087,0.4580238499450154,0.0406542380392163,-0.0699535039131928,357.2764,71.72375,179.9606,0.5856612,0.01946207,0.8102076,3
13.26,1.681929,1.60481,-20.15202,0.4406939465072016,0.0300057773336371,-0.0823776632337582,0.806886,71.30487,180.1699,0.5828433,-0.006585713,0.8125529,3
13.28,1.662914,1.254811,-20.18709,0.4193424703758504,0.0186507258376249,-0.0967932044452188,357.4095,72.4362,181.1135,0.5908591,0.0124954,0.8063999,3
13.3,1.773765,1.419357,-20.13888,0.3923230732210998,0.0080687376273823,-0.1115033679230173,0.9667249,72.01833,181.3485,0.5877728,-0.01374187,0.8088967,3
13.32,1.780806,1.240693,-20.14783,0.3572282395055622,-0.0277326288028096,-0.1308119589762806,3.973334,72.82672,182.0343,0.5926611,-0.03842539,0.8045105,3
13.34,1.893406,1.407099,-20.09992,0.3346984777689508,-0.0136713151614502,-0.1412598347176121,7.599497,72.43802,182.2825,0.5883929,-0.06519579,0.8056113,3
13.36,2.003705,1.569854,-20.05246,0.2941120559351466,-0.0250177108518478,-0.1572139755343311,11.2262,72.06161,182.5081,0.5835285,-0.09189208,0.8058897,3
13.38,1.953731,1.226542,-20.08318,0.2505218547633855,-0.0358232803579702,-0.1748363491366285,10.29249,72.79955,183.1457,0.5888194,-0.08839307,0.8028108,3
13.4,2.065254,1.39722,-20.0367,0.1985018696886171,-0.0496290974616682,-0.1935546898456532,13.89899,72.43651,183.3816,0.5833863,-0.1148782,0.8026058,3
13.42,2.019661,1.200063,-20.06109,0.1362677961524689,-0.0897782640345239,-0.2169620771292097,14.70965,72.79084,183.6322,0.5849115,-0.1216414,0.8003249,3
13.44,2.12847,1.377108,-20.01719,0.0928758869532534,-0.0778136696310509,-0.2320518556673145,18.25997,72.43976,183.8456,0.5787761,-0.1475143,0.7992319,3
13.46,2.235662,1.550781,-19.97347,0.0385767963397165,-0.0911347454279512,-0.2496296325769411,21.81045,72.09526,184.0403,0.5720798,-0.1732357,0.7973584,3
13.48,2.162925,1.175915,-20.00963,-0.0165241016727145,-0.1029513505036499,-0.2680855369909087,18.70691,71.90752,184.0472,0.574319,-0.1519369,0.8015999,3
13.5,2.270113,1.358852,-19.96702,-0.0740181027355971,-0.115666684144382,-0.2853910045451004,22.2416,71.55312,184.2074,0.5675175,-0.1774346,0.7996718,3
13.52,2.273001,1.153179,-19.96924,-0.1384208915984516,-0.1553409174443553,-0.3056577408132552,23.03868,69.86499,184.0575,0.5549294,-0.1834786,0.8068584,3
13.54,2.317502,1.14558,-19.95362,-0.1803129791964344,-0.1382584824447153,-0.3169948593908929,24.56635,69.14857,184.0618,0.5479275,-0.1947112,0.8083152,3
13.56,2.421772,1.336584,-19.91299,-0.2275298097821366,-0.1471501250070306,-0.3296544651572919,28.05152,68.73016,184.041,0.5402417,-0.2192402,0.8051736,3
13.58,2.405077,1.132865,-19.92057,-0.2727269554233273,-0.1540851705675545,-0.3424479261139144,27.99191,67.34747,183.9397,0.5307662,-0.2196468,0.8116349,3
13.6,2.507926,1.327381,-19.88105,-0.3130983034413533,-0.1603145020386797,-0.352719004335372,31.44315,66.86295,183.7862,0.5225689,-0.2435268,0.8078181,3
13.62,2.485677,1.124939,-19.89163,-0.361636297655125,-0.1931175896575511,-0.3664356050074482,32.04506,65.63245,183.5241,0.5135146,-0.2478739,0.8119836,3
13.64,2.564933,1.118838,-19.86657,-0.3861819834198903,-0.1664004113720463,-0.3719104663142478,37.34626,64.77496,182.9874,0.5002263,-0.2835007,0.8041926,3
13.66,2.666207,1.317716,-19.82994,-0.4082311195348307,-0.16623063834106,-0.3789704747137308,40.73012,64.09122,182.5485,0.4907466,-0.3059629,0.7985544,3
13.68,2.690287,1.115671,-19.83624,-0.4337734946133017,-0.192989496808289,-0.3879396900247607,41.81951,64.95794,182.3308,0.4953987,-0.3112145,0.7917681,3
13.7,2.791009,1.315803,-19.8009,-0.4420186728441573,-0.1598833728035397,-0.3907966370558466,45.17507,64.21291,181.8389,0.485441,-0.3331847,0.7852625,3
13.72,2.803789,1.114523,-19.80396,-0.457804600757638,-0.1841268794500359,-0.3967327983475845,44.65622,65.06019,181.1234,0.4942605,-0.3251667,0.7818611,3
13.74,2.910158,1.112988,-19.77387,-0.4507148305410562,-0.1778199395041856,-0.394048862049897,48.03458,64.3709,179.5249,0.4879688,-0.3424461,0.7721503,3
13.76,3.009232,1.313561,-19.73974,-0.4378339883383429,-0.1404246593993594,-0.3891553461420747,51.32742,63.48761,178.8981,0.4777406,-0.363725,0.7642911,3
13.78,3.084061,1.107231,-19.72145,-0.4190669456360871,-0.1607087363221873,-0.384005786925734,53.26708,63.32487,177.6662,0.4768892,-0.3719237,0.7558914,3
13.8,3.182005,1.305782,-19.68781,-0.3876331091665024,-0.1220881333424143,-0.3740245880634187,56.52375,62.23956,176.8342,0.4662431,-0.3926303,0.746989,3
13.82,3.284478,1.10229,-19.66,-0.3443773352313203,-0.137507255208913,-0.3624498546334829,59.61702,61.11011,174.0475,0.4627366,-0.4045953,0.733076,3
13.84,3.471506,1.109041,-19.60261,-0.2913257017667364,-0.0945565008245082,-0.346783611538576,62.62861,55.16555,167.9275,0.4418285,-0.4165087,0.7277237,3
13.86,3.567726,1.297827,-19.56864,-0.2472424935935662,-0.0236046426175534,-0.3340988236423379,65.73062,52.75644,165.6998,0.4307949,-0.4359334,0.7166323,3
13.88,3.684254,1.12873,-19.53526,-0.1977656120147837,-0.0281882960714202,-0.3218632274384982,60.96173,52.44062,166.7584,0.4306907,-0.4081196,0.7421252,3
13.9,3.780396,1.31299,-19.49977,-0.1498535312159119,0.0216071458371351,-0.3098523495945966,64.00668,49.95189,164.4068,0.4199258,-0.4273935,0.7312527,3
13.92,3.878556,1.16144,-19.47674,-0.0949026652215569,0.0254385838067449,-0.3016982297851283,55.80877,53.64003,168.7888,0.4376193,-0.376709,0.7642683,3
13.94,4.039951,1.195224,-19.4335,-0.0368682847132686,0.0794064698015152,-0.292086881728566,48.35402,59.30194,173.1726,0.471714,-0.3284223,0.7793543,3
13.96,4.137998,1.371623,-19.39546,0.0118495969035463,0.1527563506205534,-0.2853886879228824,51.4923,58.12902,172.1643,0.462488,-0.3488993,0.7710437,3
13.98,4.242341,1.226968,-19.39338,0.0524263160060558,0.1555666373316902,-0.2846128173603985,38.06871,62.61969,174.6699,0.503677,-0.2554967,0.7989016,3
14.0,4.354295,1.397065,-19.35171,0.0849104881982493,0.1812253480628434,-0.284634527983771,41.60065,61.7524,173.9412,0.4951742,-0.279006,0.7915867,3
14.02,4.399945,1.249974,-19.36695,0.1201130059999832,0.1829996181511886,-0.2850098070879183,26.28753,66.18367,175.9836,0.5380287,-0.1717626,0.8109968,3
14.04,4.524552,1.263896,-19.34658,0.1511244821732906,0.2277899233096324,-0.279841318223065,13.90484,69.58613,177.1637,0.5687051,-0.08535585,0.813221,3
14.06,4.636899,1.432101,-19.30644,0.171225546834284,0.2236085291279528,-0.277101594507672,17.40351,69.14052,176.9915,0.5639621,-0.1098108,0.8114187,3
14.08,4.687747,1.272001,-19.30668,0.1905996347970353,0.2169742024742729,-0.2747849345150222,2.42328,72.3102,177.9294,0.5900534,-0.006412989,0.8068853,3
14.1,4.802396,1.438732,-19.2666,0.2049847095209405,0.2311565735954512,-0.2664244948159893,5.975239,71.91017,177.9057,0.587026,-0.03146736,0.8076832,3
14.12,4.88734,1.284956,-19.25644,0.2080860525792756,0.2212551636086507,-0.2612265469801147,353.3465,74.49548,178.7603,0.6037075,0.05272793,0.7950181,3
14.14,5.003427,1.448153,-19.21256,0.2157379620877468,0.2562324611385165,-0.2502889977711349,356.9463,74.08128,178.9574,0.6019491,0.02674695,0.7980381,3
14.16,5.117016,1.607593,-19.16909,0.2117203288566749,0.2409910333692403,-0.2436780568369481,0.5462878,73.68046,179.1282,0.5995906,0.0007464546,0.8002567,3
14.18,5.159848,1.295919,-19.18176,0.1943767249360157,0.198335940561272,-0.2415380084517719,353.4603,75.15237,179.5075,0.6086231,0.04782238,0.7913951,3
14.2,5.192438,1.283318,-19.17707,0.1827411659489202,0.2228787781974075,-0.232916033747176,353.7409,75.53622,179.7445,0.611456,0.04451954,0.7893898,3
14.22,5.286484,1.262262,-19.15963,0.1502535534526561,0.1963917905209128,-0.2336630741850776,355.7256,76.04372,180.5524,0.6156682,0.02641068,0.7871079,3
14.24,5.400066,1.426285,-19.11812,0.1211439025103882,0.1929310056931429,-0.23030880729068,359.2692,75.63732,180.8017,0.6131722,0.0007485747,0.7898927,3
14.26,5.425481,1.250244,-19.12529,0.090569800411411,0.188685375361978,-0.2277269437359605,359.4134,76.33911,181.3456,0.6179873,-0.003232341,0.7860838,3
14.28,5.541072,1.41479,-19.08431,0.0411510411168489,0.1335695152893899,-0.2348464149634916,3.029303,75.94958,181.59,0.6147515,-0.02936856,0.788156,3
14.3,5.534714,1.240425,-19.09681,0.0095134314392459,0.152103196270282,-0.2308662265391627,3.997915,76.73461,182.0419,0.6197371,-0.0383973,0.7838323,3
14.32,5.614011,1.232209,-19.07776,-0.0463196506125527,0.1198085015238223,-0.2388818390655904,8.224119,77.04256,182.8594,0.6196089,-0.07158377,0.7812343,3
14.34,5.729637,1.401098,-19.03885,-0.0995781594445988,0.1110271688217324,-0.2459148978826024,11.85343,76.6927,183.1098,0.6146729,-0.09769653,0.7815339,3
14.36,5.718019,1.217625,-19.04852,-0.1529905823830863,0.102858424477282,-0.2541317018588516,11.86452,77.19767,183.3398,0.6179055,-0.09882174,0.7788968,3
14.38,5.832288,1.39026,-19.01118,-0.2286241605895758,0.0409907877421616,-0.2720979011058406,15.46758,76.86182,183.5804,0.6123227,-0.1246068,0.7784671,3
14.4,5.794983,1.199855,-19.02995,-0.280288216943827,0.0540143599737431,-0.2801319035352159,14.73402,77.50692,183.6582,0.6172954,-0.1197595,0.7755772,3
14.42,5.851198,1.183306,-19.01687,-0.3570709180294846,0.0135796032199392,-0.2979446411196598,17.37917,77.30921,183.9223,0.613055,-0.1390447,0.774739,3
14.44,5.962601,1.364113,-18.98261,-0.4206977623529919,0.0003215862417703,-0.3106165745037614,20.93413,76.98706,184.1338,0.6065423,-0.164172,0.7732319,3
14.46,5.945382,1.168307,-18.99058,-0.4816041367140355,-0.0115327205766902,-0.3240688146449599,20.12486,76.11776,184.0857,0.6016986,-0.1591215,0.7786132,3
14.48,6.055338,1.353126,-18.9572,-0.5606285138519351,-0.079593040400792,-0.3438060279436543,23.6594,75.77669,184.219,0.5947186,-0.1838065,0.776558,3
14.5,6.017277,1.153113,-18.97127,-0.6100032957904549,-0.0658686207001127,-0.3527150462013106,23.04699,74.81388,184.0797,0.5892017,-0.1797716,0.7821558,3
14.52,6.073675,1.139028,-18.95627,-0.6757259387001029,-0.1086684131293856,-0.3670444765743723,26.28533,73.50423,184.0143,0.5759434,-0.2024773,0.7845314,3
14.54,6.180905,1.331604,-18.92463,-0.7219023983220938,-0.0925641230601725,-0.3756929219443319,29.7773,73.09265,183.9675,0.5679904,-0.2262178,0.781235,3
14.56,6.177038,1.128793,-18.92845,-0.7545453952602919,-0.0475716081319227,-0.3811628527181079,30.00866,71.72051,183.7171,0.5587355,-0.2280593,0.787324,3
14.58,6.282679,1.324613,-18.89867,-0.8019652860500752,-0.0885898127222276,-0.3920764123779046,33.4501,71.2188,183.5025,0.5502145,-0.250898,0.7833697,3
14.6,6.275805,1.121881,-18.90496,-0.8358398529470938,-0.0985432616365086,-0.3994609997801066,34.67128,70.42287,183.2465,0.5432869,-0.258943,0.7844707,3
14.62,6.30018,1.118855,-18.90155,-0.8639001463836524,-0.1354960942127428,-0.4091427675000285,37.33401,70.09136,182.9853,0.5370115,-0.2761198,0.7801514,3
14.64,6.404384,1.317741,-18.87454,-0.8676463891118831,-0.1129632487237387,-0.4121392987350982,40.71435,69.42641,182.5451,0.5274189,-0.2977415,0.7748814,3
14.66,6.454226,1.115028,-18.87827,-0.8701178670706511,-0.11718148054121,-0.415775452470398,43.22601,70.60492,181.7469,0.532618,-0.3087586,0.7618912,3
14.68,6.500144,1.114455,-18.86951,-0.8662099743967548,-0.1202385609494229,-0.4195188133855954,44.62164,70.58855,181.1524,0.5313797,-0.3152126,0.757261,3
14.7,6.601604,1.315068,-18.84336,-0.8523926932683139,-0.1226890460607535,-0.4192437924511627,47.92066,69.88426,180.7125,0.5213133,-0.3361441,0.750524,3
14.72,6.615529,1.112958,-18.84468,-0.8386489733794904,-0.152868540080975,-0.4201947993165693,48.00646,69.5774,179.5363,0.5225595,-0.3319677,0.7492959,3
14.74,6.743278,1.10718,-18.81679,-0.805474334413611,-0.1238367609750214,-0.4153484554588744,53.24286,68.84649,177.7052,0.5126726,-0.3594312,0.7322153,3
14.76,6.843261,1.305711,-18.79224,-0.7514616679556541,-0.1220166232216695,-0.4088529069891411,56.48194,67.81993,176.9182,0.5018637,-0.3793415,0.7237635,3
14.78,6.949424,1.102291,-18.7722,-0.6923233876227801,-0.120475403965534,-0.4021705988382864,59.6005,66.44757,174.0726,0.4963158,-0.3906015,0.7108665,3
14.8,7.048471,1.296229,-18.74859,-0.6249555427857667,-0.0619283641102051,-0.3930404322522367,62.78625,64.89739,172.7488,0.4848822,-0.4097369,0.7012248,3
14.82,7.198279,1.117875,-18.71985,-0.5378070722276969,-0.0817328347628681,-0.3847608147416426,61.81444,59.82595,167.3072,0.4744637,-0.3951979,0.7108287,3
14.84,7.296875,1.304423,-18.69498,-0.4480060705113153,-0.0444945672467955,-0.3754675096258681,64.87815,57.43881,165.0722,0.4632128,-0.4137499,0.7003874,3
14.86,7.394556,1.488445,-18.67001,-0.3688510868519163,0.0181059320092998,-0.3696806873685667,67.89075,54.42961,162.2131,0.4515955,-0.4319639,0.6893861,3
14.88,7.510102,1.161541,-18.65315,-0.2844894861858666,0.0079987472759774,-0.3660283164204463,55.79478,59.46378,168.777,0.4759352,-0.3614888,0.7410738,3
14.9,7.610277,1.341446,-18.62682,-0.2040579060489951,0.0258104431514488,-0.3650291968054451,58.84684,57.51842,166.9272,0.4653705,-0.3801586,0.731704,3
14.92,7.743845,1.209703,-18.63041,-0.114243470322171,0.0219790038110553,-0.3673162024905845,43.40665,67.77705,173.8944,0.5336661,-0.2789553,0.7592019,3
14.94,7.858229,1.381423,-18.60196,-0.0224251189553446,0.0648276045763293,-0.3681352030085949,46.90959,66.75246,172.9957,0.5240407,-0.3009317,0.7512709,3
14.96,7.970665,1.549754,-18.57356,0.0539407721740168,0.0811004102406771,-0.3745868564549339,50.3988,65.56887,171.9345,0.5139083,-0.3226079,0.7426075,3
14.98,8.013705,1.249957,-18.58509,0.1312461238970685,0.095597303533662,-0.3820054846684066,26.30612,71.14063,175.9559,0.5726191,-0.1649907,0.7868996,3
15.0,8.059522,1.257613,-18.57558,0.196590399244068,0.1074862046168016,-0.3888877899748815,20.07862,72.48248,176.5359,0.5861179,-0.1229388,0.7907079,3
15.02,8.178756,1.268463,-18.54679,0.2635566627464887,0.0954855283070238,-0.3983518808728452,8.166019,74.66993,177.5185,0.6060185,-0.04350049,0.7919647,3
15.04,8.294628,1.436083,-18.51515,0.3381774100010939,0.1279655276490498,-0.4009342884568392,11.68266,74.26388,177.3968,0.6022063,-0.06747704,0.7915079,3
15.06,8.341518,1.275786,-18.49606,0.4081419587403654,0.1801252416215903,-0.4017572085558294,358.4441,75.73148,178.1445,0.6135027,0.0206552,0.78941,3
15.08,8.458577,1.441662,-18.4616,0.4654982852353611,0.1603659642089814,-0.4075320364669528,2.006074,75.34724,178.1579,0.611213,-0.004030983,0.7911096,3
15.1,8.488035,1.285167,-18.44467,0.5288516915354333,0.1861644340045626,-0.4082742423265908,353.3406,76.06638,178.6997,0.6145191,0.05272486,0.7866797,3
15.12,8.535472,1.29115,-18.42828,0.588073370099627,0.2079709730822293,-0.4099834606499133,352.2561,76.30225,179.0645,0.6158738,0.05813233,0.7849038,3
15.14,8.653431,1.453012,-18.38706,0.6364412047414436,0.2003738612008518,-0.4135838275398336,355.8675,75.89607,179.2869,0.6143579,0.03225549,0.7881789,3
15.16,8.702013,1.282966,-18.37548,0.679859063089228,0.1915168840982309,-0.4186843247397491,353.7758,76.35587,179.7484,0.617099,0.04403223,0.7850077,3
15.18,8.737133,1.270261,-18.36418,0.717613963250846,0.1786258628430493,-0.4255755538398245,354.0691,76.46217,179.9819,0.6179996,0.04073526,0.7844746,3
15.2,8.850589,1.433925,-18.32338,0.7592454359355101,0.2291237173972084,-0.4261955253172695,357.5869,76.06145,180.2392,0.6159807,0.01529964,0.7874773,3
15.22,8.837049,1.254676,-18.34233,0.7802423693238623,0.2063842413650816,-0.4320681499869279,357.4205,76.50896,181.1024,0.61914,0.01171938,0.7848992,3
15.24,8.918769,1.245909,-18.31905,0.7999039987077998,0.2105821550170982,-0.4358198658209966,1.417241,76.99553,181.5842,0.6222432,-0.018283,0.7826043,3
15.26,9.035182,1.410884,-18.27881,0.8006649544721256,0.1640466417284745,-0.4451001999080906,5.054306,76.62971,181.8508,0.61874,-0.04459481,0.7841918,3
15.28,9.030908,1.237822,-18.29914,0.7981748935014235,0.1424191676161285,-0.4509180395447192,6.135666,78.47145,182.5856,0.63051,-0.05569201,0.7740073,3
15.3,9.147671,1.405088,-18.26188,0.7913101757617986,0.1210878920842341,-0.4585338522396349,9.767946,78.13053,182.8686,0.6260657,-0.08180011,0.7747103,3
15.32,9.102216,1.226466,-18.30182,0.7819859748379769,0.0960043333857026,-0.4633737748384066,10.28288,79.77285,183.1887,0.6365273,-0.08650667,0.7655329,3
15.34,9.131089,1.208894,-18.31233,0.7738958823906836,0.0983064758500912,-0.4669246479154432,13.39251,81.01588,183.5894,0.6420292,-0.1088181,0.757131,3
15.36,9.24597,1.38354,-18.28124,0.7427005274753948,0.0477095868922043,-0.4747694832270683,16.96825,80.71741,183.8966,0.636292,-0.134133,0.756479,3
15.38,9.207317,1.191015,-18.30859,0.7261072211430337,0.0501093223826017,-0.4773563706993675,16.03251,82.32794,183.8556,0.647884,-0.1268517,0.7481388,3
15.4,9.320989,1.369734,-18.28056,0.6846827933204478,-0.0010989160883051,-0.4840922970047385,19.57992,82.04867,184.1789,0.6417141,-0.1517787,0.7470197,3
15.42,9.253761,1.175707,-18.31239,0.6624544484699579,0.0025067630118719,-0.4842475055581499,18.6876,82.45552,184.1637,0.6454444,-0.1456525,0.7455142,3
15.44,9.284553,1.160584,-18.31508,0.6295555790570253,-0.0205538218872824,-0.4842947375800364,21.54177,81.68349,184.2365,0.636786,-0.1650293,0.7472003,3
15.46,9.395666,1.347303,-18.29096,0.594699530231114,-0.0416243564393091,-0.4854169217573369,25.04779,81.38821,184.4432,0.6296543,-0.1889635,0.7450851,3
15.48,9.362304,1.145213,-18.3039,0.5585453225201964,-0.063170503058541,-0.4830285981163134,24.57216,80.45882,184.1942,0.6246905,-0.1854433,0.7505087,3
15.5,9.47179,1.335911,-18.28069,0.5212604107051881,-0.0825872277692762,-0.4816611372697075,28.05376,80.13609,184.3149,0.6170778,-0.2088651,0.7478087,3
15.52,9.440217,1.128686,-18.29172,0.4958266650747485,-0.1019678751144227,-0.4750030696925345,29.99037,77.79041,183.7708,0.5995628,-0.2212205,0.7567311,3
15.54,9.547813,1.3244,-18.27189,0.4776429582974355,-0.0886622762221524,-0.466679307847476,33.42231,77.33186,183.613,0.5910168,-0.2432696,0.7531179,3
15.56,9.65498,1.517162,-18.25181,0.4481274564616928,-0.1318764914757741,-0.461200190261251,36.85205,76.84219,183.4141,0.5819382,-0.2650909,0.7488201,3
15.58,9.625696,1.118768,-18.26606,0.4347308012907345,-0.1153921219937073,-0.4514636238004734,37.34473,75.92052,183.0216,0.5758803,-0.2676995,0.7518706,3
15.6,9.664253,1.117255,-18.26838,0.4214308108690563,-0.0993523726447006,-0.4423618649666796,39.56209,76.15263,182.6507,0.574003,-0.2797576,0.7453694,3
15.62,9.767521,1.115062,-18.26454,0.408265806790113,-0.1115171323816683,-0.4317773376390303,43.23757,76.48122,181.7344,0.5709792,-0.2980471,0.7335367,3
15.64,9.872719,1.315441,-18.24963,0.4094273114328499,-0.1204763807336886,-0.4181458668391937,46.57745,75.77035,181.257,0.5605918,-0.3182071,0.7275584,3
15.66,9.918778,1.11378,-18.25044,0.4116641069856006,-0.1279068293753565,-0.4045895132026684,46.3401,76.02412,180.3563,0.5651889,-0.3117595,0.7250814,3
15.68,10.02307,1.314386,-18.23568,0.4226508529760107,-0.0774055709970887,-0.3866196025622694,49.65052,75.24709,179.8127,0.5546016,-0.331633,0.7184286,3
15.7,10.07408,1.110062,-18.23608,0.4420828733053894,-0.0847767957552032,-0.366867107609754,50.62458,75.19604,178.7169,0.5552993,-0.3325573,0.7132761,3
15.72,10.13145,1.107218,-18.23174,0.4624078183926827,-0.091310614756748,-0.3470352700570789,53.25666,74.81,177.6869,0.5500909,-0.3450008,0.7044659,3
15.74,10.23425,1.305739,-18.21794,0.4962961846136482,-0.040400089580872,-0.3231275146327617,56.51743,73.77422,176.8755,0.5388304,-0.3641228,0.6964867,3
15.76,10.44439,1.104472,-18.19957,0.5269675246202812,0.038273181258493,-0.2994152858998995,61.19073,69.75704,171.2253,0.5227283,-0.3786647,0.6818231,3
15.78,10.54588,1.295804,-18.1862,0.5805417514604345,0.0069643919558031,-0.2739119003243275,64.35367,67.82418,169.4695,0.510792,-0.3967475,0.6722012,3
15.8,10.64674,1.484571,-18.17262,0.6318295699338765,0.0336828305043992,-0.247594582698774,67.4827,65.38695,167.2068,0.4984409,-0.4144962,0.6620306,3
15.82,10.85543,1.143947,-18.16601,0.6972193628823082,0.0138595211032133,-0.2202884940088267,58.42834,66.2578,167.8931,0.5174512,-0.3561531,0.6987162,3
15.84,10.95723,1.325954,-18.15178,0.7525998034106505,0.0243590417577339,-0.194049922693114,61.48536,64.17204,165.9118,0.5062112,-0.3738441,0.689393,3
15.86,11.05789,1.505378,-18.13739,0.8045547771490027,0.0343582358233431,-0.1676963847122166,64.49905,61.61471,163.4571,0.4945728,-0.3912314,0.6795223,3
15.88,11.18274,1.195145,-18.13553,0.852634291268312,0.0407264721044251,-0.1413685617528903,48.37452,71.55799,173.153,0.5522316,-0.2999552,0.7244318,3
15.9,11.26881,1.209649,-18.13751,0.8928934757247129,0.0491060207674574,-0.1194082812017094,43.42374,73.27366,173.8798,0.5694619,-0.2668326,0.7326584,3
15.92,11.43063,1.238975,-18.1415,0.9304899543045866,0.056254159339167,-0.0975698906236441,32.1456,76.58635,175.3234,0.6038321,-0.1928168,0.7465432,3
15.94,11.54891,1.40842,-18.1248,0.9596451943859864,0.1054010091183781,-0.0715902583942775,35.66827,75.91783,174.7851,0.5959182,-0.2145856,0.7412177,3
15.96,11.61476,1.257125,-18.13609,0.97908356777786,0.0840566466410097,-0.0506643454146225,20.11167,79.54015,176.551,0.6336347,-0.1151903,0.7531062,3
15.98,11.73407,1.425342,-18.11951,0.9853067405805584,0.0377264273826467,-0.0321409034073969,23.64878,79.06466,176.261,0.6278311,-0.1376337,0.7502428,3
16.0,11.7729,1.267996,-18.12866,0.996051116645796,0.0580233334581777,-0.0081887586212401,8.230963,82.27024,177.531,0.657153,-0.03990333,0.7500269,3
16.02,11.91553,1.275586,-18.11982,1.0135705007086857,0.0549338672014433,0.0164579624757759,358.4741,84.47766,178.1689,0.6719196,0.02059711,0.7403321,3
16.04,12.03689,1.44125,-18.10283,1.024092095329586,0.07388643633043,0.0408663550568961,2.050129,84.11157,178.2078,0.6698724,-0.002806948,0.7420958,3
16.06,12.15592,1.603245,-18.08571,1.027060646753529,0.0893803059344087,0.0642466102725856,5.625276,83.74674,178.2239,0.6671687,-0.02620157,0.7431279,3
16.08,12.21135,1.291351,-18.09432,1.0318186698145362,0.1473078956379846,0.08812742982228,352.2455,85.89248,179.0294,0.6793088,0.05525276,0.730682,3
16.1,12.33422,1.453466,-18.07469,1.0109869090256387,0.1088862236878072,0.1037044855289948,355.8432,85.50757,179.2193,0.6782055,0.03125124,0.7339453,3
16.12,12.45451,1.611805,-18.05502,0.9956044301438158,0.1159789590036002,0.1203545417396267,359.4411,85.13596,179.3845,0.6764274,0.007225372,0.7364736,3
16.14,12.50083,1.269943,-18.07145,0.9732690220455832,0.0944990747216239,0.1329141266530094,354.0998,86.62988,179.9896,0.6850955,0.03750834,0.7266328,3
16.16,12.62077,1.433226,-18.05115,0.935709582092448,0.0487938770745025,0.14018456814604,357.6483,86.24666,180.2556,0.6834588,0.01345348,0.7296973,3
16.18,12.73823,1.5929,-18.03082,0.9014106003096084,0.0511361423404348,0.1485230367730134,1.197383,85.8805,180.4977,0.6811584,-0.01060772,0.7320486,3
16.2,12.85299,1.749126,-18.01051,0.8720438258822933,0.077435516167025,0.1578397402880447,4.74692,85.52855,180.7177,0.6781975,-0.03465183,0.7336853,3
16.22,12.78381,1.246168,-18.05425,0.8108832747900521,0.0298154345129413,0.1567909957790894,1.362035,87.53505,181.5836,0.6915005,-0.01814122,0.7221462,3
16.24,12.90493,1.411364,-18.03605,0.7633102611779967,0.0323344460657241,0.1607913150000444,4.976849,87.18742,181.8546,0.6882907,-0.04258977,0.7239544,3
16.26,12.92646,1.232164,-18.0456,0.7152283741486132,0.0590142982885247,0.1635643984191728,8.2244,87.97637,182.866,0.6912152,-0.06890165,0.7186518,3
16.28,12.96428,1.226481,-18.04255,0.6348433502378636,0.0087037450458775,0.1567809102473925,10.29297,88.01992,183.1483,0.6899491,-0.0835005,0.7177614,3
16.3,13.08458,1.397033,-18.02718,0.5532914849713619,-0.0167330055109601,0.1519654903844585,13.90985,87.70941,183.3915,0.6848489,-0.1076302,0.7179623,3
16.32,13.09431,1.199823,-18.03404,0.4679729413522722,-0.0406390493420713,0.1431347746458295,14.73666,88.51409,183.6652,0.6888243,-0.1139396,0.7128009,3
16.34,13.21211,1.376508,-18.02041,0.4024190976183739,-0.0146293943217428,0.141549615558822,18.31947,88.22478,183.9165,0.6828854,-0.1377079,0.712193,3
16.36,13.19914,1.183339,-18.02448,0.3197702805093501,-0.0409504682338181,0.1390536580818646,17.37456,87.98508,183.9197,0.6824785,-0.1320814,0.7143484,3
16.38,13.31511,1.364127,-18.01163,0.2352578541953263,-0.0651566919115839,0.1335592699794454,20.93089,87.69447,184.1314,0.6760495,-0.1554683,0.713267,3
16.4,13.2829,1.168354,-18.0165,0.1711845346417533,-0.0357702626061743,0.1335732476764488,20.11712,86.79825,184.0836,0.6715651,-0.1509243,0.7192387,3
16.42,13.39728,1.353152,-18.00423,0.0822979191669319,-0.0894949016320435,0.1283052699934805,23.65298,86.48872,184.2173,0.6646211,-0.1738644,0.7176593,3
16.44,13.39513,1.145525,-18.00559,0.0105680996972403,-0.1138407784812937,0.1280150796380699,24.58543,84.37798,184.0754,0.6501567,-0.1809813,0.7285723,3
16.46,13.50735,1.336374,-17.99335,-0.0485774961587637,-0.105578726348038,0.129679804077381,28.09699,84.01807,184.0726,0.6424121,-0.2033225,0.7261328,3
16.48,13.49228,1.132898,-17.99184,-0.1070249604083444,-0.0969660672237598,0.1295054585445982,27.98879,82.24649,183.9382,0.6315245,-0.2039873,0.7359717,3
16.5,13.60223,1.327376,-17.98011,-0.1659038528949854,-0.1159251489400418,0.1296274316213956,31.44773,81.8135,183.7868,0.6232142,-0.2255309,0.7329607,3
16.52,13.65125,1.121906,-17.97251,-0.2221856066843148,-0.1322338619072838,0.127781340673073,34.66721,79.52659,183.2415,0.6038482,-0.2461979,0.7388805,3
16.54,13.75938,1.319931,-17.96131,-0.2552040255450603,-0.0900029236221345,0.1290323021484303,38.07702,78.9515,182.8743,0.5944717,-0.2667877,0.7346426,3
16.56,13.79076,1.11726,-17.96396,-0.2971240709762366,-0.1334668548239379,0.1248129944380909,39.57287,78.7225,182.6497,0.590554,-0.2754549,0.7322853,3
16.58,13.89769,1.316775,-17.95339,-0.3435555015265121,-0.2041038204908079,0.1178108536186481,42.94458,78.05531,182.1787,0.5804791,-0.2954534,0.727177,3
16.6,14.00444,1.513437,-17.94254,-0.3663592525184094,-0.186567952683582,0.1146459577458571,46.31069,77.30861,181.623,0.5698953,-0.3151842,0.7214257,3
16.62,13.9957,1.114572,-17.95366,-0.3727020545313415,-0.1959224449860401,0.1121694550984391,44.65902,78.47517,181.106,0.582239,-0.2999024,0.7187372,3
16.64,14.1102,1.113017,-17.94564,-0.3744165454836072,-0.1731720513572982,0.1108534791262059,48.02714,77.53228,179.5186,0.573278,-0.3148988,0.711147,3
16.66,14.21471,1.313599,-17.93512,-0.3720946515009657,-0.1507756018037185,0.1090172209715558,51.32279,76.69311,178.8839,0.5625058,-0.3341677,0.7042687,3
16.68,14.31913,1.511453,-17.92431,-0.3542278536846961,-0.1565479449146725,0.1066300462174996,54.61063,75.72508,178.1159,0.5512605,-0.3531467,0.696793,3
16.7,14.41714,1.103839,-17.91958,-0.3344459503087664,-0.1883126444571575,0.1026423613267897,56.44336,75.24404,176.1933,0.5500255,-0.3564789,0.6879265,3
16.72,14.51988,1.300069,-17.90877,-0.3031881751880383,-0.1604604689483446,0.1000590370320715,59.68472,74.0113,175.1583,0.5384007,-0.3749768,0.679414,3
16.74,14.62226,1.493674,-17.89771,-0.2455819485459769,-0.153553986381184,0.0969867632141792,62.91103,72.51704,173.8584,0.5263333,-0.3931554,0.6703383,3
16.76,14.72414,1.684678,-17.88642,-0.1847957945450877,-0.1468113540368513,0.0926900371394996,66.11693,70.65638,172.1893,0.5138333,-0.4110013,0.6607065,3
16.78,14.98571,1.128723,-17.86335,-0.1373039939658569,-0.0839508504250964,0.0863612709104999,60.96579,64.31826,166.6602,0.5054779,-0.373266,0.693261,3
16.8,15.08791,1.313053,-17.85019,-0.0881522366999156,-0.0240037505466324,0.0785961011896509,64.00549,61.77608,164.1923,0.4937467,-0.3906119,0.6834248,3
16.82,15.30138,1.177915,-17.83109,-0.0336131802814372,-0.0623980274100698,0.0664901947109339,52.14384,68.02094,171.1344,0.5290824,-0.324394,0.723358,3
16.84,15.40728,1.195182,-17.81959,0.0064897457735764,-0.0249273680654378,0.0535348871870366,48.37608,70.36885,173.1135,0.5447861,-0.3027016,0.7300216,3
16.86,15.51111,1.371689,-17.80246,0.053232062495244,-0.0321543178877744,0.0335732468196972,51.50545,69.2244,172.0609,0.5351294,-0.3213163,0.7224084,3
16.88,15.61322,1.545511,-17.78473,0.0947069866866847,-0.0638302205437189,0.0101805928769529,54.61195,68.07005,170.8996,0.5259234,-0.3395049,0.7136636,3
16.9,15.70865,1.238881,-17.80478,0.1343604580303674,-0.025931242324936,-0.0135167465885701,32.19383,74.83331,175.2785,0.5923603,-0.1959791,0.7555124,3
16.92,15.82723,1.40827,-17.78597,0.1767102952413712,-0.0110458496737334,-0.039749269326851,35.72549,74.21159,174.7019,0.5848995,-0.2178301,0.7497137,3
16.94,15.9438,1.574046,-17.76701,0.2110993709279061,0.0246975987145096,-0.0656479859832162,39.25883,73.51379,174.0566,0.5768391,-0.2395625,0.7431847,3
16.96,16.03636,1.267744,-17.7792,0.234471194974942,0.0124291221524045,-0.0946968017728537,8.257929,80.5657,177.5396,0.645914,-0.04106964,0.7597072,3
16.98,16.10486,1.271652,-17.77269,0.2634604991023717,0.0461183332208548,-0.1224699605850316,2.495442,81.93006,177.9442,0.6556324,-0.004681444,0.7545533,3
17.0,16.2264,1.437731,-17.75199,0.2804235700525175,0.0322829583641238,-0.1527021916893418,6.10529,81.56701,177.9419,0.6528947,-0.02860182,0.7553621,3
17.02,16.36695,1.284911,-17.7429,0.3114876090663583,0.04291588716243,-0.182725040062142,353.3593,83.90195,178.7365,0.6668569,0.05043076,0.7428506,3
17.04,16.48932,1.447924,-17.71982,0.336637762002804,0.0761398143238498,-0.2139399371086661,356.981,83.51131,178.9143,0.6655083,0.02595769,0.7458656,3
