t,pX,pY,pZ,aX,aY,aZ,reX,reY,reZ,rtX,rtY,rtZ,ID
0.46,-44.30596,1.101689,-38.82871,3.2072166408612173,-0.0582026638931033,1.326079489452333,14.57449,356.4071,163.5857,-0.0126789,-0.129922,0.9818491,1
0.48,-44.30671,1.301524,-38.82822,3.2778012932728178,-0.0692295776467301,1.300061233714734,14.59069,356.4127,163.6081,-0.01263545,-0.1300514,0.9818596,1
0.49,-44.29663,0.9551876,-38.81348,3.344122841475601,-0.0779820052252968,1.2712476202002927,14.55828,359.3285,163.5633,0.01235815,-0.1262311,0.9818435,1
0.5,-44.2973,1.154984,-38.81248,3.4081741255303024,-0.0624511196467331,1.2431043072967567,14.64256,359.2848,163.6162,0.01203057,-0.1270123,0.981821,1
0.52,-44.28719,1.153817,-38.77841,3.5034528698525023,-0.0663560323424575,1.284807190035055,16.59249,0.295041,164.6422,0.02180528,-0.1426565,0.9806088,1
0.54,-44.29996,1.350538,-38.76684,3.5941576182256565,-0.0464423373179017,1.3210194491821614,16.9427,0.4130653,165.0513,0.022698,-0.1455984,0.9806103,1
0.56,-44.19688,1.168061,-38.67647,3.6720857636958497,-0.0504787703843949,1.3494306626621846,17.61978,6.128499,166.8669,0.069968,-0.1458932,0.9793794,1
0.58,-44.15273,1.172191,-38.62186,3.745177147077465,-0.0310102713585935,1.3743681806857817,16.95277,8.709053,167.7694,0.09032824,-0.1381398,0.9794173,1
0.6,-44.14687,1.36535,-38.58024,3.8036424739071126,-0.0355981638200264,1.3889100095117302,18.22357,8.714388,167.7871,0.09138691,-0.1490277,0.9776616,1
0.62,-44.0522,1.186261,-38.52221,3.8625258705277217,-0.0393262667445396,1.3989809500723691,12.74723,14.7989,169.7662,0.1372984,-0.09823292,0.9803407,1
0.64,-43.9944,1.192914,-38.47936,3.9141888506464255,-0.0424255153330202,1.4042641648587475,9.813399,18.0915,170.8062,0.1629128,-0.07164347,0.9797012,1
0.66,-43.86307,1.209525,-38.38167,3.9607292896703328,-0.0226830802785497,1.407616756828383,3.709304,24.33819,172.959,0.2122322,-0.01863988,0.9747552,1
0.68,-43.7802,1.216163,-38.31136,3.9952437731003823,-0.0263402426766854,1.4020422053697985,2.448138,27.00464,174.2101,0.2341826,-0.00895601,0.9706461,1
0.7,-43.6965,1.224794,-38.25436,4.024717160473395,-0.0073788964621106,1.3951415478568832,0.9027583,29.67509,175.5316,0.2561736,0.002373163,0.9658124,1
0.72,-43.49033,1.263464,-38.11094,4.037453877891531,-0.0161470957149311,1.3764652319100072,357.0645,34.53715,178.3708,0.296376,0.02867571,0.9546222,1
0.74,-43.39277,1.274135,-38.04853,4.045216540794045,-0.001687788162246,1.3566929899799591,354.5316,36.95427,180.1314,0.3166171,0.0448806,0.9473527,1
0.76,-43.32195,1.425983,-37.91662,4.0373253481910165,-0.0137917491408685,1.3269077084820626,358.8344,36.91606,180.7912,0.3166527,0.007462216,0.9484621,1
0.78,-43.26329,1.262432,-37.99202,4.016959728819284,-0.0262266019865199,1.291592987118416,355.6937,40.80309,180.6975,0.3485591,0.03309319,0.936514,1
0.8,-43.20749,1.254515,-37.9798,3.993042039506058,-0.0150553520574145,1.2559666046629268,357.4269,42.47147,181.2559,0.3623223,0.0169582,0.9317181,1
0.82,-43.09706,1.245866,-37.93388,3.9508062034152953,-0.029819794252635,1.2101353827628527,1.389085,45.87469,181.7739,0.3894762,-0.01719424,0.9208268,1
0.84,-43.03731,1.240723,-37.90193,3.905774658284747,-0.0203628190005696,1.1643666591172517,3.950614,47.29293,182.2663,0.4001509,-0.03949585,0.9155878,1
0.86,-42.96021,1.407316,-37.80826,3.842226481365416,-0.037015822547641,1.1109508081089547,7.496681,47.3423,182.7612,0.399069,-0.0695091,0.9142728,1
0.88,-42.92535,1.232248,-37.84498,3.765344935986416,-0.0541845667721502,1.0525719656558872,8.167488,50.1262,183.1252,0.4206244,-0.07600733,0.9040287,1
0.9,-42.89162,1.226463,-37.83967,3.68693294201715,-0.0460755360575423,0.9947724047174784,10.23326,51.36054,183.4329,0.4290209,-0.09326699,0.8983901,1
0.92,-42.81984,1.208704,-37.82325,3.586049243138971,-0.0655671944352598,0.9280617059491424,13.31693,54.21029,183.8576,0.4488213,-0.1183894,0.885445,1
0.94,-42.73744,1.383593,-37.74031,3.4768285517951307,-0.0863407900129789,0.8580528318463898,16.76876,54.3665,184.4592,0.446567,-0.1471929,0.881968,1
0.96,-42.72384,1.190739,-37.7769,3.357902859682774,-0.106963920013017,0.7852776408492916,15.93471,56.57353,184.1378,0.4645982,-0.1389202,0.8738896,1
0.98,-42.69165,1.182918,-37.76723,3.239470883989489,-0.1004341370747,0.7139528910127924,17.24656,57.23333,184.2988,0.4682633,-0.1492889,0.870003,1
1.0,-42.60801,1.363781,-37.69076,3.102099018304907,-0.1221521527711874,0.6364479103605403,20.62977,57.43536,184.9211,0.4655512,-0.1771835,0.8657227,1
1.02,-42.61944,1.160052,-37.75014,2.952813553207829,-0.1434989685378597,0.5559539557680502,21.4297,57.6781,184.5553,0.4670939,-0.1815697,0.8635892,1
1.04,-42.5355,1.346611,-37.67752,2.798577867217767,-0.1652909024428436,0.4744868733087832,24.78914,57.89921,185.1184,0.4639004,-0.2087444,0.8584374,1
1.06,-42.531,1.144443,-37.70519,2.647154321664974,-0.1581647328698609,0.3955014022316963,24.45299,58.54276,184.5659,0.4701183,-0.2036244,0.855976,1
1.08,-42.50053,1.137885,-37.6923,2.4830627443176256,-0.1796846090950635,0.3132314353720637,26.15111,58.67559,184.5127,0.4691195,-0.2158572,0.85285,1
1.1,-42.41644,1.32975,-37.62466,2.312250392094402,-0.1999485222710764,0.2300820507591003,29.46161,58.912,185.0193,0.4654405,-0.2420212,0.8467814,1
1.12,-42.40592,1.123728,-37.66259,2.145918228895158,-0.1904735061686667,0.1501006042992267,32.05595,58.31954,183.9682,0.4596773,-0.2571833,0.8434726,1
1.14,-42.3163,1.319885,-37.60119,1.968574172959008,-0.2095896721827551,0.0675886712098252,35.43721,58.43188,184.1703,0.4549757,-0.282367,0.8362381,1
1.16,-42.27798,1.118119,-37.60836,1.794512245635465,-0.2272158157622772,-0.0144961235060518,37.40231,58.76092,183.2466,0.4566035,-0.2924446,0.8295006,1
1.18,-42.22397,1.116997,-37.59881,1.6196829868672138,-0.2429654855836282,-0.0952415447072496,39.62851,59.45461,182.73,0.4593709,-0.3053912,0.8207557,1
1.2,-42.12736,1.316304,-37.55117,1.4516031805999114,-0.2283948965772698,-0.171813206727811,42.98478,59.22717,182.3856,0.4530581,-0.3280228,0.8125204,1
1.22,-42.07734,1.114305,-37.56015,1.279276988528932,-0.2420759263193064,-0.2483666150669723,44.69827,61.9028,181.202,0.4722311,-0.3310749,0.7951918,1
1.24,-41.98,1.314679,-37.51622,1.1184225387207103,-0.2542762484360437,-0.3203240718063345,48.03174,61.66281,180.8705,0.4654784,-0.35302,0.7859077,1
1.26,-41.92037,1.112845,-37.50729,0.9629590583349305,-0.2648301340473333,-0.3884092129875469,48.08091,61.98309,179.5641,0.4715722,-0.3474338,0.7820808,1
1.28,-41.82244,1.313229,-37.467,0.8152008770342078,-0.2452431141745875,-0.4511589656897943,51.37929,61.58485,179.0424,0.4644237,-0.368517,0.772236,1
1.3,-41.74957,1.107064,-37.45265,0.6783650840888358,-0.2540083214548818,-0.5090838341332891,53.33163,61.84935,177.6979,0.4668919,-0.375685,0.7618151,1
1.32,-41.66837,1.103684,-37.42843,0.5644822177896422,-0.2596481853156248,-0.5592934053473986,56.53781,61.37532,176.191,0.4627771,-0.3921238,0.7489472,1
1.34,-41.35709,1.104695,-37.43064,0.4602074482224418,-0.2619262580400866,-0.6039609554833039,63.15817,50.131,163.1276,0.4266056,-0.416275,0.73079,1
1.36,-41.14278,1.287067,-37.45179,0.3634104287146522,-0.2358284084036097,-0.6422592070674833,67.37769,37.9441,150.3922,0.3955586,-0.4380203,0.7146666,1
1.38,-41.09339,1.117934,-37.36988,0.2781188975626767,-0.2319052250458691,-0.6762228535749184,61.86761,51.99551,167.1257,0.4254172,-0.4169656,0.7408435,1
1.4,-41.00731,1.12871,-37.34239,0.2010220793713903,-0.200428265962181,-0.7030701816544198,61.00917,50.9506,166.6428,0.4213681,-0.4120441,0.7471468,1
1.42,-40.90939,1.312524,-37.3046,0.1421972485730487,-0.1871542721036278,-0.7279813052624782,64.11488,48.34664,164.1504,0.4105039,-0.4317524,0.7358478,1
1.44,-40.81639,1.161645,-37.28299,0.0922368222048923,-0.1475245745821913,-0.7451655973638935,55.7867,52.35633,168.7397,0.4292176,-0.3795626,0.7690892,1
1.46,-40.66026,1.19518,-37.23959,0.0513709477819182,-0.0833977789900088,-0.7543505292780059,48.33384,58.15575,173.1561,0.4639694,-0.3306917,0.7840655,1
1.48,-40.5629,1.20958,-37.21959,0.0208167190294208,-0.0939779001603221,-0.7660101775386394,43.33733,59.90084,173.8422,0.4804848,-0.2945474,0.7941656,1
1.5,-40.45002,1.380422,-37.1758,-0.0062008525163657,-0.0515582753880204,-0.7756982731329147,46.93041,58.81492,172.8601,0.4711366,-0.3181661,0.7853827,1
1.52,-40.09794,1.252113,-36.64198,-0.0175798647751417,-0.0347528797142436,-0.7807660300513932,26.02292,65.97398,175.2738,0.5378057,-0.1668179,0.8115091,1
1.54,-39.98267,1.421751,-36.61107,-0.0217929594141468,-0.0165648085370517,-0.7844540619042464,29.50081,64.7519,174.3746,0.5277534,-0.1893615,0.809046,1
1.56,-39.92361,1.263467,-36.5973,-0.0100336407067782,-0.0036380048058504,-0.780014915819474,13.85459,68.98114,177.0927,0.5644778,-0.0851163,0.8162067,1
1.58,-39.81008,1.430997,-36.55478,-0.0102159273534088,0.0114507447030242,-0.7854356594928742,17.43145,68.10339,176.81,0.5567549,-0.1100949,0.816286,1
1.6,-39.7643,1.271932,-36.56138,-0.0106246304168271,0.0268131322838738,-0.7928567174182319,2.322438,71.65037,177.9055,0.5853965,-0.005733153,0.810288,1
1.62,-39.6148,1.279182,-36.52922,0.0073464625234027,0.0152878809294967,-0.8004014361962373,354.4171,73.63171,178.3981,0.5979306,0.04735107,0.7999455,1
1.64,-39.51587,1.285027,-36.50012,0.0273073463902173,0.0520884041571489,-0.8067665744233858,353.3308,73.79883,178.7575,0.598856,0.0530117,0.7986687,1
1.66,-39.40185,1.448142,-36.45185,0.0421651268569736,0.0644491598215214,-0.8168681596818281,356.9428,72.98676,178.9199,0.5942898,0.02704826,0.8037535,1
1.68,-39.33563,1.293709,-36.453,0.040877670869774,0.0725530987134132,-0.8359202507847376,352.8462,74.16383,179.2823,0.6014581,0.05353974,0.7964403,1
1.7,-39.22197,1.455124,-36.40333,0.043247159103581,0.1026954558389028,-0.8563312576192841,356.4438,73.34698,179.4982,0.5968519,0.02750007,0.8017395,1
1.72,-39.19025,1.269827,-36.42748,0.0275797088633718,0.103210758996859,-0.8839654053858768,354.0877,75.01424,179.987,0.6080452,0.04097951,0.7922258,1
1.74,-39.07958,1.433456,-36.38047,-0.0022440042332378,0.1213765133221503,-0.9246219510518828,357.6172,74.20247,180.2175,0.6031252,0.01543871,0.7973733,1
1.76,-39.04402,1.254477,-36.39663,-0.0490310932791375,0.1120076334587212,-0.9721680046292498,357.468,74.97557,181.1055,0.6085846,0.01166013,0.7931229,1
1.78,-38.99017,1.249926,-36.38501,-0.0902812399956305,0.1030716753854706,-1.0322289350512364,359.4806,75.2955,181.3491,0.610799,-0.003601865,0.7916853,1
1.8,-38.87635,1.414248,-36.33873,-0.1490295794212777,0.0913904283058807,-1.0797789604707084,3.124125,74.50775,181.5668,0.6047696,-0.0299693,0.7958167,1
1.82,-38.8666,1.237789,-36.36262,-0.216791091723306,0.0801788213085152,-1.124036761464966,6.198753,75.89047,182.5682,0.6128989,-0.05638709,0.7879928,1
1.84,-38.75304,1.405177,-36.31833,-0.2832143476982693,0.0943417289470814,-1.1678628251107508,9.837089,75.13067,182.7927,0.6055842,-0.08274376,0.7907791,1
1.86,-38.75047,1.226397,-36.32891,-0.3689388207738089,0.0808964178540065,-1.2112410507117115,10.35197,75.57515,183.1357,0.608058,-0.08796559,0.7882833,1
1.88,-38.71781,1.217577,-36.32418,-0.463508784909016,0.0417211564672166,-1.262679877918251,11.88842,75.84712,183.3185,0.6086833,-0.09935787,0.7861042,1
1.9,-38.60643,1.390541,-36.28299,-0.5445329889856554,0.0529568371455064,-1.3020672401268083,15.47596,75.1029,183.5067,0.6003751,-0.125174,0.7877303,1
1.92,-38.64328,1.199678,-36.3095,-0.6408547051093043,0.0368273743705594,-1.336393598233804,14.76612,76.10333,183.6444,0.6077349,-0.1205755,0.7830503,1
1.94,-38.58926,1.183193,-36.30098,-0.7431115184548371,0.0221004187223948,-1.365501317400918,17.40544,75.94002,183.9093,0.6037431,-0.139955,0.7819785,1
1.96,-38.54854,1.175733,-36.29124,-0.8369394232327751,0.0084207692897192,-1.3994288814879656,18.74084,75.39716,184.0509,0.5984176,-0.1500709,0.783712,1
1.98,-38.44016,1.358743,-36.25415,-0.9384424253319752,-0.0066230634487798,-1.4222661937743348,22.28077,74.6589,184.186,0.5889628,-0.1752627,0.783937,1
2.0,-38.46973,1.160737,-36.27189,-1.0391236459383588,-0.0201673057085284,-1.440296544781984,21.58086,73.78306,184.1021,0.5839512,-0.1707401,0.7891513,1
2.02,-38.45848,1.152991,-36.27124,-1.1294715727927531,-0.0322926294059473,-1.4617086220263182,23.07307,73.3629,184.0597,0.579249,-0.1810185,0.7895058,1
2.04,-38.40437,1.138934,-36.25939,-1.2189433486396464,-0.0449346007418595,-1.467375111862034,26.32026,71.9954,183.9937,0.5655512,-0.2040269,0.7919775,1
2.06,-38.29919,1.331688,-36.22549,-1.3087681814941918,-0.0842551751750881,-1.4765718607773302,29.80524,71.16771,183.8975,0.5548838,-0.2281543,0.7905445,1
2.08,-38.30436,1.128751,-36.23346,-1.375097142202943,-0.0651136217564689,-1.4732927615938864,30.05766,69.88419,183.6898,0.5460278,-0.2302587,0.7960639,1
2.1,-38.27505,1.124887,-36.22805,-1.4420617681344217,-0.0734227170006592,-1.4658480054106775,32.08531,69.098,183.507,0.5378053,-0.2441868,0.7959909,1
2.12,-38.17202,1.322248,-36.19683,-1.502775835257899,-0.1088312338946114,-1.461333707892992,35.49647,68.12403,183.1586,0.5262701,-0.2671406,0.7934088,1
2.14,-38.17971,1.118793,-36.2072,-1.5394649570541148,-0.0845756737869147,-1.442453627709014,37.42142,68.07011,182.9628,0.5230703,-0.2794534,0.7892784,1
2.16,-38.09418,1.115659,-36.20046,-1.5785318765959264,-0.1176648584335355,-1.4259964945600014,41.86634,68.55228,182.3145,0.5199409,-0.3057945,0.7756994,1
2.18,-38.03959,1.11505,-36.19004,-1.5971237634830775,-0.0915679809559538,-1.3993506003874885,43.26106,68.54795,181.7167,0.5188718,-0.3124188,0.7711862,1
2.2,-37.93608,1.3156,-36.16213,-1.6132066875950253,-0.0932912541684828,-1.368148954523302,46.64248,67.55637,181.1484,0.5072322,-0.3341589,0.7654548,1
2.22,-37.91174,1.113827,-36.16514,-1.6261325687039945,-0.1229848844681205,-1.3365869093981404,46.40667,68.20084,180.3014,0.514436,-0.3276048,0.7616553,1
2.24,-37.78247,1.110016,-36.13918,-1.619535027168025,-0.0935423660015391,-1.2943905981051227,50.70355,67.61166,178.6728,0.5068855,-0.3499349,0.7480968,1
2.26,-37.69621,1.107134,-36.12001,-1.5980188210071438,-0.1227911917122087,-1.2487946778620502,53.33092,67.03428,177.6612,0.5009904,-0.3640087,0.7398354,1
2.28,-37.59631,1.30564,-36.0926,-1.5621355522120028,-0.1207428224549523,-1.1957482441495664,56.60035,65.8195,176.8285,0.4892088,-0.3846219,0.7317727,1
2.3,-37.47567,1.102267,-36.07044,-1.5147688972141164,-0.1192926048175405,-1.1392696239860245,59.70501,65.10628,173.9791,0.4880742,-0.3944774,0.7159737,1
2.32,-37.27082,1.109118,-36.02982,-1.4574691192637586,-0.1129942321761632,-1.0768897469349392,62.66352,59.36456,167.8695,0.4683428,-0.4045405,0.7107295,1
2.34,-37.15636,1.118052,-36.00548,-1.3806812925656162,-0.1001191370995516,-1.0076013158074095,61.80833,58.26028,167.3033,0.4647298,-0.3997058,0.7172598,1
2.36,-37.05863,1.304464,-35.97722,-1.327818565116397,-0.0827702464994686,-0.9291819427450418,64.88587,55.71236,165.047,0.4526905,-0.4189541,0.7071752,1
2.38,-36.93521,1.144444,-35.96508,-1.283870315065795,-0.0653402709490867,-0.8377684878644187,58.35471,57.86619,167.8848,0.4650692,-0.3797081,0.7349815,1
2.4,-36.83659,1.326358,-35.93599,-1.2257615021856836,0.0014039563005971,-0.7485428642740626,61.41664,55.56977,165.843,0.4534075,-0.3989576,0.7255172,1
2.42,-36.6697,1.19545,-35.94527,-1.160358518712045,0.0242223667824224,-0.6588340056097897,48.27776,66.978,173.308,0.5225756,-0.3110909,0.7465976,1
2.44,-36.5684,1.371625,-35.91765,-1.0860935939328795,0.0448520643038583,-0.5646174454615025,51.43154,65.75578,172.4008,0.5121585,-0.3311966,0.7393787,1
2.46,-36.46865,1.545109,-35.88994,-1.0134237389976528,0.0655979979206363,-0.46842380325322,54.57007,64.35592,171.3094,0.5013351,-0.3510279,0.7315661,1
2.48,-36.36448,1.238969,-35.93767,-0.9411277007130624,0.1061567938630525,-0.3692652272014021,32.02839,72.66409,175.4169,0.5779032,-0.199297,0.7671803,1
2.5,-36.30004,1.250196,-35.94522,-0.875835913396183,0.1217759254792422,-0.2687976892997046,26.14484,74.72832,176.0885,0.5969422,-0.1594894,0.7690619,1
2.52,-36.16653,1.263997,-35.95165,-0.8059677809518364,0.113493346478908,-0.1669124333840246,13.77728,78.62996,177.2655,0.6310445,-0.07775962,0.7660577,1
2.54,-36.08324,1.268453,-35.94971,-0.7677139495721423,0.1472189882321179,-0.1368109903442693,8.009215,80.21262,177.6241,0.6436043,-0.04007988,0.7618864,1
2.56,-35.96616,1.435973,-35.92514,-0.7370772494087428,0.131002756300531,-0.1097639452628023,11.51902,79.68172,177.5911,0.6389023,-0.06363795,0.7624307,1
2.58,-35.92732,1.275788,-35.94542,-0.6966970534793582,0.1605556221525076,-0.0814117722385026,358.3544,82.58369,178.1975,0.6595754,0.02116703,0.7513368,1
2.6,-35.86948,1.279169,-35.94707,-0.6644585375089669,0.1414137391463872,-0.0586742691906962,354.4147,83.79159,178.4236,0.6664231,0.04543787,0.743854,1
2.62,-35.72445,1.29134,-35.94923,-0.6316951403811712,0.144806285397016,-0.0339735915272827,352.2192,85.4874,179.0904,0.6767393,0.05520102,0.7330474,1
2.64,-35.60209,1.453198,-35.92553,-0.6029116995013979,0.1699707688356519,-0.0111755521573773,355.8265,84.94017,179.321,0.6745865,0.03085678,0.7372736,1
2.66,-35.56599,1.296043,-35.95086,-0.5830475363289453,0.1656785299315778,0.0070027182681764,353.4626,86.48289,179.535,0.6837856,0.04431148,0.7274408,1
2.68,-35.53444,1.282893,-35.95687,-0.5728550510610253,0.1355668012258687,0.0175317160565633,353.7493,87.03048,179.7842,0.6874478,0.04083277,0.7241822,1
2.7,-35.41436,1.445296,-35.93556,-0.5556735073784163,0.1505603680582795,0.0295012785182784,357.2799,86.61137,180.0879,0.6857104,0.01674611,0.7274871,1
2.72,-35.44458,1.2544,-35.96713,-0.5479270985284739,0.1137917837184063,0.0336959798273035,357.4667,87.58736,181.1393,0.692019,0.009076905,0.7214726,1
2.74,-35.32411,1.418632,-35.94923,-0.537560392811697,0.1025481551579483,0.0416498069061956,1.049021,87.1909,181.3903,0.6894022,-0.01499509,0.7242197,1
2.76,-35.32866,1.245742,-35.96666,-0.5276447002144575,0.0909521080318187,0.0435122855584459,1.448559,88.87682,181.6249,0.6998879,-0.01895145,0.7140002,1
2.78,-35.2065,1.410619,-35.9499,-0.5079710963606416,0.1270521975953155,0.0484981330866789,5.086662,88.50169,181.9282,0.6964802,-0.04351056,0.7160058,1
2.8,-35.25822,1.237714,-35.96939,-0.507113875858467,0.111073644771444,0.0523313205173039,6.187893,89.26177,182.6046,0.7004586,-0.05434381,0.7112885,1
2.82,-35.26223,1.232147,-35.96937,-0.5221868614551699,0.0695567849186956,0.0496981151636415,8.254158,89.32446,182.8878,0.6995907,-0.06883907,0.7104681,1
2.84,-35.1415,1.401183,-35.95551,-0.5221536928042108,0.0784309261020891,0.0513110206003872,11.8657,89.00671,183.1605,0.6948984,-0.09291816,0.7111175,1
2.86,-35.21605,1.208767,-35.9551,-0.5424024504041709,0.0324892177679195,0.0464960856517384,13.43568,88.93887,183.5493,0.6928002,-0.1049849,0.7109227,1
2.88,-35.20861,1.199832,-35.94976,-0.5586518766032151,0.0115694611434828,0.0438570519025356,14.73741,88.52467,183.6517,0.6889026,-0.1138569,0.7127289,1
2.9,-35.09182,1.376848,-35.93671,-0.5623405390160094,0.0188798397827185,0.0412448623569376,18.28926,88.22694,183.8859,0.6829709,-0.1373383,0.7121809,1
2.92,-35.18048,1.183262,-35.93227,-0.5823628245112484,-0.0295629914792779,0.0335897347653224,17.39658,86.942,183.899,0.6759473,-0.1328239,0.7205002,1
2.94,-35.17524,1.168321,-35.91664,-0.5889412624807262,-0.0507976971885699,0.0307862096955258,20.14037,84.80121,184.0415,0.6589563,-0.1524518,0.7307776,1
2.96,-35.06167,1.353355,-35.90178,-0.5854073014318635,-0.0411157003766675,0.0277572843015612,23.66265,84.47066,184.1291,0.6520016,-0.1754055,0.7291557,1
2.98,-35.13234,1.153145,-35.89746,-0.5890371752701937,-0.0595264400799926,0.0250906704100035,23.06835,82.26398,184.0101,0.6388484,-0.173061,0.7421359,1
3.0,-35.13587,1.145538,-35.89275,-0.5898899218812601,-0.0761557888229767,0.0183675703444619,24.60357,81.22636,184.0094,0.6299554,-0.1838883,0.7460891,1
3.02,-35.02492,1.336695,-35.87647,-0.5883896604901544,-0.0936226517856877,0.0161879277656931,28.09141,80.83108,183.9347,0.6222289,-0.2062624,0.7435661,1
3.04,-35.07904,1.128831,-35.86557,-0.5745221143980599,-0.1089964504448224,0.0167134137808382,30.05271,77.17535,183.6629,0.5956003,-0.2218029,0.7597099,1
3.06,-35.0538,1.124918,-35.8562,-0.5564147374125037,-0.1206865111413549,0.0181733176239262,32.08154,75.82874,183.4982,0.5836294,-0.2359219,0.7630427,1
3.08,-34.94654,1.322221,-35.83722,-0.5335997663094743,-0.1309236726073598,0.0177085769750577,35.49511,75.2857,183.1711,0.5747707,-0.2573714,0.7590113,1
3.1,-34.98478,1.118844,-35.83678,-0.4902588311308875,-0.084152972636163,0.0213162998261822,37.39951,73.90778,182.9535,0.5626453,-0.270795,0.7616513,1
3.12,-34.92699,1.115693,-35.82987,-0.4477833223007192,-0.0943406245252799,0.0236475278090422,41.85909,73.43062,182.3017,0.5525301,-0.2975105,0.7528639,1
3.14,-34.82193,1.315879,-35.81025,-0.4000049202458284,-0.1033318778196569,0.0245220073186871,45.21278,72.71667,181.788,0.5423877,-0.3180671,0.746915,1
3.16,-34.82182,1.114547,-35.80735,-0.3309913584099302,-0.0548422589262992,0.0299160961279012,44.6862,73.03931,181.0926,0.5474831,-0.3107442,0.745441,1
3.18,-34.71808,1.31521,-35.78624,-0.2649759384784422,-0.0637006609572499,0.0353807913695849,48.01343,72.3272,180.6051,0.5373067,-0.3313012,0.7387566,1
3.2,-34.72525,1.113007,-35.78859,-0.1926648764184917,-0.0702311886245233,0.0413432014312471,48.06516,71.833,179.4917,0.537213,-0.3274459,0.7386014,1
3.22,-34.68885,1.109998,-35.78195,-0.103030744244573,-0.1048783183003705,0.0477852414091,50.6861,71.45122,178.6809,0.5316749,-0.3413928,0.7307684,1
3.24,-34.58699,1.309579,-35.76154,0.0018539138385671,-0.0809286981527461,0.0571093411519996,53.94792,70.52159,177.9592,0.5210107,-0.3611463,0.7229259,1
3.26,-34.46727,1.102262,-35.73764,0.110181321108131,-0.0817400939982136,0.0655374820814556,59.68622,68.14014,173.9999,0.506826,-0.3862145,0.7029316,1
3.28,-34.38729,1.104532,-35.72023,0.2234085644492704,-0.0526960660088921,0.0729134532594022,61.2156,65.23094,171.1945,0.4954551,-0.3919901,0.701744,1
3.3,-34.28765,1.295806,-35.69852,0.3386045537797786,-0.0761830235281735,0.0786262361310736,64.3694,63.34847,169.48,0.4840874,-0.4106613,0.6915981,1
3.32,-34.22261,1.118168,-35.68522,0.4483075189363532,-0.066101520917604,0.082180046966183,61.79813,60.254,167.2106,0.4774721,-0.3934259,0.7088359,1
3.34,-34.08182,1.144449,-35.65477,0.5431272224943342,-0.0286355687541413,0.0807786044232861,58.35922,59.47446,167.8155,0.4755591,-0.3749903,0.7281697,1
3.36,-33.99958,1.161866,-35.63545,0.6446808013245349,-0.0103586207566551,0.0783832315335892,55.75093,59.66301,168.7649,0.4773209,-0.3606051,0.7403837,1
3.38,-33.89889,1.34173,-35.61003,0.7432048087795327,-0.0159473683807041,0.0708196893427128,58.80379,57.72907,166.8896,0.466895,-0.3791184,0.73092,1
3.4,-33.79948,1.518957,-35.58461,0.8377956884842819,0.027327411210334,0.0614971668563182,61.81609,55.39766,164.6157,0.4561017,-0.3973237,0.7208754,1
3.42,-33.70944,1.227531,-35.59364,0.9223542151536116,0.0227568320222034,0.0461162632605125,37.93675,68.54888,174.6789,0.544471,-0.2435908,0.7721379,1
3.44,-33.59381,1.397686,-35.56426,0.9968971251841604,0.040139383298462,0.0313162604161565,41.45936,67.72916,173.9511,0.5359387,-0.266006,0.765112,1
3.46,-33.55317,1.25053,-35.56795,1.0688297116466932,0.0560033641568578,0.0126740803786251,26.12841,71.18461,175.979,0.5730495,-0.1638098,0.7870287,1
3.48,-33.43752,1.42006,-35.54251,1.1274062543380583,0.020905975034735,-0.0109183565349715,29.59006,70.64439,175.4361,0.5668576,-0.1859299,0.7823583,1
3.5,-33.42326,1.26486,-35.55146,1.1823534329508676,0.0533231447357151,-0.0274256646044088,13.71356,73.96089,176.9817,0.5995446,-0.07960978,0.7909608,1
3.52,-33.31243,1.274335,-35.53574,1.2312945669271818,0.060412457550492,-0.0419475673943923,2.103961,76.51704,177.6705,0.6192716,-0.001828492,0.7846994,1
3.54,-33.19873,1.443763,-35.51617,1.2716379984719288,0.0892277140333077,-0.0550595048017328,5.461553,76.15856,177.3506,0.6167533,-0.02325042,0.7853749,1
3.56,-33.14643,1.281202,-35.51159,1.3095747130457287,0.1391614407297934,-0.0679034448211002,354.2962,78.25481,178.0713,0.6295266,0.04919905,0.7752028,1
3.58,-33.029,1.448313,-35.49352,1.328582459337194,0.1162940993126128,-0.0835023439456863,357.7422,78.03509,177.8176,0.6290306,0.02729133,0.7768979,1
3.6,-32.97784,1.293257,-35.49328,1.3422965480504327,0.1162568262820541,-0.0961405697900019,352.139,79.39132,178.6357,0.6365342,0.06032574,0.7681051,1
3.62,-32.93547,1.296423,-35.49023,1.3515690781018108,0.1117616420120562,-0.1082826075232095,352.6738,79.75887,178.8611,0.6393455,0.0553855,0.766197,1
3.64,-32.81778,1.461118,-35.47491,1.3480593584833556,0.1292334818573774,-0.1195849690557668,356.0793,79.75353,178.6837,0.6404195,0.03361014,0.7671776,1
3.66,-32.78058,1.272233,-35.48043,1.3215525130529318,0.0947585466139958,-0.1357830046216888,353.9491,80.95647,179.5713,0.6480997,0.04257158,0.7597154,1
3.68,-32.73252,1.264786,-35.48683,1.2875624935483971,0.0820681992525883,-0.1485717663648618,355.6176,81.32919,179.9988,0.6511532,0.02900904,0.757983,1
3.7,-32.61549,1.431829,-35.47998,1.2571690627147354,0.0954391020481804,-0.1608728208563548,359.016,81.38768,179.6911,0.651973,0.00826838,0.7581889,1
3.72,-32.56123,1.249414,-35.48522,1.19771172463368,0.0576689079813707,-0.1753916993575615,1.20304,82.42887,180.9772,0.6587514,-0.01351537,0.7522392,1
3.74,-32.50644,1.24476,-35.4856,1.1435043769999882,0.0461269070365581,-0.1847521136971206,3.732063,82.45662,181.3477,0.6583781,-0.03223517,0.751891,1
3.76,-32.3924,1.415736,-35.48279,1.0703070252830802,0.0095115059190622,-0.1957756520875211,7.078218,82.23196,180.9231,0.6559354,-0.05179168,0.7522459,1
3.78,-32.2802,1.583533,-35.47987,1.006241244347463,0.0229773156068269,-0.2046268447453147,10.42133,81.98013,180.4806,0.6529243,-0.0712903,0.7519473,1
3.8,-32.34988,1.229541,-35.47964,0.9323035947286646,0.0354709318730802,-0.2160981509279249,10.14,82.59676,182.4783,0.6558087,-0.08059384,0.7494297,1
3.82,-32.34452,1.220584,-35.48059,0.8424499848674003,0.0150379737571647,-0.2207897445875604,11.67586,82.9073,182.7027,0.6565995,-0.09174475,0.746985,1
3.84,-32.23067,1.396858,-35.47849,0.7632878319302403,0.0224832894766286,-0.2249305244565258,15.04752,82.71812,182.2959,0.6529866,-0.1113839,0.7457055,1
3.86,-32.25747,1.193585,-35.48195,0.658276141726351,-0.0242486351721468,-0.2293357531004858,15.88239,83.33434,183.1375,0.655355,-0.1211922,0.7420926,1
3.88,-32.23285,1.18579,-35.48129,0.5748459120671736,-0.0158637741275051,-0.2330789615161093,17.18828,82.95505,183.2781,0.6514193,-0.1306443,0.7433313,1
3.9,-32.12197,1.369682,-35.48122,0.5014868757066102,0.0198140581617206,-0.2366854429524023,20.51804,82.73437,182.8153,0.6468369,-0.1495961,0.7411602,1
3.92,-32.13116,1.162916,-35.47905,0.3914860558073894,-0.0299966049148679,-0.238946298392598,21.36157,81.15022,183.4864,0.6345974,-0.1601521,0.7497165,1
3.94,-32.0886,1.155131,-35.47705,0.3071175015904077,-0.0230298266836473,-0.2403935387762574,22.83707,80.44977,183.4373,0.6281892,-0.1700736,0.7519014,1
3.96,-31.98077,1.346527,-35.4763,0.2352785224326221,0.013580704643615,-0.2425637255265096,26.10472,80.11404,182.8312,0.6224612,-0.1882953,0.7489926,1
3.98,-32.00737,1.140574,-35.47053,0.1364285232122304,-0.035939591932016,-0.2438354603527539,26.14755,78.90947,183.4363,0.6134818,-0.1931403,0.756085,1
4.0,-31.89891,1.33506,-35.46704,0.0624824655567883,-0.0267219057716247,-0.2438445263650237,29.45923,78.52857,182.8009,0.6071051,-0.2117563,0.7525001,1
4.02,-31.9345,1.129817,-35.45937,-0.0105735936185191,-0.0452777944558692,-0.2406954339001048,29.99381,77.16661,183.2773,0.5963795,-0.2194224,0.7593834,1
4.04,-31.86784,1.122565,-35.44679,-0.0833713237056654,-0.0616120468988154,-0.2371463616884881,34.69303,75.81587,182.9405,0.5802224,-0.2502098,0.7575668,1
4.06,-31.81641,1.118987,-35.43504,-0.1318658053639998,-0.0196372540454579,-0.2324379502419695,37.39021,75.38663,182.8944,0.5725837,-0.2681817,0.754255,1
4.08,-31.709,1.318043,-35.41967,-0.1834735875014588,-0.034772694374186,-0.2262753185590265,40.76231,74.98142,182.3851,0.5646557,-0.2881449,0.7480298,1
4.1,-31.60177,1.514185,-35.40427,-0.2331958841172081,-0.0482850432390001,-0.2185876263175137,44.13029,74.51221,181.8146,0.5562344,-0.3078486,0.7411495,1
4.12,-31.61115,1.114501,-35.41306,-0.2627478541628765,-0.0606353893529934,-0.2068632625618933,44.69017,76.33222,181.1176,0.5686005,-0.304469,0.7294425,1
4.14,-31.50552,1.315059,-35.39693,-0.2849822800612278,-0.0700440848770301,-0.1920155436381003,48.02654,75.93168,180.6801,0.5600336,-0.3241582,0.7216177,1
4.16,-31.39999,1.512791,-35.38073,-0.3052272046107873,-0.0783139544967738,-0.1754958342713477,51.35953,75.46205,180.1742,0.5509909,-0.3435642,0.7131785,1
4.18,-31.36919,1.109974,-35.37849,-0.309786446657224,-0.0859902744702895,-0.1555456836309732,50.69489,74.81146,178.7063,0.5527789,-0.3338485,0.7148985,1
4.2,-31.30651,1.107144,-35.36977,-0.3124616082339204,-0.0930193129538075,-0.1344419741737743,53.32388,74.19693,177.6643,0.5462323,-0.3468425,0.7071266,1
4.22,-31.11489,1.10222,-35.34244,-0.2874497252638028,-0.0971219722203048,-0.1070496110082501,59.69336,71.77053,174.0188,0.5287596,-0.3761432,0.6865521,1
4.24,-31.01215,1.295993,-35.32854,-0.2512928911338066,-0.0711153714745654,-0.0767185764770701,62.90939,70.52725,172.69,0.5186609,-0.3938088,0.6758992,1
4.26,-30.88217,1.109459,-35.31097,-0.2138404842711878,-0.0473276121161044,-0.0456319940895344,62.61187,65.33549,167.6916,0.5054144,-0.3854519,0.6850384,1
4.28,-30.78002,1.298619,-35.30005,-0.1740937080516245,-0.0423626223275763,-0.0137200147705289,65.65347,63.15235,165.2134,0.4957863,-0.4013788,0.673422,1
4.3,-30.68098,1.12986,-35.28386,-0.1337322567151782,-0.0324156946536552,0.0180428508364309,60.79532,62.5667,166.5186,0.4955502,-0.3768706,0.7011943,1
4.32,-30.60892,1.145727,-35.27506,-0.0847551516945697,-0.0435593483679705,0.0509341762339499,58.1669,63.03863,167.5544,0.4990928,-0.3624046,0.7130448,1
4.34,-30.51045,1.32941,-35.26552,-0.0317311071427917,-0.0021617678332168,0.0846360409949618,60.99357,60.83801,165.1797,0.4890726,-0.3777102,0.7037019,1
4.36,-30.34461,1.197237,-35.24309,0.01423145970214,0.0156537928776235,0.111973645686314,48.10137,68.58358,172.8408,0.5345142,-0.3039251,0.7386467,1
4.38,-30.25669,1.212683,-35.24409,0.0564117611131624,0.0343066467695226,0.136440884243429,43.02364,70.02644,173.4142,0.5501678,-0.2691715,0.7486253,1
4.4,-30.14478,1.387448,-35.2373,0.0976808923095435,0.0521050614767865,0.1586850829636859,46.23195,68.79764,171.9552,0.5410348,-0.2866932,0.7414502,1
4.42,-30.09616,1.241563,-35.24266,0.1378500665656186,0.0206644259512111,0.1774617881613229,31.79894,73.27007,174.9247,0.5830583,-0.1942071,0.7637594,1
4.44,-29.97413,1.259773,-35.24116,0.1733519682691979,0.0318808682122276,0.198130406993501,19.74821,76.51839,176.2098,0.6141668,-0.1144044,0.7696516,1
4.46,-29.85975,1.430847,-35.23312,0.2045708243067094,0.0426323910229894,0.2155054280479076,23.05389,76.13879,175.5641,0.6098146,-0.1338179,0.7660396,1
4.48,-29.81796,1.270489,-35.23147,0.2329124414495589,0.0498911246633435,0.2341838575698824,7.879736,79.33221,177.2088,0.6379033,-0.03736577,0.7666621,1
4.5,-29.70207,1.440388,-35.22374,0.2566225154837891,0.0563724189663897,0.2505161458529557,11.23309,79.16376,176.769,0.6359958,-0.05752275,0.7649518,1
4.52,-29.63976,1.281726,-35.21276,0.2805197638607946,0.0608626498284251,0.2676636735697411,354.2632,82.1433,178.0289,0.6554332,0.04900771,0.7533982,1
4.54,-29.5228,1.449593,-35.20534,0.3024513719273773,0.0655019495950664,0.2847493413026978,357.644,82.09455,177.7564,0.6561134,0.02835518,0.7541286,1
4.56,-29.40806,1.614141,-35.19796,0.3192494752099875,0.0686964963484285,0.3000051198788789,1.020001,82.02013,177.4799,0.6561546,0.007714064,0.7542536,1
4.58,-29.37031,1.29727,-35.18829,0.3273125939147858,0.06795467062388,0.3131958404357613,352.5914,82.96111,178.8403,0.6604584,0.05508945,0.7480103,1
4.6,-29.31765,1.300159,-35.18458,0.3295464312333882,0.066267411035557,0.3243761235126197,353.1763,83.08775,179.0267,0.6616157,0.05016338,0.7474298,1
4.62,-29.24121,1.273932,-35.18047,0.3206737010134555,0.0569612030875201,0.3331565863675809,353.8006,83.41676,179.4573,0.6641676,0.04351437,0.7456108,1
4.64,-29.13106,1.442572,-35.17525,0.3171324756744864,0.07171369469876,0.3421808257418366,357.006,83.21207,179.1633,0.6636181,0.02438024,0.7475798,1
4.66,-29.1096,1.258077,-35.18391,0.3073632263337882,0.0844702703848838,0.3494694832198464,357.2321,83.58801,180.4825,0.66633,0.01520109,0.745254,1
4.68,-29.069,1.255471,-35.18583,0.2837087615154607,0.0713610655466382,0.3544665591695359,359.0639,83.78168,180.5832,0.6677136,0.002682871,0.7443561,1
4.7,-28.95803,1.426208,-35.19051,0.2650232613263839,0.0846497942196194,0.3604997204525491,2.278109,83.70471,180.0652,0.6670731,-0.01518676,0.7447269,1
4.72,-28.9834,1.246584,-35.18692,0.2226966828661321,0.0451715116969057,0.3650043959343465,3.562639,83.96546,181.1823,0.6683095,-0.03000347,0.7431624,1
4.74,-28.92753,1.238535,-35.18665,0.1849297011422308,0.0574362725819047,0.371054634596172,7.731683,83.86282,181.926,0.665783,-0.06135552,0.7429052,1
4.76,-28.88955,1.232284,-35.185,0.1512083472821159,0.0945407131801616,0.3778664542703929,9.845711,83.607,182.2279,0.6627501,-0.07686785,0.7436572,1
4.78,-28.78341,1.409818,-35.19344,0.0865982483510152,0.0503317080135111,0.3809842868989141,12.94587,83.16293,181.5175,0.658279,-0.09305141,0.7441701,1
4.8,-28.67895,1.584726,-35.20202,0.0182446711314945,0.0064969743402558,0.3845150771566583,16.02738,82.66107,180.7509,0.653253,-0.1089673,0.7441668,1
4.82,-28.79581,1.195717,-35.18298,-0.0480602554777105,-0.0157367291557352,0.3858964985655673,15.60064,82.05193,182.859,0.6475707,-0.1185816,0.7494217,1
4.84,-28.69197,1.38008,-35.18828,-0.1102814618930261,-0.037348153033704,0.3877957475995286,18.68409,81.54034,182.1586,0.6419353,-0.1350523,0.7491547,1
4.86,-28.7161,1.180035,-35.18593,-0.1742107171829383,-0.057014600032488,0.3904629466437956,18.24092,80.80612,183.14,0.6364187,-0.1381951,0.754409,1
4.88,-28.61381,1.367933,-35.19124,-0.237779018045011,-0.0766187142988542,0.3923156961677865,21.28461,80.23972,182.3674,0.6302523,-0.1542751,0.7538428,1
4.9,-28.51224,1.553247,-35.19626,-0.2887489648398365,-0.0658277802939751,0.3953445898623782,24.32221,79.61411,181.5399,0.6236066,-0.170226,0.7527101,1
4.92,-28.62652,1.148442,-35.18544,-0.3594096434148528,-0.1114256830311366,0.3971083259161592,24.12462,76.57493,183.2086,0.6010973,-0.1809269,0.7709062,1
4.94,-28.52598,1.343078,-35.18697,-0.4190871180155358,-0.1268987457000547,0.3999916476578402,27.13256,75.87945,182.3042,0.5938375,-0.1969754,0.7693989,1
4.96,-28.42582,1.53522,-35.18822,-0.4673452759273147,-0.1107474672655288,0.4043426575732072,30.1293,75.10974,181.3323,0.5861383,-0.2128769,0.7673153,1
4.98,-28.49214,1.130986,-35.17882,-0.5139536312231798,-0.0947735957493082,0.4103182494213619,29.62418,73.45026,182.9273,0.5726832,-0.2196062,0.7785306,1
5.0,-28.3918,1.329586,-35.17742,-0.5569108167190064,-0.1074308740128285,0.4155479522888621,32.63419,72.61159,181.8919,0.5644307,-0.2357618,0.7760503,1
5.02,-28.39644,1.12028,-35.16272,-0.606051220479531,-0.1466415465649501,0.4202993651799973,37.17322,71.18239,182.3681,0.5461688,-0.2705384,0.7744454,1
5.04,-28.29273,1.320845,-35.15495,-0.6293619513242024,-0.1256929829478804,0.4271689033616619,40.33152,70.19786,181.2792,0.5365606,-0.2880579,0.7701715,1
5.06,-28.18912,1.518726,-35.14692,-0.649097007354082,-0.1310289689165511,0.4333452565766569,43.47311,69.08417,180.0648,0.5265223,-0.3053502,0.76526,1
5.08,-28.20056,1.115478,-35.13814,-0.6552233638504079,-0.1044261853372226,0.4410907812719218,43.22023,71.02593,181.5116,0.5360561,-0.3068788,0.7595265,1
5.1,-28.09706,1.316333,-35.11842,-0.667268178840184,-0.1348929887565717,0.4465889613012193,46.50426,70.23307,180.8157,0.5262064,-0.3266757,0.7531417,1
5.12,-28.01402,1.113099,-35.09911,-0.6689896956520736,-0.1942401319517595,0.4550995822091126,48.05401,69.83538,179.4489,0.5244026,-0.3313486,0.7477978,1
5.14,-27.9257,1.110054,-35.07908,-0.6492221829213705,-0.1659275324736507,0.4676634619551487,50.66261,69.28236,178.6715,0.517826,-0.3460256,0.7407523,1
5.16,-27.82445,1.309667,-35.05509,-0.6219969592568324,-0.1950291234722712,0.4820928429286635,53.92293,68.39986,177.9365,0.5076616,-0.3659096,0.732479,1
5.18,-27.73354,1.103807,-35.03465,-0.590927112409215,-0.2249899417985356,0.4963831623089696,56.50909,67.54101,176.1408,0.5026106,-0.3768049,0.7229519,1
5.2,-27.63331,1.300017,-35.0105,-0.5444964696304719,-0.2229594200427625,0.5138680507178579,59.73816,66.35292,175.0957,0.4919299,-0.3961526,0.7134837,1
5.22,-27.46435,1.109135,-34.97309,-0.4774157641299181,-0.2146201898604638,0.5370522086538791,62.64783,60.6329,167.8759,0.476183,-0.4007365,0.7055885,1
5.24,-27.36507,1.297876,-34.94868,-0.4208232019610753,-0.1765538857143433,0.5579802823293258,65.74774,58.33838,165.661,0.465295,-0.4191632,0.6946078,1
5.26,-27.26657,1.484059,-34.92421,-0.3606641800623222,-0.1875257356691845,0.5798741638933969,68.7999,55.40157,162.8026,0.454035,-0.4372444,0.6830679,1
5.28,-27.13866,1.144382,-34.89381,-0.3035096673523534,-0.1440527298020649,0.6005837519852735,58.36892,57.96049,167.8206,0.4658674,-0.3792847,0.7343633,1
5.3,-27.05853,1.161983,-34.87489,-0.2489961186245861,-0.1484627242281187,0.6202761706846198,55.73149,58.41941,168.7817,0.4692304,-0.3638452,0.7456405,1
5.32,-26.90002,1.196866,-34.84117,-0.1855345837218065,-0.1221222071381453,0.6400889971985784,48.12297,63.53596,173.0795,0.5007793,-0.3169883,0.761942,1
5.34,-26.8037,1.375093,-34.81627,-0.1209862231176481,-0.0944258131697937,0.6582193664890728,51.06106,62.27646,171.9324,0.4914064,-0.3351579,0.7547556,1
5.36,-26.70469,1.230947,-34.82264,-0.0564062402764053,-0.0681500828554698,0.6761711125488574,37.57553,66.34024,174.3063,0.5307249,-0.2435246,0.7827205,1
5.38,-26.63888,1.242818,-34.81564,-0.0025913664989212,0.0005913252088093,0.6918263833871698,31.66074,68.04005,175.0101,0.5475959,-0.2024541,0.7900074,1
5.4,-26.53304,1.416807,-34.79697,0.0407356595217534,0.0203567983866245,0.7034011476597488,34.75841,67.36816,174.1474,0.5412931,-0.2212006,0.7846289,1
5.42,-26.42618,1.267292,-34.78539,0.0721085752256533,0.0155833689306011,0.7118543464918794,13.50189,72.47269,176.882,0.5893813,-0.07881166,0.7988062,1
5.44,-26.35081,1.272515,-34.77116,0.1097758308147267,0.0562126788633089,0.7226652191268519,7.677798,73.71364,177.2516,0.5995842,-0.0392022,0.7971491,1
5.46,-26.24436,1.444953,-34.75353,0.141380283664334,0.0707524245283386,0.7346065254790508,10.78739,73.5679,176.8441,0.5979951,-0.05883889,0.7955008,1
5.48,-26.20286,1.280151,-34.73658,0.1691626832634938,0.0838185849993249,0.7467607323332057,357.935,75.63608,177.9663,0.6127071,0.02511162,0.7899054,1
5.5,-26.09805,1.451497,-34.71473,0.1953080730737593,0.0965412978188657,0.7575619640840179,1.037215,75.4409,177.7665,0.6118076,0.004765142,0.7907147,1
5.52,-26.06215,1.290478,-34.70512,0.2192407433253329,0.0847264870973598,0.7703018557202839,352.8403,76.65171,178.4266,0.6181923,0.05747669,0.7834238,1
5.54,-25.94485,1.299966,-34.67652,0.2461064990042594,0.1186366236564186,0.7830033140442705,352.2924,76.94087,178.9622,0.6202021,0.05824035,0.7815056,1
5.56,-25.84188,1.469053,-34.65467,0.253110612893658,0.0991370562239481,0.7901759750567985,355.3123,76.81984,178.8618,0.6204148,0.03821006,0.7831441,1
5.58,-25.8252,1.288894,-34.6489,0.2550968286482877,0.0772530455784508,0.797602076604691,353.2342,77.13094,179.4212,0.6220813,0.04928086,0.7807099,1
5.6,-25.7235,1.458757,-34.62884,0.2482211656393604,0.0733202049214547,0.7980127458840434,356.2145,77.1315,179.3274,0.62291,0.02948161,0.7815742,1
5.62,-25.7249,1.260138,-34.62917,0.2429554240451987,0.0681349973944197,0.7992443219257295,356.9229,77.19432,180.8086,0.6237486,0.01658354,0.7811322,1
5.64,-25.62509,1.431906,-34.60887,0.2388239594995509,0.090895229814008,0.8008882764411203,359.8925,77.17719,180.7347,0.6237157,-0.003265398,0.7816246,1
5.66,-25.52728,1.601323,-34.58919,0.2153065189490814,0.0627351638074061,0.7979989798015499,2.845967,77.14989,180.6509,0.6232253,-0.02295493,0.7816277,1
5.68,-25.5647,1.246942,-34.59449,0.2008791401746119,0.0854281157410921,0.7973478290211515,3.396127,77.74017,181.6568,0.626882,-0.03213748,0.7784167,1
5.7,-25.46598,1.421597,-34.57892,0.1924640028299311,0.1313850130299085,0.7978211267792616,6.315393,77.82869,181.5159,0.6265823,-0.05115339,0.7772943,1
5.72,-25.49628,1.231452,-34.56797,0.150484525327629,0.0980539775562861,0.7930979751379734,9.748019,77.44112,182.8519,0.6214182,-0.08177953,0.7784666,1
5.74,-25.39702,1.408595,-34.54812,0.1258249240162468,0.1161462731079446,0.7892801062008683,12.73137,77.49263,182.8003,0.6197159,-0.1016459,0.7765804,1
5.76,-25.30012,1.583549,-34.5289,0.1065986193183734,0.1595067373097048,0.7866380507332016,15.68125,77.50974,182.7389,0.6174181,-0.1211734,0.7743613,1
5.78,-25.38692,1.203966,-34.53782,0.0678069357525257,0.1492384507723129,0.7772322343662914,14.15672,77.52328,183.338,0.6182481,-0.1141419,0.7757332,1
5.8,-25.29047,1.386359,-34.51909,0.0281934689803766,0.1396072882271589,0.7707488670118723,17.09373,77.52204,183.2619,0.6155716,-0.1334613,0.7734404,1
5.82,-25.34176,1.186857,-34.52118,-0.012776163391245,0.127436515381742,0.7671337847726019,16.79398,76.84602,183.5935,0.610911,-0.1336275,0.7775099,1
5.84,-25.31492,1.171277,-34.50693,-0.0477615971145075,0.1138342232279124,0.7574219480835023,19.52511,75.34399,183.7575,0.5975664,-0.1538884,0.7830384,1
5.86,-25.22047,1.360181,-34.48804,-0.0922992356299579,0.0736572774922187,0.7474464388249613,22.44124,75.31995,183.576,0.5941973,-0.172669,0.7798497,1
5.88,-25.25639,1.155385,-34.48616,-0.1168869162712438,0.0910958623272867,0.7393061870499462,22.44776,73.69485,183.7562,0.5827959,-0.1749543,0.788334,1
5.9,-25.1635,1.347675,-34.46713,-0.1400332106265751,0.1076164398276416,0.734036560144359,25.33371,73.62856,183.4916,0.5790193,-0.193283,0.7847378,1
5.92,-25.20886,1.14057,-34.46602,-0.1888966717870865,0.0378292508860161,0.7252412011681431,25.71795,71.91843,183.7357,0.5663068,-0.1987054,0.7929757,1
5.94,-25.16902,1.129752,-34.44697,-0.2033642710313135,0.0556426341946496,0.7176400429940859,29.47775,69.89037,183.4921,0.5473335,-0.2253253,0.7968009,1
5.96,-25.07774,1.327424,-34.42559,-0.2143852511990274,0.0725310029001668,0.7129244872009117,32.35786,69.71877,183.079,0.5425877,-0.2433033,0.7920544,1
5.98,-24.98661,1.522917,-34.40427,-0.2225079963690364,0.0851120379025818,0.7110001202925025,35.23897,69.51659,182.6424,0.537492,-0.2611453,0.7867941,1
6.0,-25.02028,1.118924,-34.39434,-0.2259137421406758,0.0692910751952325,0.7050035400519015,37.1679,67.11926,182.9448,0.516983,-0.2789473,0.7941263,1
6.02,-24.99235,1.11727,-34.38528,-0.2351799374638017,0.0266735563902376,0.698306124165267,39.53863,67.01781,182.6259,0.5129304,-0.2938498,0.7887302,1
6.04,-24.89085,1.316895,-34.35396,-0.2243802058630235,0.045062865880868,0.692755900667775,42.83568,66.75719,182.1687,0.506313,-0.3145716,0.7810492,1
6.06,-24.84277,1.114553,-34.33627,-0.2137411513807801,0.0062273616565436,0.6889292304507704,44.6664,66.54279,181.094,0.5043981,-0.3225347,0.7753217,1
6.08,-24.74137,1.315164,-34.30295,-0.1992850324393775,-0.0325687477373785,0.687097270555741,47.98624,66.25361,180.6384,0.4973688,-0.3433114,0.7663277,1
6.1,-24.71792,1.112987,-34.2914,-0.1697827481161384,-0.0420626937624774,0.6856746554215949,48.06011,65.27788,179.5031,0.4940817,-0.3407716,0.7681448,1
6.12,-24.58023,1.107187,-34.24233,-0.1397535435966141,-0.0789555925612111,0.6834216931179213,53.3032,63.90606,177.6534,0.4806884,-0.3708338,0.7533118,1
6.14,-24.48082,1.305643,-34.20903,-0.1030747395083082,-0.0561958330615592,0.6811110817026709,56.56299,63.30453,176.8695,0.4729668,-0.3905512,0.7425642,1
6.16,-24.36175,1.102275,-34.16472,-0.0468434898842575,-0.0583742469909029,0.6856041046771626,59.66396,61.23705,174.0144,0.4635774,-0.4044493,0.732294,1
6.18,-24.26325,1.296066,-34.13231,0.0106217517855342,-0.0860146152824432,0.68917569199012,62.87148,60.13403,172.711,0.4553033,-0.4232777,0.7203127,1
6.2,-24.15875,1.109162,-34.08967,0.0714288616227301,-0.0550496443421734,0.6917661383562477,62.6366,54.68258,167.8626,0.438983,-0.4176551,0.7293649,1
6.22,-23.98346,1.128952,-34.02125,0.1491915836402304,-0.0720718404795487,0.7000052655242586,60.94051,51.65462,166.723,0.4257413,-0.4099693,0.7450585,1
6.24,-23.88592,1.313194,-33.98627,0.2171268160554937,-0.0339641639780325,0.7040265140225763,63.98232,49.62492,164.3895,0.4179268,-0.4280906,0.7325106,1
6.26,-23.77434,1.161828,-33.94058,0.2852859786307933,-0.0435397280164447,0.7066596174243065,55.75597,52.36241,168.762,0.4292188,-0.3794139,0.7692438,1
6.28,-23.67599,1.341677,-33.90424,0.3527436801404966,-0.0552841709073371,0.7067384331300044,58.8107,50.8588,166.9279,0.4221204,-0.3979531,0.7576531,1
6.3,-23.59936,1.195655,-33.87218,0.4133934755598112,-0.0387863546494106,0.7011119315877599,48.28023,57.41119,173.1493,0.4589543,-0.331878,0.787229,1
6.32,-23.44181,1.228827,-33.82558,0.4769200780772311,0.0009858811978189,0.6940908234232372,37.79179,60.21421,174.7028,0.4870244,-0.2579288,0.8100873,1
6.34,-23.36157,1.241568,-33.7975,0.5318004755972909,0.0161037384147209,0.6828070625514338,31.77052,61.53783,175.3452,0.5011855,-0.2150078,0.8200569,1
6.36,-23.26023,1.414391,-33.75753,0.5855964248666807,0.0294996952576937,0.6688437570261367,34.95805,61.09896,174.8173,0.4960124,-0.2364805,0.8136847,1
6.38,-23.16033,1.584197,-33.71766,0.6278146532571873,0.0405223205356421,0.6544051061364717,38.15174,60.59275,174.2402,0.4903463,-0.2578749,0.8066998,1
6.4,-23.1336,1.265631,-33.71331,0.6731602386438285,0.0742255433993329,0.6401504288126771,13.64083,65.32173,177.173,0.5381496,-0.08673143,0.8340867,1
6.42,-23.0934,1.270386,-33.69556,0.7028543656807247,0.0586619285569814,0.6222086089310821,7.861146,66.43163,177.5498,0.5476069,-0.04565027,0.8336518,1
6.44,-22.99051,1.440764,-33.65231,0.7293575014311688,0.0881223203985645,0.60399427836039,11.11307,66.21262,177.444,0.5453016,-0.06896389,0.8323358,1
6.46,-22.89647,1.2808,-33.61007,0.7563762955435718,0.0947388075184364,0.5878081574638525,354.2757,68.86868,178.3649,0.5641109,0.04923791,0.824065,1
6.48,-22.79005,1.448489,-33.56668,0.7793063558254625,0.0987245669738786,0.5706517239449989,357.5979,68.85809,178.4245,0.56497,0.02505855,0.8247308,1
6.5,-22.74026,1.293168,-33.54002,0.795183843345717,0.1026600297663039,0.5508025956855205,352.0511,69.34247,179.0386,0.5670004,0.0617627,0.8207539,1
6.52,-22.61888,1.297819,-33.48394,0.8069311908388888,0.1038801184799153,0.5296703019878768,353.286,69.51009,179.5084,0.5688793,0.05055173,0.8203227,1
6.54,-22.51202,1.461694,-33.4366,0.8128438072290294,0.0990873269791773,0.5077496062060884,356.6137,69.74127,179.7946,0.5714316,0.02526562,0.8201159,1
6.56,-22.5067,1.270904,-33.43046,0.8123064553784785,0.1164792354732819,0.4834148289248245,353.9811,70.04229,179.9995,0.5730871,0.04299762,0.8178111,1
6.58,-22.39975,1.43636,-33.38478,0.7921106973674807,0.0826260552666258,0.4544979132469526,357.3287,70.38346,180.3044,0.5762064,0.01751866,0.8169675,1
6.6,-22.39662,1.255199,-33.38704,0.7802844313599122,0.0980236361440741,0.4266246470511046,357.3744,70.36236,181.1306,0.5761693,0.01304138,0.8169497,1
6.62,-22.30954,1.24709,-33.34192,0.7445696694211237,0.0624690947676064,0.3943944345952364,1.281172,70.8109,181.6001,0.5791389,-0.0172007,0.8150329,1
6.64,-22.20053,1.414374,-33.29851,0.71344503668371,0.0546921737574006,0.3650132263430565,4.682656,71.40395,181.9291,0.582441,-0.04298585,0.8116721,1
6.66,-22.19809,1.239018,-33.28828,0.6794055704869333,0.0459327461584432,0.3350320223403189,6.006309,71.43584,182.6202,0.5818685,-0.0558545,0.8112735,1
6.68,-22.08984,1.408695,-33.24622,0.641841379744613,0.0330597323579195,0.3043778609789989,9.372491,72.18917,182.9868,0.5852307,-0.0812965,0.8063253,1
6.7,-21.98362,1.575139,-33.20519,0.5913620633948984,0.0179463775615602,0.2721393098823013,12.72425,72.95078,183.4127,0.587901,-0.1066586,0.8007674,1
6.72,-22.08229,1.209722,-33.21181,0.5304957880180763,-0.024638107528868,0.2404436374595064,13.28382,71.34592,183.5472,0.5760584,-0.1118431,0.8086078,1
6.74,-21.97327,1.3855,-33.16958,0.4866574541561284,-0.0136163981049264,0.2100802293311838,16.71982,72.114,183.8749,0.578029,-0.137159,0.8022777,1
6.76,-21.8655,1.557929,-33.1286,0.4222660755550653,-0.0566110518821278,0.1769073923444519,20.15028,72.91777,184.2581,0.5794511,-0.1623397,0.7951962,1
6.78,-21.9521,1.183821,-33.14229,0.3566542885054029,-0.0999765878075089,0.1441498638788463,17.25323,71.66916,183.9485,0.5742911,-0.1414708,0.8040885,1
6.8,-21.84516,1.365403,-33.10138,0.316660511000864,-0.0641457470706644,0.1159502700759418,20.65798,72.44938,184.2533,0.5756088,-0.1661166,0.7970181,1
6.82,-21.73915,1.543762,-33.06155,0.2452441432075849,-0.1112947037424599,0.0836589926900872,24.05747,73.26797,184.6161,0.576391,-0.1906027,0.7892156,1
6.84,-21.81161,1.153198,-33.05651,0.1962352797284476,-0.1013998994704855,0.0557151791767855,22.98424,69.40273,184.0868,0.5516908,-0.1835835,0.8091804,1
6.86,-21.77982,1.145572,-33.03714,0.1585815417675231,-0.0624014936904445,0.0298033141467373,24.50586,68.81231,184.0933,0.5455783,-0.1947074,0.8100267,1
6.88,-21.67521,1.336675,-32.99655,0.0972698631981767,-0.1089461609784183,0.0033066502028038,27.90805,69.52837,184.1784,0.5457837,-0.2181421,0.8017454,1
6.9,-21.57098,1.524662,-32.95679,0.0574872333075511,-0.09620637746266,-0.0186753349746267,31.30929,70.27403,184.3157,0.545483,-0.241378,0.7927323,1
6.92,-21.65553,1.128675,-32.96257,0.0121057754015674,-0.1403486330645774,-0.0381909347356304,30.01473,66.31525,183.7484,0.520917,-0.2339409,0.8128148,1
6.94,-21.55117,1.3243,-32.92152,-0.0152683563577191,-0.1525391097935763,-0.0545368074725187,33.43783,66.93784,183.646,0.5202705,-0.2566566,0.8035648,1
6.96,-21.44696,1.516808,-32.88118,-0.0310378733436831,-0.1320327535611507,-0.0685844015523429,36.8607,67.57887,183.5858,0.5191383,-0.2791284,0.7935746,1
6.98,-21.34308,1.70623,-32.84163,-0.0540685481987175,-0.168360457005396,-0.0832914439298955,40.2829,68.24582,183.5728,0.5175221,-0.3013355,0.782854,1
7.0,-21.3991,1.115473,-32.83983,-0.0729858913893974,-0.2044249804194745,-0.0956849936789652,41.87226,64.4717,182.4099,0.4917238,-0.3126581,0.7938489,1
7.02,-21.36917,1.114921,-32.82482,-0.0708426379435542,-0.2106319782466137,-0.1025347977341457,43.25784,64.2013,181.7854,0.4890676,-0.3198999,0.7904271,1
7.04,-21.26778,1.315002,-32.78447,-0.0548554124363178,-0.1851932927447114,-0.1050895309345234,46.60109,64.64775,181.4646,0.4867831,-0.3405082,0.7787599,1
7.06,-21.19721,1.112867,-32.74691,-0.0386522201582049,-0.2174334527972674,-0.1063434987070666,48.06374,63.23442,179.5742,0.4800855,-0.3450155,0.7769561,1
7.08,-21.09654,1.313129,-32.7073,-0.0118512048196834,-0.1898732512031488,-0.1046147690094381,51.37547,63.55325,179.1118,0.4774061,-0.3648038,0.7642993,1
7.1,-21.03462,1.107092,-32.67815,0.0188190058335955,-0.2196433400624067,-0.1004985398537172,53.30202,62.40826,177.7149,0.4706027,-0.3743517,0.759667,1
7.12,-20.95903,1.103745,-32.64682,0.0632497978562076,-0.1902400397666429,-0.0927773979508304,56.48875,61.31786,176.2038,0.4624502,-0.3919816,0.7493895,1
7.14,-20.85953,1.299728,-32.61033,0.1198579689531595,-0.1835281291409715,-0.0792703068076692,59.73297,61.2425,175.3267,0.4588161,-0.4101734,0.7352994,1
7.16,-20.66065,1.109085,-32.52414,0.1774256072132836,-0.1770812736044758,-0.0657840052934419,62.64767,53.72993,167.8927,0.4327794,-0.4204704,0.7330231,1
7.18,-20.56886,1.117945,-32.48499,0.2345444521645672,-0.1629116503314681,-0.0512381052437298,61.81319,52.46598,167.3276,0.427789,-0.4160671,0.7398767,1
7.2,-20.47011,1.304201,-32.44928,0.2918372194195555,-0.1491178596160173,-0.0367659010273033,64.90739,51.28288,165.2579,0.424203,-0.4329263,0.7246469,1
7.22,-20.26236,1.161656,-32.36243,0.3604438816277437,-0.126011181129779,-0.0174205464461767,55.77631,52.63593,168.8251,0.4308221,-0.3791185,0.7682926,1
7.24,-20.16122,1.341231,-32.32772,0.4164746106286854,-0.078447601071029,-0.0039198894130256,58.86244,51.87332,167.1281,0.4280635,-0.3964012,0.7541963,1
7.26,-20.05524,1.195389,-32.28558,0.471445853326923,-0.0781013513689598,0.0078558812537377,48.30883,58.59136,173.2368,0.4667476,-0.3299065,0.7825538,1
7.28,-19.95293,1.371553,-32.25078,0.5238725143253737,-0.0305311665377978,0.0173089227885636,51.46151,58.59628,172.374,0.4650336,-0.3484561,0.7697461,1
7.3,-19.85918,1.227114,-32.23159,0.574876709262278,0.0139401252515764,0.0255498979426249,38.00998,62.15916,174.7233,0.5004097,-0.2561407,0.8011695,1
7.32,-19.74288,1.396946,-32.19428,0.6144807613293919,0.0343659696064308,0.0302800954055593,41.55617,62.44546,174.1338,0.4995409,-0.2781699,0.7890833,1
7.34,-19.62176,1.257256,-32.16136,0.6449078268799906,0.0527598848403295,0.03414513896303,20.02481,67.3849,176.604,0.5503329,-0.1284068,0.8161381,1
7.36,-19.50485,1.425421,-32.12577,0.6761264096177615,0.0937887234466355,0.0381311309374039,23.55093,67.98375,176.433,0.5523106,-0.1520875,0.807724,1
7.38,-19.45511,1.268014,-32.10733,0.6947317978550287,0.0858391393677272,0.0396274256268478,8.135098,70.59132,177.5813,0.577434,-0.04571712,0.8130794,1
7.4,-19.33626,1.434903,-32.07259,0.7109468139882567,0.0751079645369356,0.0394898461921258,11.6966,71.25301,177.5851,0.581084,-0.07059409,0.8071706,1
7.42,-19.30532,1.275584,-32.05362,0.7375390685877834,0.0873962564443674,0.0469403862204131,358.4067,72.9074,178.2104,0.5938686,0.02045989,0.8042907,1
7.44,-19.18554,1.441045,-32.01904,0.7702855682520027,0.1222945545837196,0.0562718564890953,1.978451,73.5676,178.3518,0.5988449,-0.005214338,0.80055,1
7.46,-19.06786,1.291381,-31.9659,0.7904920449248167,0.1084274707022866,0.0632317763531657,352.2258,74.46954,179.0716,0.6032333,0.05886163,0.7946377,1
7.48,-18.94678,1.453292,-31.92964,0.8086349971411895,0.14018556221675,0.0686144251263076,355.8169,75.0976,179.3628,0.6088607,0.03232139,0.7924179,1
7.5,-18.91051,1.29603,-31.90641,0.8033757444883325,0.1192775047919332,0.0687231187483856,353.4505,74.88931,179.5437,0.6068168,0.04776993,0.7927767,1
7.52,-18.79046,1.456906,-31.86898,0.8023779776642066,0.1438229033923303,0.0693696268601158,357.0123,75.51626,179.9064,0.6121044,0.02111039,0.7903469,1
7.54,-18.75069,1.262075,-31.84086,0.785766343628167,0.1407729573069159,0.0659917405277115,355.7467,75.42365,180.6006,0.6114145,0.02615272,0.7904226,1
7.56,-18.63312,1.425911,-31.80525,0.7648759107813303,0.1369378562639735,0.0598167101177491,359.2827,76.06408,180.9545,0.6161097,-0.0002010444,0.7875915,1
7.58,-18.61868,1.250127,-31.79169,0.7377231740912968,0.1347415495116541,0.054664118902032,359.4309,75.93422,181.3872,0.6152039,-0.003531907,0.7882597,1
7.6,-18.49911,1.414486,-31.7567,0.7071756930153721,0.13202335410559,0.0471979896506207,3.038779,76.59624,181.737,0.619149,-0.03019726,0.7846799,1
7.62,-18.51805,1.240334,-31.74576,0.6668370489282072,0.1298264707679142,0.041158222909793,4.018824,76.17052,182.0798,0.6158519,-0.03878175,0.7868729,1
7.64,-18.44861,1.232084,-31.70708,0.626919034568221,0.1537445384170547,0.0331869269224274,8.250555,75.9913,182.8865,0.6123839,-0.07213797,0.7868817,1
7.66,-18.32951,1.400814,-31.6721,0.564825833529075,0.1250783453557156,0.0221477701797825,11.87278,76.70352,183.2282,0.6146308,-0.09845874,0.7815087,1
7.68,-18.21229,1.56578,-31.63847,0.5156494278816626,0.1472404756749737,0.0142248293991023,15.48944,77.44852,183.6217,0.6162348,-0.1246702,0.7753271,1
7.7,-18.30071,1.208648,-31.63811,0.4417808982531237,0.1166549976240274,0.0008495458399164,13.44748,76.55527,183.5615,0.6120589,-0.1109848,0.7814964,1
7.72,-18.24328,1.190945,-31.60444,0.3578508941733058,0.0589920951258942,-0.0134740201545819,16.07512,76.35883,183.7904,0.6080841,-0.1300925,0.7807896,1
7.74,-18.12803,1.369543,-31.57068,0.3025022922085882,0.0806413172154369,-0.0219695016274017,19.64283,77.10759,184.1126,0.608933,-0.1553452,0.7738806,1
7.76,-18.14487,1.175711,-31.55767,0.2456872786112685,0.1015369709441467,-0.0317833913544753,18.73187,75.67181,184.0825,0.6002631,-0.1500026,0.7823038,1
7.78,-18.0312,1.358307,-31.52413,0.1594489840222348,0.039411960898879,-0.0469247858479979,22.27949,76.41385,184.349,0.6006528,-0.1747318,0.7749563,1
7.8,-17.91854,1.537443,-31.49156,0.088127333010735,0.0313284494066675,-0.0577152466759214,25.82248,77.19427,184.674,0.6004418,-0.1992807,0.7668427,1
7.82,-18.02239,1.15304,-31.49308,0.0178512565738295,0.0252702028053071,-0.068812012263407,23.06225,73.44556,184.0721,0.5798126,-0.1809417,0.789111,1
7.84,-17.91149,1.341815,-31.45961,-0.066264287190743,-0.037823826015051,-0.0807236480300734,26.56861,74.1379,184.1809,0.5795682,-0.2046237,0.7810958,1
7.86,-17.80122,1.527276,-31.42697,-0.1229089596534249,-0.015429807372752,-0.0876039065870433,30.07214,74.8604,184.3421,0.5787598,-0.2280983,0.7723296,1
7.88,-17.8676,1.12869,-31.40878,-0.1666739480883257,0.0362766461680906,-0.0914914326897373,30.04889,69.68542,183.7305,0.5445776,-0.2306048,0.7970682,1
7.9,-17.75987,1.324266,-31.37403,-0.2289604654322472,0.0024654310088818,-0.0991378883690163,33.50737,70.2653,183.6074,0.5433511,-0.2529713,0.7879411,1
7.92,-17.71204,1.118699,-31.3371,-0.2894599751205171,-0.0588076692023392,-0.1067584199824174,37.39387,67.53168,183.0266,0.5192477,-0.2802992,0.791876,1
7.94,-17.64435,1.117168,-31.31458,-0.3193773512099456,-0.0329117984616398,-0.1075799555911842,39.59998,67.69602,182.6736,0.5173569,-0.2934775,0.7856076,1
7.96,-17.53934,1.316467,-31.28156,-0.345824657562541,-0.0072920463093807,-0.1083960217780228,42.96823,68.10181,182.3146,0.5147898,-0.3139089,0.7749575,1
7.98,-17.51358,1.114984,-31.26764,-0.3822008725683892,-0.0690302514548546,-0.111495075544076,43.25807,67.82983,181.7594,0.5139178,-0.3138126,0.7745027,1
8.0,-17.40952,1.315121,-31.23442,-0.4152876861041263,-0.1312756764256791,-0.1143156565741851,46.60566,68.22092,181.405,0.5109904,-0.3338229,0.7630818,1
8.02,-17.31525,1.112897,-31.19094,-0.4215001457281839,-0.0808430227091357,-0.1113560473637176,48.06147,66.70419,179.5618,0.5034286,-0.3382367,0.7620476,1
8.04,-17.21229,1.313189,-31.15783,-0.4067799318450238,-0.0883455431496441,-0.1002114637448436,51.37394,66.97748,179.081,0.5001277,-0.3574989,0.7496331,1
8.06,-17.12908,1.107117,-31.12361,-0.3875143422363889,-0.1229232477504877,-0.0883603548761482,53.29101,65.80951,177.712,0.4929712,-0.3667542,0.745397,1
8.08,-17.02722,1.305385,-31.09186,-0.3600841865994675,-0.0984137537970943,-0.0764785139222055,56.563,65.9055,177.0489,0.4890954,-0.3851115,0.7320727,1
8.1,-16.91667,1.102204,-31.04864,-0.3291059088745038,-0.0754675271927087,-0.0649912432648265,59.65025,63.383,174.0779,0.4770147,-0.3990849,0.723704,1
8.12,-16.81538,1.295832,-31.01917,-0.2853365604947828,-0.0755767966290759,-0.0484209066195173,62.87051,62.99462,172.9082,0.4724276,-0.4162723,0.709274,1
8.14,-16.606,1.117998,-30.93591,-0.2347830728216582,-0.0457260715794143,-0.0312006109177516,61.813,55.44696,167.2542,0.4471508,-0.4075597,0.728294,1
8.16,-16.50502,1.304314,-30.90637,-0.1812110477151216,-0.017751318393072,-0.0141786066042595,64.90334,54.14821,165.0901,0.4428145,-0.4239175,0.7133362,1
8.18,-16.39054,1.14427,-30.85766,-0.1266515263717769,-0.0066342345544777,0.0031052419976593,58.38255,54.82775,167.8585,0.4454743,-0.3880213,0.7468684,1
8.2,-16.28885,1.32611,-30.82791,-0.0737065519771467,0.0082601415193391,0.0186906817523166,61.45428,53.79487,165.9317,0.4417586,-0.4046218,0.7325389,1
8.22,-16.0994,1.195447,-30.75251,-0.0194673567840839,0.0225850728131533,0.0335921062180211,48.31242,60.53199,173.1709,0.4801151,-0.3254282,0.7743803,1
8.24,-15.9956,1.371716,-30.72239,0.0282442410461434,0.0388648701532528,0.0408525324319679,51.45835,60.44983,172.235,0.4778447,-0.3435355,0.761807,1
8.26,-15.88544,1.227184,-30.69658,0.0768128006433794,0.0538525200033328,0.0473036487028997,38.00893,64.02522,174.6853,0.5134745,-0.2525876,0.7928482,1
8.28,-15.76787,1.397117,-30.6639,0.1248096394477429,0.1128438935838677,0.0516159982702735,41.54853,64.25236,174.0519,0.5121266,-0.2741755,0.7809669,1
8.3,-15.65208,1.563405,-30.63246,0.1603856610704599,0.1000873802683433,0.0511190793607827,45.08953,64.43758,173.4011,0.5102629,-0.2954898,0.7683059,1
8.32,-15.62654,1.256617,-30.62164,0.1873166994055799,0.1094214748142922,0.0498773269730534,20.11962,69.02429,176.584,0.5619126,-0.1272423,0.8080276,1
8.34,-15.50281,1.267925,-30.57799,0.2127631880864047,0.1178213583491909,0.0475820486159892,8.166008,71.60377,177.5672,0.5845941,-0.04534791,0.8079197,1
8.36,-15.38301,1.434721,-30.54543,0.2330986211157111,0.1232473416671122,0.0460604167269322,11.7388,72.2319,177.5561,0.5879597,-0.07008667,0.802123,1
8.38,-15.33307,1.275558,-30.51895,0.2508223418030151,0.1273375982655875,0.0435750562548382,358.415,73.92304,178.2058,0.6009743,0.02046324,0.7989954,1
8.4,-15.21269,1.440996,-30.48638,0.2750733445731683,0.1755179062735443,0.0424630647015882,1.990219,74.55231,178.341,0.6057026,-0.005051425,0.7953701,1
8.42,-15.07579,1.29138,-30.42575,0.2826898906366755,0.1524930169770759,0.0394735578696754,352.2268,75.38625,179.0678,0.6095695,0.0585959,0.7897881,1
8.44,-14.95422,1.45329,-30.39128,0.2975682868143721,0.1508401101387046,0.0392497082431386,355.8192,75.98403,179.3535,0.6149701,0.03221657,0.7876864,1
8.46,-14.89833,1.296029,-30.36064,0.3089491299243607,0.1477506986275929,0.0386566769240293,353.4507,75.81227,179.542,0.6131815,0.04752161,0.787864,1
8.48,-14.77781,1.456906,-30.32492,0.3006238619321151,0.138889379657319,0.0310725370137157,357.0133,76.4087,179.9012,0.6182401,0.02101208,0.7855567,1
8.5,-14.79181,1.270018,-30.31334,0.2881854481878134,0.1293987738862883,0.0226061872376694,354.073,76.13523,180.0209,0.6157738,0.04059042,0.786225,1
8.52,-14.67425,1.433491,-30.27898,0.2760279711608215,0.1157464093637141,0.0151342475822588,357.5853,76.73447,180.3755,0.6206125,0.01448664,0.7838275,1
8.54,-14.62085,1.250307,-30.24589,0.2516816476078374,0.0777969950048027,0.0051970148527149,359.4112,76.31844,181.379,0.6178447,-0.003395266,0.7861915,1
8.56,-14.50167,1.414879,-30.21186,0.2353504319619794,0.0917850414393711,-0.0044944031754772,3.002438,76.94939,181.7188,0.6215779,-0.02983647,0.7827709,1
8.58,-14.50015,1.240385,-30.19346,0.2151067111307083,0.1036456311533973,-0.0152316742183815,4.011192,76.61921,182.0774,0.6189313,-0.03868741,0.7844563,1
8.6,-14.37978,1.406336,-30.15912,0.179588205824998,0.0900589992463469,-0.0271904880324025,7.65366,77.27776,182.4315,0.6217713,-0.06533811,0.7800642,1
8.62,-14.41064,1.232155,-30.14821,0.1413448377988511,0.0770533525651715,-0.0397149997639632,8.23685,76.5115,182.8849,0.6159586,-0.07192367,0.7840983,1
8.64,-14.29155,1.400946,-30.11417,0.1202308971643459,0.1119832583770003,-0.0494027997832686,11.85312,77.19196,183.2239,0.6179749,-0.09812174,0.7788913,1
8.66,-14.30613,1.208794,-30.08905,0.0762447980975333,0.0939309534320561,-0.0628459996144008,13.42587,76.502,183.5542,0.6117207,-0.1108219,0.7817916,1
8.68,-14.18935,1.3833,-30.05509,0.0180363533238665,0.0511631786248764,-0.0788170773046914,17.01205,77.20981,183.8884,0.6128066,-0.136458,0.7755573,1
8.7,-14.22874,1.191032,-30.04918,-0.0417267489144237,0.0094348917756302,-0.0950139322843193,16.06065,76.43755,183.7866,0.608639,-0.129933,0.7803811,1
8.72,-14.1721,1.175806,-30.01344,-0.0889929067123862,-0.0102253580871632,-0.1070700639397643,18.71771,75.28514,184.0698,0.5976521,-0.1500826,0.7843301,1
8.74,-14.05903,1.358507,-29.9795,-0.1275838520433805,0.0012163547877222,-0.1189473847386284,22.25382,75.9914,184.3213,0.5978673,-0.1747463,0.7771725,1
8.76,-13.94696,1.537778,-29.94652,-0.1663503868922049,0.0123980699038369,-0.1307984190711235,25.78561,76.73387,184.628,0.5974904,-0.1992303,0.769254,1
8.78,-14.03018,1.153083,-29.94253,-0.1861780795415477,0.0756178238895164,-0.1396492570389935,23.05274,73.21699,184.071,0.5782516,-0.1810532,0.7902766,1
8.8,-14.014,1.145477,-29.9292,-0.2411098722353921,0.0274797819014236,-0.1526706542672222,24.5849,72.30988,184.072,0.5699737,-0.192273,0.7928776,1
8.82,-13.90449,1.336292,-29.89479,-0.2945729093443865,-0.0189651414315748,-0.1649321693964784,28.07362,72.95217,184.1319,0.5693301,-0.2156964,0.7847856,1
8.84,-13.89764,1.128717,-29.8644,-0.3259352532315518,-0.0388941133978756,-0.1713433530619648,30.02974,69.32756,183.7302,0.5421152,-0.2308522,0.7987972,1
8.86,-13.79055,1.324328,-29.82915,-0.3618472751305108,-0.0846255625564986,-0.1782951493266655,33.47669,69.87556,183.604,0.5407265,-0.2532248,0.7898389,1
8.88,-13.68365,1.516788,-29.79456,-0.3948612165874878,-0.128801003858482,-0.1842887078487511,36.92356,70.43723,183.5135,0.5388301,-0.2753554,0.7801473,1
8.9,-13.72293,1.118693,-29.78584,-0.3989604333052816,-0.0875942543143101,-0.1872434996157439,37.39001,67.36228,183.0299,0.5180753,-0.2805199,0.7926558,1
8.92,-13.62459,1.115574,-29.7521,-0.4172237065486834,-0.1322268105168186,-0.1937480772579696,41.84998,67.29976,182.364,0.5113289,-0.307915,0.7814556,1
8.94,-13.52012,1.31545,-29.71816,-0.4221415716647381,-0.1162527457202763,-0.1996283954440278,45.21749,67.65912,181.9973,0.5082968,-0.3282592,0.7704734,1
8.96,-13.41561,1.512331,-29.68479,-0.4207490344098921,-0.1270784320581857,-0.2022773125344708,48.58562,68.00864,181.6388,0.5048067,-0.3483034,0.7588051,1
8.98,-13.40312,1.113682,-29.66773,-0.4145132775675049,-0.1361660457881482,-0.203702174895064,46.3665,66.98657,180.3954,0.5061425,-0.3300525,0.7673544,1
9.0,-13.30008,1.314014,-29.63377,-0.3974430602659606,-0.1443004719092299,-0.2017071141668651,49.69463,67.29585,179.9909,0.5028243,-0.3497603,0.7553796,1
9.02,-13.19697,1.511421,-29.60034,-0.3753179335328458,-0.151040827212608,-0.1984803771584746,53.02317,67.58886,179.5858,0.4990631,-0.3691564,0.7427476,1
9.04,-13.05174,1.103678,-29.53765,-0.3316051068818357,-0.1559193788884489,-0.1893874144641762,56.50232,64.39212,176.2394,0.4822394,-0.3849367,0.7367514,1
9.06,-12.94596,1.102175,-29.5002,-0.284358064987485,-0.1604065398832458,-0.1797986097813102,59.65674,62.94297,174.0861,0.4741908,-0.4003072,0.7255266,1
9.08,-12.84469,1.295765,-29.46971,-0.2283105455296745,-0.1590551647400213,-0.1672484370027556,62.88895,62.52521,172.9172,0.4694491,-0.4177238,0.711152,1
9.1,-12.74374,1.486595,-29.43986,-0.169249121540342,-0.1577507458343946,-0.1541027603562956,66.11459,61.89139,171.5429,0.464308,-0.4347792,0.6961833,1
9.12,-12.61631,1.117948,-29.38207,-0.0934530418752817,-0.1461046873393382,-0.1350907792038493,61.81956,55.30091,167.2641,0.4461781,-0.4080528,0.7288626,1
9.14,-12.51548,1.304241,-29.352,-0.0159327526676127,-0.135075458317064,-0.1155753944843489,64.91428,53.9772,165.1063,0.4416757,-0.4245604,0.7139941,1
9.16,-12.41535,1.487812,-29.32269,0.0471954880547835,-0.1181794169139517,-0.1019744235934205,67.98074,52.17005,162.4756,0.4368063,-0.4407128,0.6985409,1
9.18,-12.22214,1.178115,-29.23734,0.1106647663361122,-0.101692209226878,-0.0882670294388323,52.09002,57.65136,171.2167,0.4613682,-0.3503712,0.7686015,1
9.2,-12.14721,1.195395,-29.20926,0.1719489249061465,-0.0371827643646295,-0.0774226797268866,48.31828,60.0983,173.204,0.4770784,-0.3265617,0.7762451,1
9.22,-12.04432,1.371687,-29.17751,0.2291442095688147,-0.0437638888105969,-0.0686461775763618,51.45981,60.01594,172.3076,0.4747364,-0.3448688,0.763776,1
9.24,-11.87896,1.239019,-29.14054,0.2761847436050906,-0.0276119888119169,-0.0655881975922239,32.10698,65.29672,175.3393,0.5274829,-0.2115686,0.8024278,1
9.26,-11.76182,1.408279,-29.1069,0.3227617045564408,-0.012573785534136,-0.0626097435503387,35.63916,65.64738,174.888,0.5270056,-0.2338926,0.7918336,1
9.28,-11.64647,1.573899,-29.0745,0.3671904498295864,0.0459950444499487,-0.0592264674728961,39.1736,65.97858,174.4429,0.5260034,-0.2559879,0.7804595,1
9.3,-11.61548,1.263156,-29.06811,0.3947023336564451,0.0323351634989749,-0.0580251514532488,13.97029,70.50541,177.1858,0.5751657,-0.08521184,0.8085852,1
9.32,-11.56881,1.267896,-29.05087,0.4196100893377615,0.0169483562003127,-0.0570246944686392,8.173331,71.68153,177.5676,0.5851404,-0.04536172,0.8075185,1
9.34,-11.44901,1.434665,-29.01821,0.4545504468515133,0.0673754421413472,-0.0533095365450972,11.74886,72.2793,177.5552,0.588288,-0.07012089,0.8018705,1
9.36,-11.34535,1.279095,-28.97685,0.4828532662253932,0.070375071344701,-0.0477984685908059,354.476,74.86961,178.429,0.6065706,0.04658306,0.7934502,1
9.38,-11.22475,1.443713,-28.94426,0.499565718395772,0.0493471964841131,-0.0431831829617337,358.0517,75.4561,178.6165,0.6116191,0.0208322,0.7908779,1
9.4,-11.10628,1.604522,-28.91302,0.5225413473407143,0.0742059078835221,-0.0375529160515273,1.624306,76.05357,178.8406,0.6160495,-0.004932655,0.7875152,1
9.42,-11.07814,1.293675,-28.88831,0.5334486755092694,0.047206783727817,-0.0310624471874207,352.8306,76.00375,179.3023,0.6141713,0.05300903,0.7866687,1
9.44,-10.97526,1.282906,-28.84771,0.5369958298249219,0.0650663322469181,-0.0288632015632743,353.7638,76.22566,179.7824,0.6162161,0.04396756,0.7856945,1
9.46,-10.85612,1.445029,-28.81296,0.5343934627064132,0.0804374662763688,-0.0275068072145217,357.3043,76.79436,180.1368,0.620959,0.01769373,0.7834893,1
9.48,-10.84934,1.262116,-28.805,0.5153498101401187,0.0674516688673877,-0.0298564088223121,355.7356,76.74576,180.5871,0.6204882,0.02598996,0.7833161,1
9.5,-10.73099,1.425907,-28.77183,0.4798649326974693,0.0304963460935321,-0.0347791995023119,359.2778,77.32598,180.9295,0.6247454,-0.0001465492,0.7807611,1
9.52,-10.66686,1.245969,-28.73879,0.4597230709384567,0.0442691748041615,-0.0367929551325438,1.395397,77.39178,181.6105,0.624945,-0.01828819,0.7804473,1
9.54,-10.60588,1.240625,-28.71555,0.42153107444011,0.007911461934072,-0.0391869589533055,3.977015,77.61283,182.0812,0.6257194,-0.03840989,0.7790651,1
9.56,-10.48601,1.406869,-28.68312,0.3891248582330894,0.0225988497762256,-0.0418792356053141,7.590958,78.24218,182.4382,0.6283424,-0.06473842,0.774826,1
9.58,-10.3682,1.569352,-28.652,0.3522831762350621,0.035782883913506,-0.0452300704032095,11.19966,78.90044,182.8392,0.6303145,-0.09099267,0.7697921,1
9.6,-10.43582,1.226262,-28.64526,0.2986309475056069,0.0217097383636564,-0.0509657307768103,10.32454,77.88439,183.1854,0.6237997,-0.08735403,0.7758984,1
9.62,-10.31627,1.396528,-28.61371,0.2262140589006781,-0.016885450224307,-0.0600494672486959,13.94539,78.54745,183.5253,0.6251562,-0.1132597,0.7704055,1
9.64,-10.19854,1.563055,-28.58335,0.1734696249198585,-0.0041381572197337,-0.0659042117751274,17.56106,79.24434,183.9152,0.6258639,-0.1390416,0.7641205,1
9.66,-10.27403,1.190885,-28.57149,0.0993389120770029,-0.0448433492123775,-0.0731648932973518,16.08418,78.20493,183.7962,0.620568,-0.1291907,0.7708885,1
9.68,-10.24591,1.183252,-28.55558,0.0433243224112754,-0.0304317082196094,-0.0790251046753849,17.38757,77.67303,183.9249,0.6154997,-0.1388986,0.7727832,1
9.7,-10.13096,1.363941,-28.52548,-0.0138855369241998,-0.0162881209025679,-0.0849202393059185,20.93619,78.35349,184.2028,0.6156184,-0.1635282,0.7659947,1
9.72,-10.13042,1.160733,-28.49967,-0.0811848627734066,-0.0311440474718104,-0.0900834840713269,21.57764,75.67986,184.1305,0.5968952,-0.1694498,0.779403,1
9.74,-10.01742,1.347396,-28.46874,-0.1390496610465073,-0.0141319587986377,-0.0947441665873145,25.11631,76.33181,184.2918,0.596333,-0.1934139,0.7719079,1
9.76,-9.90521,1.530673,-28.43864,-0.1960560614010096,0.0031028450929454,-0.0988287058236481,28.65196,77.01521,184.5039,0.5951833,-0.2171817,0.7636601,1
9.78,-9.794003,1.710637,-28.40941,-0.2767505019187637,-0.0645058219702207,-0.106119542845712,32.18344,77.7384,184.7731,0.5934479,-0.2407242,0.7546696,1
9.8,-9.930945,1.132705,-28.41035,-0.3270176633864909,-0.0470171406920415,-0.1080552778240977,28.03043,72.67223,183.9732,0.5677742,-0.2149005,0.7860796,1
9.82,-9.821484,1.326902,-28.37922,-0.3606041698669688,0.0002209950575713,-0.1059509220430099,31.50948,73.23419,183.9255,0.5662561,-0.2374661,0.7775804,1
9.84,-9.792053,1.12177,-28.34813,-0.4047935938350681,-0.0378070309317778,-0.1043991577860907,34.71309,70.0367,183.274,0.5405074,-0.2598588,0.7862495,1
9.86,-9.737784,1.11875,-28.32712,-0.4370968009690591,-0.0432765013796801,-0.10354019810369,37.36749,69.4697,183.0126,0.5326462,-0.2773555,0.7830191,1
9.88,-9.631295,1.317389,-28.29685,-0.4651423072615582,-0.0463943338368274,-0.1018511165741902,40.75878,69.84393,182.68,0.5298046,-0.2980002,0.7730626,1
9.9,-9.524861,1.512986,-28.26714,-0.4893190233912132,-0.0505334077670638,-0.0993890114259086,44.15074,70.21108,182.3599,0.5264808,-0.31837,0.7624099,1
9.92,-9.546061,1.114996,-28.26734,-0.5037954907409957,-0.0546621658741713,-0.0957426016678937,43.26142,69.553,181.7586,0.5255013,-0.3108816,0.7666774,1
9.94,-9.440884,1.315136,-28.23735,-0.511939497260451,-0.0264600044244456,-0.0908017654940276,46.61839,69.87827,181.3951,0.5219755,-0.3307527,0.7555576,1
9.96,-9.365057,1.112915,-28.20387,-0.5149891421164409,0.001536157727464,-0.0847404860365834,48.05802,68.26049,179.5574,0.5137509,-0.3350834,0.7551419,1
9.98,-9.261255,1.313228,-28.17379,-0.5100936443142479,-0.0591860024097378,-0.0744679667800798,51.37257,68.46432,179.0633,0.5098697,-0.3541997,0.7430468,1
10.0,-9.196424,1.107139,-28.14835,-0.4895821293991891,-0.060098808824588,-0.0611253429688951,53.28584,67.17946,177.7049,0.5018803,-0.3635719,0.7394512,1
10.02,-9.093921,1.305434,-28.11928,-0.4644277399739821,-0.0600131786167942,-0.0472194989293197,56.55752,67.20253,177.0248,0.497442,-0.3818154,0.7264504,1
10.04,-8.882289,1.104448,-28.0465,-0.4197510850155304,-0.114424483682195,-0.0253677423658742,61.20781,61.71755,171.2346,0.4735831,-0.4020142,0.7167453,1
10.06,-8.780643,1.295544,-28.01941,-0.3784263327801828,-0.0812978979225346,-0.0077790711629464,64.38885,60.87656,169.6391,0.4684421,-0.4187755,0.7022597,1
10.08,-8.660398,1.117914,-27.97382,-0.3353210246480246,-0.0200088933795878,0.0089388704769994,61.81813,57.02177,167.2853,0.4570004,-0.4032581,0.722147,1
10.1,-8.559107,1.30424,-27.94652,-0.2863689803573666,-0.0334152437519193,0.0297083300614917,64.90797,55.6881,165.148,0.4521418,-0.419575,0.7074748,1
10.12,-8.349362,1.161576,-27.86996,-0.2259726275296191,-0.0690842303821642,0.0550162968946659,55.78909,56.60756,168.7956,0.4572654,-0.3690366,0.7527755,1
10.14,-8.246407,1.341248,-27.84245,-0.1683911207210546,-0.0249255638587436,0.0761351063769919,58.86594,55.72381,167.0617,0.4533789,-0.3858148,0.7391925,1
10.16,-8.140637,1.195381,-27.80362,-0.1090241260261714,-0.0278383699308981,0.0957582071793474,48.32061,62.17422,173.1987,0.4910731,-0.3219477,0.767456,1
10.18,-8.03665,1.371652,-27.77553,-0.0473184661683582,-0.0333229380050673,0.1156125512659578,51.46497,62.05672,172.2934,0.4882969,-0.3399996,0.7551485,1
10.2,-7.933925,1.545078,-27.74837,0.0020944591618549,0.0290321027817092,0.1270919673400774,54.60675,61.8443,171.3088,0.4851266,-0.3577743,0.7422396,1
10.22,-7.855195,1.23904,-27.73483,0.0483574726419387,0.0455330716678602,0.1363988569096657,32.1049,67.19827,175.3639,0.5406826,-0.2086214,0.7936088,1
10.24,-7.725422,1.257585,-27.69977,0.0954654688784481,0.0608646084194799,0.1451382973871151,20.02149,70.15054,176.5975,0.5698773,-0.125401,0.8026171,1
10.26,-7.608596,1.426219,-27.66981,0.1332987008595297,0.1178834935175859,0.1522863939785836,23.50492,70.65628,176.4163,0.5710554,-0.1483928,0.7946774,1
10.28,-7.493599,1.591277,-27.64102,0.1560741343137823,0.1029372711112221,0.1566097046648846,26.99096,71.1637,176.2642,0.571685,-0.171252,0.7859828,1
10.3,-7.471602,1.271978,-27.6236,0.1766106203438624,0.0862659455834663,0.1600498939151182,2.399915,74.46393,177.9606,0.6051117,-0.005905767,0.7956664,1
10.32,-7.351758,1.438552,-27.5941,0.2066601676172495,0.1359085033572331,0.1662587852211219,5.948231,75.04,178.0275,0.6088363,-0.0306768,0.7914113,1
10.34,-7.233933,1.601405,-27.56581,0.2427093463215132,0.1393496566958689,0.1771012432533498,9.49469,75.62457,178.1311,0.6119583,-0.05541102,0.7863811,1
10.36,-7.13123,1.291523,-27.51049,0.2694273896563826,0.1189189587431483,0.1863885032186498,352.2192,76.67157,179.0466,0.6183756,0.05836616,0.7829047,1
10.38,-7.064021,1.293874,-27.48364,0.2950393672447615,0.143912506984324,0.1939105047048905,352.8044,76.68959,179.3162,0.618865,0.05290967,0.7829643,1
10.4,-6.943288,1.455413,-27.4498,0.3161896325853907,0.1657397320255055,0.2006137215713956,356.3657,77.22652,179.6551,0.6236693,0.02665495,0.7810392,1
10.42,-6.877203,1.269902,-27.41062,0.307724843102425,0.1102661888116721,0.2009741730934262,354.0852,77.08985,180.0271,0.6223077,0.04020511,0.7810706,1
10.44,-6.758971,1.433207,-27.37744,0.3089221633769859,0.122749706181113,0.2018549273595784,357.6109,77.6317,180.3851,0.6267343,0.01413761,0.7789471,1
10.46,-6.642907,1.592838,-27.34558,0.2980425147324993,0.1108579632946589,0.2000986303706393,1.13193,78.19463,180.776,0.6305423,-0.0119364,0.7760625,1
10.48,-6.664876,1.250279,-27.33767,0.2837788061800175,0.0990650221216157,0.1972749967794569,359.4062,77.61549,181.3848,0.6267038,-0.003535593,0.7791468,1
10.5,-6.626162,1.245829,-27.31766,0.2634742272355268,0.0884836620724185,0.1936363259449018,1.405598,77.59031,181.6161,0.6262936,-0.01839446,0.7793632,1
10.52,-6.505493,1.410572,-27.28472,0.2407687727380291,0.0782861156187433,0.1894335541542773,5.039993,78.17612,181.9766,0.6292219,-0.04498686,0.77579,1
10.54,-6.48495,1.232118,-27.25182,0.2065348549715968,0.0670879246403083,0.1833319642694251,8.2351,77.46048,182.8868,0.6224306,-0.07171475,0.7789716,1
10.56,-6.365351,1.400835,-27.21924,0.1783949378388083,0.0827102224211996,0.1779755231427189,11.85833,78.08397,183.2253,0.624014,-0.09783074,0.7740549,1
10.58,-6.247668,1.565797,-27.18786,0.1471481059311521,0.0974726773931403,0.1718400132467814,15.4766,78.73871,183.6098,0.6249503,-0.1238383,0.7683432,1
10.6,-6.337895,1.208743,-27.18494,0.0826864569107291,0.0332530933844802,0.159439146946553,13.43326,77.75713,183.5533,0.6202415,-0.1103329,0.7750397,1
10.62,-6.331144,1.199823,-27.17426,0.0353882370258986,0.0174195474085239,0.150382019074946,14.73859,77.43463,183.6584,0.6168016,-0.1198265,0.7759633,1
10.64,-6.214949,1.376482,-27.14278,-0.0133012117876463,0.0040240606582478,0.1411248177980364,18.30824,78.0832,183.9622,0.6172191,-0.1449876,0.7698029,1
10.66,-6.234787,1.17576,-27.12059,-0.0638717828367739,-0.0099189366397679,0.1316706385137607,18.73234,76.18306,184.0659,0.6037682,-0.1495958,0.7796068,1
10.68,-6.120726,1.358343,-27.0882,-0.1156268573448076,-0.026292302131657,0.120112905356033,22.28916,76.82986,184.3106,0.6035079,-0.1742654,0.772729,1
10.7,-6.007706,1.537466,-27.0567,-0.1538906540557311,-0.0121887255546967,0.111024018169211,25.84203,77.51108,184.6066,0.6026471,-0.1987552,0.7650899,1
10.72,-6.119184,1.145576,-27.04917,-0.1915722731314214,0.0021347363460335,0.1022559266256188,24.58441,71.71088,184.0396,0.5658768,-0.1926167,0.7958197,1
10.74,-6.009705,1.336442,-27.01442,-0.2342534900538239,-0.0114553555015289,0.0925658005598926,28.08025,72.28013,184.0619,0.5648402,-0.2160727,0.7880308,1
10.76,-5.900735,1.524047,-26.98038,-0.2840607680688956,-0.0504281954183023,0.0814480474367886,31.57466,72.87065,184.1257,0.5632622,-0.239316,0.7794943,1
10.78,-5.962766,1.128717,-26.97359,-0.332109864783272,-0.0875029477821749,0.0710361504503693,30.03307,69.20541,183.7285,0.5412618,-0.2309963,0.7993672,1
10.8,-5.855842,1.324338,-26.93817,-0.3787752715295559,-0.1259461241386463,0.0613373953093061,33.48154,69.69349,183.5964,0.5394796,-0.2534447,0.7906785,1
10.82,-5.749135,1.516816,-26.90337,-0.4073546000792145,-0.139090896240072,0.0521496284458136,36.92985,70.19228,183.4954,0.5371935,-0.2756515,0.781259,1
10.84,-5.738886,1.117102,-26.87941,-0.432056417034198,-0.1498037435385096,0.043869316976612,39.61793,67.14755,182.707,0.5134727,-0.2945616,0.7880818,1
10.86,-5.681059,1.115587,-26.86079,-0.4478525547005302,-0.1582937046134278,0.0353870044392525,41.82774,67.25197,182.3674,0.5110353,-0.3078562,0.7817301,1
10.88,-5.576821,1.31547,-26.82688,-0.4515299066161993,-0.1344867327112115,0.0293783784481331,45.19313,67.55207,181.9968,0.5076267,-0.3282817,0.7710129,1
10.9,-5.472556,1.512369,-26.79348,-0.4611232395074729,-0.1671911123439214,0.0219961016710583,48.55892,67.83825,181.6288,0.5037643,-0.3484096,0.7596137,1
10.92,-5.479194,1.1137,-26.7841,-0.466306867550475,-0.1990830078155941,0.0158122442790298,46.35856,66.72446,180.3919,0.5044115,-0.3304737,0.7685264,1
10.94,-5.376415,1.314056,-26.74992,-0.4402529867198054,-0.2025224410793079,0.0196227007101574,49.68546,66.96814,179.975,0.5007294,-0.3502946,0.7568103,1
10.96,-5.273576,1.511498,-26.71624,-0.4094006838139102,-0.2325748716221911,0.0251614284835457,53.01251,67.18946,179.5502,0.4966091,-0.3698052,0.7444398,1
10.98,-5.147834,1.103705,-26.6608,-0.3703278430918158,-0.2030425134463384,0.0308721500411683,56.48842,63.9502,176.2368,0.4794309,-0.3858974,0.7386498,1
11.0,-5.061408,1.102204,-26.62897,-0.3273690309056437,-0.1745931921292846,0.0371563427094083,59.64226,62.31332,174.0796,0.4702477,-0.4018137,0.7281609,1
11.02,-4.96057,1.295838,-26.59763,-0.2613495817562836,-0.167239046549107,0.0521297598112555,62.87221,61.81689,172.8849,0.4651952,-0.4194242,0.7140213,1
11.04,-4.752029,1.117929,-26.51431,-0.1923342771333203,-0.1601077347600183,0.0673743502325874,61.82098,54.50079,167.253,0.4411161,-0.4102527,0.7319231,1
11.06,-4.651762,1.304258,-26.4829,-0.1340120906771073,-0.1439990363402036,0.079134856380306,64.91267,53.10132,165.0725,0.4363333,-0.4269994,0.7172577,1
11.08,-4.552207,1.487873,-26.45222,-0.0741464435555807,-0.1279083906965408,0.0910139180728841,67.97437,51.20602,162.4061,0.4311904,-0.4433908,0.7020074,1
11.1,-4.426279,1.161583,-26.39363,-0.0159994419450995,-0.0601136926944728,0.1001560841455648,55.7863,54.38049,168.8154,0.4424881,-0.3747908,0.7615809,1
11.12,-4.25739,1.195315,-26.33055,0.0507766071703609,-0.0612728329088931,0.1111082321873002,48.33434,59.64363,173.2004,0.4739831,-0.3276541,0.7780705,1
11.14,-4.155039,1.371613,-26.29764,0.1034186253698803,-0.0159822847792662,0.1149561084083896,51.47597,59.50417,172.3018,0.4713152,-0.3461549,0.7658178,1
11.16,-4.044564,1.227049,-26.27328,0.1562976000648852,0.0266974183709484,0.1184810034449896,38.04512,63.1472,174.698,0.5073143,-0.2544989,0.7966873,1
11.18,-3.928252,1.397037,-26.23791,0.1981946396126295,0.0458851760673341,0.1174625900673871,41.57967,63.29602,174.0762,0.5054934,-0.2764062,0.7851728,1
11.2,-3.813704,1.563408,-26.20373,0.2401708820109832,0.0642182755109163,0.1161127437749276,45.11485,63.39913,173.4303,0.503169,-0.2980387,0.7728831,1
11.22,-3.751353,1.263257,-26.18281,0.2812276218440097,0.0336234730552288,0.1167658924707581,13.97727,69.17596,177.1721,0.5657536,-0.0862335,0.815186,1
11.24,-3.632844,1.430555,-26.14731,0.3214482430097685,0.0480482952347638,0.1192380771534789,17.54932,69.69375,177.0701,0.5677138,-0.1107161,0.8085833,1
11.26,-3.516272,1.594112,-26.11307,0.3573023549620638,0.0843020386273774,0.1205681773251159,21.12118,70.21562,177.0003,0.569106,-0.1350825,0.8011803,1
11.28,-3.48466,1.275557,-26.0904,0.3812677105018859,0.0728909157046929,0.1209993603634642,358.4418,73.05136,178.2006,0.5948831,0.0202706,0.803544,1
11.3,-3.365194,1.441042,-26.05552,0.4023593898465632,0.0593157129531198,0.1213920569717976,2.015241,73.59574,178.3263,0.5990431,-0.005332974,0.8003907,1
11.32,-3.247782,1.602744,-26.02195,0.4215610989680615,0.0684619244617642,0.1219574353257195,5.586335,74.14972,178.4866,0.6026027,-0.0309241,0.7964433,1
11.34,-3.139643,1.293768,-25.96492,0.4344964953177912,0.0518838906161174,0.1240380868517467,352.8244,74.74737,179.2724,0.6054932,0.05357636,0.7933612,1
11.36,-3.063089,1.296045,-25.9345,0.4436183347253044,0.0331903824874634,0.1265320943907024,353.4438,74.88192,179.5375,0.6067607,0.04785118,0.7928151,1
11.38,-2.943624,1.456971,-25.89621,0.4344153961113216,0.031677814040442,0.1216608982476756,357.0045,75.39439,179.8886,0.611259,0.02127588,0.7909985,1
11.4,-2.826446,1.614065,-25.85939,0.4287067983951693,0.0537850037428506,0.117213440080925,0.5609018,75.92744,180.2708,0.6151443,-0.005312962,0.7883961,1
11.42,-2.885089,1.262173,-25.86257,0.4005134412110612,0.0262088452132329,0.1082938959277735,355.7276,75.40224,180.5902,0.6112614,0.02634465,0.790534,1
11.44,-2.768046,1.426032,-25.82611,0.3705080280657891,0.0245889547833003,0.098800513122907,359.2636,75.92734,180.933,0.6151699,5.746633e-05,0.7883266,1
11.46,-2.726657,1.246017,-25.79509,0.3369185968402421,0.023128486349249,0.0889206879044883,1.38445,75.67305,181.6024,0.6131725,-0.01811718,0.7897331,1
11.48,-2.607686,1.410974,-25.75849,0.2810774769409758,-0.0286090651900297,0.0752369337495668,5.003023,76.23132,181.9478,0.6159899,-0.04481557,0.786361,1
11.5,-2.62217,1.237709,-25.74787,0.2423050290448211,-0.0066911801119722,0.0649551043101741,6.154932,75.79043,182.5907,0.6122192,-0.05621989,0.7885416,1
11.52,-2.502949,1.404742,-25.71129,0.1890486986387789,-0.0101430868960259,0.0516508529826889,9.793564,76.37632,182.9361,0.6140684,-0.08285175,0.7842111,1
11.54,-2.501267,1.217488,-25.68373,0.1231558207418952,-0.0392865432176725,0.0375573676775302,11.87673,75.74233,183.3627,0.6079347,-0.09954958,0.7866825,1
11.56,-2.384135,1.389881,-25.64786,0.0693855462264207,-0.0164452054573976,0.0235425464352747,15.48213,76.35591,183.6869,0.60875,-0.1255319,0.7812062,1
11.58,-2.268659,1.558598,-25.61312,-0.0072483077635093,-0.0459828762718812,0.0054955318537466,19.08279,77.00259,184.0582,0.6089423,-0.1513789,0.7749376,1
11.6,-2.363908,1.191004,-25.61819,-0.0857921076863491,-0.0742661724484436,-0.012133550871777,16.06854,75.94096,183.785,0.6052456,-0.1302397,0.7830042,1
11.62,-2.307881,1.1758,-25.58324,-0.158631362709814,-0.0792465085745753,-0.0299236662625475,18.72421,74.7784,184.0627,0.59418,-0.1504045,0.7869546,1
11.64,-2.195045,1.358467,-25.54819,-0.2249923268984794,-0.0828521269319555,-0.044482139814074,22.27047,75.39682,184.3016,0.5938354,-0.1752186,0.7802299,1
11.66,-2.083225,1.537696,-25.51402,-0.2906601917069696,-0.0838717471978088,-0.0578510843613324,25.81297,76.04839,184.5896,0.5929047,-0.1998533,0.7727423,1
11.68,-2.16731,1.153129,-25.51274,-0.3545514137723638,-0.0842417123782217,-0.0727300100037462,23.04804,72.61643,184.0651,0.5741172,-0.1814669,0.7932974,1
11.7,-2.05722,1.341925,-25.47772,-0.4165278386167479,-0.082069417621618,-0.0863023118369921,26.55394,73.18887,184.1589,0.5731402,-0.2053189,0.7858689,1
11.72,-1.94777,1.527428,-25.44345,-0.496833253468642,-0.1359910451927137,-0.1030726619159949,30.05744,73.78658,184.2962,0.5716126,-0.2289654,0.7776923,1
11.74,-1.995402,1.128735,-25.42232,-0.5468587552332879,-0.1325096792662868,-0.114703209322553,30.03036,68.89693,183.7281,0.5391129,-0.2313012,0.8008256,1
11.76,-1.951476,1.124876,-25.40019,-0.5928310023560757,-0.1266531801383613,-0.1250437862128972,32.04765,67.91059,183.5487,0.5294979,-0.245478,0.8016378,1
11.78,-1.845712,1.321869,-25.36432,-0.6478184442576189,-0.1778920734166114,-0.137939189688145,35.47117,68.32516,183.3393,0.5272831,-0.2675379,0.7927706,1
11.8,-1.740088,1.515769,-25.32901,-0.6733578909010416,-0.1419205805505899,-0.1453970976719851,38.89488,68.74241,183.1521,0.5245834,-0.289347,0.7831816,1
11.82,-1.776139,1.117144,-25.32693,-0.7077887283951421,-0.162307309200612,-0.1560984430778154,39.59818,66.69481,182.6918,0.5104297,-0.2950237,0.7901286,1
11.84,-1.67169,1.316395,-25.29168,-0.737495550224969,-0.2102711683506627,-0.1646226887062809,42.9826,66.99271,182.3412,0.5071647,-0.3159422,0.7799097,1
11.86,-1.613385,1.114491,-25.264,-0.7479102659435581,-0.1701895737263213,-0.1700206037119418,44.67381,66.3316,181.1383,0.5028298,-0.3231488,0.7763072,1
11.88,-1.510535,1.314909,-25.22823,-0.7523671442718987,-0.1572257224582697,-0.1730748902942132,48.02158,66.5899,180.7653,0.4991655,-0.3434581,0.765003,1
11.9,-1.480202,1.112942,-25.21013,-0.7509493139968821,-0.1427756233935383,-0.1744526988346457,48.03815,65.29759,179.5504,0.4941148,-0.3407894,0.7682176,1
11.92,-1.378388,1.313302,-25.17521,-0.7477461041256555,-0.187086276874649,-0.1745764179455555,51.34276,65.43355,179.0374,0.4901816,-0.3603767,0.7563121,1
11.94,-1.219367,1.103746,-25.1096,-0.7111540262396923,-0.1716580813709185,-0.16438278636083,56.46769,63.0857,176.2288,0.4739121,-0.3877909,0.7423025,1
11.96,-1.114921,1.102222,-25.07025,-0.6693717588876131,-0.1559862220090816,-0.1530353303702294,59.63114,61.59689,174.0793,0.4657082,-0.4035771,0.7311294,1
11.98,-1.014674,1.29589,-25.0378,-0.6203815940450417,-0.1951550853545827,-0.138136067457085,62.8554,61.06762,172.8764,0.4605798,-0.4213166,0.7170944,1
12.0,-0.9147463,1.48682,-25.00592,-0.5705398989877739,-0.1471531106568262,-0.1254578044851513,66.07179,60.30514,171.4499,0.4550648,-0.4386968,0.7024658,1
12.02,-0.718179,1.128643,-24.9216,-0.5054311187108457,-0.1175195145445013,-0.1078976669751297,60.96907,53.78315,166.8127,0.4391549,-0.4046979,0.7371469,1
12.04,-0.6178487,1.312689,-24.89017,-0.4367699504692448,-0.0886763748050567,-0.089552945866814,64.03957,52.37673,164.6372,0.4344207,-0.4215005,0.7227262,1
12.06,-0.4964039,1.161491,-24.83913,-0.3812051269831995,-0.0084997362102969,-0.0783273652847675,55.79816,54.80112,168.8344,0.4452044,-0.3738828,0.7599527,1
12.08,-0.3948919,1.341114,-24.8074,-0.3232434002985542,0.0001328733670503,-0.0659310011480678,58.88084,53.8981,167.1412,0.441256,-0.3911931,0.7464734,1
12.1,-0.2944475,1.517962,-24.77653,-0.2626862613296689,0.0065225067050282,-0.0529226769004593,61.94555,52.71241,165.1776,0.4369501,-0.4081835,0.7323966,1
12.12,-0.137549,1.226973,-24.7321,-0.2045455243362215,0.0403944027181596,-0.0450671417752843,38.05362,64.22402,174.7282,0.5147015,-0.2527311,0.7919179,1
12.14,-0.02098835,1.396912,-24.69796,-0.1539536517934679,0.0947041249239634,-0.0414013739992018,41.59087,64.36749,174.1382,0.5126498,-0.2746263,0.7805042,1
12.16,0.09378526,1.563246,-24.66497,-0.1022745938885509,0.1458431469358161,-0.0378712468574318,45.12816,64.46756,173.5254,0.5100891,-0.2962449,0.7683234,1
12.18,0.1354016,1.257311,-24.64997,-0.0632853980863432,0.1710077052534423,-0.0359703922945504,20.07165,68.99294,176.5903,0.5617157,-0.126966,0.8082551,1
12.2,0.252363,1.425639,-24.6171,-0.0250793632655701,0.1952870901593811,-0.0343355466283492,23.58516,69.44212,176.4,0.5625612,-0.1503821,0.8005336,1
12.22,0.3643977,1.271904,-24.5688,0.0041419900505025,0.1706400277375476,-0.032243312847604,2.436008,72.82041,177.9481,0.5936394,-0.006478906,0.8042516,1
12.24,0.4546458,1.275481,-24.53549,0.0399806021529883,0.2122517140346756,-0.0281471785054514,358.4589,73.72699,178.2149,0.5996161,0.02010235,0.8000234,1
12.26,0.5743582,1.440899,-24.5013,0.0735112451107574,0.2506651544363987,-0.0243700021013353,2.035642,74.24597,178.3543,0.603574,-0.005496003,0.7969801,1
12.28,0.6323296,1.28503,-24.47044,0.0936111415404226,0.2169223940952586,-0.0216760650891347,353.339,74.86917,178.7565,0.6062924,0.05271315,0.7930434,1
12.3,0.7528438,1.448193,-24.43489,0.1241631717060218,0.2513396767144416,-0.0169372908119234,356.9297,75.36531,179.0064,0.6108614,0.02649961,0.791237,1
12.32,0.7860445,1.293656,-24.40986,0.1362417934245441,0.2337608642643763,-0.0142086113192165,352.8251,75.09808,179.306,0.6079345,0.05329184,0.7914951,1
12.34,0.8854927,1.282996,-24.36381,0.145681048295478,0.214127992439217,-0.0110460029395804,353.7622,75.06466,179.7759,0.6082212,0.04433567,0.7918985,1
12.36,1.003588,1.445129,-24.32613,0.1529003938556615,0.2596914797131312,-0.0112388163385732,357.3036,75.5536,180.1205,0.6124368,0.01795281,0.7901688,1
12.38,1.007439,1.262176,-24.31468,0.142434497963663,0.2540207244308624,-0.0164550367041873,355.7263,75.29323,180.5752,0.6105053,0.02645914,0.7911183,1
12.4,1.12463,1.425985,-24.27813,0.1288913869275275,0.2480114521158533,-0.0221467300882527,359.2696,75.79361,180.9045,0.6142493,0.0001811464,0.7890469,1
12.42,1.116206,1.250188,-24.2688,0.0937048845122822,0.1911159348656671,-0.0307535859194838,359.4118,75.3774,181.3692,0.6113679,-0.00324304,0.7912399,1
12.44,1.193134,1.240551,-24.22744,0.0818841273254668,0.2084606356692727,-0.0335595347040058,3.979222,75.36196,182.0657,0.6103014,-0.03848435,0.7912036,1
12.46,1.311838,1.406684,-24.19005,0.067619872678112,0.2237645215975567,-0.0364559337099956,7.607769,75.90945,182.405,0.6124508,-0.06517734,0.7874431,1
12.48,1.300906,1.232326,-24.17778,0.0344043572296405,0.2131310237531984,-0.0443742369623407,8.205938,75.45933,182.8788,0.6087542,-0.07190321,0.7897307,1
12.5,1.418452,1.401277,-24.14109,-0.0005875961978726,0.2033616763158851,-0.0522497837974476,11.808,76.02856,183.2068,0.6100837,-0.09814985,0.785144,1
12.52,1.373244,1.217715,-24.13815,-0.0353639892897977,0.189760234304178,-0.0588701137345166,11.84602,75.45697,183.3562,0.6060024,-0.0994053,0.7882088,1
12.54,1.417982,1.199952,-24.10814,-0.0813557743646666,0.1515323934732635,-0.0674660744156692,14.71396,75.31122,183.6657,0.6023322,-0.1207043,0.78728,1
12.56,1.532133,1.376722,-24.07203,-0.1113750675284335,0.1670496815241706,-0.0746460922461236,18.26641,75.90945,183.9741,0.6025364,-0.1461383,0.7814174,1
12.58,1.502437,1.183362,-24.06497,-0.1627590259976783,0.1292052833207868,-0.0859921508954144,17.36468,74.85314,183.9256,0.5963213,-0.1403859,0.7877142,1
12.6,1.614901,1.364177,-24.0291,-0.2145222129648808,0.0925030935986731,-0.0968286580184294,20.89512,75.45247,184.1992,0.5960864,-0.1653758,0.7813736,1
12.62,1.565151,1.168405,-24.02724,-0.2588856007842569,0.0799408389151796,-0.1066076039312764,20.10072,73.4485,184.0845,0.58343,-0.16077,0.7924407,1
12.64,1.605641,1.153165,-23.99668,-0.3025293886579225,0.0698310580056205,-0.1163138272663832,23.03242,71.66866,184.0697,0.5675489,-0.182122,0.7980415,1
12.66,1.714621,1.34201,-23.95982,-0.344251304359788,0.0619283456898436,-0.1249334990565329,26.5254,72.21736,184.1665,0.5664842,-0.2060741,0.7907478,1
12.68,1.691078,1.139091,-23.95159,-0.4023181905649846,-0.0023700289220334,-0.136434737130088,26.26772,70.08849,183.9937,0.552367,-0.2054041,0.8013553,1
12.7,1.798345,1.331665,-23.91459,-0.4293060597291314,0.0179633858871794,-0.1417907858703064,29.73398,70.59299,183.9882,0.5508403,-0.228716,0.7935318,1
12.72,1.765251,1.128769,-23.91,-0.4718347916585916,-0.0177048355894513,-0.1504507226806337,30.00164,68.13206,183.7295,0.5337955,-0.2319078,0.8044567,1
12.74,1.833249,1.121829,-23.87347,-0.5149450288528009,-0.0808258066243056,-0.1583231715474715,34.67633,66.45534,183.2646,0.5157558,-0.2640845,0.802819,1
12.76,1.9379,1.319663,-23.83644,-0.5313763095431352,-0.0565659568243632,-0.1628225892219821,38.08258,66.79742,182.9891,0.5130617,-0.2858516,0.7935954,1
12.78,1.953038,1.117153,-23.82682,-0.5462085523153984,-0.0590536583358039,-0.1677964484011678,39.59052,66.10155,182.6879,0.5063559,-0.2958182,0.7927732,1
12.8,2.056875,1.316431,-23.79073,-0.5559224108888786,-0.059867281617036,-0.1713416824220011,42.9673,66.37043,182.3308,0.5029795,-0.3168004,0.7826752,1
12.82,2.061633,1.114995,-23.7869,-0.5740971847697653,-0.1187529724990898,-0.1771451545453759,43.25068,66.12192,181.7608,0.5023274,-0.3166221,0.7820977,1
12.84,2.159716,1.11372,-23.7468,-0.5645298077062548,-0.1188753329076039,-0.175186552345921,46.34373,65.43606,180.3854,0.4957854,-0.332729,0.7741796,1
12.86,2.261441,1.314115,-23.71073,-0.54947723457717,-0.1177356936152901,-0.1716672184022374,49.66246,65.61787,179.9534,0.4918891,-0.3527578,0.7626858,1
12.88,2.316486,1.109975,-23.68603,-0.5245239431906471,-0.1158540414009543,-0.1654874373744421,50.64311,64.59858,178.7486,0.4869224,-0.3562233,0.7615153,1
12.9,2.41741,1.309325,-23.65102,-0.4943518267788481,-0.113284969902142,-0.1581336583072392,53.92843,64.63925,178.1656,0.4825936,-0.3755105,0.7492331,1
12.92,2.492303,1.103764,-23.61917,-0.4493982737408086,-0.1084230843703561,-0.1462195080115691,56.4519,63.0129,176.2318,0.4734609,-0.3878715,0.7426682,1
12.94,2.674381,1.104415,-23.54855,-0.3890494569599423,-0.1286734903361383,-0.1282164878352256,61.19713,58.43525,171.2645,0.4527723,-0.4109696,0.7301382,1
12.96,2.773951,1.295535,-23.51546,-0.3332235464657055,-0.0899798885659098,-0.1139173800260739,64.37733,57.51944,169.6725,0.4475644,-0.4284536,0.7158245,1
12.98,2.890365,1.117879,-23.46574,-0.273938650465262,-0.0723045291681757,-0.0979928532501666,61.82096,53.80704,167.2894,0.4365459,-0.4123115,0.7346809,1
13.0,2.989644,1.304224,-23.4326,-0.211626290837254,-0.0551656725926262,-0.0812772290892365,64.90965,52.38917,165.1452,0.4315986,-0.4293319,0.7201807,1
13.02,3.153087,1.161344,-23.37276,-0.149797443582181,-0.0880311505167761,-0.0634471553908477,55.81696,54.90482,168.8508,0.4458159,-0.3738147,0.7595168,1
13.04,3.254292,1.340981,-23.34076,-0.0921112831583264,-0.0633382292543464,-0.0501581368830481,58.89952,53.99619,167.1804,0.4417391,-0.39121,0.7461227,1
13.06,3.354429,1.517853,-23.30958,-0.0325505893942195,-0.0398034196911512,-0.0362643291698989,61.96428,52.80677,165.241,0.4373061,-0.4082866,0.7321339,1
13.08,3.458333,1.21147,-23.27172,0.0202190425326959,-0.0152500643841752,-0.0278096516062205,43.15467,61.94937,173.9934,0.494456,-0.2898046,0.7862988,1
13.1,3.565553,1.385209,-23.23824,0.0748544317423668,0.0077539689717606,-0.0187548600619549,46.43613,61.94748,173.2856,0.4919473,-0.3097384,0.7747297,1
13.12,3.668124,1.250107,-23.21589,0.1224953626929596,-0.0177643135817947,-0.0117475865190699,26.27751,66.48411,176.0099,0.5401222,-0.1714139,0.8096367,1
13.14,3.784154,1.418882,-23.18086,0.1631323706887212,0.0222281841260006,-0.0059628821205985,29.78949,66.83427,175.6996,0.5399007,-0.1944306,0.8007582,1
13.16,3.898358,1.584067,-23.14698,0.2014939285640838,0.059170059010234,-0.0002130846965453,33.30211,67.17465,175.4031,0.5391566,-0.2172543,0.7911128,1
13.18,3.927218,1.26808,-23.13247,0.224084051691176,0.0222994852880991,0.0027122643774881,8.199954,71.11166,177.5674,0.5811118,-0.04584166,0.8104021,1
13.2,4.045367,1.435141,-23.09806,0.2468758539410656,0.0294570687220569,0.0065933161034408,11.74968,71.6033,177.5506,0.5835501,-0.07055873,0.8053233,1
13.22,4.108313,1.279103,-23.05933,0.2715270481495636,0.0133556618366496,0.0135870703046565,354.513,73.42728,178.4224,0.5965461,0.04658654,0.8010327,1
13.24,4.227498,1.443788,-23.02308,0.2942200852259615,0.0418782485613429,0.0190228189052161,358.0859,73.90945,178.599,0.6008919,0.0206956,0.7990626,1
13.26,4.344582,1.604683,-22.98812,0.3072856426554748,0.0463291826895918,0.0221303595279396,1.65606,74.40208,178.8055,0.6046377,-0.005208422,0.7963015,1
13.28,4.385679,1.293675,-22.95942,0.3164880609212762,0.0486889573877933,0.025643846227819,352.8249,74.541,179.2964,0.6040749,0.05350508,0.7944437,1
13.3,4.505637,1.454985,-22.92084,0.3102202051693815,0.045211245196243,0.0241113114780473,356.4106,75.00349,179.612,0.6083993,0.0269064,0.7930057,1
13.32,4.513799,1.270132,-22.89808,0.2962764713670831,0.015186492206952,0.0215470804689879,354.0769,74.38758,179.9961,0.6037039,0.04117693,0.7955325,1
13.34,4.630054,1.433578,-22.85972,0.2908865824038784,0.0303656554402365,0.0203925415428001,357.5978,74.8551,180.3207,0.6076685,0.0149451,0.7939093,1
13.36,4.74419,1.593375,-22.8227,0.2688690197681027,0.0214423731634078,0.0142463044176506,1.114455,75.34177,180.6738,0.6110402,-0.01129101,0.791518,1
13.38,4.719455,1.250348,-22.82377,0.2432751018954364,0.0118057120672574,0.0076381795846076,359.3873,75.16703,181.3775,0.6099154,-0.003094646,0.7923574,1
13.4,4.837334,1.414917,-22.78629,0.20927145809871,0.0027027297244774,-0.0003007256708742,2.97981,75.66355,181.7101,0.6127632,-0.02968332,0.7896982,1
13.42,4.826545,1.237818,-22.76676,0.1632141179272146,-0.0319925718159571,-0.0083328432744096,6.134733,74.83931,182.5755,0.6056694,-0.05612384,0.7935989,1
13.44,4.944805,1.404958,-22.72832,0.1327693481218348,-0.0170145822979861,-0.0125336145794126,9.766498,75.37364,182.9054,0.6072224,-0.08278634,0.7895577,1
13.46,5.061088,1.568322,-22.69113,0.0834603565430553,-0.0278495335829504,-0.0221121272564865,13.39392,75.93591,183.2743,0.608147,-0.1093559,0.7847062,1
13.48,4.985102,1.217575,-22.69389,0.0316859201616515,-0.0379431934058149,-0.0319036295363779,11.86497,75.24981,183.3588,0.6045602,-0.09962138,0.7892936,1
13.5,5.101477,1.390057,-22.65693,-0.0290500645733333,-0.0510076821219616,-0.0437280441308804,15.462,75.81198,183.676,0.605066,-0.1256123,0.7840968,1
13.52,5.095381,1.191073,-22.63822,-0.1027143404241193,-0.0903540959752272,-0.0562011686563517,16.05398,75.37918,183.79,0.6014082,-0.13046,0.7859762,1
13.54,5.139697,1.183388,-22.61679,-0.153754631232202,-0.0764973262034467,-0.0634210214240686,17.36096,75.03872,183.925,0.5976008,-0.1402524,0.7867504,1
13.56,5.252354,1.364155,-22.58114,-0.2173217740401494,-0.0880384892575026,-0.0740328427432852,20.89705,75.61385,184.1977,0.5971861,-0.1652646,0.7805303,1
13.58,5.221004,1.168331,-22.57605,-0.2804864914542313,-0.0979596396249665,-0.0839458160508992,20.11329,73.961,184.0968,0.5869364,-0.1605769,0.7898188,1
13.6,5.332381,1.353003,-22.5403,-0.3470025232687346,-0.1088636883679339,-0.0948974466222951,23.64062,74.52184,184.3009,0.5860724,-0.1851538,0.783115,1
13.62,5.279836,1.153103,-22.54233,-0.4276728926757625,-0.1458010666574491,-0.1090507785745731,23.04356,72.41496,184.0864,0.5726936,-0.1817008,0.7943277,1
13.64,5.322259,1.139054,-22.51302,-0.4822071965059338,-0.125695450955958,-0.1167416467476085,26.27853,70.56398,184.0103,0.5556428,-0.2051317,0.7990558,1
13.66,5.430251,1.331506,-22.47622,-0.5433586771308851,-0.1320410934870874,-0.1261087984827837,29.76648,71.05217,184.0206,0.5539008,-0.2286088,0.791299,1
13.68,5.412219,1.128746,-22.46775,-0.6112792640211084,-0.1647212470249995,-0.1372868643190763,30.00796,68.73264,183.7363,0.5379814,-0.2313571,0.8016444,1
13.7,5.518425,1.324368,-22.43141,-0.6555495888263063,-0.1382072164671751,-0.1426393413143443,33.45137,69.14604,183.6052,0.535726,-0.2539448,0.7933152,1
13.72,5.492939,1.12183,-22.42754,-0.7138097944299828,-0.1683735315281503,-0.1531847396577532,34.66965,67.14816,183.2688,0.5206015,-0.2632032,0.7997049,1
13.74,5.568624,1.117179,-22.39684,-0.7518469041660945,-0.1675060341844703,-0.1590402475386225,39.58297,66.38493,182.6804,0.5083477,-0.2953214,0.7915255,1
13.76,5.672675,1.316477,-22.36151,-0.7781913066531823,-0.1346232123500301,-0.1627218624163005,42.95994,66.6228,182.3121,0.5047676,-0.3162608,0.7815542,1
13.78,5.690631,1.114996,-22.35259,-0.812730355875094,-0.1588694783815441,-0.169192735088941,43.24504,66.56316,181.7636,0.505338,-0.3158661,0.7801772,1
13.8,5.793631,1.31516,-22.31742,-0.8277114318810437,-0.1233753975913976,-0.1695138451554112,46.59447,66.78092,181.3925,0.50142,-0.3363374,0.7694514,1
13.82,5.803941,1.113714,-22.30827,-0.8456583989649746,-0.1459524133740732,-0.1704494769824429,46.33869,66.06598,180.3918,0.5000249,-0.3315631,0.7714688,1
13.84,5.917958,1.109997,-22.26444,-0.8422667053410293,-0.1091432678393014,-0.1647659209055474,50.63586,64.9156,178.7433,0.4890577,-0.3554957,0.7601775,1
13.86,6.019075,1.309367,-22.23018,-0.8311443940236718,-0.0432822365619854,-0.1581151544582462,53.92078,64.92426,178.1496,0.4845236,-0.374758,0.7480208,1
13.88,6.10572,1.103757,-22.19563,-0.8156374388450105,-0.063900086667957,-0.1501364502486062,56.45416,63.54937,176.2337,0.4769215,-0.3866183,0.74044,1
13.9,6.206033,1.299778,-22.16292,-0.7869141476409829,-0.0254876785510735,-0.1399806942389823,59.70052,63.27492,175.3481,0.4717744,-0.4049509,0.7272262,1
13.92,6.300119,1.104425,-22.12453,-0.7527422063749027,-0.0390855028109409,-0.1256582685640737,61.18595,59.13713,171.2724,0.4572264,-0.4090509,0.7274188,1
13.94,6.472589,1.117851,-22.05776,-0.7093628037858855,0.0057204305522425,-0.111482799332407,61.82574,54.06835,167.2723,0.4382753,-0.4115579,0.7336154,1
13.96,6.572139,1.30421,-22.02525,-0.6731690944949227,0.0778559407908746,-0.1033167545725799,64.91506,52.6034,165.1018,0.4331001,-0.4285817,0.7192212,1
13.98,6.676621,1.144016,-21.98064,-0.638691493251085,0.0754991561118355,-0.0913421502018132,58.42313,53.41422,167.8408,0.4362404,-0.3919724,0.7520916,1
14.0,6.776939,1.325901,-21.94786,-0.6095948508626974,0.1031416058508136,-0.0834914428009865,61.49389,52.1994,165.8893,0.4316238,-0.4091983,0.7383274,1
14.02,6.854914,1.177895,-21.91315,-0.5744208561645598,0.1098431619287528,-0.0755538063760234,52.13678,56.63992,171.1985,0.454562,-0.353009,0.7724306,1
14.04,7.011031,1.211075,-21.86247,-0.5439625886930428,0.1636316232134879,-0.0738950859637461,43.2167,60.66679,173.929,0.4857114,-0.2925352,0.7914705,1
14.06,7.119806,1.384312,-21.82696,-0.5230023047149128,0.1684499819482778,-0.0737009497596985,46.55536,60.58847,173.147,0.4829453,-0.3129181,0.7798296,1
14.08,7.193108,1.238965,-21.81301,-0.4983096407312308,0.1718301685391816,-0.0758433524637163,32.15087,64.04165,175.3154,0.5186638,-0.2137547,0.8080214,1
14.1,7.309096,1.408278,-21.77652,-0.4878188269439769,0.1945146943589815,-0.0807040621212182,35.68119,64.2449,174.8326,0.5173429,-0.2363878,0.7980245,1
14.12,7.365249,1.263635,-21.75917,-0.4881086616670416,0.1926831051749347,-0.0879381633154583,13.97867,68.34023,177.1584,0.5598031,-0.08682504,0.8192783,1
14.14,7.481546,1.431472,-21.7223,-0.4852461411203088,0.235678664353927,-0.0964755778793149,17.50322,68.7803,177.0414,0.5613044,-0.111103,0.8131125,1
14.16,7.595973,1.595659,-21.68662,-0.4990003765381519,0.228729624218616,-0.1010692351319382,21.0284,69.22179,176.9508,0.5622616,-0.135274,0.8061654,1
14.18,7.617939,1.27566,-21.67127,-0.5234023277270055,0.1968987928202282,-0.1060532903621576,358.4587,72.2506,178.1943,0.5892554,0.02015102,0.8076814,1
14.2,7.674514,1.279035,-21.64894,-0.5347649605922451,0.2352237983933163,-0.1113287593710854,354.5278,72.99827,178.4322,0.593552,0.04649793,0.8032628,1
14.22,7.819645,1.291165,-21.59374,-0.5683726923534376,0.2229831978912334,-0.1138075606492772,352.2472,73.68491,179.0894,0.5977963,0.05885481,0.7987534,1
14.24,7.939413,1.452934,-21.55348,-0.6077271430183939,0.2312598826984918,-0.1166860032622421,355.8491,74.12328,179.3896,0.602116,0.03210782,0.7975692,1
14.26,7.986815,1.295961,-21.53281,-0.6477863376014834,0.2408365198881956,-0.1235984118075048,353.446,74.22198,179.545,0.6021886,0.04797743,0.796295,1
14.28,8.105558,1.456812,-21.4922,-0.7097403748384594,0.1939804461311905,-0.1337227777563749,357.0123,74.66104,179.8996,0.6061876,0.02126075,0.7948939,1
14.3,8.082139,1.27016,-21.49276,-0.7610944085285369,0.2170380428103327,-0.14567207748361,354.0699,74.70374,180.0191,0.605903,0.04101726,0.7938551,1
14.32,8.173314,1.25462,-21.4617,-0.8329531861538757,0.186338214432292,-0.1624786839009657,357.4171,74.80412,181.1322,0.6073974,0.01190339,0.7940171,1
14.34,8.290604,1.418773,-21.42406,-0.8970362810995984,0.1805572921938666,-0.1822708835663933,0.9902965,75.26693,181.4451,0.6104502,-0.01454288,0.7919072,1
14.36,8.300177,1.245771,-21.40918,-0.9607332226955434,0.1766311803650931,-0.2044022420477818,1.403698,75.27016,181.5999,0.6103894,-0.0182241,0.7918838,1
14.38,8.41955,1.410397,-21.37099,-1.0405254681108411,0.1186357050608506,-0.2339547638333772,5.053326,75.75553,181.9398,0.6127052,-0.04517455,0.7889003,1
14.4,8.389041,1.237679,-21.36572,-1.0990479271814322,0.1358209071904299,-0.2598609752426508,6.146192,75.21186,182.5813,0.6082384,-0.05618556,0.7916234,1
14.42,8.442453,1.226391,-21.32761,-1.1767703378291314,0.0987085292478944,-0.2940155691714796,10.30331,74.69312,183.1523,0.6019921,-0.08797463,0.7929683,1
14.44,8.559846,1.396719,-21.28963,-1.2437004003385344,0.0845446420996136,-0.332469974292187,13.92712,75.22121,183.4536,0.6026208,-0.1142531,0.7882058,1
14.46,8.521573,1.208873,-21.28352,-1.3087227407507824,0.0728941580335033,-0.3724037063861192,13.4204,74.71062,183.5305,0.5994525,-0.1113997,0.7912526,1
14.48,8.637122,1.383352,-21.24575,-1.3907237271144168,0.0053802264290331,-0.41954157694075,17.018,75.25375,183.8322,0.5995407,-0.1373116,0.7858682,1
14.5,8.574606,1.191116,-21.24648,-1.4421964271257226,0.0156197625185648,-0.4619014508493202,16.05981,74.28819,183.763,0.5939231,-0.1309204,0.7916478,1
14.52,8.607059,1.17591,-21.21435,-1.5141649231186904,-0.030840410254853,-0.512152983426919,18.71746,72.66929,184.0362,0.5796383,-0.1515038,0.7977477,1
14.54,8.718762,1.358578,-21.17562,-1.5648128888004664,-0.0199947245440782,-0.5603249525370373,22.27262,73.2049,184.2448,0.5788882,-0.1766143,0.7914006,1
14.56,8.672425,1.160941,-21.17036,-1.6015265691919347,0.01920735174579,-0.6067155496207506,21.55878,70.8099,184.0845,0.5633348,-0.1726271,0.8040482,1
14.58,8.782321,1.347733,-21.13109,-1.6609528874948307,-0.0283729567419401,-0.6589769216745491,25.09448,71.31317,184.1898,0.5621711,-0.1971984,0.7972192,1
14.6,8.717937,1.145615,-21.13389,-1.7068598425535648,-0.0471380130305523,-0.7083885741476537,24.57928,69.00294,184.0445,0.5469124,-0.194836,0.8089795,1
14.62,8.713489,1.139206,-21.12471,-1.7542114414770256,-0.0926977446176467,-0.7587612196360718,26.26994,67.72079,183.9593,0.5357519,-0.2073352,0.8125637,1
14.64,8.819921,1.331792,-21.08402,-1.7715553280358878,-0.0791497131725824,-0.8033115841528304,29.75442,68.16009,183.9148,0.5339873,-0.2310271,0.8049381,1
14.66,8.785095,1.124926,-21.07141,-1.7855520402142542,-0.0924617404347035,-0.8450858718043288,32.04794,64.52545,183.5369,0.5056143,-0.2491436,0.8169145,1
14.68,8.813521,1.121902,-21.05397,-1.7917740116118654,-0.1035408533431399,-0.88517664672991,34.65195,63.93365,183.2452,0.4980493,-0.2668563,0.8140012,1
14.7,8.916306,1.319808,-21.01309,-1.78735957799261,-0.1143243637901301,-0.9202046089778828,38.04885,64.21362,182.9436,0.4952108,-0.2889317,0.8049781,1
14.72,8.887733,1.117189,-21.02018,-1.7860732509304371,-0.1520193740392994,-0.9530469477520488,39.57988,63.33644,182.6758,0.4871306,-0.2996155,0.8047686,1
14.74,8.948455,1.115031,-20.99343,-1.757892157549851,-0.1298163331469749,-0.9783018267522112,43.24118,62.92618,181.7488,0.4803742,-0.321655,0.7958074,1
14.76,9.049097,1.315232,-20.9522,-1.7265632350516624,-0.1348255925252259,-1.0017504094745684,46.58905,63.10792,181.3586,0.4766152,-0.3426628,0.7850827,1
14.78,9.049528,1.113726,-20.94433,-1.688259534693061,-0.1383215297831437,-1.0227436141634003,46.33936,62.40507,180.3851,0.475146,-0.3381375,0.7870334,1
14.8,9.149102,1.314134,-20.90307,-1.6307077008689077,-0.0839107422737805,-1.0375818369919614,49.65737,62.53562,179.9467,0.4712299,-0.358696,0.7756424,1
14.82,9.181769,1.107154,-20.882,-1.5621704683621125,-0.1186344867784432,-1.0448543235210193,53.2552,61.30039,177.729,0.4632772,-0.3764688,0.7643725,1
14.84,9.280943,1.305611,-20.84402,-1.4740819319242398,-0.0941502585726406,-1.046354244786707,56.51704,61.16451,176.9628,0.4587836,-0.3955741,0.751648,1
14.86,9.380502,1.501482,-20.80854,-1.3822170256163688,-0.0402675314078611,-1.0473121723898977,59.7553,60.84164,175.9857,0.4538249,-0.4139284,0.7384254,1
14.88,9.463602,1.10554,-20.77372,-1.280145967939505,-0.0696225791342234,-1.0422798219247054,61.04479,53.82043,170.6538,0.4254785,-0.4196118,0.7468719,1
14.9,9.562224,1.297921,-20.74418,-1.1739936739265733,-0.0653888872898809,-1.0348971604717865,64.05123,52.28475,168.3318,0.4200033,-0.4356135,0.7333894,1
14.92,9.655208,1.132038,-20.68987,-1.0541744302660443,-0.082893482837957,-1.0232977426773715,60.44448,44.54927,165.634,0.3831984,-0.4211846,0.7694676,1
14.94,9.750254,1.319795,-20.66755,-0.9304176335412746,-0.0439412780800735,-1.0115681416761526,62.96293,41.84718,162.1958,0.3763722,-0.434781,0.7581176,1
14.96,9.844685,1.505215,-20.64582,-0.8153765349139968,-0.0274827943676245,-1.0030179051562065,65.38996,38.5321,158.1497,0.3692864,-0.4480464,0.7462502,1
14.98,9.898484,1.183375,-20.59233,-0.6986907974938803,-0.010867253173298,-0.9942770287841518,51.4762,46.10695,169.7891,0.3868985,-0.3666029,0.8104302,1
15.0,9.944985,1.201497,-20.57555,-0.584804416508568,0.0076202507741272,-0.9892905558364852,47.66515,47.6447,171.7017,0.3952379,-0.3419394,0.8227957,1
15.02,10.05578,1.235682,-20.54601,-0.4677197356532767,0.0039378099143918,-0.9867244648470126,37.16777,48.27001,173.1637,0.4042187,-0.267209,0.8556925,1
15.04,10.16261,1.415303,-20.53283,-0.3470405202445987,0.047890131959847,-0.9863405489568656,39.74525,47.10902,170.8846,0.3993971,-0.2807578,0.848572,1
15.06,10.17761,1.259613,-20.51411,-0.2352477343983445,0.1117935701049206,-0.9905167112904052,25.35635,50.105,174.5157,0.4221632,-0.1788343,0.878374,1
15.08,10.28379,1.438796,-20.50275,-0.1372242187972159,0.099027856868833,-0.9935421677480876,27.91796,49.52827,172.6263,0.4197575,-0.1924504,0.8729029,1
15.1,10.27133,1.273767,-20.4878,-0.0360031854431686,0.1325304844873919,-0.9954924964189168,13.06871,52.2409,175.6751,0.4409437,-0.08559965,0.8895122,1
15.12,10.28393,1.27933,-20.4752,0.0611795223764322,0.1645496382588529,-0.9994500343771482,7.222355,52.8823,176.0646,0.4460688,-0.04110429,0.8921245,1
15.14,10.38935,1.458788,-20.46737,0.1589210338490949,0.1664914115338373,-0.9975026785907382,9.763564,53.14547,174.5118,0.4488436,-0.05468482,0.8882785,1
15.16,10.37379,1.292767,-20.41045,0.2524642623295658,0.168055211174796,-0.9968595014803472,353.4066,51.79415,176.7734,0.4344039,0.063987,0.8984427,1
15.18,10.39668,1.300553,-20.38314,0.3406224787223026,0.1666219347803374,-0.9976746792288442,352.0852,50.84217,177.0339,0.4264875,0.07339467,0.9014891,1
15.2,10.49708,1.480945,-20.37529,0.4361622319266289,0.231609752722614,-0.9969822336279416,354.4197,51.65866,175.5609,0.4331521,0.06063581,0.8991759,1
15.22,10.44258,1.311407,-20.32645,0.514748187523892,0.218562462956513,-0.9904129944652822,351.415,48.41261,177.5264,0.4073044,0.07707665,0.9099671,1
15.24,10.44235,1.301834,-20.2939,0.5839524140573247,0.228166224417754,-0.9874451639872062,352.2248,45.85586,178.0029,0.3875294,0.06920722,0.9191973,1
15.26,10.53363,1.486507,-20.28868,0.6314384935904589,0.184080621968303,-0.9849258852175332,354.0908,46.87763,176.4729,0.3955972,0.05949401,0.9164629,1
15.28,10.47802,1.280088,-20.27979,0.6724941920786405,0.1620841007570723,-0.980108100754888,354.199,45.5116,178.878,0.3858334,0.05044308,0.9211282,1
15.3,10.56797,1.464266,-20.26833,0.7063652285255031,0.1409798635486554,-0.9764682938844418,356.1804,46.46159,177.4776,0.3934473,0.03929326,0.9184802,1
15.32,10.5221,1.266849,-20.26864,0.7405747569883365,0.1189339893724308,-0.9665038134272588,357.9387,46.34895,179.7721,0.3934352,0.01731853,0.9191744,1
15.34,10.55489,1.256657,-20.27337,0.772609299420294,0.1246625673415921,-0.9563513635734906,2.500752,47.69942,180.4103,0.4041686,-0.02140534,0.9144173,1
15.36,10.6453,1.441005,-20.25905,0.7786114382692382,0.078851342843928,-0.9456153082432336,4.649077,48.27943,179.0687,0.4089139,-0.0336907,0.9116351,1
15.38,10.62223,1.247151,-20.28203,0.7943009772973715,0.0835310660418319,-0.9324273086894288,6.783134,49.76065,181.1784,0.4194134,-0.05798469,0.9058078,1
15.4,10.71456,1.432349,-20.26936,0.779424157519444,0.0355084053805627,-0.9189128641553131,9.012199,50.19641,179.8073,0.4229791,-0.07043593,0.9027256,1
15.42,10.66882,1.230398,-20.30231,0.7803499989613696,0.0386430354912027,-0.9016223244217176,10.55322,52.03147,181.6772,0.4355029,-0.08902915,0.89536,1
15.44,10.69605,1.210242,-20.32911,0.7625082749831393,0.0139707750041599,-0.882718509140132,13.5843,54.23314,182.0367,0.450661,-0.1132955,0.8846528,1
15.46,10.79127,1.398797,-20.31929,0.73915332595311,-0.0084519704400018,-0.8649659608984583,15.99615,54.53254,180.6549,0.4529558,-0.1262702,0.8805907,1
15.48,10.75677,1.192165,-20.35126,0.7105864499336791,-0.0325432324217116,-0.84200944879951,16.29188,56.19506,182.2945,0.4636258,-0.1343055,0.8744078,1
15.5,10.8524,1.382971,-20.34338,0.6772593415803403,-0.05425984620188,-0.8201548581434168,18.75945,56.38456,180.8884,0.4649879,-0.1472519,0.870154,1
15.52,10.78531,1.167916,-20.38551,0.6436514421553239,-0.0784148453682732,-0.7908032356596135,20.46204,56.32241,182.5052,0.4609156,-0.1667072,0.8692303,1
15.54,10.88019,1.3628,-20.37954,0.6183573308481185,-0.0706884951775721,-0.7615153220024835,22.90954,56.35204,180.9759,0.4612693,-0.1789959,0.8647106,1
15.56,10.97474,1.555444,-20.37402,0.5700105482543751,-0.1189014602776243,-0.7315822281791178,25.35545,56.30994,179.4198,0.461328,-0.1911648,0.8596439,1
15.58,10.884,1.14445,-20.40861,0.5417843282879915,-0.1088391920576558,-0.6976573114155813,25.23815,57.50113,182.3967,0.4652702,-0.2013104,0.8575547,1
15.6,10.89126,1.137729,-20.41651,0.5106707839809614,-0.0984465310039996,-0.6648411957092053,26.96548,57.41644,182.3634,0.4627945,-0.2140824,0.8550336,1
15.62,10.93578,1.129047,-20.42162,0.4752756652857535,-0.116850446352702,-0.6250305658740971,31.09034,57.31601,181.9895,0.4578848,-0.2431536,0.8475026,1
15.64,11.03159,1.330974,-20.41953,0.4495308520265664,-0.1320629554105768,-0.580403142823382,33.56827,56.91926,180.1413,0.4559253,-0.2544326,0.8418699,1
15.66,11.03526,1.121897,-20.4083,0.4248665320537448,-0.1449727993075874,-0.5362162309854508,36.74217,58.26083,181.7108,0.457828,-0.282172,0.8311937,1
15.68,11.13573,1.324129,-20.39692,0.421506138104559,-0.0994554453734502,-0.4886387539344832,39.53439,57.78567,179.9854,0.4547395,-0.2960437,0.8239135,1
15.7,11.12855,1.117421,-20.39127,0.4070458964493249,-0.1101014725118582,-0.4398632755871077,41.57031,60.37676,181.5109,0.4660334,-0.3129085,0.8104036,1
15.72,11.14737,1.115966,-20.37805,0.3947368783116349,-0.1188621396408217,-0.3915905145588487,43.14622,61.14877,181.3043,0.469391,-0.3219317,0.8027348,1
15.74,11.23965,1.318211,-20.36053,0.4033645696929908,-0.069511029743994,-0.3370332173099979,45.87546,60.87908,180.0143,0.4665274,-0.3360697,0.7940165,1
15.76,11.26843,1.113978,-20.35663,0.4197504141883317,0.0075825023390851,-0.2812574409888086,47.37482,62.03743,178.9295,0.4750988,-0.3398728,0.7828294,1
15.78,11.35387,1.316602,-20.34358,0.4255882035069347,-0.0323413107732393,-0.2239031375972899,49.87621,61.51692,177.5526,0.4713693,-0.3523411,0.7744274,1
15.8,11.43948,1.517446,-20.33187,0.4472800017558629,-0.0125386823664802,-0.1628854575882679,52.35139,60.89253,176.0185,0.4676989,-0.3642691,0.7654603,1
15.82,11.55626,1.103818,-20.28351,0.4796053708433125,-0.0479178645165631,-0.0978019358152071,59.16399,62.02013,173.5482,0.4711335,-0.3972295,0.7298639,1
15.84,11.64174,1.300567,-20.2728,0.5203510231069894,-0.0492619778542248,-0.030448639948772,61.66312,60.56803,171.5528,0.4644392,-0.4094825,0.7204506,1
15.86,11.72447,1.495761,-20.26354,0.5603151949667535,-0.0505561654111883,0.035221057517826,64.04907,58.68806,169.2313,0.4570191,-0.4212169,0.7113938,1
15.88,11.844,1.120933,-20.22507,0.5985398401611306,-0.0550088771015466,0.0982643786974493,61.23832,55.48499,166.6087,0.4504218,-0.4009991,0.7288092,1
15.9,11.91129,1.132259,-20.21002,0.6325938945671532,-0.0493720037054684,0.162443424814525,60.33031,54.57694,166.173,0.447257,-0.3956113,0.7350435,1
15.92,12.06328,1.166488,-20.18309,0.6639359284278541,-0.0439047665191581,0.2244248968052264,55.06602,56.33456,168.2242,0.4581814,-0.362426,0.7552218,1
15.94,12.14818,1.352797,-20.17779,0.6924549458921356,0.0115487010720344,0.2801481061907096,57.28502,54.71188,165.924,0.4524106,-0.3731163,0.7466197,1
15.96,12.23062,1.201311,-20.16547,0.7180676888911499,-0.0027199653434366,0.3379591354375573,47.60151,62.57095,172.4943,0.4966924,-0.3130376,0.7665178,1
15.98,12.31759,1.385024,-20.16312,0.7331812925701837,-0.0424867784610704,0.3929300739934356,49.92501,61.77391,170.8775,0.492719,-0.3240172,0.7583214,1
16.0,12.38281,1.235657,-20.17596,0.7513112818969252,-0.0106715051004954,0.4409662379753323,37.10415,66.92287,173.8899,0.5361269,-0.2371965,0.7804313,1
16.02,12.48951,1.260175,-20.19216,0.7667066215451019,-0.0020015664618578,0.4887412404898628,25.21576,71.52199,175.2127,0.5772135,-0.15315,0.7858763,1
16.04,12.58105,1.441124,-20.20574,0.7761210721277905,0.0270925582275967,0.5326768425023758,27.57745,71.91944,174.1022,0.5794632,-0.1633271,0.7778621,1
16.06,12.67066,1.620212,-20.21997,0.778995364696957,0.0525525129609339,0.5749134873547428,29.92206,72.24332,172.9854,0.5812093,-0.1733032,0.7696133,1
16.08,12.68367,1.276932,-20.20966,0.7878793970179274,0.1212564518870955,0.6144021923646039,7.348816,78.30455,176.9415,0.6311876,-0.03286398,0.7725211,1
16.1,12.77977,1.454953,-20.22192,0.7647928259393406,0.091084088334349,0.6559381283682568,9.946509,79.14924,176.2807,0.6365183,-0.04618922,0.765697,1
16.12,12.87358,1.630835,-20.23389,0.7529527090321362,0.1087153100801679,0.6956839124840757,12.53633,79.89914,175.6701,0.6409807,-0.05952841,0.7588347,1
16.14,12.94251,1.292129,-20.21057,0.741891295066641,0.103389687140945,0.7378543965227657,352.701,83.95206,178.3149,0.6666955,0.05713095,0.7424631,1
16.16,13.04251,1.465504,-20.21692,0.716197673163032,0.0721469790608856,0.7792009323756699,355.4818,84.81112,178.0837,0.6732691,0.04037002,0.7381576,1
