t,pX,pY,pZ,aX,aY,aZ,reX,reY,reZ,rtX,rtY,rtZ,ID
2.0,-44.30582,1.101693,-38.82856,2.7239902354108407,-0.0816861493404519,2.450898321706778,14.60388,356.3863,163.598,-0.01283337,-0.1301971,0.9818305,5
2.02,-44.30265,1.155026,-38.82277,2.7498910647856345,-0.0676267815247446,2.449956610459674,14.63962,357.3927,163.6098,-0.004178622,-0.1292904,0.9818813,5
2.04,-44.27693,1.156623,-38.75817,2.7764864721847555,-0.0751377364751789,2.4575442818481426,17.72886,359.0062,165.3845,0.01110108,-0.1539295,0.9801635,5
2.06,-44.28938,1.352551,-38.74008,2.787653469809673,-0.0818619778884698,2.4748901035234203,18.28572,359.1265,165.7735,0.01220756,-0.1586011,0.9798182,5
2.08,-44.09731,1.16025,-38.55621,2.794146862724036,-0.0668619516722569,2.4986366763531764,21.62933,0.7584275,162.9088,0.03430968,-0.1845795,0.9711286,5
2.1,-43.98853,1.171731,-38.42608,2.7956387837607872,-0.071554950812262,2.4993299855470337,17.22699,4.047659,167.5095,0.05099193,-0.1449881,0.9816651,5
2.12,-43.97815,1.364252,-38.37648,2.79735873873746,-0.0752318597938523,2.5014275842275,18.76546,3.84486,167.2635,0.05096611,-0.1582603,0.9793751,5
2.14,-43.91011,1.184798,-38.31729,2.796576823881185,-0.0557212010180947,2.502584430351842,13.02779,9.267986,169.708,0.09008723,-0.1054179,0.9854831,5
2.16,-43.81266,1.199734,-38.20413,2.786476381512568,-0.0595737051719933,2.4983018027744137,7.202466,14.94391,171.8626,0.1338759,-0.05291321,0.9864774,5
2.18,-43.75097,1.20615,-38.1278,2.77203935671358,-0.0403675777916946,2.493996259998534,4.176677,17.67756,172.9692,0.1554716,-0.02652445,0.9852672,5
2.2,-43.72115,1.379491,-38.01922,2.7478711029378724,-0.0447336415539819,2.4812877901224057,7.558335,17.56191,173.0735,0.1559821,-0.05581791,0.9837216,5
2.22,-43.60959,1.22292,-37.96346,2.714926068571484,-0.0489348300908836,2.4601428406760206,1.136537,22.43356,175.5113,0.1947438,-0.002103738,0.9800221,5
2.24,-43.44087,1.260869,-37.79656,2.6761089167249263,-0.0304324337061838,2.440996559685825,357.3181,26.67717,178.3909,0.2302994,0.02600723,0.9727373,5
2.26,-43.36282,1.271475,-37.72634,2.630281469616984,-0.0410285073912237,2.40959119499174,354.7868,28.66991,180.1549,0.2473934,0.04372726,0.9678464,5
2.28,-43.3096,1.420002,-37.57768,2.576676799326977,-0.0524594701619728,2.370585256419578,359.3465,28.50961,180.8277,0.2462641,0.003748789,0.9691592,5
2.3,-43.25681,1.259915,-37.64958,2.517756018042709,-0.0402587977246556,2.334040101047357,355.9527,31.71198,180.7307,0.273261,0.03222668,0.9612705,5
2.32,-43.15757,1.248427,-37.57869,2.449255133973719,-0.0535902398066145,2.2821757050132234,359.5965,34.48946,181.5417,0.2964703,-0.0006260872,0.9549408,5
2.34,-43.10142,1.244083,-37.52227,2.376979093691167,-0.0675250856612748,2.2261580155800704,1.582735,35.75478,181.797,0.306708,-0.01795652,0.9515744,5
2.36,-43.04142,1.406932,-37.40833,2.297166083835076,-0.0816386783740583,2.163554465390664,5.355836,35.65931,182.29,0.3049038,-0.05058053,0.9510275,5
2.38,-43.00326,1.2365,-37.43362,2.213481048855244,-0.0710882125050851,2.1044331197895003,6.283638,37.98116,182.8117,0.3235543,-0.05978058,0.9443042,5
2.4,-42.94062,1.402317,-37.3238,2.125716501126915,-0.0377460752359612,2.0484625150191524,9.996622,37.92871,183.3243,0.3212179,-0.09175295,0.9425495,5
2.42,-42.91824,1.216342,-37.3774,2.0277642076108817,-0.0586564287213385,1.965197813334794,11.95504,40.38618,183.612,0.3400575,-0.1085082,0.9341009,5
2.44,-42.85308,1.387799,-37.27286,1.9272696490173693,-0.0533730934774779,1.8861387809324104,15.6045,40.38821,184.1442,0.3371755,-0.1396921,0.9309266,5
2.46,-42.78908,1.55554,-37.16994,1.8193590992530764,-0.0759150690628148,1.793259902239253,19.25268,40.42617,184.687,0.3339459,-0.1707214,0.9267894,5
2.48,-42.79798,1.18975,-37.25803,1.709734867555171,-0.0714857210737621,1.7052057047578222,16.13813,42.99878,184.1081,0.3579487,-0.143522,0.9224619,5
2.5,-42.77716,1.182103,-37.24513,1.592850723686766,-0.0950687635013652,1.6017194606450742,17.44245,43.25465,184.2575,0.3588195,-0.1543875,0.9202945,5
2.52,-42.72548,1.167057,-37.19993,1.4753425593923142,-0.1193167777945128,1.4951823748976718,20.19489,43.36368,184.454,0.3571242,-0.1769298,0.9166827,5
2.54,-42.68934,1.159549,-37.16199,1.3576996797416596,-0.1151164366581728,1.3942348035557188,21.63111,43.16041,184.504,0.3541341,-0.1885558,0.9153919,5
2.56,-42.62122,1.345272,-37.06708,1.2351481387509038,-0.139690896617019,1.2824652031233654,25.19253,43.2361,185.0065,0.350352,-0.2182502,0.9099279,5
2.58,-42.6231,1.14424,-37.0914,1.1131404316980582,-0.1351182753914479,1.1770014794237564,24.65221,42.87151,184.4834,0.3489876,-0.2125224,0.9117268,5
2.6,-42.60445,1.137787,-37.07313,0.9867971137569248,-0.1592032700702426,1.0608336901719635,26.35586,42.46822,184.4186,0.3441883,-0.2259347,0.9100716,5
2.62,-42.54942,1.127607,-37.01818,0.8578313553877654,-0.1819210668356418,0.940416929478162,30.08627,41.58487,184.1264,0.3338606,-0.2548275,0.905567,5
2.64,-42.48092,1.322334,-36.93083,0.731049336523391,-0.174712945052591,0.8276115675599023,33.54475,41.59005,184.3705,0.3293887,-0.2825372,0.8983423,5
2.66,-42.45378,1.12132,-36.9267,0.608735409528192,-0.1962547851018158,0.7128064234246958,34.75101,40.80591,183.4314,0.3241829,-0.2897337,0.8972109,5
2.68,-42.41343,1.118602,-36.89615,0.4878603225905902,-0.2159392638009729,0.5983036233445507,37.41549,40.55443,183.046,0.3201402,-0.3094819,0.8911086,5
2.7,-42.33689,1.317306,-36.81943,0.3705669350565097,-0.2051687099894502,0.4921160682669185,40.80067,40.21104,182.6971,0.3143972,-0.3348276,0.8827396,5
2.72,-42.29262,1.114861,-36.80997,0.2618214502852938,-0.222633941207033,0.3908159179777488,43.27695,42.24584,181.8017,0.329525,-0.3491965,0.8690557,5
2.74,-42.21526,1.315035,-36.73642,0.1569079869229632,-0.2380613701863685,0.2944499838400594,46.61731,41.86686,181.4395,0.3234558,-0.37366,0.8594778,5
2.76,-42.16798,1.113663,-36.70733,0.0561295864101394,-0.2229030458445103,0.207028979889289,46.39284,42.2481,180.3772,0.3300436,-0.3685047,0.8578573,5
2.78,-42.08988,1.314138,-36.6357,-0.0403165547773669,-0.1792000806022401,0.1288115127970606,49.70564,41.77336,179.904,0.3238324,-0.3923994,0.8476377,5
2.8,-42.04122,1.109927,-36.60474,-0.1270832165949,-0.1945267623852101,0.0574469922787583,50.70297,41.55744,178.7162,0.3250607,-0.3967039,0.8431647,5
2.82,-41.99445,1.10711,-36.5666,-0.2082502013688323,-0.2077296189929739,-0.0070807132045436,53.32708,40.9303,177.675,0.3209216,-0.4140019,0.8338985,5
2.84,-41.91996,1.305379,-36.49636,-0.2845774777286554,-0.1911042890413602,-0.0617227770682795,56.49661,40.69357,177.0833,0.3174865,-0.4358237,0.8214853,5
2.86,-41.75433,1.104551,-36.35206,-0.341621109561852,-0.1990026446678999,-0.0947901580497143,61.20356,35.90881,171.2192,0.3016214,-0.4625453,0.8043951,5
2.88,-41.67654,1.10917,-36.28164,-0.391748771385755,-0.2031161262616324,-0.119252563741969,62.63279,32.66495,167.9376,0.2913192,-0.4707861,0.7999402,5
2.9,-41.60348,1.297603,-36.21058,-0.4375287525820557,-0.1789448876072134,-0.1333156905001553,65.70307,31.86594,166.3947,0.290775,-0.4906365,0.7844805,5
2.92,-41.51875,1.129131,-36.14104,-0.4625775550065265,-0.1733104834186506,-0.1267208014281591,60.90706,30.43741,166.8075,0.2809712,-0.4598331,0.8110198,5
2.94,-41.3748,1.162049,-36.01583,-0.4798970970692515,-0.1634431433722531,-0.1103928962219091,55.71522,31.81058,168.8599,0.2847636,-0.4237476,0.8338202,5
2.96,-41.29466,1.341951,-35.94776,-0.4930230010360432,-0.1269034233237208,-0.0826851631413392,58.7578,30.89352,167.183,0.2834187,-0.4440025,0.8200858,5
2.98,-41.21322,1.195822,-35.88147,-0.4910194097574827,-0.1106962131966526,-0.0479138062226747,48.2354,37.81908,173.257,0.3180073,-0.3684962,0.8541685,5
3.0,-41.13828,1.209775,-35.82903,-0.4832470537097642,-0.0689183789026575,0.0009367712965104,43.29452,39.89304,174.0444,0.3346688,-0.3298216,0.8659975,5
3.02,-41.04745,1.382217,-35.75465,-0.4631952261398258,-0.0480508039384211,0.0497450901638005,46.6853,40.36883,173.4221,0.3376161,-0.3531075,0.8525022,5
3.04,-40.94038,1.238408,-35.60609,-0.4277117280469884,-0.0319235451245901,0.109890971399543,27.20654,45.30238,177.6547,0.3786802,-0.20935,0.8949363,5
3.06,-40.94489,1.243785,-35.44365,-0.3872293317205661,-0.0146505625436366,0.1691186477365489,21.06696,44.91846,178.6402,0.3775665,-0.1644755,0.9076855,5
3.08,-40.87767,1.397432,-35.29912,-0.3374976880821991,-0.0023020824072166,0.2413796488223818,25.70659,42.81397,179.5296,0.3566919,-0.205646,0.907342,5
3.1,-40.81281,1.267138,-35.35838,-0.3088608943628239,0.0597771032383636,0.3015790831004379,8.307368,44.0218,176.9624,0.3754472,-0.05722145,0.9236332,5
3.12,-40.71122,1.275165,-35.25246,-0.275965942389111,0.0733779415060855,0.3431521193304139,358.5652,44.18444,177.5868,0.3757414,0.01951834,0.9264009,5
3.14,-40.62708,1.440315,-35.16098,-0.2387974545523281,0.081792554954865,0.3921587535746127,2.309927,41.72933,176.9131,0.3564676,-0.009236605,0.9337022,5
3.16,-40.59047,1.285862,-35.10017,-0.2059008216565887,0.1372727647119913,0.4465389054676025,353.3553,41.97882,178.3053,0.3567541,0.0593904,0.9322826,5
3.18,-40.52088,1.450121,-35.00184,-0.1725902176093532,0.1440060227893709,0.4814732689781653,356.9773,39.5662,177.9213,0.3378368,0.03095162,0.9406605,5
3.2,-40.48978,1.294144,-34.96141,-0.1429118631376855,0.1482664414640191,0.5056213748224634,352.8533,40.11854,179.0746,0.3418413,0.06130809,0.9376542,5
3.22,-40.45465,1.296303,-34.92343,-0.1054701372404158,0.1239729367280512,0.5208949581487907,353.4693,40.29878,179.4198,0.3436347,0.05521478,0.9373608,5
3.24,-40.40149,1.457798,-34.81404,-0.0787137040299512,0.1454697752754136,0.5414219717296413,357.048,37.85747,179.4643,0.3241668,0.02588082,0.9456378,5
3.26,-40.35786,1.262297,-34.80368,-0.0690008435377436,0.1353782431638936,0.534120033083445,355.7667,38.75335,180.4617,0.3316884,0.03350605,0.9426571,5
3.28,-40.32177,1.254572,-34.76461,-0.0659859223997081,0.1472425860801942,0.5292537426279864,357.4781,38.29002,181.0304,0.3280544,0.01783984,0.9443598,5
3.3,-40.27089,1.419266,-34.6569,-0.065583494949708,0.1108520216382551,0.4944743289355982,1.072249,35.8595,181.045,0.3077432,-0.01170936,0.9513799,5
3.32,-40.25195,1.24587,-34.67343,-0.0686887172366521,0.0970290491068505,0.4683133207731318,1.471859,37.43109,181.4825,0.3206593,-0.01631462,0.9470193,5
3.34,-40.1957,1.238032,-34.61702,-0.0808543427083394,0.1089598062602361,0.44527326976627,6.19214,37.21964,182.47,0.3174787,-0.05804256,0.9464822,5
3.36,-40.1676,1.232553,-34.57947,-0.0940032466907236,0.0939741549252557,0.4065069833717674,8.254938,36.44766,182.7301,0.3102018,-0.07577668,0.9476461,5
3.38,-40.11687,1.402319,-34.47355,-0.1124136051452238,0.0540053652421752,0.3513622578769775,11.8694,34.02378,182.7116,0.2885813,-0.1057284,0.9515687,5
3.4,-40.06958,1.568867,-34.36877,-0.1301562589080633,0.0636618479378462,0.3129670474249879,15.47877,31.56368,182.5345,0.2665659,-0.1355195,0.9541156,5
3.42,-40.06774,1.20003,-34.47835,-0.1551244533288631,0.0204439885448231,0.2479604676693672,14.76273,34.98202,183.5177,0.2941642,-0.1316237,0.9465999,5
3.44,-40.01684,1.377576,-34.37708,-0.1757969900285649,0.002449814798494,0.1940353461452142,18.33727,32.55742,183.4783,0.2719593,-0.1612808,0.9485645,5
3.46,-40.0025,1.183523,-34.40252,-0.1984472539127484,-0.0141410376619663,0.1385775485093319,17.41908,32.91107,183.7539,0.275098,-0.154316,0.9488773,5
3.48,-39.95216,1.365126,-34.30299,-0.2279232406319513,-0.0857783814077643,0.0617053124564686,20.97838,30.46886,183.6515,0.2526505,-0.1837953,0.949778,5
3.5,-39.94325,1.168569,-34.34615,-0.2479698986387308,-0.0777095800387641,0.0115244874064881,20.16508,31.03007,183.8991,0.2574691,-0.1775492,0.9497238,5
3.52,-39.89214,1.153356,-34.3098,-0.2668642752265455,-0.09814607888568,-0.0478012607022879,23.09102,29.71624,183.8885,0.2445299,-0.2018666,0.9482026,5
3.54,-39.83979,1.343098,-34.21558,-0.2838835028490045,-0.0872426582180849,-0.0988089177215618,26.59501,27.19157,183.595,0.221643,-0.2306281,0.9471492,5
3.56,-39.82342,1.139363,-34.23728,-0.2968947974107472,-0.0480258656364843,-0.1405485597040741,26.30103,26.82537,183.8316,0.2183555,-0.2287323,0.9484506,5
3.58,-39.77291,1.332853,-34.14471,-0.3154384533183236,-0.0941391473530073,-0.203698439512185,29.75559,24.25066,183.4525,0.1953547,-0.2570318,0.9461101,5
3.6,-39.75932,1.128994,-34.17248,-0.3264496718016643,-0.1099824216861516,-0.2572320278795534,30.04306,24.56343,183.5993,0.1973952,-0.2595774,0.9449903,5
3.62,-39.73829,1.12502,-34.16193,-0.3257487496249522,-0.1232160941681913,-0.3006452606934489,32.07998,24.51173,183.455,0.195781,-0.2760385,0.9405074,5
3.64,-39.68751,1.3228,-34.07249,-0.3218916608892401,-0.1042529446550681,-0.3364437071857433,35.47437,21.83228,182.9333,0.1726544,-0.3036574,0.9364001,5
3.66,-39.62306,1.117343,-34.05133,-0.317760570738514,-0.1422885860261724,-0.3796144280270965,39.63458,23.65818,182.5851,0.1853188,-0.3360881,0.9221332,5
3.68,-39.58177,1.115808,-34.01838,-0.3082634294196218,-0.1494415234501268,-0.4142931106297891,41.85671,23.82615,182.2466,0.1859202,-0.3532196,0.9151806,5
3.7,-39.52852,1.316463,-33.93256,-0.2932967488566982,-0.1252012848346031,-0.4372250480268875,45.18556,20.93314,181.505,0.1627448,-0.3799568,0.908735,5
3.72,-39.44267,1.113959,-33.87167,-0.2799209426866813,-0.158542560995344,-0.465876306927774,46.37833,22.78295,180.2424,0.1807375,-0.3863943,0.9012647,5
3.74,-39.39082,1.113201,-33.81273,-0.2547824628193069,-0.1614664408476349,-0.4759394580172849,48.05924,21.61814,179.3893,0.1734131,-0.3990655,0.8967108,5
3.76,-39.33961,1.314332,-33.72789,-0.2275248527065052,-0.1922194406764597,-0.4804534822352848,51.31832,18.52603,178.4492,0.1508634,-0.4253674,0.8886071,5
3.78,-39.28989,1.513078,-33.64221,-0.1965339766343268,-0.1640249192825722,-0.473439082337252,54.53671,15.10471,177.1353,0.1281426,-0.4511221,0.8793792,5
3.8,-39.20538,1.103987,-33.5742,-0.1665266823583291,-0.1374154501403394,-0.4611406708856007,56.51572,18.63559,176.0159,0.1587685,-0.4619539,0.8660141,5
3.82,-39.15074,1.102454,-33.50851,-0.1160592164227543,-0.1358295580274284,-0.4271037834733038,59.69135,18.09531,173.8579,0.1625332,-0.4834604,0.8511544,5
3.84,-39.10438,1.296808,-33.42368,-0.0635204862504581,-0.1047512991164421,-0.3833880326863546,62.8548,14.19057,172.1033,0.140778,-0.5089393,0.8403229,5
3.86,-38.95931,1.118335,-33.25752,-0.0056169214793788,-0.1250101147467204,-0.3331691170198372,61.78098,10.84131,167.0957,0.1379878,-0.4987558,0.8434513,5
3.88,-38.89933,1.129173,-33.17969,0.0357437103005233,-0.0886080059179042,-0.2891337880157683,60.92049,9.722291,166.6266,0.1313644,-0.4931755,0.8480361,5
3.9,-38.8604,1.313954,-33.09125,0.0726118648486728,-0.0264848044486988,-0.2412243605796002,63.89249,4.946153,163.8995,0.110284,-0.5182936,0.8362032,5
3.92,-38.70979,1.178571,-32.93178,0.128257176095965,-0.0352407997798151,-0.1875306896705306,52.01965,13.36936,171.1237,0.1380056,-0.4261427,0.8859827,5
3.94,-38.64872,1.195882,-32.84698,0.1782789441208567,0.0059258388714879,-0.1284945270594133,48.25122,15.31992,173.0847,0.1458604,-0.397017,0.8995755,5
3.96,-38.61578,1.372876,-32.75259,0.2131937491364484,0.0663883770156516,-0.0730337813846442,51.33765,11.96717,171.7739,0.1246136,-0.4229603,0.8908551,5
3.98,-38.51036,1.227861,-32.69032,0.251602592876341,0.0559904395634259,-0.0264877452847374,37.89545,18.04791,174.5603,0.163399,-0.3132856,0.9306397,5
4.0,-38.47173,1.398537,-32.58205,0.2831948945965257,0.0911085242445383,0.0254629732022801,41.38349,15.04801,173.5369,0.1420472,-0.3428356,0.9233575,5
4.02,-38.39175,1.250493,-32.57462,0.3168877884432524,0.1023177013587093,0.0720517700031426,26.11535,21.70907,175.9135,0.1912415,-0.2152078,0.9545891,5
4.04,-38.28838,1.264191,-32.48767,0.3418186161919632,0.1120933616774541,0.1229451183327965,13.79224,25.73223,177.1031,0.2239508,-0.1114297,0.966855,5
4.06,-38.23565,1.268595,-32.42701,0.3548248619907044,0.1644847093502018,0.1663356492762426,8.030041,26.90824,177.4824,0.2335356,-0.06298132,0.9695778,5
4.08,-38.19588,1.436516,-32.31702,0.378030964439918,0.1683524900174736,0.1839976804707968,11.54591,24.52181,177.1936,0.2136303,-0.09308901,0.9714203,5
4.1,-38.15944,1.601247,-32.20857,0.3953915640064132,0.1729617529426236,0.1938343825875859,15.04578,22.08467,176.7495,0.1934537,-0.1230612,0.9719356,5
4.12,-38.02525,1.285277,-32.19339,0.4187320476835525,0.1734412165657413,0.2222454418545743,353.3164,30.71816,178.7127,0.263769,0.05917731,0.9627579,5
4.14,-37.98773,1.448903,-32.07798,0.4312927737732739,0.1731427815537667,0.2428809819933661,356.9146,28.38593,178.7351,0.2447965,0.02880357,0.9691379,5
4.16,-37.9538,1.609114,-31.9645,0.4334439366336946,0.1709006133906337,0.2635186485584313,0.5098781,26.06072,178.6112,0.225501,-0.001602061,0.9741575,5
4.18,-37.85649,1.29614,-31.96645,0.4321183077829795,0.1624960446927573,0.2683122866886442,353.4775,30.1695,179.4315,0.2595504,0.0562165,0.96404,5
4.2,-37.82105,1.283109,-31.94698,0.4226112608475381,0.1527863095844669,0.2715762036000435,353.7515,30.97307,179.6922,0.2664731,0.05323894,0.9622966,5
4.22,-37.74006,1.262224,-31.88139,0.4165780755758179,0.1377621578546159,0.2619686534674583,355.7609,31.73791,180.5085,0.2734062,0.03436273,0.9611773,5
4.24,-37.7033,1.426621,-31.76869,0.4082043744136063,0.1459209622273442,0.2601618191575672,359.3123,29.41598,180.584,0.2539146,0.004510543,0.9671948,5
4.26,-37.64894,1.250297,-31.76927,0.3945634229397887,0.1514538114860001,0.254947086090846,359.462,31.08954,181.2744,0.268022,0.001542523,0.9633372,5
4.28,-37.61098,1.415273,-31.65548,0.3776919476712015,0.1345945139914283,0.2348593577292064,3.086396,28.7765,181.3213,0.2480838,-0.02894834,0.9682956,5
4.3,-37.57034,1.240512,-31.68338,0.3566582235106068,0.1187769713005514,0.2089168274396069,4.048856,31.18726,181.9818,0.2680164,-0.03866611,0.9626116,5
4.32,-37.5377,1.237859,-31.67252,0.334110308239385,0.0769296234304117,0.1715582009430147,6.192266,32.21978,182.5192,0.2758678,-0.05796866,0.9594266,5
4.34,-37.49675,1.405505,-31.56,0.3131968625258894,0.0850064413063742,0.1499051744182047,9.841475,29.92383,182.5995,0.2552795,-0.08868275,0.9627916,5
4.36,-37.44267,1.21751,-31.59223,0.284868791283503,0.0667371904235465,0.1138139125221648,11.90396,32.8739,183.2986,0.2784556,-0.1075159,0.9544106,5
4.38,-37.41488,1.208877,-31.57374,0.2544563708296135,0.0492323359689416,0.0739129652600971,13.44384,33.17472,183.4867,0.2799706,-0.120753,0.9523739,5
4.4,-37.36977,1.384025,-31.46762,0.2222048015836009,0.0329088539348439,0.0323538193397725,17.03987,30.89318,183.5577,0.2588411,-0.1509098,0.9540079,5
4.42,-37.35625,1.191028,-31.52714,0.1879295993631595,-0.0387145361882935,-0.0284355842722421,16.08727,33.18596,183.7269,0.2782513,-0.1432241,0.9497269,5
4.44,-37.30606,1.175766,-31.49739,0.1570979585177445,-0.0575531932121931,-0.0687478365140044,18.74655,32.97183,184.0288,0.2743281,-0.1659157,0.9471267,5
4.46,-37.25721,1.35904,-31.39764,0.125533697008759,-0.0747656835931568,-0.1095955669181298,22.2939,30.68236,184.0398,0.2528426,-0.1954705,0.9473892,5
4.48,-37.24369,1.160791,-31.43487,0.0934916055923338,-0.092954247480956,-0.1513215156409693,21.5898,30.67717,184.0665,0.2532696,-0.1897278,0.9484751,5
4.5,-37.19452,1.348209,-31.33743,0.0616483701551207,-0.1092887084541806,-0.1928311694618547,25.11293,28.34744,183.9631,0.2315749,-0.2189216,0.9476429,5
4.52,-37.17669,1.13909,-31.39293,0.0299283492095581,-0.1262376091123795,-0.2326845325822883,26.30061,28.98599,183.9491,0.235965,-0.2285326,0.9441914,5
4.54,-37.12542,1.33225,-31.30032,-0.0001462573373727,-0.1397776364731963,-0.2686537031715588,29.767,26.58546,183.7014,0.2140234,-0.257019,0.9419738,5
4.56,-37.07604,1.522702,-31.20741,-0.029060721884953,-0.1513945721816163,-0.3029538442079551,33.21915,24.07844,183.2706,0.1918189,-0.2851514,0.9385176,5
4.58,-37.06178,1.125053,-31.27027,-0.0544576550676723,-0.1621599453779885,-0.331197951599866,32.08905,24.83884,183.443,0.198487,-0.2760041,0.9399204,5
4.6,-37.03108,1.122029,-31.24524,-0.0777589420781756,-0.1711567868382623,-0.3571361750624073,34.71851,24.80077,183.1523,0.1968685,-0.2969288,0.933596,5
4.62,-36.95404,1.11736,-31.17849,-0.0923882148284036,-0.1791051743097911,-0.3748960621305195,39.62448,24.68693,182.5784,0.1936178,-0.3355449,0.920458,5
4.64,-36.89991,1.317381,-31.09248,-0.099903187627822,-0.1553574948302495,-0.3777405418954571,42.96889,21.95653,181.8851,0.171266,-0.3624124,0.914512,5
4.66,-36.85204,1.115269,-31.07666,-0.1046443547771271,-0.1322001039055485,-0.3771704591875791,43.26349,23.71489,181.6178,0.185894,-0.363434,0.9107159,5
4.68,-36.81174,1.114668,-31.03771,-0.1089389424312088,-0.137233166492218,-0.3752559002274349,44.67536,23.90239,181.0354,0.1881718,-0.3735418,0.9055851,5
4.7,-36.7594,1.315779,-30.9522,-0.1089008175450576,-0.1107125384442611,-0.3612862959568961,47.9783,21.11751,180.3181,0.1663054,-0.4001428,0.898356,5
4.72,-36.71978,1.113136,-30.94135,-0.098190556913055,-0.1428010694846875,-0.3415138801087978,48.06332,23.02869,179.4219,0.1843216,-0.3981209,0.8945184,5
4.74,-36.61964,1.107303,-30.83169,-0.0902102531717092,-0.1154580378657051,-0.3147051386978465,53.30739,22.74939,177.5769,0.1855258,-0.4359603,0.8741133,5
4.76,-36.55064,1.103956,-30.74621,-0.0802943583840276,-0.0591903873713575,-0.2806708900416859,56.50332,21.61271,176.0472,0.1810929,-0.4589787,0.8616807,5
4.78,-36.50005,1.300649,-30.66314,-0.058262664352263,-0.0878347915890503,-0.2386003060558104,59.69677,18.19275,174.6776,0.1597935,-0.4845508,0.8518608,5
4.8,-36.451,1.495064,-30.57956,-0.0350208555911679,-0.1182402139416798,-0.1938614306834787,62.83603,14.24579,172.7483,0.1383182,-0.5095277,0.8410183,5
4.82,-36.28055,1.118169,-30.42058,-0.0106525172724758,-0.1133427558349327,-0.1455807362519356,61.79182,14.50122,167.2179,0.1643278,-0.494153,0.8387359,5
4.84,-36.23576,1.305063,-30.33516,0.0251232179252554,-0.1006635050429206,-0.0843322344742953,64.81042,9.963098,164.6577,0.143923,-0.519315,0.8273511,5
4.86,-36.13963,1.144589,-30.23813,0.0609993483709496,-0.0889981128612125,-0.0208946094439785,58.34222,12.63326,167.7556,0.1471878,-0.4714518,0.8571981,5
4.88,-36.09832,1.327079,-30.1496,0.0888313882853886,-0.0718502990792621,0.0289808352678231,61.33537,8.337033,165.3847,0.1267222,-0.4966236,0.8461807,5
4.9,-36.05917,1.50733,-30.06159,0.1135899866466427,-0.0290730810376397,0.081135241742162,64.2214,3.312835,162.2585,0.1061261,-0.5212036,0.8341722,5
4.92,-35.86008,1.210126,-29.95723,0.1471764897858039,-0.0338681372422887,0.1261411395335363,43.28619,23.07628,173.8757,0.2049574,-0.3509229,0.9054747,5
4.94,-35.81152,1.382175,-29.85445,0.1750333322947392,-0.0148147047431277,0.1602123025036479,46.76492,20.05917,172.7761,0.1841566,-0.3799552,0.8976996,5
4.96,-35.76596,1.551199,-29.75275,0.1994789116327648,0.0268720031052712,0.1957391233181939,50.19444,16.72825,171.3153,0.1631257,-0.4084654,0.8887138,5
4.98,-35.65173,1.250324,-29.74316,0.2243407718907351,0.0652124127601712,0.2305193757580528,26.16054,26.47636,175.9326,0.2307355,-0.2122473,0.9457338,5
5.0,-35.604,1.419419,-29.63693,0.244546169072386,0.0771536575128601,0.2511573815917631,29.67046,23.96351,175.3333,0.2107108,-0.2420841,0.9426583,5
5.02,-35.49898,1.268415,-29.61857,0.2640652300589998,0.0648050052575706,0.2583836367700725,8.065381,31.68272,177.5049,0.2737074,-0.0617101,0.958994,5
5.04,-35.44976,1.436133,-29.51174,0.2775336051660346,0.0975187830602526,0.2783001561204314,11.59526,29.41085,177.2464,0.2548258,-0.09160987,0.9614023,5
5.06,-35.40389,1.600604,-29.40619,0.2915381206946721,0.1056006604941401,0.2928469317574329,15.11172,27.09126,176.8392,0.2356234,-0.1213827,0.9625265,5
5.08,-35.31727,1.279496,-29.4068,0.3023636041568114,0.1365139266351468,0.3122335640243427,354.3964,33.35662,178.3221,0.2859385,0.05101689,0.9568892,5
5.1,-35.26983,1.444867,-29.29718,0.3143598523252882,0.1192008837945983,0.3155651196242011,357.9649,31.14198,178.2259,0.2680928,0.02126004,0.9631053,5
5.12,-35.14102,1.293927,-29.20879,0.331554614634161,0.0744045623577708,0.3116599104282169,352.8413,33.89471,179.1991,0.2904998,0.06175184,0.954811,5
5.14,-35.08681,1.296239,-29.13718,0.3329958055836144,0.0973925850606685,0.3183588504535981,353.4614,33.46268,179.4473,0.2871491,0.05600015,0.9561749,5
5.16,-35.04578,1.457652,-29.02242,0.3324225152448861,0.0686767498849174,0.3035679307562589,357.0386,31.24109,179.534,0.2690719,0.02598014,0.962765,5
5.18,-35.00525,1.270024,-29.04712,0.3308546185922525,0.0380461541582975,0.2844246920462705,354.0844,33.28196,179.9251,0.2859599,0.04962583,0.9568512,5
5.2,-34.96505,1.434057,-28.93587,0.3186772883521076,0.0254993879454107,0.2589140173351634,357.6127,31.06603,180.0078,0.2677368,0.02005285,0.9632669,5
5.22,-34.88326,1.250005,-28.96082,0.3094491622271,0.0138226304352789,0.2367958809070178,359.4781,34.64374,181.3181,0.2977665,0.0009230275,0.9545587,5
5.24,-34.83821,1.4146,-28.84846,0.2927340058456451,0.0293011784614118,0.2180778520509898,3.1251,32.44035,181.4153,0.2788808,-0.02962938,0.9598594,5
5.26,-34.79663,1.575775,-28.73777,0.2723513981959398,-0.0053746802438185,0.1775938690438776,6.772172,30.23323,181.3718,0.259628,-0.06013252,0.9638272,5
5.28,-34.75175,1.237883,-28.80717,0.2486977926869213,0.00965232177106,0.1498285965143675,6.193323,33.83363,182.5013,0.2893609,-0.05801266,0.9554468,5
5.3,-34.72284,1.232413,-28.79319,0.2196490505768249,-0.0267367372947561,0.0960994900228544,8.256321,34.36129,182.7837,0.2928616,-0.07591143,0.9531351,5
5.32,-34.66231,1.21763,-28.7497,0.1910008588015719,-0.0399227047492969,0.0495330189839875,11.89267,34.94156,183.2818,0.2956519,-0.107328,0.9492394,5
5.34,-34.61338,1.390784,-28.6441,0.1608926552342335,-0.0527775174721467,0.0052060654433829,15.49541,32.76116,183.3416,0.2755519,-0.1374318,0.9513558,5
5.36,-34.59155,1.199901,-28.67619,0.1310831468705142,-0.0641605546907738,-0.0424075599968447,14.75853,34.16647,183.5783,0.2873526,-0.1318059,0.9486783,5
5.38,-34.5639,1.191184,-28.65882,0.099429231907294,-0.0241605421823837,-0.0725046859287465,16.07463,34.32312,183.6952,0.2877096,-0.1429432,0.9469295,5
5.4,-34.51388,1.37057,-28.55749,0.0628307822279401,-0.0379936731539612,-0.1203891916837229,19.63926,32.14595,183.7304,0.2673268,-0.1726729,0.9478675,5
5.42,-34.46944,1.168401,-28.57616,0.021835699567176,-0.0774169107090142,-0.1835356231173306,20.14815,32.56621,184.0,0.2700329,-0.1774371,0.9462252,5
5.44,-34.43573,1.160975,-28.54317,-0.0129045774302856,-0.0611249289123197,-0.2235604419898553,21.57241,31.28671,184.0242,0.2583939,-0.1894019,0.9471343,5
5.46,-34.38415,1.348495,-28.44695,-0.0502873656805649,-0.0718052947501599,-0.2704550894786082,25.08817,29.05004,183.8847,0.2375492,-0.2184259,0.9462339,5
5.48,-34.37012,1.145643,-28.48272,-0.0857963466186433,-0.0804002639272603,-0.3170187332787395,24.60094,29.39623,183.9691,0.2406167,-0.2145283,0.9463763,5
5.5,-34.31819,1.337213,-28.38905,-0.1207354247640175,-0.0890117283289851,-0.3599627832519791,28.08089,27.1117,183.7269,0.219601,-0.2431177,0.9444494,5
5.52,-34.31133,1.132889,-28.43196,-0.1515236195172837,-0.124244963959801,-0.4058794066105138,28.03004,27.77264,183.8728,0.2247751,-0.2428324,0.9433024,5
5.54,-34.25478,1.124975,-28.38717,-0.1747586034954364,-0.0991713875558996,-0.4282742705972069,32.08623,26.7416,183.4707,0.2140018,-0.2754765,0.9365101,5
5.56,-34.20059,1.32267,-28.29885,-0.1975541231958621,-0.1307862227116048,-0.4594885850612078,35.48803,24.29888,182.9813,0.1926317,-0.3030523,0.9324488,5
5.58,-34.16822,1.118963,-28.29851,-0.2169985142369133,-0.161651845081951,-0.4887155288864022,37.39796,25.06599,182.9028,0.1975547,-0.3180627,0.9261106,5
5.6,-34.11355,1.318367,-28.21194,-0.2308219211350373,-0.1638124834758887,-0.5049545020127018,40.75913,22.48148,182.2394,0.176021,-0.345063,0.9205749,5
5.62,-34.05196,1.115073,-28.20776,-0.2336869463583184,-0.1628858553761844,-0.5085659645296436,43.26183,27.07106,181.7103,0.2121932,-0.3615946,0.9049458,5
5.64,-33.99581,1.315796,-28.12393,-0.2368253887005607,-0.1299850403089543,-0.5053808933097894,46.5825,24.45618,181.0689,0.1909305,-0.3882322,0.8984101,5
5.66,-33.94103,1.51404,-28.03928,-0.2362502632268537,-0.1548386697895508,-0.5037970793030455,49.87695,21.61154,180.1508,0.1694547,-0.4143917,0.890786,5
5.68,-33.88871,1.113129,-28.03839,-0.2319243129276555,-0.1199001378152787,-0.4882124140404267,48.08249,24.82367,179.4194,0.1983051,-0.3968729,0.8914529,5
5.7,-33.83328,1.314143,-27.95516,-0.2227817201989412,-0.0556875548208275,-0.4618081905227162,51.35824,21.99513,178.5373,0.1773417,-0.4231435,0.883557,5
5.72,-33.72136,1.103878,-27.86029,-0.1959231002992774,-0.0790408144471886,-0.4244979860585189,56.50198,24.94782,176.1016,0.2058758,-0.4554227,0.8561139,5
5.74,-33.66658,1.30047,-27.77945,-0.1651179918044443,-0.0435867557917519,-0.3731409465852877,59.70639,21.69318,174.8022,0.1852094,-0.480983,0.8466855,5
5.76,-33.61327,1.494762,-27.69805,-0.1394268775759175,0.0209581542960594,-0.322277742617846,62.86199,17.93548,172.9684,0.1643434,-0.5059712,0.8362677,5
5.78,-33.48919,1.1094,-27.58225,-0.1037862235619675,0.0355470156093756,-0.2655284314788493,62.63279,15.79581,167.678,0.1719647,-0.4992613,0.8336542,5
5.8,-33.4402,1.298692,-27.4987,-0.067205324181335,0.0497743849768102,-0.2059693316511208,65.66825,11.23975,164.9993,0.1520149,-0.5242453,0.82212,5
5.82,-33.35593,1.129144,-27.42481,-0.0295335904174702,0.0603634862627237,-0.1441224310844111,60.91946,13.26629,166.6324,0.1574995,-0.4885282,0.8435811,5
5.84,-33.22739,1.161966,-27.28547,0.0113646927289714,0.081542186942617,-0.0835542400563125,55.73957,15.12945,168.7171,0.1613664,-0.4497107,0.8660245,5
5.86,-33.18359,1.342288,-27.19706,0.0565209842004623,0.0790830749834468,-0.0245584058641328,58.73986,11.2181,166.6091,0.1415049,-0.4748384,0.8557948,5
5.88,-33.09431,1.195796,-27.13071,0.094549651715964,0.1256325717092496,0.0348040389468757,48.2642,19.95935,173.1066,0.182075,-0.3924193,0.8929116,5
5.9,-33.05293,1.372738,-27.03923,0.1330465091116197,0.1692460345403991,0.0949862313523106,51.35454,16.86159,171.8452,0.1622786,-0.4181389,0.8847362,5
5.92,-32.95058,1.227638,-27.00026,0.1817650837103492,0.1406945035734816,0.139664474447859,37.93883,23.38829,174.5947,0.2064761,-0.3089239,0.9219264,5
5.94,-32.83121,1.250543,-26.91228,0.2079674629431203,0.17904836874298,0.1834444044111562,26.14458,27.59307,175.9324,0.2399438,-0.2112724,0.9434719,5
5.96,-32.78106,1.41992,-26.80804,0.2326448955635855,0.2145858226311451,0.2255883869419039,29.6269,25.18988,175.3432,0.2207727,-0.2407496,0.9404554,5
5.98,-32.73399,1.58613,-26.70495,0.2559783574077667,0.2444290032370439,0.2652663301788247,33.08459,22.65573,174.558,0.2013339,-0.2699231,0.9362208,5
6.0,-32.64812,1.268293,-26.72595,0.2838787402501288,0.2471741357171654,0.295656643339206,8.1011,31.27619,177.4742,0.2703207,-0.06207909,0.9599252,5
6.02,-32.60044,1.272011,-26.69767,0.3095552804912658,0.2257076528895572,0.3130124837204762,2.358422,33.48735,177.8865,0.288344,-0.01439163,0.9571283,5
6.04,-32.54866,1.438929,-26.59053,0.3252406751300807,0.2493504717117015,0.341152002126905,5.922163,31.35538,177.7073,0.2708058,-0.04432695,0.9610398,5
6.06,-32.42448,1.285396,-26.527,0.3491189261761862,0.2256264665013578,0.3602847534945566,353.3162,36.01457,178.6702,0.3079481,0.05901597,0.9495454,5
6.08,-32.3735,1.449172,-26.41716,0.3708427381918757,0.1989549475219316,0.3770408251610946,356.9077,33.9002,178.6651,0.2911122,0.02920289,0.9562377,5
6.1,-32.30626,1.293885,-26.39963,0.3836040954241007,0.192087386179847,0.3888711384037457,352.8411,36.1665,179.2233,0.3093837,0.06144699,0.9488617,5
6.12,-32.21465,1.282896,-26.32072,0.3909587260898965,0.1588963402334465,0.3834696113863782,353.7722,36.86266,179.7105,0.3155699,0.05233211,0.9473431,5
6.14,-32.16689,1.445505,-26.21025,0.3840487052762524,0.17047673902147,0.3779363804504889,357.3271,34.74544,179.8235,0.2984706,0.0227196,0.9541327,5
6.16,-32.12049,1.262221,-26.22001,0.378256602079638,0.1545978021557665,0.359016557000392,355.7617,36.18717,180.4905,0.3105052,0.03382054,0.9498426,5
6.18,-32.07266,1.426546,-26.11122,0.3690407076175419,0.1142919845380235,0.3255482949828723,359.3196,34.07978,180.5639,0.2930566,0.004234457,0.956064,5
6.2,-32.02771,1.250279,-26.13267,0.3590679904714626,0.1245196042445991,0.308341958129859,359.4509,36.2659,181.2866,0.311251,0.001059499,0.9502495,5
6.22,-31.95086,1.240652,-26.07085,0.3493735858510862,0.0840786040908982,0.2724548194445084,4.021789,36.95547,182.0005,0.3161118,-0.03880465,0.9479127,5
6.24,-31.89974,1.407298,-25.96218,0.3332638098249267,0.0945188374631783,0.2527544107971171,7.664413,34.86742,182.0977,0.297715,-0.06922589,0.9521382,5
6.26,-31.86753,1.232422,-25.97805,0.3104883412443664,0.0537648486148369,0.2106979732858658,8.245456,36.13027,182.7928,0.3075382,-0.0758661,0.9485064,5
6.28,-31.81669,1.401957,-25.87128,0.2875973962389553,0.0129332829911111,0.1646656961575137,11.86093,34.04834,182.8604,0.2886516,-0.1060316,0.9515228,5
6.3,-31.79891,1.217765,-25.91743,0.2571170166761183,-0.0075015540391375,0.1196495294923054,11.87778,36.11326,183.2681,0.3053627,-0.1071233,0.9461778,5
6.32,-31.74092,1.199962,-25.88242,0.2292500792113712,-0.0007850123963957,0.0858998998177229,14.74276,36.74913,183.5907,0.3086544,-0.1314936,0.941978,5
6.34,-31.70561,1.191267,-25.8477,0.1961979576085983,-0.0205056776953639,0.0411792584217671,16.05944,36.21918,183.6949,0.3033479,-0.1426209,0.9420559,5
6.36,-31.65195,1.370726,-25.74846,0.1634244869433874,-0.0386212014978875,-0.0057188168797801,19.61088,34.14679,183.7372,0.2838453,-0.1721449,0.9430947,5
6.38,-31.60081,1.547138,-25.64975,0.1274968510615934,-0.0575494240745714,-0.0532525351288541,23.16038,32.02844,183.6411,0.2639941,-0.2014378,0.9429122,5
6.4,-31.60014,1.168479,-25.75009,0.0958964420200696,-0.0467274893968099,-0.0892536449485961,20.14143,33.92476,183.9791,0.281269,-0.177128,0.942963,5
6.42,-31.58252,1.160985,-25.75164,0.0565923574139906,-0.0910723440707411,-0.1462060709164885,21.56531,34.03809,184.0299,0.2810541,-0.18889,0.9406693,5
6.44,-31.52625,1.348501,-25.65797,0.0200345111668092,-0.077437200259387,-0.1860332855054247,25.07536,31.91116,183.9039,0.2610718,-0.2177375,0.9400352,5
6.46,-31.4968,1.13917,-25.68675,-0.0162180172842778,-0.0914244016922663,-0.2306512338793989,26.30298,32.20929,183.9134,0.2624957,-0.2276931,0.9371675,5
6.48,-31.43899,1.33238,-25.59729,-0.050101447317731,-0.1032329310603369,-0.2746913863241191,29.76952,30.00916,183.6427,0.2421964,-0.2559448,0.9351358,5
6.5,-31.42842,1.128922,-25.62538,-0.0821140626284044,-0.114089581745395,-0.3130584212000951,30.03643,30.11366,183.636,0.242839,-0.2580639,0.9343509,5
6.52,-31.36026,1.121981,-25.56823,-0.110970208094467,-0.1228756872548612,-0.349938363620395,34.71431,29.02065,183.1793,0.2310413,-0.2953342,0.9257368,5
6.54,-31.30118,1.320488,-25.48349,-0.1280748371753119,-0.1305848455207736,-0.3736457543480695,38.09833,26.62259,182.6211,0.2103122,-0.3225052,0.9213218,5
6.56,-31.25935,1.1174,-25.47573,-0.1422211490081171,-0.1058568455077504,-0.3882191814223756,39.61525,27.64451,182.5659,0.217352,-0.3340004,0.9151745,5
6.58,-31.20034,1.317407,-25.39212,-0.1561171799590015,-0.1380070339989021,-0.4100227892531709,42.96254,25.12553,181.8744,0.1965269,-0.3606925,0.9094403,5
6.6,-31.16303,1.115224,-25.39224,-0.1634154346274368,-0.1099061795388126,-0.4160540391514349,43.26349,27.55823,181.6408,0.2162561,-0.361164,0.9039852,5
6.62,-31.07451,1.113896,-25.31262,-0.1706165710746221,-0.1390297223328415,-0.429133821430081,46.36347,27.57324,180.2802,0.2181304,-0.3828425,0.8930038,5
6.64,-31.01619,1.314913,-25.23076,-0.1683671393924393,-0.1371598282617669,-0.423621669700911,49.65473,24.94752,179.5144,0.1977654,-0.40914,0.8857615,5
6.66,-30.95289,1.110185,-25.18598,-0.1631650637879929,-0.134156113869768,-0.4146372883958862,50.66914,25.81929,178.6014,0.2070026,-0.4145919,0.8797469,5
6.68,-30.89599,1.310201,-25.10447,-0.1549405046102077,-0.1334431324059999,-0.4026066815659201,53.91804,22.98745,177.6163,0.1868094,-0.4404715,0.871389,5
6.7,-30.84039,1.507812,-25.0222,-0.134470100916479,-0.1325951282737772,-0.3723513879040898,57.12998,19.81331,176.2534,0.1664185,-0.4658345,0.8620283,5
6.72,-30.68213,1.104535,-24.88978,-0.0998647586004297,-0.1568380662169158,-0.3296261233730853,61.21159,22.10175,171.1874,0.2028802,-0.485536,0.8347367,5
6.74,-30.62925,1.29612,-24.80838,-0.0726766968473957,-0.1218433330200086,-0.2862250459723316,64.34093,18.32096,169.2373,0.1834615,-0.5106944,0.8240394,5
6.76,-30.57796,1.485448,-24.72677,-0.0378017036370375,-0.1375315297094667,-0.239341218240638,67.39687,13.78397,166.5066,0.1638528,-0.5352697,0.8124166,5
6.78,-30.45121,1.129007,-24.62138,-0.0026301716352068,-0.1554006664232522,-0.1902877931951421,60.9414,14.83282,166.6464,0.1689638,-0.4865099,0.8412713,5
6.8,-30.40314,1.313631,-24.53605,0.0221210339251021,-0.0921085107085368,-0.1446876012513143,63.9374,10.42206,163.9731,0.1498014,-0.5113779,0.8298782,5
6.82,-30.35699,1.495983,-24.45099,0.0569867752108099,-0.1015036395989248,-0.1022252210898484,66.81792,5.142603,160.4085,0.1304881,-0.5356659,0.8175609,5
6.84,-30.16846,1.195764,-24.30825,0.086457900792829,-0.0596886842598712,-0.0571937839084557,48.27,21.14877,173.0983,0.1913604,-0.391135,0.8909436,5
6.86,-30.09142,1.210177,-24.23459,0.1035031741379133,0.0026163517548687,-0.0198971424795999,43.29805,22.72911,173.8061,0.202424,-0.3512636,0.9059792,5
6.88,-30.04043,1.3823,-24.13255,0.1410706230587108,-0.0050759473436882,0.0108374769560395,46.77189,19.87853,172.6495,0.1831607,-0.380006,0.8978254,5
6.9,-29.99227,1.551347,-24.03154,0.1722766991203372,0.0331268680549285,0.0455731335599685,50.19788,16.72086,171.1439,0.1636795,-0.4082563,0.888517,5
6.92,-29.87933,1.249536,-24.04237,0.2144015061184543,0.023316256725376,0.0735020123987455,26.28124,27.5874,175.9214,0.239893,-0.2123834,0.9432032,5
6.94,-29.82643,1.417705,-23.9351,0.2487320391145937,0.0353730151710681,0.1033699991974104,29.87874,25.28023,175.3239,0.221516,-0.242714,0.9396961,5
6.96,-29.77667,1.582486,-23.82907,0.2714969689485298,0.0684502549909952,0.133625746074177,33.45089,22.83951,174.53,0.2028635,-0.2727193,0.9349473,5
6.98,-29.73011,1.744074,-23.72458,0.2944077705940935,0.0527395111581875,0.149797933824102,36.98878,20.22999,173.5113,0.1839608,-0.3023548,0.9289656,5
7.0,-29.57054,1.275592,-23.76078,0.3160206237697629,0.0345634772498293,0.1636578026778945,358.4088,35.30009,178.1357,0.3029178,0.01816235,0.9527768,5
7.02,-29.52019,1.279142,-23.72981,0.3418970429364876,0.0390061506148237,0.1891691627801921,354.4566,37.01219,178.3803,0.3163544,0.05033211,0.9473029,5
7.04,-29.46536,1.444116,-23.62236,0.3654099616184147,0.0660426717712223,0.2238167500403345,358.0462,34.99823,178.3546,0.3003829,0.02057515,0.9535583,5
7.06,-29.33864,1.293784,-23.56059,0.3862422552989364,0.042533913499622,0.2406143152908555,352.8424,38.30573,179.2334,0.327048,0.06115544,0.9429204,5
7.08,-29.28531,1.455467,-23.45017,0.3932826032514929,0.0639520151613004,0.2609728991218096,356.4445,36.2854,179.3266,0.3110563,0.03130898,0.9498671,5
7.1,-29.23824,1.282933,-23.46444,0.3955386498155691,0.0337382147407113,0.2576118340033186,353.7731,38.40671,179.7044,0.328303,0.0521384,0.9430063,5
7.12,-29.20678,1.270128,-23.4569,0.3924976683901842,0.0490358170880395,0.2642818950699293,354.0739,39.36008,179.9521,0.3362967,0.04881282,0.9403365,5
7.14,-29.15415,1.434129,-23.35083,0.385649426170183,0.0394218462963268,0.2577636344488851,357.5952,37.34553,180.0757,0.3201053,0.01966807,0.9471496,5
7.16,-29.06802,1.250429,-23.35153,0.3764252007778861,0.0293849291551557,0.2475106788277807,359.4263,40.08185,181.3106,0.3427184,0.00078408,0.9393554,5
7.18,-29.02671,1.245973,-23.31733,0.3618766448371793,0.0200454125650034,0.2322171446199816,1.425343,40.36306,181.5465,0.34478,-0.01632904,0.9385042,5
7.2,-28.96932,1.411247,-23.21097,0.3456662490974662,0.0105693238082117,0.2137209049331874,5.069552,38.37054,181.6714,0.3276582,-0.04655344,0.9436485,5
7.22,-28.90628,1.232261,-23.2096,0.3278624798570302,-0.0010559053908922,0.193598037420831,8.259807,40.14726,182.8093,0.3405752,-0.07601469,0.937138,5
7.24,-28.84748,1.40158,-23.10616,0.3046597529594979,0.0143097396830388,0.1771514790014259,11.89114,38.16749,182.8997,0.3226101,-0.1060876,0.9405142,5
7.26,-28.82815,1.217716,-23.13195,0.2740059257264047,-0.0225581034405091,0.1379769890224196,11.88476,39.36282,183.2657,0.3320664,-0.1069859,0.9371337,5
7.28,-28.76951,1.390883,-23.03112,0.2450293364626619,-0.0082644682231891,0.1136399199642794,15.48561,37.38482,183.3231,0.3137316,-0.1367743,0.9394739,5
7.3,-28.76141,1.19996,-23.08006,0.214853813770496,0.0050795944811959,0.0859416195802778,14.75038,39.28663,183.5754,0.3294488,-0.1312371,0.9349036,5
7.32,-28.7021,1.377266,-22.98219,0.1792469675347163,-0.0100132233385652,0.0473936851180547,18.32551,37.31306,183.6246,0.310883,-0.1607842,0.9365069,5
7.34,-28.6663,1.175944,-23.01051,0.1414666463843423,-0.0227793709413325,0.0072946795007498,18.7341,38.52739,183.984,0.3199798,-0.1648678,0.9327264,5
7.36,-28.60553,1.359258,-22.91674,0.1068338113132947,-0.0057011833110327,-0.0243256572902019,22.281,36.53916,183.9708,0.3010399,-0.194022,0.9332376,5
7.38,-28.59837,1.161006,-22.95292,0.0650795285177823,-0.0436611100290048,-0.0749494515371655,21.56676,36.44511,184.0223,0.300761,-0.1883843,0.9345548,5
7.4,-28.5376,1.348501,-22.86165,0.0248661148291793,-0.080329261081689,-0.1267441629900565,25.08082,34.41499,183.8949,0.2815602,-0.217103,0.934095,5
7.42,-28.54009,1.14566,-22.91145,-0.0088582247664135,-0.0921413667354303,-0.1630194267243103,24.58867,35.14466,183.9846,0.2877501,-0.2131302,0.9331453,5
7.44,-28.47891,1.33715,-22.82293,-0.0351804403689111,-0.0725379820680084,-0.1847191575198068,28.06836,33.07523,183.7734,0.2683452,-0.2414347,0.9317874,5
7.46,-28.44718,1.128891,-22.83732,-0.0641880255934697,-0.1088350218804999,-0.2179624390152872,30.03653,32.81614,183.6524,0.264768,-0.257142,0.9283707,5
7.48,-28.38514,1.325161,-22.75241,-0.0868828124907934,-0.0846300341344385,-0.2323426123267431,33.46742,30.63643,183.2573,0.2449977,-0.2847734,0.92542,5
7.5,-28.36679,1.122006,-22.76734,-0.1117357318204343,-0.1169632420411798,-0.2579583892100028,34.70672,31.06801,183.1738,0.2475643,-0.2943375,0.9214771,5
7.52,-28.30442,1.320506,-22.68455,-0.1267969381123954,-0.0892998205305542,-0.2642331731704321,38.09235,28.76939,182.6165,0.2275529,-0.3213785,0.9172339,5
7.54,-28.22937,1.115747,-22.66015,-0.1374947460428184,-0.0879623435789736,-0.2700257552841307,41.86662,30.80669,182.2784,0.2411839,-0.3493116,0.9021565,5
7.56,-28.16615,1.316244,-22.57938,-0.1454496517561252,-0.084901581677542,-0.2728369447412042,45.21577,28.3786,181.6048,0.2210488,-0.3758266,0.8962247,5
7.58,-28.12464,1.114672,-22.56753,-0.1499895340710413,-0.0803714110990898,-0.2698762568963064,44.67415,30.22035,181.0396,0.2377772,-0.3690873,0.8938467,5
7.6,-28.06289,1.315719,-22.48714,-0.1514996119777842,-0.0742964364114436,-0.2636175470733004,47.9872,27.76063,180.3489,0.2179626,-0.3954259,0.8872061,5
7.62,-28.0251,1.113125,-22.47878,-0.1472065493191698,-0.06745195039231,-0.2481295553843536,48.04895,29.3983,179.4413,0.2336795,-0.3926676,0.8829643,5
7.64,-27.91552,1.107293,-22.37761,-0.1442060111157079,-0.0290842180451165,-0.2285389472658785,53.29849,29.06505,177.5939,0.2333395,-0.4293725,0.8626196,5
7.66,-27.85464,1.306189,-22.29949,-0.1236474918143359,-0.0478388489336767,-0.1957617926229695,56.53348,26.24485,176.5358,0.2138089,-0.4549559,0.8541117,5
7.68,-27.795,1.502702,-22.22066,-0.1020403916411485,-0.007287632732674,-0.1549233209973888,59.73106,23.04203,175.0636,0.1940551,-0.4800211,0.8446525,5
7.7,-27.67317,1.104722,-22.12039,-0.0729472318968893,-0.0202745709753267,-0.111583933089447,61.20491,22.99267,171.0439,0.2099726,-0.4839483,0.8329554,5
7.72,-27.53155,1.118171,-21.97443,-0.0298005982729252,-0.057776326090872,-0.0578376489807399,61.79733,18.72225,167.1411,0.195432,-0.4878668,0.8319715,5
7.74,-27.47802,1.305075,-21.89277,-0.0012634056044982,-0.0095699665342988,-0.009862733271003,64.81831,14.43444,164.5212,0.1767021,-0.5125884,0.8208565,5
7.76,-27.37572,1.144484,-21.80257,0.0274758352527415,0.0367279032012755,0.0391157733746068,58.3615,17.26782,167.7227,0.1818634,-0.4652614,0.8504156,5
7.78,-27.32527,1.32695,-21.71784,0.0673544721741183,0.00881357907326,0.086802349285191,61.35938,13.2753,165.3529,0.1632055,-0.4900113,0.8397813,5
7.8,-27.2768,1.507112,-21.63346,0.0994410883171696,0.0356119590825921,0.1269883062018313,64.25803,8.583441,162.2606,0.1443874,-0.5142227,0.8282431,5
7.82,-27.15972,1.19573,-21.57603,0.1326809994013684,0.0612189346002469,0.1686760383673831,48.27785,22.92924,173.1043,0.2051578,-0.3891572,0.8878418,5
7.84,-27.11236,1.372649,-21.48703,0.1810795314304583,0.039890886918267,0.2060873817290036,51.37016,20.04454,171.8637,0.1867191,-0.4146087,0.8798508,5
7.86,-27.06727,1.547167,-21.39869,0.2093911515701574,0.0861070261506935,0.2358985367451311,54.41483,16.83626,170.2671,0.1680983,-0.4396113,0.8709258,5
7.88,-26.87587,1.250327,-21.3493,0.232877592732827,0.1533788328573518,0.267241189000063,26.18594,30.41641,175.9586,0.263057,-0.2094531,0.9372135,5
7.9,-26.81963,1.419475,-21.24725,0.2586343528748589,0.1483560284352765,0.2774746623759498,29.68616,28.22985,175.4128,0.2454838,-0.2388054,0.9341961,5
7.92,-26.69068,1.268658,-21.19181,0.2923027671177705,0.1185733449984557,0.2838456367092461,8.070845,34.98903,177.5029,0.3012605,-0.06056821,0.9506944,5
7.94,-26.62669,1.272151,-21.12832,0.3160055203171197,0.1554779405122631,0.3040629708355458,2.36353,35.93915,177.875,0.3087571,-0.0138952,0.9507366,5
7.96,-26.5688,1.43922,-21.02464,0.3379001635221441,0.1892909377742978,0.3204668756463578,5.913117,34.00143,177.6983,0.2929263,-0.04345039,0.9545327,5
7.98,-26.49826,1.279299,-21.00148,0.3632511086680332,0.1505228110187322,0.3185930032219808,354.4568,37.37536,178.3524,0.3193429,0.05040164,0.9462963,5
8.0,-26.44143,1.444455,-20.89551,0.3879186742252667,0.1080343644870412,0.313267967577346,358.0347,35.45724,178.3066,0.3041895,0.0208324,0.9523429,5
8.02,-26.30535,1.293835,-20.81669,0.3946765321926602,0.1529924438186768,0.3245657155702943,352.8383,38.37959,179.222,0.3276486,0.06121206,0.9427088,5
8.04,-26.25078,1.455571,-20.70699,0.4059655337370151,0.1463777199533724,0.3249257532873595,356.4372,36.45401,179.3105,0.3124482,0.0314073,0.9494071,5
8.06,-26.19554,1.283013,-20.70332,0.41338122933284,0.1142779230519221,0.3122333181386398,353.7711,38.13243,179.6959,0.3260408,0.05221526,0.9437896,5
8.08,-26.14322,1.445606,-20.59482,0.4074654935559323,0.1268846887541923,0.3024011164718465,357.3267,36.21023,179.8086,0.3106393,0.02269073,0.9502402,5
8.1,-26.10167,1.262231,-20.62682,0.3982626438020626,0.1368129234108955,0.2875113479404687,355.7504,38.45056,180.5058,0.3292082,0.03355565,0.9435191,5
8.12,-26.04843,1.426485,-20.52028,0.3840733502296451,0.1206642634278204,0.2598144903049197,359.3075,36.53645,180.6098,0.3134863,0.004070885,0.9495588,5
8.14,-25.959,1.246083,-20.51239,0.3710852595873195,0.1303639889971793,0.2435828140248017,1.413382,39.46593,181.5376,0.3374251,-0.01613835,0.9411762,5
8.16,-25.90248,1.411468,-20.40586,0.3559778716355035,0.137602361292434,0.2239002735263047,5.047983,37.56702,181.6601,0.3210431,-0.04634809,0.9459297,5
8.18,-25.86947,1.237831,-20.42991,0.331694706025941,0.1198432098204611,0.1896540813456804,6.187106,39.30116,182.5166,0.3345959,-0.05818525,0.9405603,5
8.2,-25.81175,1.405363,-20.32424,0.3023958149717654,0.1025866712311353,0.1499222398005812,9.840479,37.41395,182.6229,0.3176035,-0.08853005,0.9440634,5
8.22,-25.75773,1.217557,-20.33952,0.2719034813294994,0.0861581421989055,0.1074357844160398,11.89752,39.62486,183.2908,0.3341781,-0.1071439,0.9363639,5
8.24,-25.69832,1.390483,-20.23819,0.2349664021275557,0.066594505081339,0.0589517138501971,15.51572,37.74776,183.3798,0.3166192,-0.1371258,0.9384524,5
8.26,-25.67997,1.19985,-20.27101,0.1971021085593913,0.0484398567495707,0.0080444486519244,14.76253,39.1989,183.591,0.3287075,-0.1313913,0.9351457,5
8.28,-25.6204,1.376993,-20.17251,0.163907901931426,0.0812093735641898,-0.0266772079797683,18.3512,37.32478,183.6621,0.3109081,-0.1610929,0.9364504,5
8.3,-25.56336,1.550957,-20.07458,0.1182196749133726,0.0332643810066815,-0.0904855285605634,21.93909,35.4138,183.6085,0.2927352,-0.1905834,0.9365776,5
8.32,-25.57232,1.175941,-20.1864,0.073084634853112,0.0132413813337833,-0.1467144778404141,18.73573,38.26281,183.9843,0.3178236,-0.1649308,0.9334608,5
8.34,-25.52257,1.160942,-20.16293,0.0292048331093752,-0.0048450022903031,-0.2034803951517463,21.56845,37.61003,184.0505,0.3101982,-0.188203,0.9314533,5
8.36,-25.46019,1.348309,-20.07217,-0.0166268094495296,-0.0234022932849647,-0.258543958332734,25.09034,35.68693,183.9589,0.2917816,-0.2169689,0.9309153,5
8.38,-25.45257,1.145632,-20.10667,-0.0607321100424176,-0.0397306827201402,-0.3132972654738633,24.59371,35.85971,183.9939,0.2935459,-0.2129916,0.9313259,5
8.4,-25.39011,1.337053,-20.01846,-0.0953094267118732,-0.000249558479789,-0.3487442322150942,28.08108,33.88996,183.7984,0.2748992,-0.2413187,0.9298401,5
8.42,-25.34678,1.128891,-20.0188,-0.1399085610970369,-0.0457771132626816,-0.4052262836184259,30.0386,33.22542,183.6512,0.2680828,-0.2569984,0.9274142,5
8.44,-25.28389,1.325143,-19.93409,-0.1716282076476618,-0.0606547660479485,-0.4435776538782408,33.47195,31.14098,183.2616,0.2490554,-0.2845969,0.9243234,5
8.46,-25.25405,1.122021,-19.93506,-0.1999563285808223,-0.073206648791906,-0.4798843599343612,34.70565,31.12165,183.1684,0.2480106,-0.2942916,0.9213611,5
8.48,-25.19135,1.320515,-19.85214,-0.2247199045958003,-0.0836181959717531,-0.5102632776091198,38.09202,28.916,182.6122,0.2287385,-0.3212901,0.9169407,5
8.5,-25.16048,1.11736,-19.86042,-0.245731372390217,-0.0920743817388149,-0.5375869311623864,39.60479,30.66067,182.5894,0.241304,-0.3322599,0.9091805,5
8.52,-25.09739,1.31728,-19.77913,-0.2533818427485044,-0.0990474797053789,-0.550992585262907,42.9571,28.35814,181.9367,0.2219103,-0.3587995,0.9035923,5
8.54,-25.01475,1.114652,-19.74462,-0.2583960329168149,-0.1327785974773523,-0.5643478828144088,44.68147,31.17783,181.052,0.2451907,-0.3683977,0.8918157,5
8.56,-24.95167,1.31565,-19.6646,-0.2616666375329788,-0.1060030535894403,-0.5656389610941424,48.00505,28.82406,180.3808,0.2260603,-0.3947294,0.8851113,5
8.58,-24.90236,1.113135,-19.6435,-0.2616771994115905,-0.0797995271831135,-0.5630717434928814,48.04887,29.92846,179.438,0.2377733,-0.3921581,0.8818708,5
8.6,-24.83967,1.3141,-19.56471,-0.2516178316815707,-0.0830970281782171,-0.5496771216206784,51.32355,27.41622,178.5885,0.2187677,-0.4180596,0.8743609,5
8.62,-24.78065,1.10732,-19.52994,-0.2384157816079009,-0.085458883895485,-0.5323627594020564,53.28856,29.19396,177.5888,0.2343369,-0.4291396,0.8623887,5
8.64,-24.71932,1.306219,-19.4518,-0.2186046471535156,-0.0301127426565739,-0.5005975540408478,56.52397,26.46674,176.53,0.2154921,-0.4546144,0.8537281,5
8.66,-24.55522,1.104627,-19.30447,-0.18341849318693,-0.0271188570315751,-0.456688217933066,61.20217,24.63121,171.1118,0.2215767,-0.4816218,0.8299832,5
8.68,-24.49684,1.296291,-19.2259,-0.145070300572117,-0.049126737916751,-0.4110053952247656,64.329,20.96436,169.0768,0.2031314,-0.5064332,0.8193992,5
8.7,-24.40009,1.118186,-19.14736,-0.1053685451310326,-0.0730487750947702,-0.3621125556266977,61.79148,19.82213,167.149,0.2033745,-0.4861081,0.8300962,5
8.72,-24.25673,1.144415,-19.00951,-0.0570525410577373,-0.0582607796190375,-0.3060012751668406,58.36786,19.68708,167.7655,0.1996037,-0.4617953,0.8464245,5
8.74,-24.20299,1.326838,-18.9267,-0.0212122025978791,-0.0174985157855715,-0.2575309861048231,61.37157,15.83901,165.4575,0.1815111,-0.4864007,0.8360276,5
8.76,-24.15118,1.506944,-18.84416,0.0145057104270098,0.0212559364729045,-0.2080962813550919,64.2822,11.31127,162.448,0.1632428,-0.5104867,0.8247545,5
8.78,-24.02513,1.195672,-18.77483,0.0426925979335703,0.1067034995901545,-0.1594827275382813,48.29126,24.79362,173.0979,0.2195925,-0.3870032,0.8843305,5
8.8,-23.95001,1.21013,-18.72216,0.0860253932347743,0.0968623420020944,-0.1210075464964752,43.31651,27.04817,173.8203,0.2363704,-0.346599,0.8976653,5
8.82,-23.89063,1.382273,-18.62457,0.1304164985360469,0.084598865968597,-0.0810787920562368,46.78713,24.41094,172.6999,0.2183512,-0.3749297,0.8898895,5
8.84,-23.73553,1.250168,-18.56411,0.1762823780994464,0.0957375406584524,-0.0436227997408269,26.22311,32.54058,175.9479,0.2803932,-0.2079798,0.9320939,5
8.86,-23.67437,1.419157,-18.46418,0.2226178320331771,0.0823914378871257,-0.0122892040740243,29.7389,30.44257,175.3987,0.2634912,-0.237229,0.9291508,5
8.88,-23.61615,1.584872,-18.36519,0.27034961206438,0.0664375361862751,0.0195388088243322,33.23441,28.22587,174.6747,0.2462825,-0.2661908,0.9250718,5
8.9,-23.53495,1.268159,-18.39279,0.2973340132457673,0.1151436723053137,0.0569653293176055,8.131143,36.63778,177.4927,0.3149121,-0.06042986,0.946219,5
8.92,-23.41664,1.275732,-18.30188,0.3246438887222043,0.090921798490289,0.0745467602190981,358.3963,39.44609,178.139,0.3371825,0.01865195,0.9411954,5
8.94,-23.35383,1.441671,-18.19958,0.340108681632056,0.112023836878023,0.0973987767171467,1.971657,37.61294,178.0529,0.3225551,-0.01080768,0.946242,5
8.96,-23.29418,1.60419,-18.09836,0.3619964135234448,0.1104823667687063,0.1173884752872411,5.541439,35.76871,177.8518,0.3075463,-0.04024549,0.9501206,5
8.98,-23.20165,1.291558,-18.09509,0.3815023946755347,0.107249969028646,0.1355527106142533,352.2301,40.3075,178.9817,0.34317,0.06665719,0.9367848,5
9.0,-23.14106,1.453964,-17.98883,0.3938245694972182,0.1012722863945914,0.1461546700106297,355.8325,38.47528,179.028,0.3289661,0.03712143,0.9436036,5
9.02,-23.08383,1.612834,-17.88392,0.4039775076922414,0.0940377265879541,0.1544798617530833,359.4336,36.65256,178.9592,0.3143685,0.007547796,0.9492448,5
9.04,-22.97835,1.269841,-17.90561,0.4030452779758167,0.0801311683707371,0.1486444701042701,354.1075,41.25224,179.9497,0.3517816,0.04825863,0.9346698,5
9.06,-22.92596,1.261932,-17.86759,0.3998790652951491,0.0658976536143509,0.1390625912995777,355.7839,41.30838,180.4911,0.3526324,0.03290912,0.935029,5
9.08,-22.86555,1.42579,-17.76355,0.3906999112289666,0.0508373351610311,0.125051011100997,359.377,39.48428,180.5861,0.3378044,0.003389401,0.9411869,5
9.1,-22.80836,1.586226,-17.66077,0.3803769000585881,0.0355359573362123,0.1077989201009241,2.970671,37.6656,180.5665,0.3225739,-0.0261283,0.9461765,5
9.12,-22.77092,1.246025,-17.7391,0.3699172253075611,0.0204305364571743,0.0928504315341793,1.419639,41.73218,181.5245,0.3559722,-0.016313,0.9343197,5
9.14,-22.70894,1.411311,-17.63519,0.3586824099356893,0.0056851854229265,0.0749576196944254,5.064736,39.92406,181.64,0.3404347,-0.0464058,0.9391208,5
9.16,-22.65014,1.573124,-17.53247,0.3339357271006213,-0.0097457212314175,0.050466341040571,8.711079,38.11122,181.6399,0.3244821,-0.07643505,0.9427307,5
9.18,-22.60677,1.226306,-17.61594,0.308211789486954,-0.0241854376473763,0.0229411790440672,10.3477,42.55708,183.1215,0.359001,-0.09384315,0.928578,5
9.2,-22.58144,1.217648,-17.61026,0.2847137840610343,0.0098235870700589,0.0110792075813408,11.87966,43.22445,183.3006,0.3634229,-0.1067192,0.9254209,5
9.22,-22.51574,1.390643,-17.51316,0.2476008214797795,-0.0349521088033558,-0.0333585985636191,15.48463,41.44216,183.4066,0.3466934,-0.136369,0.9277952,5
9.24,-22.48148,1.191001,-17.54487,0.2087401807041193,-0.0534839621885802,-0.0722441515963929,16.08454,43.63699,183.75,0.3635656,-0.1418532,0.9204445,5
9.26,-22.41452,1.370003,-17.4517,0.1700960104618154,-0.0700932034382353,-0.1131054124797725,19.67119,41.86934,183.8676,0.3464672,-0.1713345,0.9217961,5
9.28,-22.34995,1.545835,-17.35885,0.1375449346803332,-0.0337613773658493,-0.136529034967668,23.25851,40.06743,183.8678,0.3289588,-0.2005961,0.9220119,5
9.3,-22.3678,1.168446,-17.45478,0.0918737601956682,-0.0795236828368319,-0.1869604656036079,20.13935,41.39886,184.0025,0.3420968,-0.1756126,0.9226345,5
9.32,-22.35225,1.160948,-17.45673,0.0479928515450871,-0.1238111123507723,-0.2387837467324172,21.56691,41.3871,184.0511,0.3407263,-0.1871867,0.9207272,5
9.34,-22.28371,1.348299,-17.37023,0.0155903463031443,-0.0878606454879802,-0.2611488621703142,25.08852,39.557,183.9664,0.3230363,-0.2156894,0.9205379,5
9.36,-22.26276,1.139171,-17.39732,-0.0223356281903774,-0.1069260342941375,-0.2938728330254188,26.29745,39.46031,183.9304,0.3212038,-0.2252723,0.9187094,5
9.38,-22.19358,1.332242,-17.31489,-0.0633181185011371,-0.1517425517254353,-0.3339590509561863,29.77595,37.55753,183.6969,0.3031,-0.2531616,0.9171774,5
9.4,-22.12592,1.522494,-17.23199,-0.0934669366382152,-0.1369498699729663,-0.354668412868985,33.24403,35.5675,183.3165,0.2846575,-0.2807426,0.9145718,5
9.42,-22.14293,1.125024,-17.30329,-0.1200134619360944,-0.1785437736237546,-0.38103232424586,32.07599,36.24597,183.4696,0.290865,-0.2714989,0.9155837,5
9.44,-22.07014,1.118916,-17.25275,-0.1406011703357657,-0.1592297882846149,-0.3929764209970514,37.37335,35.73975,182.94,0.2827619,-0.3122922,0.9038094,5
9.46,-22.00044,1.318153,-17.17603,-0.1581561382825684,-0.1399428268928717,-0.4028480309450386,40.74656,33.57804,182.3436,0.2639065,-0.3387635,0.8993546,5
9.48,-21.96061,1.1158,-17.17778,-0.1723663354302211,-0.1485184178328927,-0.4117626719808283,41.83333,35.38975,182.2639,0.2771436,-0.3456615,0.8918773,5
9.5,-21.89077,1.316311,-17.10232,-0.1867409150926553,-0.1836018415950291,-0.4242685582062311,45.17286,33.14119,181.5867,0.2582,-0.3717363,0.8863876,5
9.52,-21.79912,1.113905,-17.053,-0.192495241239166,-0.1581648309322266,-0.4205428829545445,46.36104,34.75554,180.2838,0.2736276,-0.3763415,0.8775989,5
9.54,-21.73785,1.113146,-17.0029,-0.1874619997654028,-0.190380017128173,-0.413337050720844,48.03905,33.84769,179.4351,0.2678097,-0.3881042,0.8732548,5
9.56,-21.66983,1.314113,-16.92853,-0.1818642906512582,-0.1623735813046932,-0.3964224437832924,51.30923,31.42517,178.5885,0.2492305,-0.4137284,0.8662264,5
9.58,-21.60283,1.512597,-16.85329,-0.173064889580401,-0.1349747122344619,-0.3764988340608193,54.55083,28.7324,177.4388,0.2303978,-0.4388985,0.8582643,5
9.6,-21.51068,1.10394,-16.79928,-0.1503106072989481,-0.1350708034826514,-0.3429317086446839,56.47999,31.3543,176.0862,0.2534714,-0.4471691,0.8433401,5
9.62,-21.44589,1.300517,-16.72436,-0.1246930869518339,-0.161107419908429,-0.3092807376081243,59.6936,28.48515,174.7936,0.2350837,-0.4721951,0.8342702,5
9.64,-21.38228,1.494713,-16.64886,-0.0960762895211098,-0.1276380127735397,-0.2662200871684561,62.86463,25.15315,173.0128,0.216462,-0.4967108,0.8243166,5
9.66,-21.18232,1.118168,-16.49312,-0.0493855364937894,-0.1438360594771251,-0.2132235002453448,61.8014,22.47444,167.1075,0.2227056,-0.4817488,0.8250521,5
9.68,-21.10965,1.128942,-16.42661,-0.0164790228270006,-0.1024972644325719,-0.1679731611052126,60.94154,21.46487,166.6713,0.2172396,-0.4762351,0.8301303,5
9.7,-21.05109,1.313559,-16.34745,0.0174669234523747,-0.0627454432196095,-0.1211653381184778,63.93949,17.3832,164.0584,0.1995351,-0.5005577,0.819389,5
9.72,-20.87611,1.178229,-16.21463,0.0673955373873882,-0.039656885962969,-0.0742242930716527,52.08302,25.42844,171.1334,0.2302563,-0.4116906,0.8663543,5
9.74,-20.81939,1.356685,-16.13133,0.1061429241192142,0.006474531719063,-0.0337810051677711,55.15437,22.38653,169.5428,0.2127343,-0.4365672,0.8577196,5
9.76,-20.76476,1.532725,-16.04844,0.1460942553459983,0.0500987940881897,0.0073339087222263,58.16661,18.93087,167.5128,0.1950094,-0.4609888,0.8482089,5
9.78,-20.7123,1.706452,-15.96613,0.1926260635810592,0.0222309892608768,0.0353520537691733,61.09929,14.94042,164.9256,0.1771024,-0.4849299,0.8378342,5
9.8,-20.55305,1.239973,-15.95205,0.2299655248258587,0.0639328837507259,0.0662717725257191,31.98628,32.38308,175.2869,0.2787093,-0.2533478,0.9192251,5
9.82,-20.49093,1.41071,-15.85728,0.26480812987448,0.1271418670705328,0.1020518531037268,35.39557,30.25049,174.6045,0.262118,-0.2814399,0.9149179,5
9.84,-20.35451,1.264094,-15.81492,0.308085177168,0.1190979232986562,0.1241018445106418,13.85125,37.69662,177.1219,0.3234713,-0.1060248,0.9381976,5
9.86,-20.29192,1.268797,-15.76575,0.3358590599246187,0.1313578789058695,0.144013246558887,8.075564,39.02124,177.501,0.3345206,-0.05909056,0.9395036,5
9.88,-20.22672,1.436954,-15.66895,0.3625316432309247,0.1427942040917856,0.1618506265276018,11.56019,37.23374,177.2734,0.3197961,-0.08785713,0.9418244,5
9.9,-20.16444,1.601865,-15.57299,0.3881173545718517,0.1505148557686037,0.1768911579936345,15.03506,35.40786,176.9302,0.3047149,-0.1165133,0.943048,5
9.92,-20.08913,1.279483,-15.59924,0.409652101421754,0.156952962628977,0.1918215633699795,354.4525,42.09244,178.3536,0.3580143,0.050313,0.9323512,5
9.94,-20.02286,1.444859,-15.49949,0.4212569492280509,0.186006429397698,0.2063525998545587,358.0086,40.35114,178.321,0.34457,0.0213615,0.9384857,5
9.96,-19.89243,1.293864,-15.44613,0.4303112344395536,0.2119733348546641,0.2179296790359022,352.829,43.63284,179.2352,0.3705107,0.06053296,0.9266968,5
9.98,-19.82702,1.455622,-15.34252,0.4388515841912439,0.1616967385485438,0.2066700807745252,356.421,41.88224,179.3487,0.3570625,0.03119464,0.9335412,5
10.0,-19.78278,1.283024,-15.35914,0.4366982392165082,0.1552835219270529,0.1954983111132451,353.7676,43.94186,179.7136,0.3734558,0.05134672,0.9260505,5
10.02,-19.71873,1.445572,-15.25693,0.4328310203987002,0.148516736396415,0.1808231017304968,357.3205,42.1944,179.855,0.3598249,0.02226904,0.9327261,5
10.04,-19.6344,1.254766,-15.26169,0.4283893323692247,0.0905380733102294,0.1492670109415188,357.4258,44.67629,181.0919,0.3801569,0.01715522,0.9246004,5
10.06,-19.56855,1.419469,-15.16221,0.4157813382745359,0.1055157319555938,0.1324262266346432,0.9937397,42.94152,181.2198,0.365906,-0.01196577,0.9305508,5
10.08,-19.52945,1.245905,-15.174,0.4021398136423459,0.144249135507258,0.1214999401167702,1.425128,44.74342,181.5311,0.3803968,-0.0165841,0.9246434,5
10.1,-19.46131,1.411009,-15.07333,0.375657301313411,0.1086520476145721,0.0821118068431112,5.083558,43.02111,181.659,0.3656762,-0.04655774,0.9295728,5
10.12,-19.3982,1.23216,-15.07643,0.3471154916784287,0.0468577401141459,0.0310198192891364,8.258801,44.96966,182.8182,0.3796946,-0.07589508,0.9219808,5
10.14,-19.32892,1.401244,-14.97851,0.3212659235691162,0.05913877098708,0.0028039722903576,11.90508,43.26435,182.937,0.3640681,-0.1057654,0.9252336,5
10.16,-19.31198,1.217613,-15.00533,0.2848240797844914,0.0197530277582718,-0.0457300384493744,11.89172,44.53808,183.2823,0.3740174,-0.1066179,0.9211829,5
10.18,-19.24284,1.390548,-14.91009,0.2485512217733649,-0.0186203074907296,-0.0978465753457991,15.50746,42.83733,183.3748,0.3579861,-0.1361981,0.9234763,5
10.2,-19.17637,1.56016,-14.81547,0.2144328481998689,0.0168981016031778,-0.1264147768261494,19.12324,41.11069,183.3556,0.341532,-0.1656033,0.9246373,5
10.22,-19.19776,1.191133,-14.92692,0.1700902548885419,-0.0014716506775901,-0.170931336991607,16.08068,44.60945,183.7073,0.3714191,-0.141493,0.9173214,5
10.24,-19.14492,1.175919,-14.9039,0.12613601794569,-0.0173747449276204,-0.2170352246505118,18.7301,44.4699,184.004,0.3678721,-0.1635752,0.9148964,5
10.26,-19.07394,1.359092,-14.8165,0.0869794363823288,0.0215572599804655,-0.2460521543274942,22.28233,42.76345,184.0305,0.3511605,-0.1923954,0.9155357,5
10.28,-19.00501,1.539194,-14.72915,0.0340837947336329,-0.0222518781863493,-0.299074820386233,25.83264,41.01266,183.9404,0.3340474,-0.2209787,0.9150869,5
10.3,-19.031,1.153284,-14.82023,-0.0173593101708253,-0.0642741097927199,-0.3528375110470845,23.05651,41.77229,183.9843,0.342618,-0.1987493,0.9173661,5
10.32,-18.96013,1.342663,-14.73674,-0.0552342444375444,-0.025141169342764,-0.3795831836154888,26.56058,40.00085,183.8393,0.3254629,-0.2268905,0.9166796,5
10.34,-18.89094,1.529124,-14.65297,-0.0919562847169466,-0.0419115293599202,-0.4100821758333923,30.05746,38.16172,183.5648,0.3079459,-0.2547583,0.9149283,5
10.36,-18.88413,1.128879,-14.71572,-0.1301742787036932,-0.0840893818681878,-0.4453662225133536,30.04075,38.68301,183.6599,0.3119104,-0.2546259,0.9135998,5
10.38,-18.85105,1.125028,-14.69487,-0.1587307548538816,-0.0653561559185222,-0.4626331676544877,32.05697,37.93053,183.4771,0.3042945,-0.270483,0.9112548,5
10.4,-18.77999,1.322604,-14.61748,-0.1846416731873381,-0.0463014902292225,-0.4777120030651536,35.46428,35.97687,183.0276,0.2863977,-0.2973496,0.9081007,5
10.42,-18.70516,1.117316,-14.59097,-0.2157963903152413,-0.114133311418196,-0.5079447773420229,39.60901,36.87749,182.6102,0.2901855,-0.3281125,0.8947622,5
10.44,-18.63366,1.317149,-14.51598,-0.2307944489446509,-0.0939814601679657,-0.513154104385539,42.97191,34.76954,181.9927,0.2719035,-0.3543233,0.8897703,5
10.46,-18.56321,1.514357,-14.44018,-0.2413939255113841,-0.0997536936163244,-0.5165293673829923,46.31366,32.48578,181.1603,0.253338,-0.3801373,0.8838009,5
10.48,-18.52561,1.11469,-14.46003,-0.2483660479092591,-0.103453634398524,-0.5161968035726698,44.67594,36.19333,181.0376,0.2840286,-0.3638553,0.880237,5
10.5,-18.48199,1.113917,-14.43094,-0.2497836031427933,-0.1056168498634168,-0.5076282910960725,46.33908,36.24759,180.278,0.2850737,-0.3746253,0.8740274,5
10.52,-18.41163,1.314904,-14.35812,-0.2473650640301918,-0.1059836757807323,-0.4949816692094464,49.62305,34.00223,179.5355,0.2670252,-0.4002171,0.8675216,5
10.54,-18.29373,1.107309,-14.28317,-0.2311700656040356,-0.1051861743572609,-0.4681073375729796,53.28507,35.00201,177.6039,0.2776754,-0.4219525,0.8494423,5
10.56,-18.22457,1.306154,-14.2109,-0.2112263285118789,-0.0731289136054856,-0.4342343760335476,56.5301,32.46899,176.5742,0.259716,-0.4471049,0.8413112,5
10.58,-18.15645,1.50256,-14.1379,-0.1886370910044925,-0.0420518196025375,-0.3970560965265572,59.74251,29.58209,175.1636,0.2414988,-0.4717795,0.832301,5
10.6,-18.02708,1.10465,-14.04953,-0.1539167546076443,-0.0943751421975045,-0.3551920483284814,61.19513,29.27357,171.095,0.2550833,-0.4741144,0.820331,5
10.62,-17.95937,1.109171,-13.99594,-0.108078143333633,-0.0815732660076016,-0.3004298251044575,62.62689,26.73483,167.8339,0.2499884,-0.4818611,0.8137777,5
10.64,-17.89495,1.298267,-13.92174,-0.0610902243818278,-0.0690555491588175,-0.2431406835689613,65.69241,22.81152,165.3461,0.2325891,-0.5061449,0.8031345,5
10.66,-17.72223,1.144263,-13.79792,-0.0129128826613751,-0.060074318854175,-0.1837963690689787,58.39197,25.10224,167.7709,0.2393403,-0.4532262,0.8359561,5
10.68,-17.65997,1.326565,-13.72025,0.0254722414021375,-0.0416748803095214,-0.1372813023709971,61.41262,21.4476,165.4894,0.2220679,-0.4774977,0.8260166,5
10.7,-17.59954,1.506501,-13.64273,0.0621623090382437,0.0029891089620511,-0.088032833834825,64.34589,17.13071,162.526,0.2045852,-0.5012783,0.8152449,5
10.72,-17.39377,1.209875,-13.57253,0.0990276217830901,0.0459078534350153,-0.0383487640572104,43.35411,35.65185,173.8947,0.3027997,-0.3359928,0.8773897,5
10.74,-17.32067,1.381803,-13.48395,0.1382741386677939,0.0654355740825801,-0.0019846890432138,46.8423,33.25386,172.8745,0.2857235,-0.3638148,0.8704741,5
10.76,-17.25022,1.550586,-13.3959,0.1768791328051009,0.0612559767396355,0.0278372240447266,50.29445,30.59064,171.5549,0.2683242,-0.3911985,0.8625311,5
10.78,-17.14461,1.250135,-13.40178,0.2161980604146087,0.0549545708137764,0.0577591554154583,26.22201,39.56494,175.959,0.3369482,-0.2016971,0.9131789,5
10.8,-17.07065,1.419049,-13.31041,0.2563077924043475,0.0434197736732983,0.0871786821768023,29.74266,37.64801,175.4331,0.3212859,-0.2303039,0.9107846,5
10.82,-16.99956,1.58465,-13.21965,0.2812815719067825,0.0508580477691264,0.1078051246040245,33.24571,35.62056,174.746,0.3052588,-0.2586413,0.907317,5
10.84,-16.86732,1.271968,-13.21062,0.3058417966328473,0.0575116573048367,0.1269477721640377,2.409327,45.16351,177.8906,0.3842087,-0.01234178,0.9228234,5
10.86,-16.79962,1.275622,-13.15903,0.3266554879391286,0.0626913713356344,0.144917076233201,358.438,45.91101,178.1476,0.3897261,0.01885286,0.9206882,5
10.88,-16.7245,1.44145,-13.06479,0.3460417141117118,0.0912079974699787,0.1680283188251905,2.01974,44.24738,178.0825,0.3767693,-0.01002402,0.9259885,5
10.9,-16.65248,1.603813,-12.97132,0.3621645425567372,0.0720153851476377,0.1764707484479271,5.597015,42.5744,177.9128,0.3633786,-0.03888078,0.930184,5
10.92,-16.57751,1.291489,-12.98794,0.3768528120689964,0.0502737121796564,0.1830154934421177,352.2356,47.11439,178.9935,0.3981868,0.06556253,0.9147608,5
10.94,-16.50362,1.453823,-12.8901,0.3896699747104328,0.0471461488807792,0.1920333715291755,355.8395,45.44877,179.0631,0.3857575,0.03663652,0.9218499,5
10.96,-16.43304,1.612585,-12.79325,0.3976879321315085,0.0189526625132953,0.1896618545373758,359.4428,43.79349,179.0279,0.372879,0.007674793,0.9278286,5
10.98,-16.35163,1.269871,-12.83256,0.3942345859402485,0.0360503092568393,0.1912764863032274,354.1061,48.14258,179.9577,0.4073163,0.04709058,0.911839,5
11.0,-16.30712,1.261937,-12.81624,0.3880529149461609,0.0509434663623847,0.1888237615904364,355.776,48.63624,180.503,0.4116664,0.03177648,0.9105789,5
11.02,-16.23295,1.42574,-12.72123,0.3772435827279472,0.0395166347871646,0.1757400700116607,359.3681,46.97939,180.6229,0.3985998,0.002890375,0.9170926,5
11.04,-16.15441,1.246019,-12.71635,0.3651736978411131,0.0283520801535169,0.1595670769270865,1.411972,49.19322,181.534,0.4160082,-0.01677385,0.909179,5
11.06,-16.07846,1.411254,-12.62185,0.3412004909829926,0.0193365847433251,0.1401961735317589,5.056485,47.55245,181.6704,0.4021419,-0.04623481,0.9143984,5
11.08,-16.00565,1.572985,-12.52819,0.3159087944803844,0.0109521439291699,0.1181813641125026,8.702806,45.90943,181.7022,0.3877986,-0.075634,0.9184974,5
11.1,-16.00858,1.23217,-12.60606,0.2928852965280628,0.0505668166471555,0.1093454805241238,8.261742,48.64942,182.807,0.4091063,-0.07568296,0.9093125,5
11.12,-15.94345,1.217623,-12.57137,0.2543875070003794,0.0120987552779109,0.0686517112614011,11.88703,49.11203,183.2869,0.4104775,-0.1059985,0.9055282,5
11.14,-15.8665,1.390503,-12.48201,0.2160690226676309,0.0258551438522335,0.0402116668000644,15.50477,47.49459,183.3901,0.3951961,-0.1352199,0.9081747,5
11.16,-15.85885,1.19989,-12.51051,0.1766587726763313,0.0392248026627745,0.0089909276501809,14.75772,48.5724,183.5887,0.4040232,-0.1297785,0.9051647,5
11.18,-15.78249,1.376952,-12.42348,0.1298479408221227,0.0245659587087057,-0.0307121005624053,18.35002,46.95844,183.6751,0.3884272,-0.1587858,0.9070413,5
11.2,-15.70851,1.550781,-12.33669,0.0834461393055758,0.012126253516026,-0.0720819943764714,21.94217,45.3144,183.6546,0.3723839,-0.1875958,0.907837,5
11.22,-15.74242,1.168567,-12.44089,0.0307812688779334,-0.0556586895699441,-0.1300277368376459,20.12274,45.90328,183.9811,0.3781375,-0.174112,0.9084923,5
11.24,-15.66723,1.353915,-12.35878,-0.0128069314612659,-0.0697191866533496,-0.1670692591223874,23.64776,44.24728,183.9212,0.3619058,-0.2023177,0.9088271,5
11.26,-15.59389,1.536252,-12.27654,-0.0522814582971689,-0.0517752662190429,-0.1945418229121902,27.16855,42.53973,183.7453,0.3452724,-0.2302819,0.9081139,5
11.28,-15.61874,1.145713,-12.35576,-0.1008292111307074,-0.08894946028037,-0.2364805787523751,24.59046,43.12298,183.9759,0.3519841,-0.2103844,0.91086,5
11.3,-15.54432,1.337088,-12.27606,-0.1471858085266177,-0.1242696114845263,-0.2785530103816096,28.08626,41.40699,183.7794,0.3352947,-0.2381684,0.9098012,5
11.32,-15.4714,1.525563,-12.19594,-0.188024911568861,-0.1323081586573467,-0.3090817253604832,31.57372,39.61786,183.4538,0.3182402,-0.2656724,0.9077077,5
11.34,-15.45585,1.125017,-12.2411,-0.2255161441301603,-0.1664823197342197,-0.3422034547807244,32.07466,39.63333,183.4792,0.3177779,-0.2696748,0.9065954,5
11.36,-15.40926,1.122042,-12.2089,-0.259458953888025,-0.1989583493760203,-0.3745814990100546,34.67838,39.01566,183.1717,0.3108642,-0.289634,0.9021716,5
11.38,-15.33553,1.3205,-12.13493,-0.2859678974722932,-0.2018455699655847,-0.3953209217530227,38.0584,37.07603,182.6367,0.2933676,-0.3159655,0.8984489,5
11.4,-15.26285,1.51629,-12.06022,-0.3027289896294924,-0.1724670461337597,-0.4051448433799272,41.4203,34.99893,181.9229,0.2755672,-0.3419462,0.8937507,5
11.42,-15.24731,1.115756,-12.10444,-0.3222454050060537,-0.1995390198359845,-0.4228367843615916,41.83955,38.5373,182.2852,0.3014623,-0.3431382,0.8839301,5
11.44,-15.17348,1.316184,-12.03193,-0.3345315702302385,-0.194349126032212,-0.43140323680924,45.18966,36.47861,181.6445,0.2836968,-0.3690175,0.8784944,5
11.46,-15.0925,1.113849,-12.00048,-0.3425902827262856,-0.1872721202733835,-0.4371048289559043,46.3569,38.6531,180.3174,0.3032084,-0.3722574,0.8678373,5
11.48,-15.0193,1.314723,-11.92934,-0.3465561593253805,-0.2389736362559362,-0.4443843965185932,49.66492,36.52272,179.6231,0.2856896,-0.3978782,0.8613959,5
11.5,-14.96388,1.110132,-11.90675,-0.3415322734416617,-0.2025922363512392,-0.4351251269023135,50.65022,37.67751,178.6536,0.2966096,-0.4013825,0.8537928,5
11.52,-14.89142,1.309999,-11.83675,-0.3249738017749786,-0.1931142913836994,-0.4172256516035693,53.9121,35.36031,177.7611,0.2790936,-0.4265245,0.8464013,5
11.54,-14.72527,1.10233,-11.72017,-0.2916398610136805,-0.2092790600307519,-0.3891485086808448,59.64019,35.02672,173.9927,0.2855733,-0.4598958,0.8183975,5
11.56,-14.65509,1.29646,-11.65021,-0.2624176532418121,-0.1658518238176945,-0.3587170243273845,62.83139,32.05424,172.4364,0.2681498,-0.4843516,0.8089591,5
11.58,-14.58609,1.488212,-11.57976,-0.22499442091289,-0.1742711689503799,-0.3260140519741914,65.97396,28.50796,170.2858,0.2504664,-0.5083051,0.7987013,5
11.6,-14.45127,1.118113,-11.49624,-0.1852006448476992,-0.1844362341148062,-0.2909836546169313,61.80177,26.93664,167.134,0.2545466,-0.4738954,0.8158042,5
11.62,-14.29324,1.144358,-11.37393,-0.1479785045868373,-0.1580689564390086,-0.2593638668243356,58.37771,26.77934,167.7576,0.2516041,-0.4501709,0.8324018,5
11.64,-14.2282,1.326719,-11.29858,-0.0980790471939347,-0.1245367253175526,-0.2202160079779278,61.38977,23.19784,165.4691,0.234741,-0.4741622,0.8225951,5
11.66,-14.16493,1.50671,-11.22333,-0.0466243034899871,-0.0916481999144676,-0.17934273595627,64.31606,18.96358,162.5094,0.2176597,-0.4976771,0.8119783,5
11.68,-14.03563,1.195556,-11.16557,-0.0035594250432666,-0.0565325454592455,-0.1508618394371599,48.31249,32.04827,173.0994,0.275085,-0.3774549,0.8685928,5
11.7,-13.97264,1.372412,-11.0858,0.0417830066870328,-0.0224820978388093,-0.1206925888456302,51.4108,29.5325,171.8972,0.2587112,-0.4021458,0.8612906,5
11.72,-13.91174,1.5468,-11.00638,0.0880007481070785,-0.0371050575362655,-0.1028261016829226,54.46896,26.72199,170.3744,0.2420997,-0.4264378,0.8531525,5
11.74,-13.71303,1.250226,-10.96409,0.1210816252981579,-0.0064313638961974,-0.0866479620814222,26.23861,39.17261,175.9568,0.3338172,-0.202196,0.9142922,5
11.76,-13.64701,1.257883,-10.92205,0.1535536754728914,0.0235519266944276,-0.0710918316254387,20.01182,40.75791,176.5404,0.3476915,-0.1524487,0.9209049,5
11.78,-13.5748,1.427185,-10.8321,0.1833962942293296,0.0039119250871856,-0.0676855180929085,23.45853,39.02626,176.1584,0.333287,-0.1805418,0.920089,5
11.8,-13.5053,1.593288,-10.74277,0.2079702481981113,0.0511829236319301,-0.0512182646285586,26.89304,37.22091,175.6488,0.3185263,-0.2084367,0.9182496,5
11.82,-13.43641,1.272173,-10.78032,0.2279038250509257,0.0499395321311574,-0.0485231917517816,2.399961,45.05585,177.8959,0.3833403,-0.01230784,0.9231876,5
11.84,-13.36111,1.439263,-10.68824,0.2548527953619823,0.0248768675837199,-0.0483042130292441,5.939692,43.4609,177.7641,0.3706119,-0.04090557,0.9271377,5
11.86,-13.23077,1.285343,-10.64441,0.2717359201393245,0.0673687844224633,-0.0370108291791528,353.3221,47.90427,178.6874,0.4046479,0.05786594,0.9125446,5
11.88,-13.15468,1.449095,-10.54967,0.2846375498796758,0.0861418585031441,-0.0329136730043826,356.9057,46.31789,178.7364,0.3928422,0.02915748,0.9191434,5
11.9,-13.08897,1.293816,-10.54204,0.2952465663210026,0.1032236356128949,-0.0301082440034652,352.8263,48.37809,179.2433,0.4085602,0.05976808,0.9105611,5
11.92,-13.01406,1.455519,-10.44478,0.2939693625869115,0.0670722063066271,-0.048201483167485,356.4191,46.78661,179.376,0.3966848,0.03083657,0.917407,5
11.94,-12.92868,1.26998,-10.44068,0.2928648152389472,0.0733060480802982,-0.0592758610507324,354.0946,49.29324,179.968,0.4164538,0.0469344,0.9076964,5
11.96,-12.87245,1.261982,-10.40854,0.2900112620938027,0.078998000199551,-0.0726860287951172,355.7705,49.34578,180.499,0.417295,0.03171481,0.9080116,5
11.98,-12.7965,1.425811,-10.31496,0.2786277661770739,0.0341028830464903,-0.103025323061495,359.3599,47.76628,180.6208,0.4048881,0.002914035,0.9143334,5
12.0,-12.72367,1.586177,-10.22225,0.2648285291716974,0.0617337470180958,-0.1157399171651092,2.950633,46.19401,180.6433,0.39202,-0.0258837,0.9195796,5
12.02,-12.68689,1.240686,-10.29775,0.2447465345359014,0.0646607238105792,-0.1371974369604998,3.988274,50.08303,182.0038,0.4224027,-0.03891838,0.9055718,5
12.04,-12.60891,1.407238,-10.20557,0.223915894190297,0.0678851286896735,-0.1603196449551613,7.627391,48.52781,182.1458,0.4088229,-0.06830401,0.909996,5
12.06,-12.58462,1.232345,-10.2219,0.2011217301936412,0.1195669089179541,-0.1723969277833952,8.235077,49.62307,182.8129,0.4168259,-0.07542855,0.9058169,5
12.08,-12.50696,1.401626,-10.13109,0.1609265385728202,0.0940631707086108,-0.2096724176110753,11.85981,48.07838,182.9377,0.40263,-0.1047064,0.9091605,5
12.1,-12.43209,1.567483,-10.04088,0.1205134050549814,0.0688939637250905,-0.2488412133598934,15.4855,46.51948,182.9631,0.3879688,-0.1338512,0.9114193,5
12.12,-12.45354,1.199969,-10.15134,0.0770918165511818,0.0634871002517631,-0.2839796350547199,14.74203,49.90095,183.594,0.4144955,-0.1293821,0.9004351,5
12.14,-12.37523,1.377112,-10.06644,0.035667782828554,0.0874823707953802,-0.3115938468471265,18.3201,48.36694,183.6914,0.3995486,-0.1581726,0.9022383,5
12.16,-12.29922,1.551032,-9.981756,-0.0059007131130068,0.1109011580196196,-0.3400520320716951,21.89832,46.80555,183.6879,0.384151,-0.1867706,0.9029902,5
12.18,-12.32301,1.175922,-10.06466,-0.0538565025526152,0.1061581368014494,-0.3738173371573424,18.73444,48.47731,183.9973,0.3996415,-0.1624497,0.9014674,5
12.2,-12.24505,1.359026,-9.982525,-0.1004285914862523,0.1034458598341762,-0.4073860300632053,22.29505,46.93097,184.0279,0.3842098,-0.1909671,0.9021426,5
12.22,-12.2166,1.153223,-10.00163,-0.1587853321289227,0.0440977026883623,-0.4583366303202518,23.06614,46.44829,184.0057,0.3797102,-0.1971238,0.9026203,5
12.24,-12.1755,1.145651,-9.975496,-0.1988482179720707,0.0685734742803713,-0.4811737008348602,24.59338,45.49056,184.0046,0.3706715,-0.2094907,0.9034018,5
12.26,-12.09804,1.336904,-9.898071,-0.2363798055111954,0.0929872104284006,-0.5026972368263887,28.09853,43.86672,183.8437,0.354599,-0.2372106,0.9024062,5
12.28,-12.09518,1.13296,-9.92227,-0.2851998689852668,0.0315544639270229,-0.5408309327488171,28.00268,43.47083,183.8905,0.3514829,-0.2368107,0.9038283,5
12.3,-12.01875,1.327783,-9.847197,-0.3159303074488995,0.0560710450825676,-0.553919774442813,31.45394,41.77935,183.6039,0.3350886,-0.2639042,0.9018882,5
12.32,-12.01909,1.125029,-9.874845,-0.3487050693054494,0.0240108352637573,-0.5761457725994574,32.0498,41.8991,183.4833,0.3356579,-0.2681323,0.9001915,5
12.34,-11.9421,1.118904,-9.830503,-0.3770320662827153,-0.0068550200539298,-0.596779656576102,37.3545,41.50674,182.9542,0.3278545,-0.3080117,0.8884998,5
12.36,-11.86493,1.318068,-9.760382,-0.392555765311686,0.0480653724422028,-0.5973928798630219,40.72752,39.6073,182.3911,0.3107234,-0.3339553,0.8843256,5
12.38,-11.82603,1.115773,-9.765189,-0.4065710413966938,0.0466089778021674,-0.6010630118676731,41.82022,41.40644,182.2822,0.3235306,-0.3403661,0.8761581,5
12.4,-11.74864,1.316206,-9.69653,-0.4156384790942133,0.0469264987318733,-0.6014312206474478,45.16265,39.42493,181.6432,0.3062257,-0.3659198,0.8709933,5
12.42,-11.72124,1.114615,-9.701325,-0.4193779984773484,-0.0115000613427524,-0.6041003420427369,44.65778,41.60397,181.0763,0.3251601,-0.3582266,0.8659487,5
12.44,-11.62173,1.113061,-9.641417,-0.4097514217991422,0.0180988681961173,-0.5866751429837295,48.03568,41.34116,179.4852,0.3241394,-0.3793669,0.8539638,5
12.46,-11.54491,1.313898,-9.575059,-0.3952152734955811,0.0469873780922261,-0.5659152823888741,51.31533,39.21429,178.7116,0.3070477,-0.4044599,0.847443,5
12.48,-11.46967,1.107328,-9.536607,-0.370566924937155,0.047068319024697,-0.5361492686944205,53.2679,39.97298,177.6048,0.3142683,-0.4148124,0.8366671,5
12.5,-11.39433,1.306171,-9.470451,-0.341808299674286,0.0477699371305389,-0.5032361506835993,56.50703,37.60752,176.5886,0.2971388,-0.439459,0.8289375,5
12.52,-11.29633,1.102382,-9.411448,-0.2886254728536439,0.0538276815971619,-0.4515452654614512,59.62562,37.81125,173.9738,0.3054639,-0.4549199,0.8112453,5
12.54,-11.13292,1.109114,-9.295854,-0.2298097712092432,0.0346353320366779,-0.3967930952130247,62.62072,32.28091,167.8769,0.2888923,-0.4713188,0.800845,5
12.56,-11.06133,1.298172,-9.227945,-0.1826716417481138,0.0740463801660483,-0.3462424767588428,65.69225,28.55811,165.4405,0.272148,-0.4951344,0.7906612,5
12.58,-10.95153,1.128862,-9.160849,-0.1280707436800116,0.0644573690090794,-0.2948406469699306,60.94897,29.22372,166.6976,0.2727978,-0.4622662,0.8135487,5
12.6,-10.88194,1.313402,-9.090173,-0.0718527613449527,0.0527761074505987,-0.2414137446280637,63.95807,25.43073,164.1419,0.2561859,-0.4859262,0.8034481,5
12.62,-10.7827,1.161575,-9.041101,-0.0214566244154621,0.0738724814226638,-0.194002158466609,55.79316,30.48629,168.7413,0.2755234,-0.4264464,0.8365218,5
12.64,-10.63581,1.195347,-8.949215,0.0293878303326907,0.0979461949904787,-0.1526504759254238,48.33738,36.55575,173.1446,0.3088667,-0.3709645,0.8570862,5
12.66,-10.56683,1.371993,-8.873718,0.0819493656124359,0.1207061894936433,-0.1099767302813142,51.45624,34.15948,172.0015,0.2928822,-0.3954924,0.8501443,5
12.68,-10.45399,1.227144,-8.842389,0.1357486278915743,0.0945353435683871,-0.0773551356261321,38.03473,39.54167,174.6341,0.3338001,-0.291341,0.8835557,5
12.7,-10.37424,1.397503,-8.756937,0.1816238810365363,0.1375142846663816,-0.0411225732208422,41.54915,37.47004,173.7704,0.3181169,-0.3190845,0.8779441,5
12.72,-10.30649,1.25007,-8.766649,0.2245957148846668,0.1318045843416936,-0.018573728901818,26.27538,43.13847,175.9478,0.3652528,-0.1985863,0.9021134,5
12.74,-10.18462,1.263952,-8.710802,0.274920791138698,0.1007829659034356,0.000450074649287,13.9085,46.9067,177.1358,0.3977268,-0.1011652,0.9091465,5
12.76,-10.1036,1.432382,-8.626084,0.3066293447182125,0.1358428612990308,0.0247908169759458,17.40103,45.3192,176.8637,0.3844997,-0.1291192,0.9102544,5
12.78,-10.039,1.272094,-8.618757,0.3356333388354851,0.1463914137270878,0.0441580975646528,2.409762,49.28389,177.8915,0.4171353,-0.01143956,0.9084151,5
12.8,-9.956232,1.439075,-8.53272,0.3637990138267261,0.1553587302474329,0.0618990423901303,5.959375,47.76324,177.7597,0.4051529,-0.03961861,0.9125618,5
12.82,-9.899789,1.279229,-8.534294,0.3881462179360385,0.1153998664855577,0.0659465324618097,354.4831,51.20283,178.3745,0.4309483,0.04951834,0.9009813,5
12.84,-9.764648,1.291286,-8.456899,0.4173769401516,0.121727125710623,0.0830067894869297,352.2464,52.46853,179.0392,0.440507,0.06434245,0.895161,5
12.86,-9.681593,1.453396,-8.36586,0.4446622908739869,0.1259467116897805,0.0983788980570053,355.8577,50.94906,179.1642,0.4295795,0.03576126,0.9022763,5
12.88,-9.619519,1.296097,-8.35865,0.4526644272383813,0.1241640881390176,0.1020222287807018,353.4553,52.37389,179.476,0.4403431,0.05323785,0.8960018,5
12.9,-9.538383,1.457293,-8.26663,0.4581549270307763,0.1212601726189687,0.1028765086975515,357.0349,50.85693,179.6384,0.4291643,0.02472045,0.9028505,5
12.92,-9.527548,1.270201,-8.308542,0.454395698794975,0.1137593718250113,0.0954747654392653,354.0767,52.87496,179.9575,0.4446093,0.04642876,0.8942333,5
12.94,-9.431842,1.254665,-8.272289,0.4496279053965462,0.0811084809792161,0.0779787356535244,357.4312,53.63352,181.0854,0.4511946,0.01573091,0.892094,5
12.96,-9.34909,1.419149,-8.185259,0.4417085978746959,0.098612469784722,0.070845076742225,1.015345,52.13263,181.2254,0.4392837,-0.01265744,0.8982412,5
12.98,-9.316903,1.245868,-8.1969,0.4245423301913773,0.0920197317273628,0.0542289923753529,1.423414,53.63234,181.5337,0.4509059,-0.01712173,0.8923849,5
13.0,-9.232306,1.410877,-8.108956,0.4060265316669077,0.0852733618590805,0.0349523104810012,5.085936,52.14462,181.6797,0.4384411,-0.04628536,0.8975452,5
13.02,-9.212691,1.232302,-8.151251,0.3721885285062025,0.027067369500849,-0.0055309843933245,8.22933,54.37497,182.8148,0.4540208,-0.07499935,0.8877611,5
13.04,-9.127126,1.401456,-8.067212,0.3383923824438355,0.0161757490423994,-0.0337599979286122,11.86348,52.90524,182.9483,0.4405456,-0.1038915,0.891399,5
13.06,-9.044353,1.567154,-7.983593,0.3038924604927526,0.0061387712441055,-0.0645975849711637,15.49874,51.4229,182.9871,0.4265645,-0.1326527,0.8939835,5
13.08,-9.072278,1.208873,-8.061573,0.2624356576165676,-0.0067571543278914,-0.0980730255192191,13.439,53.88374,183.4889,0.4465901,-0.1179592,0.8865467,5
13.1,-8.987534,1.383682,-7.980101,0.2210603464703482,-0.018408238196987,-0.1338648654399483,17.0537,52.42918,183.6181,0.4324346,-0.1467468,0.8888548,5
13.12,-9.001769,1.183446,-8.033547,0.1638973062942585,-0.085160491720456,-0.1900143442941849,17.3857,53.11298,183.8548,0.4371472,-0.1499792,0.8859912,5
13.14,-8.917909,1.364582,-7.956408,0.1220585187889859,-0.0720622025083252,-0.2191695280021633,20.94659,51.64986,183.9231,0.4225136,-0.1781896,0.8873248,5
13.16,-8.836054,1.542567,-7.879198,0.080972616395198,-0.0596457120300372,-0.2495119939163809,24.50689,50.15429,183.8934,0.4074135,-0.2061892,0.8876486,5
13.18,-8.870704,1.160962,-7.954018,0.0216542633148726,-0.1313860166144663,-0.3015336856915063,21.57483,50.48899,184.0471,0.4127063,-0.1839783,0.8907768,5
13.2,-8.787589,1.348142,-7.87915,-0.0302856211076303,-0.1488918347291161,-0.3383012706453268,25.11807,48.9813,183.98,0.3975102,-0.2118131,0.8908488,5
13.22,-8.79887,1.139212,-7.924486,-0.0827026988805228,-0.1931560229697583,-0.3803727292760649,26.28988,48.60262,183.9335,0.3934028,-0.2208964,0.8902028,5
13.24,-8.716406,1.332171,-7.853477,-0.1249067600633535,-0.1781926654404012,-0.4080191882966241,29.77967,47.02642,183.7249,0.3777025,-0.2480319,0.8890418,5
13.26,-8.635213,1.522238,-7.78193,-0.1680964193776788,-0.1900378930528254,-0.4370552897365796,33.26092,45.37663,183.3939,0.3616022,-0.2748795,0.8869057,5
13.28,-8.652696,1.125043,-7.83318,-0.2076172026667491,-0.1999707848571404,-0.4655114990639792,32.06326,45.19554,183.4753,0.3614143,-0.2660467,0.8901303,5
13.3,-8.571552,1.322542,-7.764593,-0.242188726752352,-0.2088171269156755,-0.4888049389448099,35.48755,43.47975,183.04,0.3451402,-0.2923426,0.8873705,5
13.32,-8.532586,1.117309,-7.775379,-0.2705493563047566,-0.2444913399109325,-0.5135509863365314,39.58332,45.26252,182.6214,0.3548252,-0.3207292,0.871232,5
13.34,-8.450845,1.317092,-7.711057,-0.2831521887182203,-0.2203815924141955,-0.52207484489031,42.94046,43.40288,182.032,0.3380269,-0.3461237,0.8669134,5
13.36,-8.369921,1.514224,-7.645914,-0.2963791082120212,-0.2228356114882913,-0.5312028456401295,46.27976,41.38466,181.2506,0.3208906,-0.3711509,0.8616937,5
13.38,-8.338641,1.114673,-7.666274,-0.3050197783327201,-0.2239129910423524,-0.5381138182907982,44.66241,44.59808,181.0524,0.3477405,-0.3547536,0.8571154,5
13.4,-8.258033,1.315615,-7.602106,-0.3080559541376376,-0.2241768059161291,-0.5378907001480409,47.98781,42.66585,180.4084,0.3309992,-0.3799596,0.8515136,5
13.42,-8.174982,1.110073,-7.573826,-0.2961128705660198,-0.252479719531306,-0.5310591356380802,50.63248,44.84152,178.7005,0.3492362,-0.3913547,0.8337259,5
13.44,-8.094765,1.309854,-7.512465,-0.2729800814161839,-0.2215705315536834,-0.5112677450769889,53.89534,42.72147,177.8704,0.3324767,-0.4159393,0.8269746,5
13.46,-8.01532,1.507138,-7.450304,-0.2432687005122558,-0.2168273539806435,-0.4866812397103002,57.13479,40.33367,176.7476,0.3153994,-0.4401022,0.8194014,5
13.48,-7.890778,1.102358,-7.388906,-0.2105121717754478,-0.2121423941368576,-0.4596877433875175,59.63115,41.02819,173.9818,0.328077,-0.4490767,0.8023434,5
13.5,-7.813099,1.296496,-7.326742,-0.1704470179728121,-0.2020850775256989,-0.4268018283825421,62.82075,38.20494,172.4259,0.3112176,-0.4729436,0.793435,5
13.52,-7.610086,1.11805,-7.202947,-0.1144944315377132,-0.2152476118830754,-0.3861408333281565,61.80756,33.32705,167.1498,0.2995557,-0.4614059,0.8003548,5
13.54,-7.515015,1.128854,-7.13676,-0.0603889111912887,-0.171121047284867,-0.3424307703458532,60.94563,31.76908,166.6652,0.2909307,-0.4570772,0.8072376,5
13.56,-7.44166,1.313474,-7.06988,-0.0130291980926373,-0.1478300586200381,-0.3059065451078032,63.94556,28.01963,164.0777,0.2745416,-0.4803706,0.7973794,5
13.58,-7.328918,1.16163,-7.011137,0.034964162951059,-0.1252704073093881,-0.2683167785640455,55.78829,32.58662,168.6951,0.2909812,-0.4224443,0.8312653,5
13.6,-7.256464,1.341842,-6.941315,0.0812274906830168,-0.0986356761035443,-0.2357572556785819,58.80561,29.4087,166.6444,0.2748556,-0.4459307,0.8224491,5
13.62,-7.16701,1.195428,-6.911537,0.1274097858114301,-0.0954819691566071,-0.2094365303736201,48.336,38.24385,173.0919,0.3216293,-0.3681149,0.852363,5
13.64,-7.003671,1.2271,-6.839532,0.1713188970252246,-0.0452418304368504,-0.1785869954201262,38.06342,42.24089,174.6082,0.3545639,-0.2878279,0.8753327,5
13.66,-6.919203,1.397534,-6.758743,0.2113894153848752,-0.0197854050398842,-0.1585407927701801,41.57214,40.22882,173.7268,0.3392642,-0.3151436,0.8698969,5
13.68,-6.839712,1.250117,-6.754467,0.2487004129323651,-0.0188599807441713,-0.1456037546917313,26.27156,45.40933,175.9361,0.3830788,-0.196189,0.8946936,5
13.7,-6.7551,1.419103,-6.672647,0.280353387110408,0.0270381321682059,-0.1263446004782038,29.78589,43.71646,175.4078,0.3690723,-0.22393,0.8923771,5
13.72,-6.701072,1.263404,-6.686715,0.3050626322496432,0.0239541411591686,-0.1210961613281902,13.99289,48.75311,177.1132,0.4123232,-0.1005946,0.9025169,5
13.74,-6.578357,1.271881,-6.630602,0.3363607479549745,0.0431369790317635,-0.105996335126262,2.44954,52.11409,177.9045,0.4394433,-0.0111683,0.8978302,5
13.76,-6.490757,1.438615,-6.548351,0.3602896245662084,0.0839282717532683,-0.0879192281008998,6.018394,50.6655,177.7906,0.42812,-0.03920145,0.9019911,5
13.78,-6.422636,1.279169,-6.536889,0.3799880920143126,0.0766857484718147,-0.0800971454643175,354.5051,53.58336,178.3712,0.4495762,0.04918355,0.8918424,5
13.8,-6.33529,1.444154,-6.452947,0.4001349410224469,0.1150960286203323,-0.0621427463407963,358.0882,52.14577,178.3756,0.4391964,0.02121324,0.8981245,5
13.82,-6.27091,1.291266,-6.44969,0.4144037373195445,0.1031167543365364,-0.0592908002666978,352.2512,54.51472,179.0329,0.4564183,0.06392077,0.8871563,5
13.84,-6.146193,1.296047,-6.391695,0.4299092928436689,0.1368165351655625,-0.0453045895668288,353.4528,55.54991,179.4964,0.4650131,0.05256904,0.8834497,5
13.86,-6.059967,1.457185,-6.304198,0.4344107654923456,0.1899208073289302,-0.0321025221870484,357.0321,54.10138,179.6834,0.4545608,0.0243203,0.8903352,5
13.88,-6.036943,1.270183,-6.333254,0.4245629571249726,0.1664648102157962,-0.042148840668128,354.077,55.84511,179.9615,0.467637,0.0458073,0.8824096,5
13.9,-5.952179,1.433976,-6.249365,0.4148421683698953,0.1887667241022187,-0.0428622730336518,357.6042,54.4026,180.1323,0.4570394,0.01806562,0.8892002,5
13.92,-5.92498,1.254691,-6.29087,0.3940952802601715,0.1604335971573136,-0.0622038720993357,357.4255,56.45433,181.0835,0.4730153,0.01532114,0.8807173,5
13.94,-5.832716,1.245965,-6.257489,0.3817145478408259,0.1826617256811882,-0.0649557203852528,1.394781,57.69188,181.5747,0.4822284,-0.01728944,0.8758533,5
13.96,-5.742972,1.41107,-6.175338,0.3649267171159944,0.229420144469956,-0.0625413332869249,5.037137,56.27684,181.7678,0.470494,-0.04601285,0.881174,5
13.98,-5.725272,1.237903,-6.203704,0.3299373489044642,0.2008367554057487,-0.082559977641371,6.141796,57.74708,182.5393,0.4810267,-0.05758454,0.8747886,5
14.0,-5.634916,1.405395,-6.123477,0.2910331540017997,0.1964652921314937,-0.1006755515631411,9.781927,56.3474,182.7077,0.4685199,-0.08625221,0.8790163,5
14.02,-5.645215,1.226577,-6.16981,0.2465966620087903,0.1658198934968276,-0.1284044480678694,10.29351,58.0518,183.1242,0.4809309,-0.09158415,0.8717381,5
14.04,-5.589837,1.208975,-6.160019,0.2104949944176807,0.1867059904731721,-0.1396104595313896,13.40909,59.14278,183.5223,0.4867806,-0.1165572,0.8651565,5
14.06,-5.498973,1.383914,-6.086462,0.160085795302436,0.1545856819545996,-0.1659878273652716,16.99572,57.76835,183.6912,0.4733226,-0.1447083,0.867835,5
14.08,-5.507603,1.191169,-6.123112,0.1091691611490031,0.1231389393363052,-0.194476447386608,16.05019,58.92081,183.7589,0.4827572,-0.1374617,0.8639573,5
14.1,-5.417426,1.370242,-6.052001,0.0590111301545673,0.1145917676288422,-0.2159602217777702,19.61195,57.55213,183.913,0.4689817,-0.1653878,0.865998,5
14.12,-5.440789,1.168449,-6.104184,-0.0017038676444877,0.0804321064314249,-0.2483909925533066,20.1035,57.30326,184.0635,0.466396,-0.1698076,0.8665052,5
14.14,-5.351602,1.353574,-6.036795,-0.0467141957189995,0.1029669586602237,-0.2620372798833659,23.62276,55.90578,184.1053,0.45205,-0.1971278,0.8675122,5
14.16,-5.264089,1.535656,-5.969069,-0.1018107955274872,0.0690977190520819,-0.2882281772712255,27.14086,54.47127,184.052,0.4372209,-0.2242235,0.8675655,5
14.18,-5.311789,1.145609,-6.042157,-0.1630553920316864,0.0081674159703738,-0.3219374404876792,24.57399,54.59788,184.0455,0.4411737,-0.2048065,0.8711749,5
14.2,-5.290962,1.139172,-6.035889,-0.2044212938703203,0.0309774792439772,-0.3337208252510607,26.25881,54.09748,183.9753,0.4355778,-0.2175436,0.8703997,5
14.22,-5.226433,1.128861,-6.009482,-0.2565524566725062,-0.0023063910333984,-0.3570267168910638,30.00866,52.5972,183.6856,0.4202591,-0.2457376,0.8691731,5
14.24,-5.138607,1.324961,-5.949121,-0.2919604393896942,-0.0044031571349104,-0.3655053900867712,33.43727,51.02259,183.3651,0.4046825,-0.2716235,0.8676161,5
14.26,-5.118038,1.122001,-5.955012,-0.3231131794209907,-0.0047254773452286,-0.3729424679179198,34.67339,50.52905,183.1944,0.3997392,-0.2807339,0.8664722,5
14.28,-5.030737,1.320351,-5.896174,-0.3577271901367633,-0.0629707192309268,-0.3887799957598045,38.06319,48.83211,182.6992,0.3836631,-0.3060478,0.8637313,5
14.3,-5.012026,1.11734,-5.909271,-0.3731324923745862,-0.0340907704707725,-0.3858023079853205,39.57852,49.91793,182.61,0.3899559,-0.3159064,0.8561022,5
14.32,-4.913582,1.115146,-5.870964,-0.3926794826247429,-0.0623818050568129,-0.3898685049533954,43.24068,50.29748,181.6934,0.3900996,-0.3393294,0.8437444,5
14.34,-4.82698,1.315783,-5.814513,-0.3980337662255929,-0.0591560269964268,-0.3816921238087212,46.57272,48.46868,181.0847,0.3736038,-0.3640411,0.8390921,5
14.36,-4.777638,1.113897,-5.803854,-0.398279636786389,-0.0547788947657834,-0.3712366841756775,46.33558,49.21421,180.2991,0.3818792,-0.3586941,0.8362898,5
14.38,-4.692198,1.314791,-5.747395,-0.3947665219969123,-0.1098997930634954,-0.3624099053241786,49.63353,47.29841,179.6,0.3654328,-0.3831959,0.8308359,5
14.4,-4.638908,1.110161,-5.732783,-0.379118771270963,-0.0776972443677344,-0.3391531036303067,50.62704,48.13021,178.6572,0.37317,-0.3860617,0.8233104,5
14.42,-4.481523,1.103904,-5.648214,-0.3559159417618743,-0.103393270966396,-0.3148730376168643,56.44903,46.90488,176.1443,0.3650642,-0.4218174,0.8015249,5
14.44,-4.398433,1.300376,-5.592193,-0.315208465214686,-0.096260887225453,-0.277924494732874,59.67337,44.49197,174.9418,0.348402,-0.445557,0.7937868,5
14.46,-4.273551,1.104623,-5.527111,-0.2712308432634712,-0.0896206237130938,-0.2388451266875701,61.18076,41.845,171.1309,0.3432392,-0.4501507,0.7876098,5
14.48,-4.192915,1.29627,-5.469414,-0.2191360989975089,-0.1371141403406,-0.1985194968087708,64.3095,38.69003,169.1453,0.3266845,-0.4733831,0.7785589,5
14.5,-4.083069,1.118034,-5.414058,-0.1711458070328554,-0.0987167353516699,-0.1563757826086863,61.8042,36.8952,167.1675,0.3242601,-0.4537879,0.7906947,5
14.52,-3.910054,1.144197,-5.315239,-0.1073001878821463,-0.1075810278917183,-0.1138843372334218,58.40221,36.45766,167.7529,0.3209318,-0.4316204,0.808095,5
14.54,-3.832316,1.326575,-5.252381,-0.0605343300628001,-0.063982779717385,-0.0794172348978479,61.41441,33.11747,165.494,0.3048739,-0.4546205,0.7991629,5
14.56,-3.718108,1.178121,-5.199452,-0.0161029850408153,0.0033770626631992,-0.045280023603904,52.11197,39.2143,171.1129,0.3326158,-0.3891794,0.8323104,5
14.58,-3.641132,1.356613,-5.133406,0.0363479252306704,-0.0009115310733863,-0.0191200956179654,55.17924,36.57887,169.5574,0.3169959,-0.4126041,0.8247973,5
14.6,-3.540228,1.211229,-5.108108,0.0813522405616727,0.0191824915784503,0.00149247080715,43.2159,43.37277,173.8492,0.3614215,-0.323264,0.8553751,5
14.62,-3.466416,1.227059,-5.086817,0.1349579666471186,0.0160775477316937,0.0187436769671638,38.07899,45.57948,174.6007,0.3799193,-0.2831727,0.8645785,5
14.64,-3.376857,1.397499,-5.011505,0.187583505161555,0.0583097794357349,0.041349536410897,41.58741,43.63623,173.719,0.3649871,-0.3100445,0.8593671,5
14.66,-3.245225,1.25734,-4.996489,0.2243880147735571,0.0728079699172623,0.0539219122664109,20.10947,50.9752,176.5234,0.4282925,-0.1446722,0.8861267,5
14.68,-3.180548,1.264001,-4.97098,0.2601865527826806,0.0858615509749684,0.0640603011481226,13.93528,52.62719,177.1238,0.4426007,-0.09766154,0.8881317,5
14.7,-3.090602,1.432511,-4.895877,0.2895429326148291,0.0959708263228345,0.0724200938378356,17.42036,51.17964,176.8518,0.430535,-0.1248023,0.8893746,5
14.72,-3.041379,1.272083,-4.905442,0.311699271825553,0.0814190630082958,0.0704020900671498,2.427089,55.42178,177.8981,0.4651718,-0.01021942,0.8847774,5
14.74,-2.910154,1.279188,-4.847218,0.3374434278442257,0.1122283060399667,0.0800599261534371,354.5058,57.66127,178.3844,0.4810282,0.04877337,0.8752812,5
14.76,-2.817022,1.4442,-4.769831,0.36099423501573,0.1191624378883318,0.0847658634233407,358.0831,56.28995,178.4063,0.4713874,0.02130751,0.8816581,5
14.78,-2.740806,1.2913,-4.752033,0.3821188199299508,0.1237986331754797,0.0871593415489854,352.249,57.94607,179.0266,0.4827707,0.06323302,0.8730941,5
14.8,-2.648217,1.453425,-4.670563,0.4029693979340518,0.171715118341986,0.0970488264997664,355.8598,56.56622,179.1489,0.4732702,0.03532603,0.8801455,5
14.82,-2.580438,1.283337,-4.683427,0.4108559961044228,0.1423177262898161,0.0839831692772689,353.7485,58.83936,179.7092,0.4903501,0.04874076,0.8698145,5
14.84,-2.48999,1.446008,-4.603852,0.4195867770391567,0.1576704938909627,0.0795860173690392,357.2855,57.46214,179.8726,0.480541,0.0213049,0.8766519,5
14.86,-2.402609,1.605208,-4.524775,0.4195651763131068,0.1935511916123631,0.0755490546493464,0.823767,56.09779,179.9507,0.4702155,-0.006141939,0.8825225,5
14.88,-2.389469,1.25489,-4.58532,0.403818399588021,0.1545003167361827,0.0497240340833128,357.4084,58.49084,181.0757,0.4885904,0.0151458,0.8721699,5
14.9,-2.299139,1.419615,-4.50706,0.3857028474668388,0.1414896933437464,0.0279425244646177,0.9711765,57.12851,181.2158,0.4780211,-0.0125156,0.8782436,5
14.92,-2.267022,1.240748,-4.536033,0.3638004534141624,0.1031339863567125,-0.0027162415262104,3.965482,59.36299,182.0089,0.4942788,-0.03872932,0.8684385,5
14.94,-2.174209,1.407321,-4.458666,0.3487082784210953,0.1146132916544618,-0.0183973123745936,7.596513,58.02192,182.1733,0.4827261,-0.06709845,0.8730586,5
14.96,-2.084257,1.570385,-4.381656,0.3174329207488162,0.1005677644575381,-0.0426441800939234,11.22935,56.67865,182.2529,0.470631,-0.09538246,0.876673,5
14.98,-2.103176,1.226637,-4.443782,0.2840617820843933,0.0870004127766254,-0.0699154824383256,10.28659,58.72252,183.1101,0.4860403,-0.09135479,0.8689096,5
15.0,-2.079566,1.217956,-4.441475,0.2427947219054849,0.0703297706695806,-0.0990464104940167,11.83358,59.25742,183.2927,0.4889664,-0.1036964,0.8657239,5
15.02,-2.017137,1.200029,-4.420078,0.1952708127715547,0.0272068668315084,-0.1372895703325671,14.71949,59.71503,183.6239,0.4899837,-0.1266521,0.8617076,5
15.04,-1.925317,1.377144,-4.349782,0.1613103810898809,0.0361797142019108,-0.1598653731441565,18.28429,58.40492,183.7673,0.4768805,-0.1544489,0.8638954,5
15.06,-1.925695,1.183503,-4.372519,0.1313299618035073,0.0726185372960994,-0.1747040740330983,17.36456,58.70214,183.8726,0.4798203,-0.1478741,0.8636526,5
15.08,-1.834928,1.364694,-4.30404,0.0796830370339172,0.0272391782294098,-0.2091444000188694,20.90621,57.38566,183.9691,0.4663511,-0.1754071,0.8651472,5
15.1,-1.850795,1.168539,-4.337714,0.0425713441450208,0.0373363762987309,-0.2288452081636559,20.1009,57.38364,184.0331,0.4670513,-0.1696272,0.8661669,5
15.12,-1.838577,1.16104,-4.340516,0.0054956980669812,0.0467758543698964,-0.2495160090244453,21.53033,57.18619,184.0793,0.4640286,-0.1806337,0.8652232,5
15.14,-1.748351,1.348293,-4.275769,-0.0307752181640038,0.0270491661099804,-0.2686971221957369,25.03692,55.83315,184.0567,0.4499896,-0.2075874,0.8656743,5
15.16,-1.740612,1.139204,-4.29793,-0.0655868110474653,0.0093221601712344,-0.2879097470847322,26.26392,55.15897,183.9593,0.4436459,-0.2168333,0.8663088,5
15.18,-1.710234,1.132907,-4.285529,-0.0991257424249146,-0.0096463225422561,-0.3075923741138577,27.98954,54.34747,183.9306,0.4354957,-0.2302116,0.8664996,5
15.2,-1.621146,1.327586,-4.225045,-0.1115450870555638,0.0523319719748026,-0.3070348749316254,31.44255,52.89365,183.7012,0.4206483,-0.2563198,0.8653018,5
15.22,-1.629316,1.125029,-4.247723,-0.1319201146879807,0.0294885597923507,-0.315244793896113,32.03568,52.48894,183.4959,0.4172871,-0.2603414,0.8654144,5
15.24,-1.547295,1.118874,-4.212771,-0.1454771274498109,0.039038806507484,-0.3167978459174845,37.37603,51.76802,182.9548,0.4059647,-0.298837,0.8555694,5
15.26,-1.458449,1.318001,-4.157007,-0.1583315901999263,-0.008394760664196,-0.3242615385174803,40.75093,50.08856,182.4101,0.3901105,-0.3237118,0.8522067,5
15.28,-1.42385,1.115775,-4.164186,-0.1634652822413283,-0.0243284084550187,-0.3251577805688725,41.8098,51.51075,182.2863,0.399434,-0.3294052,0.8442966,5
15.3,-1.335252,1.316164,-4.109599,-0.1648897099216909,-0.0387384928386702,-0.3242132633301772,45.1543,49.75146,181.6676,0.3833044,-0.3539227,0.8399574,5
15.32,-1.311688,1.114614,-4.115077,-0.1476723688540738,-0.0522779999875589,-0.3126510647630968,44.64912,51.51351,181.0823,0.3987315,-0.3458945,0.8346627,5
15.34,-1.205576,1.113065,-4.068914,-0.1287069037142002,-0.0342818086208496,-0.2963283347745093,48.02453,51.01834,179.492,0.3950102,-0.3655155,0.8236262,5
15.36,-1.118334,1.313865,-4.015855,-0.1037943125344764,-0.0742085178537373,-0.2793508326553734,51.30625,49.11499,178.7393,0.3789498,-0.3896162,0.8178632,5
15.38,-1.040049,1.10734,-3.986862,-0.0706982247903622,-0.0547736244500622,-0.253848455033264,53.24898,49.57288,177.6185,0.3831562,-0.3989809,0.8075286,5
15.4,-0.9543363,1.306147,-3.933679,-0.0304929752711356,-0.0917832770715224,-0.2271487559371481,56.49104,47.43769,176.6304,0.3669379,-0.4226698,0.8005704,5
15.42,-0.8504614,1.102378,-3.888149,0.0167655483670535,-0.069710612409281,-0.192557219027889,59.60266,47.2874,173.9984,0.3713673,-0.4364323,0.7833879,5
15.44,-0.6712966,1.109135,-3.796112,0.0729313230124649,-0.0689186228162615,-0.1557572293773071,62.62595,41.54208,167.8626,0.3526541,-0.4511797,0.7748516,5
15.46,-0.5888793,1.298148,-3.740727,0.1297766881777537,-0.0685590777241161,-0.117651574865544,65.70132,38.04664,165.4495,0.3365667,-0.4740207,0.765422,5
15.48,-0.4721364,1.128861,-3.688176,0.185932779763484,-0.0606456649950649,-0.0817300116355516,60.94893,38.45428,166.6961,0.3373812,-0.4427645,0.7889567,5
15.5,-0.3911261,1.313369,-3.629928,0.2421790044367662,-0.0533419363640633,-0.0449925331761175,63.96209,34.88733,164.1629,0.321456,-0.465434,0.7796268,5
15.52,-0.2151593,1.17779,-3.578501,0.3097653883709788,-0.0382278610501925,-0.0079626089101378,52.15041,45.13759,171.2347,0.374738,-0.3783596,0.8141153,5
15.54,-0.1328541,1.356002,-3.518485,0.3628965512571023,-0.0002625615505101,0.0236693518587515,55.24677,42.68847,169.831,0.3594872,-0.4015763,0.8070399,5
15.56,-0.05238816,1.531714,-3.458387,0.4175764657939425,-0.0099393170901419,0.0468730109739392,58.30103,39.88841,168.0577,0.3439187,-0.4244171,0.7992257,5
15.58,0.07997704,1.227876,-3.44838,0.4666295789607597,0.0267805096326791,0.0714303739346739,37.97037,49.96821,174.6843,0.4126358,-0.2760437,0.8498242,5
15.6,0.1482074,1.239112,-3.429502,0.5147980306482903,0.0602340309414067,0.0949234437727773,32.15451,51.97596,175.308,0.4308818,-0.2314875,0.8580385,5
15.62,0.2892224,1.257435,-3.382993,0.5533053880162259,0.0684389525472163,0.1064726541763917,20.10269,55.40404,176.5525,0.4621794,-0.1406864,0.8689532,5
15.64,0.384418,1.426221,-3.314514,0.5962905500486908,0.0764882230939167,0.1195638781188845,23.5939,53.9635,176.2043,0.4499138,-0.1673822,0.868778,5
15.66,0.4551861,1.268175,-3.308425,0.6368061348287475,0.0833281617993812,0.1305554508912308,8.200337,57.66534,177.5031,0.4822695,-0.05214133,0.872831,5
15.68,0.5523468,1.435572,-3.238755,0.6678497644772478,0.1321466564986523,0.1478335340679061,11.75002,56.32299,177.3066,0.4714707,-0.07918289,0.8756126,5
15.7,0.6078315,1.275686,-3.240702,0.6943729628159128,0.1329972913336948,0.1564715626908654,358.4723,59.74391,178.1371,0.4977654,0.01965471,0.867057,5
15.72,0.6626242,1.279104,-3.225306,0.7176776463870553,0.132134162330904,0.1632117244568962,354.5266,61.13471,178.388,0.5073424,0.04825222,0.8603065,5
15.74,0.7608166,1.444024,-3.153887,0.7431437092908751,0.1755230865459983,0.1800602673066063,358.1105,59.82841,178.4179,0.49839,0.02117421,0.8666863,5
15.76,0.8912773,1.293736,-3.126388,0.7581003805667834,0.2376093159570605,0.1968761219645928,352.829,62.18142,179.2441,0.5150193,0.05695298,0.8548692,5
15.78,0.9892695,1.455323,-3.051609,0.7647366331954627,0.2020650473954252,0.1897771810310862,356.4275,60.86543,179.396,0.5061314,0.02954459,0.861877,5
15.8,1.084109,1.613263,-2.977193,0.7690567925951682,0.2116151686839666,0.1887707370685793,0.02752612,59.56282,179.4649,0.4966881,0.002110906,0.8679168,5
15.82,1.110457,1.261908,-3.040331,0.7665959554223458,0.1708266770706698,0.1725302852107123,355.7687,62.68084,180.4988,0.5198995,0.02926734,0.8534183,5
15.84,1.208047,1.425521,-2.968249,0.7582024401467585,0.1543395062233742,0.1609956696988957,359.3713,61.37685,180.6429,0.51038,0.001854745,0.8599132,5
15.86,1.30263,1.585599,-2.89646,0.7455675314023004,0.1373596155158555,0.1463005685497109,2.975229,60.08155,180.705,0.5002998,-0.02555196,0.8654412,5
15.88,1.311435,1.246061,-2.946333,0.7284192409393155,0.1170594483489385,0.1277962910231508,1.388243,62.47788,181.5258,0.5183863,-0.0172617,0.8549572,5
15.9,1.344535,1.240687,-2.938927,0.6995558985622305,0.0971309146046437,0.1063394147244356,3.970721,62.87438,181.9968,0.5206563,-0.03863683,0.8528858,5
15.92,1.427611,1.232339,-2.908504,0.6673810794943549,0.0772577537877043,0.0818267030306434,8.219793,63.18185,182.8224,0.520842,-0.07389827,0.8502866,5
15.94,1.525891,1.401499,-2.839452,0.63992834974221,0.105597797186677,0.0696695659577059,11.84744,61.91743,182.9771,0.5092018,-0.1017637,0.8540506,5
15.96,1.529212,1.217762,-2.859975,0.5905444742507046,0.0563951727551851,0.0339768740443071,11.86299,62.77594,183.2925,0.515294,-0.1030627,0.8502858,5
15.98,1.626441,1.390696,-2.792874,0.5284056198940938,-0.0184554333791005,-0.0127953284757825,15.46463,61.51866,183.4259,0.5031003,-0.130715,0.8531863,5
16.0,1.608698,1.200033,-2.829779,0.4800858130356071,-0.0180418230860335,-0.0426940330521301,14.7274,62.8378,183.6054,0.5132954,-0.1255846,0.8480238,5
16.02,1.670761,1.183485,-2.810834,0.4285585735857753,-0.0441855496231665,-0.0756719986670876,17.37075,62.67368,183.8695,0.5094569,-0.1462634,0.8465001,5
16.04,1.766692,1.364589,-2.748849,0.3800785869217614,-0.0398717549941314,-0.1034534351202807,20.92381,61.42089,183.9675,0.4965046,-0.1734074,0.8481699,5
16.06,1.860784,1.542518,-2.686592,0.3299654393140083,-0.036215646779083,-0.1333936415909605,24.477,60.14314,183.9827,0.4830232,-0.2003545,0.8489131,5
16.08,1.811228,1.161103,-2.749861,0.2915135913622037,0.0188985732380067,-0.1520038380189445,21.54144,60.11069,184.0428,0.4860014,-0.1790058,0.853066,5
16.1,1.905848,1.348357,-2.690567,0.2239996956602284,-0.0357936707722316,-0.1937869976313165,25.06215,58.80715,183.986,0.4723992,-0.2055731,0.8536204,5
16.12,1.999033,1.532566,-2.63082,0.172582911099402,-0.0331232601560708,-0.2222853922737613,28.57969,57.45983,183.8364,0.4583029,-0.2319124,0.853259,5
16.14,1.9794,1.132966,-2.680651,0.1242923512135866,-0.0571467473991415,-0.2501432038401855,28.00393,56.9678,183.8991,0.4552389,-0.2282861,0.8562673,5
16.16,2.072211,1.327667,-2.624746,0.0716081126703541,-0.1068858573466881,-0.2830733242651444,31.47052,55.56241,183.6409,0.4407811,-0.2540642,0.8551643,5
16.18,2.164067,1.519492,-2.568174,0.0329508793427781,-0.0963123463976495,-0.3042486864901239,34.92934,54.08263,183.2688,0.4258748,-0.279569,0.8531667,5
16.2,2.254807,1.708477,-2.511045,0.0053087168563838,-0.0561023112593551,-0.3183682099787417,38.37766,52.50771,182.7661,0.4105358,-0.3047743,0.8502774,5
16.22,2.206052,1.118911,-2.58016,-0.0340198201760881,-0.1014150865403112,-0.3445909639217615,37.3525,53.74706,182.9629,0.4206928,-0.2966141,0.8484961,5
16.24,2.297387,1.317962,-2.526827,-0.0555863431693524,-0.0868429286391978,-0.3584087841104122,40.74971,52.13806,182.4284,0.4052396,-0.3214001,0.8451183,5
16.26,2.370605,1.115123,-2.525705,-0.0723641167257093,-0.0421674946194967,-0.3679563733924738,43.25187,54.36366,181.7079,0.4197274,-0.3341361,0.8293623,5
16.28,2.422852,1.114576,-2.507006,-0.0892491846471362,-0.0838790335061109,-0.3843819271414606,44.64784,54.52643,181.1019,0.42048,-0.3417054,0.8239239,5
16.3,2.512855,1.315402,-2.456448,-0.0985472758788872,-0.0943790644343888,-0.3938491715243868,47.96849,52.84251,180.5274,0.4048681,-0.3658938,0.8190466,5
16.32,2.637412,1.11012,-2.417613,-0.1038656907283818,-0.1035538983084094,-0.4020527990259207,50.62946,53.21638,178.6855,0.4092364,-0.3776348,0.8059832,5
16.34,2.726574,1.30989,-2.368318,-0.0957057679360042,-0.0549181130565548,-0.4001261358170574,53.90155,51.2918,177.8528,0.3933914,-0.4012753,0.7997648,5
16.36,2.835096,1.103931,-2.327696,-0.0678486645723375,-0.0636836647116641,-0.3943012361540531,56.42916,51.33472,176.146,0.3957936,-0.413048,0.7868965,5
16.38,2.922554,1.300416,-2.27828,-0.0373118169041537,-0.0721578241778685,-0.3871440813894674,59.64968,49.05795,174.9519,0.3797429,-0.4361647,0.779396,5
16.4,3.03976,1.104562,-2.232692,-0.003014238677468,-0.0229672793381177,-0.3752058949894482,61.17346,47.08039,171.1793,0.378676,-0.4386754,0.7712545,5
16.42,3.125485,1.296166,-2.182169,0.0575095343840073,-0.0521256647654679,-0.3600882857984962,64.30794,44.1018,169.2475,0.3626657,-0.4613158,0.762519,5
16.44,3.33389,1.128772,-2.097928,0.1190875741822615,-0.0469641465862366,-0.343913828701166,60.95294,41.38195,166.6828,0.3574732,-0.4359616,0.7800316,5
16.46,3.418167,1.313338,-2.044339,0.167311391496015,-0.0142933428982146,-0.3322784017632724,63.9614,37.86544,164.1368,0.3417116,-0.4582109,0.7709494,5
16.48,3.537881,1.161474,-2.003412,0.2155663267068239,0.0166266336511266,-0.3202732714044422,55.80722,42.34819,168.7296,0.3605164,-0.4029372,0.8034917,5
16.5,3.621658,1.341627,-1.946882,0.2640173727303209,0.0274699238339413,-0.3161804365270103,58.833,39.42052,166.7439,0.345187,-0.4253784,0.795436,5
16.52,3.816608,1.211523,-1.893817,0.3129272286662135,0.0378063286623164,-0.3117527121869052,43.18398,49.73103,173.8995,0.4081957,-0.3126026,0.8342013,5
16.54,3.905198,1.385742,-1.832513,0.3476746186861825,0.0921747811843262,-0.306325607508996,46.43275,47.80727,172.9483,0.3938465,-0.3368094,0.828783,5
16.56,4.012432,1.239039,-1.825228,0.3915067918783628,0.0761827604231401,-0.3156966223831914,32.17437,52.82574,175.2655,0.4373031,-0.2303079,0.8547152,5
16.58,4.109422,1.408776,-1.759142,0.4304031947533566,0.035016053832436,-0.3314954065163227,35.67972,51.20441,174.6018,0.4238965,-0.2566012,0.8512672,5
16.6,4.203887,1.575178,-1.693126,0.4620246266966497,0.0619098106552911,-0.339982550453451,39.1677,49.4547,173.779,0.4100425,-0.282619,0.8468962,5
16.62,4.262645,1.263222,-1.743401,0.5002340392426896,0.0646218808057667,-0.351125749110845,14.04148,57.88729,177.116,0.4828601,-0.09484047,0.866771,5
16.64,4.392987,1.271799,-1.708136,0.5293568551279209,0.0892376028576984,-0.3601495912580567,2.48802,61.38449,177.9109,0.5105618,-0.009363517,0.8593738,5
16.66,4.493864,1.438436,-1.641938,0.5551531596355657,0.1111343574103665,-0.3706244682260559,6.062104,60.13182,177.8174,0.5010759,-0.03622597,0.8635776,5
16.68,4.591971,1.601558,-1.575825,0.5764694264963954,0.1089834957793713,-0.3862873438739915,9.632247,58.86368,177.644,0.4910527,-0.06304086,0.8668343,5
16.7,4.658615,1.285191,-1.603348,0.587474563015165,0.0829396833455865,-0.4098150597495287,353.3427,63.50898,178.6842,0.5247912,0.05540108,0.8491715,5
16.72,4.759821,1.4488,-1.534752,0.6016188467753385,0.1031652350555272,-0.4236943677717091,356.935,62.26107,178.7541,0.5165254,0.02850994,0.8557854,5
16.74,4.858054,1.60881,-1.466352,0.6135704876275849,0.0958806834136125,-0.4430684466359126,0.5269484,61.02052,178.7458,0.5077004,0.001595134,0.8614522,5
16.76,4.953126,1.765399,-1.398319,0.6224160470721507,0.0880036607598884,-0.4635740995370175,4.116853,59.77753,178.6595,0.4983266,-0.02531373,0.8661666,5
16.78,5.027579,1.276084,-1.475345,0.6225646100295172,0.1234920154491576,-0.4791444280176132,354.1097,65.50713,179.9733,0.540302,0.04333673,0.839901,5
16.8,5.127305,1.439391,-1.407306,0.6178498008843918,0.1550669367619617,-0.4970307201505461,357.672,64.25607,180.1691,0.5317281,0.01641824,0.8466701,5
16.82,5.214054,1.262367,-1.421362,0.5871122462608414,0.086807307058272,-0.5418904094661444,359.3928,66.25969,181.3312,0.5465453,-0.001911477,0.8373324,5
16.84,5.281923,1.26012,-1.394283,0.5642352708134202,0.0930616032188979,-0.5688251079702636,1.392872,66.29484,181.5629,0.5465651,-0.01763293,0.8372175,5
16.86,5.384586,1.425086,-1.32787,0.5243868352274157,0.049399150680096,-0.6085534387359565,5.047013,65.07247,181.7578,0.5366788,-0.04535635,0.8424982,5
16.88,5.484346,1.586447,-1.261609,0.4712956590052684,-0.0189596876023636,-0.6547059249240457,8.704038,63.85441,181.8748,0.5261922,-0.07302288,0.8468168,5
16.9,5.456271,1.252863,-1.332516,0.429696409045984,-0.013443030197044,-0.6848959135516983,8.227172,66.4632,182.834,0.544962,-0.07350154,0.8350245,5
16.92,5.559134,1.421751,-1.268841,0.3789792875622622,-0.035032971772585,-0.7123659121792052,11.8765,65.26366,183.0063,0.5338753,-0.1011655,0.8388094,5
16.94,5.659351,1.587104,-1.205179,0.3297461305800671,-0.02827879906805,-0.7349356547017203,15.52753,64.05794,183.1019,0.5221943,-0.1287068,0.8416405,5
16.96,5.633926,1.228193,-1.284477,0.2602493996391088,-0.0739694351505064,-0.7630727291573158,14.75702,67.56192,183.6408,0.5477461,-0.1242047,0.8261391,5
16.98,5.665038,1.221107,-1.280005,0.2043590513524078,-0.065631315644665,-0.778862808402253,16.06131,67.76509,183.7496,0.5479352,-0.1339768,0.8241489,5
17.0,5.766618,1.400014,-1.224217,0.1273567193944644,-0.1104764825999696,-0.8003957718813599,19.64282,66.58871,183.9072,0.5357204,-0.1609357,0.8263246,5
17.02,5.788405,1.203908,-1.245489,0.0597713768796168,-0.1281572990825335,-0.8076946922959646,20.12945,66.47508,184.0656,0.5341519,-0.1652222,0.8264135,5
17.04,5.888875,1.388797,-1.192994,-0.0010749747744092,-0.1136665596602174,-0.8078110782520972,23.68253,65.27395,184.1222,0.5212814,-0.1916726,0.8276315,5
17.06,5.987814,1.570548,-1.140027,-0.0604148637890293,-0.0985474267589205,-0.8072200257687834,27.23485,64.04194,184.0967,0.5078604,-0.2179084,0.8279559,5
17.08,6.085042,1.74925,-1.086713,-0.1427780257762945,-0.1687066782637406,-0.8138695534828397,30.78415,62.76577,183.9805,0.493904,-0.2438932,0.8273895,5
17.1,5.987134,1.183336,-1.182786,-0.2014713389968327,-0.1539426917851395,-0.8008864877605099,26.2771,63.44288,183.9476,0.5050634,-0.2108709,0.8319731,5
17.12,6.085604,1.376209,-1.134834,-0.2572218309792347,-0.1383268208319661,-0.7860000398724346,29.76678,62.14314,183.7722,0.4912822,-0.236298,0.8317021,5
17.14,6.117558,1.174214,-1.146574,-0.3238832689677102,-0.2095371670521982,-0.7746419123972141,32.04385,61.2753,183.513,0.4823025,-0.2523791,0.8309087,5
17.16,6.172159,1.172973,-1.131805,-0.3762694632696259,-0.220889921031195,-0.7490023528347513,34.64247,60.75746,183.1979,0.4754249,-0.270222,0.8274592,5
17.18,6.268797,1.371295,-1.089172,-0.4246528252780353,-0.2293067243905723,-0.7205624233957794,38.02669,59.25963,182.7185,0.4605725,-0.2941958,0.8254042,5
17.2,6.364834,1.566878,-1.045738,-0.4790620281629274,-0.2951058534468255,-0.6965606561510418,41.39827,57.6503,182.0976,0.4452722,-0.3178688,0.8225248,5
17.22,6.360534,1.172158,-1.087319,-0.529150379116833,-0.3603574218361042,-0.6702932266189428,41.80804,60.6284,182.3165,0.4651966,-0.3174862,0.8099252,5
17.24,6.456857,1.37245,-1.046427,-0.555123891231049,-0.3694929347306256,-0.6244354717180984,45.16394,59.02091,181.7392,0.4496923,-0.3410504,0.8063217,5
17.26,6.552713,1.570051,-1.004688,-0.5781839249900034,-0.4051685035153741,-0.5769329611473978,48.50515,57.26049,180.9833,0.433757,-0.3642717,0.8019243,5
17.28,6.622247,1.172615,-1.01892,-0.5938448315432729,-0.3798882870585482,-0.5187675243376446,48.0418,60.58495,179.532,0.4621624,-0.3496045,0.7878383,5
17.3,6.688543,1.169192,-1.003331,-0.5989762379163635,-0.3242986731856823,-0.4525203608365454,50.60933,60.60414,178.6989,0.4603059,-0.3638318,0.7780355,5
17.32,6.782968,1.368959,-0.9657962,-0.5970767772678549,-0.3553830335349091,-0.3823769232499,53.86918,58.75597,177.8859,0.4445614,-0.3865864,0.7726449,5
17.34,6.876935,1.566194,-0.9274516,-0.5957812687906929,-0.325794442094383,-0.3076620596992989,57.10877,56.66481,176.8097,0.4284096,-0.4089665,0.7665296,5
17.36,7.099764,1.159847,-0.8802427,-0.590252814688873,-0.2965156071292187,-0.2302554080086034,61.192,55.45194,171.2089,0.4338234,-0.4185236,0.7415556,5
17.38,7.192254,1.351331,-0.8420171,-0.5673477516526007,-0.2879561005217894,-0.1385379731686648,64.34522,52.57168,169.3217,0.4176463,-0.4404607,0.733687,5
17.4,7.283814,1.540385,-0.8031932,-0.5422440406533016,-0.3026130587932887,-0.046778431087616,67.44446,49.04971,166.7793,0.4010927,-0.4619795,0.7251421,5
17.42,7.542485,1.195822,-0.7497362,-0.51889821418033,-0.2598676491580909,0.0472721426415424,58.42533,50.31629,167.7465,0.4160776,-0.3996302,0.7633609,5
17.44,7.653144,1.212276,-0.7167475,-0.480164215966131,-0.2620154873571031,0.1483936542076018,55.8168,50.78766,168.741,0.4186134,-0.3836222,0.7747753,5
17.46,7.7446,1.392365,-0.6730283,-0.4578462574141471,-0.2122031133727016,0.2452178075890702,58.85067,47.93475,166.7744,0.4031575,-0.4051968,0.7676192,5
17.48,7.834439,1.569973,-0.6289557,-0.4306341298621756,-0.2087803660437139,0.337423098028392,61.82206,44.59012,164.3021,0.3873509,-0.4264004,0.7597753,5
17.5,7.962206,1.259823,-0.6441616,-0.4062950701709502,-0.1570082897212884,0.4320972122496926,43.18026,58.22355,173.9288,0.4687708,-0.2970726,0.8017553,5
17.52,8.058655,1.434056,-0.5963846,-0.3840376835813648,-0.1517850051998049,0.5155184004337849,46.42548,56.38655,173.0155,0.4545558,-0.3202907,0.7971641,5
17.54,8.153062,1.605492,-0.5483325,-0.3760889488735288,-0.1021062760761762,0.5992017399878969,49.64609,54.35242,171.8835,0.4399225,-0.3431988,0.79182,5
17.56,8.318933,1.302386,-0.6005014,-0.3649384062064793,-0.0991917377634061,0.6754917374928973,20.16603,66.16382,176.5588,0.5415694,-0.1304914,0.8217089,5
17.58,8.388617,1.308693,-0.5964277,-0.3561412036136,-0.0501084838069431,0.7582148731410694,13.97446,68.07355,177.1643,0.5578923,-0.08702972,0.8205877,5
17.6,8.495789,1.477057,-0.547859,-0.3537797739526527,-0.0486923261717601,0.8284611411117229,17.46518,66.82652,176.9483,0.5474719,-0.1121914,0.8225254,5
17.62,8.637429,1.318662,-0.5603184,-0.3520710970884049,-0.0485317530613378,0.896117119268816,358.4554,72.50536,178.1679,0.5910444,0.02032127,0.8063681,5
17.64,8.747983,1.484693,-0.5127589,-0.3403379158605324,-0.0254315813365673,0.9755625258240308,2.00932,71.31921,178.1546,0.5830328,-0.00485799,0.8120999,5
17.66,8.855806,1.647225,-0.4648626,-0.3381576721936918,-0.001898437788061,1.0517149520796163,5.561186,70.12854,178.0675,0.5744065,-0.03002476,0.8169582,5
17.68,8.931705,1.332052,-0.5059413,-0.3387132964026276,0.0207797791769829,1.1254043763789248,352.2425,74.41743,179.0185,0.6028516,0.05904093,0.794935,5
17.7,8.993066,1.334293,-0.5040219,-0.3421954056358258,0.0397773865619375,1.195681700756762,352.8018,75.15459,179.2807,0.6083041,0.05357041,0.791193,5
