t,pX,pY,pZ,aX,aY,aZ,reX,reY,reZ,rtX,rtY,rtZ,ID
0.84,-43.30596,1.101689,-35.82871,3.1625122560879,-0.0761956582867776,0.9853695106869242,14.57448,356.4071,163.5857,-0.01267867,-0.1299219,0.9818491,2
0.86,-43.30671,1.301524,-35.82822,3.2209313001625093,-0.0878041857871574,0.9668376974827416,14.59066,356.4128,163.6081,-0.01263526,-0.1300511,0.9818596,2
0.88,-43.29477,1.154984,-35.80838,3.2747485882305565,-0.0968584711700086,0.94495673554305,14.64251,0.07083979,163.6163,0.01876456,-0.1260449,0.9817156,2
0.9,-43.28241,1.153819,-35.77369,3.327052733836428,-0.0817513023720327,0.923541816495452,16.59218,1.490251,164.6422,0.03203147,-0.1412632,0.9803284,2
0.92,-43.21629,1.16344,-35.71513,3.3677852722530446,-0.0887225066883526,0.8950830317249103,17.82369,5.084674,165.8685,0.06252635,-0.1481963,0.9786149,2
0.94,-43.21593,1.361598,-35.70211,3.408687050037897,-0.0937208644053358,0.8644200485219615,18.21803,5.092562,165.894,0.06295389,-0.1515741,0.9780864,2
0.96,-43.13324,1.173041,-35.63124,3.4426425540977217,-0.0981525126529712,0.8316679303632526,16.83154,10.1366,167.7083,0.1024972,-0.1355891,0.9783169,2
0.98,-43.08088,1.178663,-35.58325,3.47487751631464,-0.078988500677815,0.799570612693163,15.23621,13.09819,168.7301,0.1254337,-0.1199679,0.9784628,2
1.0,-43.06664,1.369453,-35.53078,3.495220089406888,-0.0839158032881458,0.7631906965747515,16.87511,13.08094,168.6677,0.1265144,-0.1339399,0.9762868,2
1.02,-42.90228,1.200534,-35.45344,3.505160805637278,-0.0884120632796501,0.7241413316154093,7.067273,22.46915,171.8847,0.1982462,-0.04654216,0.9756696,2
1.04,-42.86894,1.380895,-35.36855,3.5183566117970013,-0.0912356515493859,0.6854215258826795,9.794333,22.4765,171.9348,0.1995853,-0.06986809,0.9736554,2
1.06,-42.73592,1.217862,-35.32203,3.530150394544761,-0.0712977858610471,0.6482650152573335,2.239775,28.29754,174.1864,0.2450404,-0.006533735,0.9679896,2
1.08,-42.64186,1.224702,-35.25954,3.530461938263389,-0.0750353308891085,0.6076565677763792,0.923763,30.97347,175.5061,0.2671059,0.002705848,0.9628358,2
1.1,-42.58387,1.389375,-35.1433,3.517394367942674,-0.0806922877041508,0.5643864335099735,4.769294,30.98842,175.8071,0.2681978,-0.03030482,0.961772,2
1.12,-42.36407,1.275469,-35.13063,3.503074019003093,-0.0632820223772183,0.5230221211792294,354.3928,37.97731,180.1472,0.3250506,0.04583342,0.9444301,2
1.14,-42.29396,1.428992,-35.00321,3.4682294057582386,-0.073092563711192,0.475659923794419,358.5597,37.93599,180.819,0.3250909,0.009562994,0.9455724,2
1.16,-42.22619,1.264633,-35.08854,3.4284211002560507,-0.0842452525951584,0.4270590865547801,355.4689,42.21601,180.6612,0.3600526,0.03480193,0.9320765,2
1.18,-42.161,1.25666,-35.08078,3.379030269968005,-0.0955404903428057,0.3774946895097084,357.2087,44.28016,181.2207,0.3769795,0.01854558,0.9258403,2
1.2,-42.09056,1.423683,-34.99133,3.3297803081357342,-0.0829111254931276,0.3302708494786399,0.5191144,44.27315,181.5738,0.3767187,-0.009370657,0.926215,2
1.22,-42.00385,1.242051,-35.07253,3.261181593895354,-0.0956425652276218,0.2789717529784852,3.836462,50.21098,182.1575,0.4234027,-0.03828885,0.9051278,2
1.24,-41.92278,1.410259,-34.98829,3.1860360236558405,-0.1093103992011974,0.2279299189264287,7.259685,50.248,182.5403,0.4223523,-0.06669898,0.9039486,2
1.26,-41.87476,1.233438,-35.03774,3.1012890426756323,-0.1234297343785764,0.1764853155854373,8.05687,54.05197,183.0237,0.451463,-0.0745174,0.8891327,2
1.28,-41.79017,1.404167,-34.95877,3.0179474726533577,-0.1122051906220875,0.1280722738244053,11.45224,54.12536,183.4568,0.4498091,-0.1024626,0.887032,2
1.3,-41.77583,1.218526,-35.02546,2.915168466597417,-0.1285199697299247,0.0760418229209198,11.66132,57.64165,183.5505,0.4765907,-0.1038192,0.8726977,2
1.32,-41.75323,1.209686,-35.04026,2.807260030408295,-0.1460538279701192,0.0247579121197665,13.20208,59.33862,183.7621,0.4881683,-0.1159705,0.8645394,2
1.34,-41.68951,1.191565,-35.04754,2.6932387579212067,-0.1633674274340068,-0.0260061037449617,15.82267,62.26678,184.0447,0.5076347,-0.1358141,0.8498024,2
1.36,-41.60062,1.37156,-34.98191,2.5823027088622403,-0.1534898114028437,-0.0737321530489447,19.11411,62.42843,184.5829,0.5049604,-0.1623142,0.8461317,2
1.38,-41.59826,1.17604,-35.02661,2.4551923910343314,-0.1717721293547986,-0.123493494688553,18.46407,64.14867,184.3799,0.5185632,-0.1558738,0.8390284,2
1.4,-41.57476,1.168372,-35.02938,2.332069221778528,-0.162109659681219,-0.169964530141601,19.8628,64.58772,184.4156,0.5202487,-0.1659568,0.8355836,2
1.42,-41.48527,1.353925,-34.97034,2.191888467837892,-0.1819750706083767,-0.2183968502439572,23.09718,64.771,184.916,0.5170366,-0.1914108,0.8312052,2
1.44,-41.51357,1.152638,-35.02197,2.056650467453044,-0.1728671248337879,-0.2632206138882047,22.81904,65.47601,184.4472,0.5232561,-0.1868394,0.8280596,2
1.46,-41.46768,1.138273,-35.01965,1.9262940169021832,-0.1368405585563719,-0.3043819758839108,26.04757,66.03409,184.4242,0.5231828,-0.2093128,0.8210703,2
1.48,-41.43504,1.131793,-35.01291,1.7793736244060234,-0.1581665822781057,-0.3481414135067009,27.79682,66.11299,184.4072,0.5213637,-0.2215313,0.8180316,2
1.5,-41.34464,1.325816,-34.96191,1.62894492676757,-0.1778856964510876,-0.3909115334655668,31.00079,66.29405,184.7759,0.5171214,-0.2455158,0.8122056,2
1.52,-41.36099,1.117823,-34.90012,1.4843937303572083,-0.1962207929533147,-0.4316900213657808,34.77017,66.21728,184.763,0.5104254,-0.2717239,0.805463,2
1.54,-41.26622,1.314074,-34.84635,1.3417946643398215,-0.2126931706593892,-0.4709029095306976,38.20514,66.02637,185.1712,0.5019264,-0.2973684,0.7996071,2
1.56,-41.22309,1.116676,-34.87411,1.206450627080562,-0.1987816881633385,-0.5065816061839099,39.65813,65.44657,182.8659,0.5012351,-0.2980062,0.7957482,2
1.58,-41.12384,1.315715,-34.83408,1.0683960132239545,-0.2129132221048533,-0.5410514380899905,43.0398,64.86035,182.6339,0.4916403,-0.3210008,0.7895213,2
1.6,-41.09955,1.114891,-34.84755,0.9307755107396628,-0.2249993107536952,-0.5732777815124788,43.28578,65.88671,181.7877,0.5005817,-0.3173648,0.783079,2
1.62,-40.98542,1.113693,-34.82142,0.806709152361961,-0.235472206187158,-0.6013954744925103,46.38874,65.91557,180.3672,0.4989886,-0.3320702,0.7719354,2
1.64,-40.90784,1.112969,-34.80209,0.6908301818263531,-0.2155553778110019,-0.6253459306460467,48.07247,65.49406,179.5028,0.4955074,-0.340432,0.7671735,2
1.66,-40.8083,1.313551,-34.77005,0.5847498030860176,-0.2242169162092738,-0.6455200851260425,51.36063,64.5806,178.8709,0.4850295,-0.3615713,0.7595354,2
1.68,-40.72908,1.107152,-34.75598,0.4868319778940222,-0.2308110857918524,-0.6614898708539059,53.33161,64.7184,177.6434,0.485993,-0.3691778,0.7497666,2
1.7,-40.6305,1.305673,-34.72469,0.397431119475768,-0.2077194281680658,-0.6729012215834844,56.58691,63.60783,176.8129,0.4750751,-0.3897608,0.7410897,2
1.72,-40.44682,1.104455,-34.68513,0.3282619849723636,-0.2091310135584721,-0.6781454992951268,61.23108,61.06159,171.2432,0.4694013,-0.4040107,0.7193725,2
1.74,-40.34956,1.29563,-34.65512,0.2673268731858567,-0.1820006534350815,-0.6783945798856577,64.39275,59.16647,169.5962,0.4580624,-0.4235776,0.7090319,2
1.76,-40.21526,1.118093,-34.62514,0.218998563770131,-0.1768667749415774,-0.6730593087800374,61.80629,56.3233,167.2811,0.4526215,-0.4051476,0.7249582,2
1.78,-40.12013,1.128931,-34.60113,0.1794177618863903,-0.1440075981615335,-0.662256869027174,60.94889,55.19264,166.7935,0.4482812,-0.4005649,0.7317226,2
1.8,-40.02273,1.313082,-34.56951,0.1487933799164755,-0.1316232347965855,-0.6461882301815765,64.00088,52.72179,164.491,0.4371754,-0.4196717,0.721163,2
1.82,-39.8504,1.178253,-34.5532,0.122975845278928,-0.1150315685197347,-0.6254150077993952,52.02825,61.71745,171.3917,0.4879137,-0.3408459,0.7524036,2
1.84,-39.75106,1.356125,-34.52169,0.1074970986606667,-0.0718736292820633,-0.598285177740415,55.15094,60.3127,170.1776,0.4779266,-0.3606724,0.7437112,2
1.86,-39.63836,1.211383,-34.51447,0.1101652529689456,-0.0473516730316118,-0.5679836030370007,43.07461,65.67025,174.0245,0.5197565,-0.281748,0.7701308,2
1.88,-39.54675,1.227561,-34.5059,0.1192669184181856,-0.0498987227394382,-0.5330579756941072,37.8889,67.28347,174.7578,0.5358021,-0.2460325,0.7783749,2
1.9,-39.43224,1.397427,-34.47142,0.1398977310711266,-0.0070940892206891,-0.4937909262021707,41.43294,66.43982,174.1037,0.5269732,-0.2691858,0.7714801,2
1.92,-39.38657,1.25023,-34.4896,0.1595730089929832,0.0132030853568492,-0.4557784964612112,26.11526,70.71171,176.0394,0.5697217,-0.1646744,0.7894937,2
1.94,-39.2598,1.263982,-34.47628,0.1850834429603853,0.0339489203629667,-0.4193647442921939,13.77026,73.98218,177.208,0.5995072,-0.08116991,0.7909765,2
1.96,-39.18051,1.268432,-34.46297,0.2250613073943901,0.0490893557371716,-0.3777577743433253,8.001594,75.30394,177.5629,0.6104118,-0.04226785,0.7887214,2
1.98,-39.0644,1.43586,-34.43109,0.2584381802044824,0.0674300811003993,-0.3414470176251827,11.52951,74.86446,177.4736,0.60636,-0.06640895,0.788519,2
2.0,-39.01828,1.275792,-34.43388,0.2919593535667824,0.0862158045899399,-0.3066716528814028,358.3402,77.4867,178.1799,0.625509,0.02123441,0.7799209,2
2.02,-38.96399,1.279187,-34.42712,0.3388458963044458,0.0998063880343492,-0.2725791648204305,354.3965,78.52468,178.4185,0.6315331,0.04656577,0.7736841,2
2.04,-38.81503,1.291358,-34.40043,0.3769060284170136,0.114575025920411,-0.2448402618610705,352.2217,79.32791,179.0746,0.6363714,0.05735356,0.7683531,2
2.06,-38.69534,1.453227,-34.36511,0.4151045024620341,0.1005827180659813,-0.2257434327035987,355.83,78.88216,179.2965,0.6346794,0.03199357,0.7718943,2
2.08,-38.64522,1.296082,-34.36488,0.4481143611292104,0.1326909121235373,-0.2078774599269524,353.4673,79.46929,179.5181,0.6380047,0.04650047,0.7679104,2
2.1,-38.6111,1.282985,-34.36082,0.4644087421377971,0.1365521407078466,-0.1988054213696033,353.7461,79.77118,179.7498,0.640209,0.04325479,0.7662587,2
2.12,-38.4948,1.445623,-34.32598,0.4849905544594852,0.1142599390719212,-0.2037231470085494,357.2679,79.32984,180.0044,0.6381159,0.01832721,0.7695711,2
2.14,-38.51354,1.26206,-34.34674,0.4872089507708654,0.1312073831881204,-0.2065048021015023,355.7736,80.10343,180.5647,0.6431726,0.02505702,0.7648173,2
2.16,-38.42916,1.250133,-34.3369,0.4775570858127604,0.0989680886989902,-0.227648511846576,359.463,80.58191,181.3529,0.6466596,-0.004060382,0.7626733,2
2.18,-38.3782,1.245782,-34.32632,0.4714255289106734,0.1134889274190701,-0.2329668520757923,1.451233,80.7778,181.5857,0.6477249,-0.01861018,0.7616435,2
2.2,-38.26131,1.411242,-34.29354,0.4500709799777604,0.1032010798164913,-0.2397363942498795,5.022638,80.56364,181.9162,0.6452776,-0.04422291,0.762508,2
2.22,-38.28125,1.237808,-34.306,0.4179353609332432,0.0672552115003615,-0.2589557439404348,6.184286,81.11748,182.6373,0.6481656,-0.05591284,0.75924,2
2.24,-38.21794,1.226372,-34.29042,0.3873520853012637,0.081454642694195,-0.2628808311950488,10.31743,81.31197,183.2398,0.6466893,-0.08652839,0.7569163,2
2.26,-38.17853,1.217515,-34.28042,0.3405976448657766,0.0414331983453046,-0.2797200742284103,11.83824,81.5634,183.4739,0.647031,-0.09774317,0.7548624,2
2.28,-38.06506,1.390453,-34.24739,0.2890490676779276,0.0258301482344667,-0.2881139755831121,15.34494,81.49232,183.9253,0.6430221,-0.1232429,0.7533703,2
2.3,-38.09844,1.199529,-34.26129,0.2397492402080105,0.0106122532011034,-0.3046758750626415,14.72439,81.89053,183.7917,0.6463774,-0.1182387,0.7514772,2
2.32,-38.03896,1.18299,-34.24707,0.1806786195537206,-0.0064986607458024,-0.3117257602339034,17.36538,81.74542,184.0596,0.6424322,-0.1369928,0.7505292,2
2.34,-37.98918,1.175522,-34.2355,0.1252365353681321,-0.0234375465532875,-0.3139751970565463,18.69722,81.39253,184.2054,0.6384367,-0.1466824,0.7514896,2
2.36,-37.87773,1.358301,-34.20734,0.0663282659003758,-0.0375829431317814,-0.312454605248627,22.19078,81.33308,184.5403,0.6331911,-0.1711864,0.7487203,2
2.38,-37.90228,1.160401,-34.21531,0.0106137087221842,-0.0506451467536278,-0.3165638554083578,21.54901,80.22985,184.2687,0.6272003,-0.1664402,0.7552363,2
2.4,-37.79226,1.347203,-34.18805,-0.029469751365692,-0.0099369739946044,-0.3102381982852504,25.02585,80.15334,184.5205,0.6214925,-0.1904434,0.7519284,2
2.42,-37.83106,1.138578,-34.19826,-0.0829548106083359,-0.0261233679338274,-0.3027892834908856,26.29318,77.97046,184.1468,0.6058343,-0.1988425,0.7616174,2
2.44,-37.72324,1.330978,-34.17167,-0.1321142099863381,-0.0406154464392218,-0.2998428534966439,29.74314,77.84605,184.2561,0.5993976,-0.2220843,0.7573998,2
2.46,-37.61602,1.520342,-34.14508,-0.1722683647507734,-0.0550482681622852,-0.2870808245810243,33.19212,77.72408,184.3587,0.5924169,-0.245108,0.7524972,2
2.48,-37.66084,1.124652,-34.16319,-0.2007662399523635,-0.0373120102989207,-0.2700874439179941,32.103,75.64161,183.593,0.5821508,-0.2367839,0.764078,2
2.5,-37.62289,1.121795,-34.15905,-0.2288223085518232,-0.046799266134727,-0.252168913629756,34.73075,75.24736,183.2425,0.5757264,-0.2527846,0.7607895,2
2.52,-37.52311,1.117162,-34.14959,-0.2504369214694204,-0.0834077567096567,-0.2382813575412319,39.63722,75.09051,182.6612,0.5668975,-0.2820583,0.7505077,2
2.54,-37.452,1.115613,-34.1446,-0.2505981983052896,-0.05994059363127,-0.229136148331567,41.87434,75.28864,182.3298,0.564561,-0.2944897,0.7438203,2
2.56,-37.34612,1.315712,-34.12742,-0.2533672704723555,-0.0937162684289043,-0.2258158888356209,45.22713,74.79345,181.8649,0.5555931,-0.3145599,0.7370748,2
2.58,-37.31148,1.114486,-34.1277,-0.243235599109906,-0.0688611246621006,-0.2145241260213941,44.69026,75.45743,181.1192,0.5630109,-0.3062078,0.7337647,2
2.6,-37.25974,1.113774,-34.12274,-0.235611986663029,-0.1020488241002337,-0.2067658350580874,46.37128,75.14722,180.3263,0.5596399,-0.3136392,0.7292387,2
2.62,-37.11935,1.109946,-34.10635,-0.2181859836400983,-0.1047754342255535,-0.1945845672454087,50.71048,74.47971,178.6957,0.5507038,-0.3346706,0.7164238,2
2.64,-37.01583,1.30944,-34.09063,-0.1977854324485148,-0.0768281257311394,-0.1822662665975505,53.98451,73.7651,178.0131,0.541012,-0.353709,0.7079062,2
2.66,-36.9022,1.103751,-34.07882,-0.153593094882388,-0.0763819333106412,-0.1681690810366065,56.53241,72.95351,176.1534,0.5360923,-0.3630081,0.6983673,2
2.68,-36.80095,1.102258,-34.06538,-0.1060477412608094,-0.102746828909282,-0.1563189385694743,59.70086,71.4404,173.9907,0.5268555,-0.3770041,0.6879642,2
2.7,-36.69888,1.296047,-34.05075,-0.0526255563810007,-0.0707028751135586,-0.1438512594772172,62.90786,70.10081,172.6619,0.5162424,-0.3949539,0.6777466,2
2.72,-36.5157,1.118127,-34.026,0.0212169378055611,-0.0892654742918094,-0.1319873200849546,61.79619,64.7169,167.2907,0.5044471,-0.3802756,0.6899626,2
2.74,-36.41441,1.30454,-34.01021,0.0858081405009212,-0.0746232285423909,-0.1238853868191283,64.86911,62.5664,165.0788,0.4940702,-0.3975722,0.6790276,2
2.76,-36.28434,1.144607,-33.99149,0.1511537695812448,-0.0610721364828703,-0.1185868603930693,58.33116,63.66414,167.8578,0.5017678,-0.3630065,0.7105359,2
2.78,-36.18212,1.326566,-33.97468,0.211166787730586,0.0031033542529554,-0.116171327577673,61.38508,61.73064,165.8226,0.4918544,-0.380351,0.7001759,2
2.8,-36.0808,1.178421,-33.96051,0.2715875031316246,0.0210707919161958,-0.1161794845897983,52.0256,66.81422,171.2422,0.5213168,-0.3272629,0.7295867,2
2.82,-36.01139,1.195717,-33.95171,0.3272438277589273,0.0151800784873435,-0.1209190890471516,48.25652,69.31062,173.1973,0.5379936,-0.3048761,0.7356072,2
2.84,-35.90744,1.372126,-33.93296,0.3730814906228499,0.0534436688098255,-0.1269620728429439,51.38965,68.37444,172.1979,0.5295638,-0.3233792,0.7271069,2
2.86,-35.75086,1.239243,-33.93789,0.4180422682539939,0.0445846982468635,-0.1384629665074292,32.0078,74.00108,175.3105,0.5870216,-0.1963327,0.7602463,2
2.88,-35.67751,1.250471,-33.93462,0.4532451397690238,0.0575593058732461,-0.1503241737589267,26.12673,75.56392,175.9781,0.6027042,-0.1575892,0.7645611,2
2.9,-35.55945,1.41941,-33.91488,0.48884404489079,0.0923491824051603,-0.1623503212623287,29.63218,75.2021,175.5719,0.5972596,-0.1796594,0.759337,2
2.92,-35.53068,1.263635,-33.91884,0.5222054030140288,0.0782653095404328,-0.1773954953970964,13.82514,78.36948,177.155,0.6293527,-0.07768907,0.7673537,2
2.94,-35.4037,1.271959,-33.90027,0.5583107248540253,0.0853934238081713,-0.1875821111460434,2.311927,80.84685,177.9332,0.6484708,-0.003663382,0.7607587,2
2.96,-35.28309,1.438501,-33.87946,0.5889127450788996,0.1137057645510974,-0.1973221902367852,5.878275,80.67471,177.9208,0.6470382,-0.02734924,0.7605164,2
2.98,-35.22636,1.279179,-33.8716,0.6131865816572999,0.1181870654510334,-0.2068259986987586,354.4161,82.41956,178.4126,0.6574652,0.04575639,0.7517821,2
3.0,-35.15515,1.285008,-33.85873,0.6330832503646588,0.1201482407804456,-0.2181016376846658,353.3266,82.72692,178.7789,0.6592103,0.0507107,0.7496278,2
3.02,-35.03291,1.448013,-33.83344,0.6451527934126595,0.1207793816501,-0.2277781750128538,356.9346,82.53727,179.0016,0.6591544,0.02584805,0.7514818,2
3.04,-34.90973,1.295936,-33.81917,0.6562383528537739,0.1168196106872818,-0.2360822918323135,353.4784,83.19103,179.5179,0.6626081,0.04532652,0.7467917,2
3.06,-34.85426,1.282965,-33.80945,0.6498640552297825,0.10970729717152,-0.2468241301509204,353.7492,83.38626,179.7531,0.6640624,0.04214304,0.7456838,2
3.08,-34.73497,1.445518,-33.78412,0.6379814038007341,0.1012130003117944,-0.2600966812781005,357.2736,83.19458,180.027,0.6637073,0.01763442,0.7476143,2
3.1,-34.73282,1.2621,-33.79281,0.6299767523932776,0.1358503501404401,-0.2709105859124383,355.7607,83.6419,180.5653,0.6664767,0.02427583,0.7445917,2
3.12,-34.62407,1.250132,-33.7797,0.6070717705758488,0.1207096621995707,-0.2806287736078783,359.457,84.03568,181.3579,0.6693493,-0.004411515,0.7428384,2
3.14,-34.50328,1.414642,-33.75616,0.5798067865103214,0.1047472021043317,-0.2928466207495193,3.072472,83.87183,181.6239,0.6677092,-0.02940779,0.7438047,2
3.16,-34.48409,1.240348,-33.7553,0.5674334575155049,0.1365186228500629,-0.2994985335135984,4.053232,84.27006,182.0595,0.669881,-0.03826937,0.7414088,2
3.18,-34.36251,1.406403,-33.73203,0.5303964868281232,0.1190333937160691,-0.3058676367288777,7.707413,84.12906,182.3363,0.6672962,-0.06351258,0.7414762,2
3.2,-34.3742,1.232068,-33.73763,0.4853924207447395,0.1014838743723582,-0.3119422633234929,8.273049,84.60497,182.871,0.6697442,-0.07015006,0.7386601,2
3.22,-34.35506,1.226303,-33.73584,0.4293942538234967,0.0572101980898231,-0.3202498148097001,10.35584,84.76315,183.1616,0.6692197,-0.08515811,0.7370561,2
3.24,-34.2353,1.396887,-33.71482,0.3903881824568076,0.0632644593126325,-0.324368576485921,13.96968,84.64903,183.4214,0.6653499,-0.1098204,0.7359733,2
3.26,-34.24368,1.199571,-33.72311,0.3376849746717081,0.0430186889903116,-0.3285659730959258,14.7703,85.52568,183.6773,0.6699584,-0.1159245,0.7305053,2
3.28,-34.21151,1.190877,-33.71906,0.2942530366748981,0.0507547350677915,-0.3318126232892391,16.08464,85.58615,183.7901,0.6689084,-0.1248519,0.7293407,2
3.3,-34.09509,1.369691,-33.70063,0.2279736931494516,0.0044606782492028,-0.3379619995061445,19.64729,85.49945,184.0562,0.6639917,-0.1488793,0.7272042,2
3.32,-34.13527,1.175643,-33.70727,0.1671563932583923,-0.0144438907913687,-0.3403940528199616,18.74379,84.83849,184.0821,0.660843,-0.143842,0.7318253,2
3.34,-34.08274,1.160637,-33.69826,0.1146481124474223,-0.0029213408207799,-0.3428629484816818,21.58469,83.49091,184.1386,0.6485745,-0.1632346,0.7369371,2
3.36,-34.04146,1.152926,-33.69054,0.0542928056431586,-0.0197976818529421,-0.3438593625148671,23.07302,82.80704,184.0913,0.6422293,-0.1730436,0.7391702,2
3.38,-33.9292,1.341825,-33.67356,-0.0160877329817967,-0.063093025150837,-0.346839039979991,26.57562,82.67004,184.1644,0.6360841,-0.1958201,0.7357915,2
3.4,-33.81777,1.527551,-33.65655,-0.0648701449180482,-0.0488727785402242,-0.3465786195918872,30.07681,82.53326,184.2291,0.6293456,-0.2183977,0.7317264,2
3.42,-33.89175,1.128754,-33.66427,-0.1307320140861398,-0.0909305462244759,-0.3477050857507775,30.0497,78.88354,183.6929,0.6068059,-0.2198681,0.7507888,2
3.44,-33.7827,1.324633,-33.64849,-0.1752508574610773,-0.102070587070364,-0.3446889506136035,33.48422,78.60015,183.4723,0.5995014,-0.2411894,0.7462248,2
3.46,-33.76273,1.12181,-33.64589,-0.2162883718350263,-0.1116451331314822,-0.3432085647109213,34.73882,77.46907,183.2365,0.5903661,-0.2496417,0.7494611,2
3.48,-33.65518,1.319798,-33.63021,-0.2662240221676186,-0.1792067727620367,-0.3450931352353805,38.12633,77.17545,182.91,0.5828347,-0.2701825,0.7437219,2
3.5,-33.6411,1.117028,-33.63381,-0.2901452206838804,-0.1601613373218622,-0.3419947522959861,39.64581,77.26468,182.715,0.5808862,-0.2787446,0.7396898,2
3.52,-33.52987,1.114967,-33.62698,-0.3080130345925846,-0.1684835444426312,-0.3377293066195337,43.32802,77.41898,181.757,0.5767137,-0.2969448,0.7286626,2
3.54,-33.42286,1.315122,-33.61181,-0.3201525458024457,-0.1453074879163621,-0.33229047461524,46.71127,76.99133,181.3663,0.5677128,-0.3170648,0.7214171,2
3.56,-33.37221,1.113631,-33.60966,-0.3226504575011191,-0.0931593317815009,-0.3250248582763415,46.38355,77.06984,180.4026,0.5715631,-0.3100595,0.7198759,2
3.58,-33.26732,1.314012,-33.59451,-0.3267536316677564,-0.1289899626172874,-0.3183876865637103,49.69312,76.70458,179.9809,0.5631147,-0.3294233,0.7115778,2
3.6,-33.21246,1.109686,-33.59113,-0.317991439629063,-0.1341524270647602,-0.3098109005584666,50.65137,76.67812,178.8537,0.5640243,-0.3298923,0.7062807,2
3.62,-33.15022,1.107027,-33.58709,-0.2825319490769029,-0.1363457572487211,-0.2993885762014985,53.33468,76.16455,177.7222,0.5580955,-0.3422445,0.6977562,2
3.64,-33.04528,1.305273,-33.57345,-0.248880239531358,-0.1082205026044655,-0.2894537114985995,56.6203,75.77683,177.051,0.5501242,-0.3602408,0.6870893,2
3.66,-32.82808,1.104319,-33.55449,-0.2077123012069837,-0.1340020381823526,-0.2792384549643509,61.2542,71.56596,171.2879,0.5330868,-0.3738734,0.673429,2
3.68,-32.72391,1.10954,-33.54969,-0.1664340200379381,-0.126414178825315,-0.2694101643112203,62.60446,68.14809,167.6487,0.5222291,-0.3763568,0.6723224,2
3.7,-32.62078,1.298562,-33.54292,-0.1229297295746483,-0.0898483603645436,-0.2606364731214006,65.66133,66.23135,165.2656,0.5135072,-0.3914808,0.6599993,2
3.72,-32.39289,1.144815,-33.52671,-0.0778181581662118,-0.102791384992534,-0.251603910527626,58.32995,66.51169,167.5197,0.5203136,-0.3530525,0.6968389,2
3.74,-32.27459,1.162681,-33.52261,-0.0343833672285698,-0.0835434556022211,-0.2451488009961497,55.66929,66.88844,168.29,0.5245614,-0.337861,0.707779,2
3.76,-32.16864,1.343054,-33.5206,0.0089708773906482,-0.0882268659478233,-0.2412728220218891,58.6559,64.91151,165.9389,0.5149361,-0.352929,0.6979516,2
3.78,-32.06392,1.520669,-33.5186,0.0491809746424851,-0.044085542049586,-0.2404314254893185,61.59142,62.4951,163.1541,0.5049028,-0.3677163,0.6875634,2
3.8,-31.95541,1.21271,-33.51907,0.0895202921264877,-0.0029593560443477,-0.2422105014551618,42.98256,74.3788,173.5872,0.5778702,-0.2599425,0.7277076,2
3.82,-31.87851,1.228488,-33.52766,0.1262426845256472,0.0150078090045394,-0.2452168612002028,37.84711,76.02334,174.2685,0.5945843,-0.2260721,0.7343849,2
3.84,-31.75705,1.399224,-33.5281,0.1680253562250877,0.0553974263214972,-0.2492474532942736,41.33104,75.38094,173.123,0.5877761,-0.2444547,0.7261346,2
3.86,-31.64162,1.258036,-33.54207,0.2015847075914099,0.0460630079282015,-0.2541387194054207,19.94807,81.46551,176.2447,0.6466249,-0.1101178,0.7422051,2
3.88,-31.57152,1.264649,-33.54587,0.2271681005966157,0.0797496126252226,-0.257814799749072,13.77672,83.11177,176.8533,0.660778,-0.07163271,0.7404431,2
3.9,-31.45056,1.433383,-33.54782,0.2560186078632043,0.1340607551329634,-0.2612278363696978,17.26491,83.09921,176.3901,0.658967,-0.09161843,0.736401,2
3.92,-31.32073,1.276225,-33.54322,0.2751978313252232,0.1153385314257258,-0.2614043528791443,358.3485,87.06812,178.0016,0.6884273,0.02245636,0.7249527,2
3.94,-31.22359,1.27931,-33.53751,0.3047554112979584,0.1418770478416168,-0.2586103204776391,354.4208,88.02555,178.3558,0.6934218,0.0449554,0.718744,2
3.96,-31.09988,1.444143,-33.5315,0.3297465097795262,0.1884924724337636,-0.2561109334743721,357.9999,88.11761,178.4371,0.6950547,0.02202414,0.7186158,2
3.98,-31.02695,1.291378,-33.52695,0.3394840392149931,0.1629464132875854,-0.2538683411397713,352.2216,88.86268,179.0683,0.698025,0.05411182,0.7128079,2
4.0,-30.90171,1.453215,-33.51694,0.3549239361458149,0.1825808674240332,-0.2494798874457293,355.8267,88.93394,179.3177,0.6998664,0.03015275,0.7133204,2
4.02,-30.87027,1.296062,-33.51842,0.3566639062593282,0.1722058309483692,-0.245997940735938,353.4659,89.27319,179.5331,0.7012949,0.0434103,0.7105783,2
4.04,-30.78688,1.269868,-33.51274,0.35475037881289,0.160646223588432,-0.2430567171447304,354.0791,89.75014,180.0112,0.7046254,0.03652993,0.7076977,2
4.06,-30.72106,1.261778,-33.51321,0.3480054781663462,0.1918179416740055,-0.2392448847907102,355.7963,89.91772,180.5609,0.7062422,0.02249557,0.7070031,2
4.08,-30.59842,1.42536,-33.50465,0.3259852687210407,0.17430249141396,-0.2367435452792339,359.373,90.00289,180.8372,0.7071235,-0.001297334,0.7070313,2
4.1,-30.47819,1.585247,-33.49639,0.3005977922235097,0.1560706838814066,-0.2350872785674784,2.948803,90.10534,181.1186,0.707311,-0.02508324,0.7063668,2
4.12,-30.50725,1.24057,-33.49424,0.2767432591402894,0.1375896579946932,-0.2304241303566261,4.024399,90.02579,182.0542,0.7062714,-0.03748892,0.7068434,2
4.14,-30.38405,1.406855,-33.48553,0.2424122695021897,0.120742114702385,-0.2255083597961382,7.653365,90.15183,182.344,0.7053528,-0.06156901,0.7054141,2
4.16,-30.26314,1.569413,-33.47712,0.2046145882491505,0.1041076292949634,-0.2215816413104399,11.28059,90.29778,182.6449,0.7037221,-0.0855796,0.7032736,2
4.18,-30.31636,1.22634,-33.47542,0.1570290467138253,0.0849167260812845,-0.2169582406494425,10.34144,90.31542,183.1668,0.7041395,-0.08303987,0.703786,2
4.2,-30.29486,1.217594,-33.47319,0.1063819920026203,0.066522287722541,-0.2135423022537814,11.87668,90.51495,183.3404,0.7040431,-0.09338643,0.7019892,2
4.22,-30.23017,1.199693,-33.46553,0.0479291769895442,0.0440586043753374,-0.207521465161526,14.75457,90.74371,183.6659,0.7025436,-0.112732,0.699254,2
4.24,-30.11133,1.376512,-33.45898,0.0026035913184556,0.049332258811026,-0.1995397298091896,18.31662,90.92561,183.9455,0.6994488,-0.135791,0.6959264,2
4.26,-30.12509,1.183215,-33.45425,-0.044636892581491,0.0539199015844408,-0.192506171513342,17.38266,90.47188,183.9421,0.6977842,-0.1304883,0.6993811,2
4.28,-30.00851,1.364167,-33.44793,-0.102760101247282,0.0310715780599118,-0.1839484196787371,20.89406,90.79026,184.2221,0.6949987,-0.1530349,0.6948599,2
4.3,-30.0409,1.168243,-33.44444,-0.1617022633104712,0.0102516586893343,-0.1746073128096252,20.15545,89.34807,184.0504,0.6873953,-0.148819,0.7040569,2
4.32,-30.03363,1.161012,-33.44266,-0.2269193455555225,-0.0374238905617668,-0.1659672849005362,21.56092,88.4379,184.0206,0.6799697,-0.1580026,0.7081741,2
4.34,-29.91905,1.348246,-33.43933,-0.2680596206339221,-0.0282780255183806,-0.1543642165411318,25.0662,88.467,184.0275,0.6750773,-0.1793159,0.7043166,2
4.36,-29.92824,1.139217,-33.42804,-0.3145152022286295,-0.0450512353065201,-0.1425645043026326,26.30852,86.00732,183.8884,0.6581204,-0.1888632,0.7169772,2
4.38,-29.89468,1.132878,-33.42317,-0.3579234650994634,-0.0588131315989496,-0.1304879616969314,28.0609,84.98498,183.8666,0.6489377,-0.2007722,0.7204857,2
4.4,-29.78254,1.327388,-33.41862,-0.3981006789944863,-0.0705695547855284,-0.1188596820785541,31.54345,84.86891,183.6842,0.6425597,-0.2213752,0.7157921,2
4.42,-29.80568,1.124758,-33.41059,-0.4414690598074635,-0.1399558767415399,-0.1088383552742344,32.11235,83.05608,183.5515,0.630402,-0.2266998,0.7247648,2
4.44,-29.71931,1.118623,-33.40199,-0.4598994051264382,-0.1504763307001288,-0.0972113102168075,37.42507,81.91585,183.0357,0.6142194,-0.2586409,0.7205914,2
4.46,-29.61062,1.3173,-33.39557,-0.4740885967468871,-0.1594167529833627,-0.0862509931685213,40.81764,81.73192,182.6911,0.6068591,-0.278041,0.7139342,2
4.48,-29.58672,1.115433,-33.40101,-0.4815353662668111,-0.1670368300110536,-0.0753955238409069,41.8749,82.181,182.4138,0.6080438,-0.2821935,0.7086992,2
4.5,-29.4789,1.31529,-33.39444,-0.4839419889964986,-0.1732542665176977,-0.0652160738570941,45.23962,82.02374,182.0673,0.6004036,-0.3011,0.7009696,2
4.52,-29.43051,1.113546,-33.39289,-0.4796045678186602,-0.1782729926050408,-0.0542582619136906,46.39351,82.19888,180.4504,0.6030535,-0.299196,0.693662,2
4.54,-29.32345,1.313823,-33.38623,-0.4646579675047437,-0.180968229290332,-0.0428499483239059,49.73148,82.02605,180.0721,0.5951953,-0.3176625,0.6847832,2
4.56,-29.21641,1.51124,-33.37963,-0.4451391515454657,-0.1827666754399157,-0.0322963946818415,53.07196,81.79501,179.6503,0.586765,-0.3359085,0.6753572,2
4.58,-29.15111,1.106843,-33.37768,-0.4099420964316436,-0.1836153715602415,-0.0209960353483609,53.38966,80.7415,177.8187,0.5851006,-0.3311839,0.6750011,2
4.6,-29.0585,1.103616,-33.37583,-0.3705165330871951,-0.1842253326420144,-0.0107992269753705,56.58367,79.69003,176.2034,0.5759217,-0.3450108,0.6656348,2
4.62,-28.85211,1.104731,-33.3699,-0.3081176604186528,-0.1797707332129111,-7.859294736523026e-05,61.22634,75.01753,170.9965,0.5541099,-0.3615828,0.6562563,2
4.64,-28.74768,1.296046,-33.36859,-0.2360638342479735,-0.1457775110466051,0.0109719087332944,64.40131,73.2612,169.0817,0.5432748,-0.3776682,0.6457359,2
4.66,-28.61158,1.118566,-33.36237,-0.1608431031514201,-0.1143183158980758,0.0208553793761998,61.7369,70.32124,167.0353,0.5384921,-0.3609684,0.6638912,2
4.68,-28.51266,1.130075,-33.36456,-0.0938193750790525,-0.1006082679943721,0.0280460773152055,60.80421,68.7003,166.1479,0.5334936,-0.3560754,0.6724502,2
4.7,-28.40907,1.315296,-33.37002,-0.0254593106317417,-0.0596650077631517,0.0348620804460706,63.70754,66.16679,163.1686,0.5233759,-0.3695732,0.661866,2
4.72,-28.30662,1.163522,-33.36528,0.0510161875748469,-0.0645615936239069,0.0371385953619567,55.55259,69.74197,168.1264,0.5426856,-0.3279708,0.6944538,2
4.74,-28.13898,1.197966,-33.36951,0.1108951294952671,-0.0214642297755857,0.0366001408882992,48.04883,75.03635,172.4234,0.5763752,-0.2854587,0.7064859,2
4.76,-28.03563,1.213154,-33.3828,0.1688768211538889,0.0432821861852573,0.0349784667277646,42.99151,76.56216,173.0544,0.5927945,-0.252197,0.715289,2
4.78,-27.92104,1.387926,-33.39681,0.2192262215993663,0.0370927712985948,0.0297806088494478,46.20335,75.16643,171.2508,0.5830871,-0.2672383,0.7085431,2
4.8,-27.80801,1.559414,-33.41035,0.2695512469630703,0.0281290943769335,0.0239643438991326,49.38197,73.52547,169.2191,0.5728169,-0.282083,0.7011721,2
4.82,-27.71941,1.259446,-33.41732,0.3063086962659511,0.0400960747128879,0.0175737896524053,19.84172,83.19208,176.0079,0.6580384,-0.1059891,0.7322306,2
4.84,-27.6018,1.429963,-33.42877,0.3484519291500838,0.0517490254162978,0.01228336540722,23.21796,82.75202,175.1656,0.6532688,-0.1235595,0.728774,2
4.86,-27.54025,1.270178,-33.4293,0.3877061241298047,0.0621834303930612,0.0071126781500368,7.959545,85.96532,177.0352,0.6812189,-0.03316119,0.7283278,2
4.88,-27.42111,1.439392,-33.43977,0.4163467834555638,0.0687216120810189,0.0043866177084579,11.39932,85.73392,176.4392,0.6788698,-0.05172377,0.7268607,2
4.9,-27.30398,1.605086,-33.44982,0.4496478262954237,0.0979688016771912,0.0025882908169325,14.83511,85.46484,175.8311,0.6759008,-0.07028966,0.7247157,2
4.92,-27.22942,1.286005,-33.42236,0.4694577073406303,0.0791750110474143,0.0018926581469029,353.2932,88.77554,178.5046,0.6977083,0.05091018,0.7138718,2
4.94,-27.10609,1.450122,-33.41964,0.4860710188716486,0.0833693863672989,0.0013290206866249,356.8628,88.64838,178.4628,0.6981302,0.02895036,0.7153221,2
4.96,-26.98516,1.610516,-33.41679,0.5024667966561509,0.1099256963101153,0.0008730607559703,0.4310898,88.51886,178.4159,0.6978742,0.006953473,0.7160776,2
4.98,-26.94162,1.296232,-33.41057,0.5138078005452136,0.1326522886152638,0.0004119749557718,353.4662,89.22107,179.4403,0.7009362,0.04399295,0.7109271,2
5.0,-26.81769,1.457348,-33.40001,0.5026720713240596,0.1244667310246668,-0.0005552654004405,357.0413,89.07324,179.6511,0.701072,0.02053689,0.7126166,2
5.02,-26.81478,1.261721,-33.40517,0.4740197183674572,0.0912130880418642,-0.0028451968493374,355.8064,89.50593,180.5309,0.7036929,0.0227234,0.7095465,2
5.04,-26.69222,1.42521,-33.39464,0.4548024402718447,0.1036618218929761,-0.0043963331165777,359.4006,89.366,180.7654,0.7031833,-0.0009775751,0.7109579,2
5.06,-26.57212,1.585006,-33.38416,0.42496765039653,0.093740133493411,-0.0051815644095958,2.99422,89.24078,180.9914,0.7019793,-0.02467036,0.7116653,2
5.08,-26.59297,1.245847,-33.39295,0.4000647977468641,0.1091516779316931,-0.0054216098304538,1.448005,89.98086,181.577,0.7067423,-0.01866366,0.7072244,2
5.1,-26.46975,1.410794,-33.38233,0.3512675513745531,0.074688404448433,-0.0054568603572056,5.087217,89.86668,181.8493,0.7049889,-0.04280002,0.7076453,2
5.12,-26.43135,1.231986,-33.37885,0.2917905614140053,0.0135381241148575,-0.0052744203542163,8.279306,90.1225,182.8685,0.7045181,-0.0686454,0.705566,2
5.14,-26.37236,1.226305,-33.37254,0.2510586235714047,0.0265389167697954,-0.0052361146961246,10.34852,90.05379,183.149,0.7025386,-0.08307554,0.7053822,2
5.16,-26.25074,1.396805,-33.36325,0.1872777563356256,-0.0127531746894946,-0.0051043782215112,13.97209,89.97758,183.401,0.6988583,-0.1068064,0.704237,2
5.18,-26.27682,1.208699,-33.36457,0.1205593966070113,-0.0517170285277628,-0.0061692251402689,13.45441,90.36768,183.5308,0.7016101,-0.10423,0.7022094,2
5.2,-26.15703,1.383349,-33.35608,0.0541744385794937,-0.0697597555588911,-0.0058732346616654,17.05144,90.30663,183.7892,0.6973217,-0.1276739,0.700513,2
5.22,-26.2074,1.183236,-33.34977,-0.0070937270720605,-0.0872089977989347,-0.004463749909684,17.40882,88.74031,183.8868,0.6871707,-0.1315605,0.7097863,2
5.24,-26.09067,1.364151,-33.3406,-0.0611661991393561,-0.0742595634780037,-0.0042186634364647,20.96264,88.67334,184.0749,0.6821518,-0.1544638,0.7073867,2
5.26,-25.97527,1.541696,-33.33141,-0.1351541264872486,-0.1159254857241409,-0.00337009771179,24.51563,88.61751,184.2632,0.6764766,-0.1772112,0.7043047,2
5.28,-26.05491,1.160725,-33.33445,-0.1900587885696754,-0.1015627636723809,-0.0033084853255527,21.5967,86.85698,184.0924,0.6699873,-0.1600859,0.7175172,2
5.3,-26.03564,1.153003,-33.3308,-0.2657261625601079,-0.1426022774181604,-0.002708207707843,23.0879,86.18177,184.0432,0.6637666,-0.169662,0.7198762,2
5.32,-25.97232,1.138981,-33.32239,-0.3243628586112077,-0.155138655156447,-0.0016069913612035,26.34781,84.57977,183.9584,0.6489601,-0.1911213,0.7251485,2
5.34,-25.85932,1.331575,-33.31348,-0.3728540606726045,-0.1647968807162976,-0.0005757800161632,29.87307,84.32272,183.8707,0.6417192,-0.212852,0.721646,2
5.36,-25.86143,1.128583,-33.30787,-0.4188874669829925,-0.172265161753425,-0.0002855228351004,30.05397,82.61842,183.7636,0.6308095,-0.2155866,0.7307005,2
5.38,-25.8232,1.124682,-33.30264,-0.4445043876128181,-0.1218638470360003,-0.0019198878707165,32.09132,81.73943,183.5947,0.6219843,-0.2286368,0.7320545,2
5.4,-25.71344,1.321634,-33.29239,-0.4751990264656327,-0.1275827784665505,-0.0040678610917792,35.53864,81.59847,183.3949,0.6151217,-0.2493571,0.72648,2
5.42,-25.64636,1.116999,-33.2891,-0.5134162151177106,-0.1599074572793798,-0.0075104286495166,39.65721,80.78523,182.7369,0.603258,-0.2728325,0.7215117,2
5.44,-25.57603,1.115497,-33.28853,-0.5274218272722955,-0.1324785855515433,-0.0124760965469787,41.88348,80.93737,182.3951,0.6003448,-0.2845193,0.7152015,2
5.46,-25.46818,1.315343,-33.27999,-0.5381702110770079,-0.1315455601816165,-0.0188625281655925,45.25611,80.77824,182.0361,0.5927945,-0.3036274,0.7073488,2
5.48,-25.43397,1.114479,-33.28042,-0.5438435591085988,-0.1291657480713354,-0.0261836115017661,44.75626,80.8521,181.1361,0.5967284,-0.2957492,0.7063285,2
5.5,-25.32564,1.314841,-33.27132,-0.5403645261681604,-0.1258682804033812,-0.0331013977978402,48.15298,80.54884,180.7567,0.5881409,-0.3151436,0.6983075,2
5.52,-25.30133,1.112861,-33.27131,-0.5216018337938815,-0.1504302321439578,-0.0418758549123214,48.11054,79.94823,179.565,0.5878289,-0.3101424,0.6987816,2
5.54,-25.15434,1.107062,-33.26321,-0.4897709970836978,-0.1157599263069776,-0.0510669005159893,53.3683,78.90168,177.6926,0.5746082,-0.3352584,0.6840456,2
5.56,-25.04888,1.305293,-33.25502,-0.4490691230699211,-0.1373327498943043,-0.0622979231042748,56.66646,78.3691,176.9985,0.5655736,-0.3531773,0.6741706,2
5.58,-24.92181,1.102065,-33.24832,-0.4047163345643536,-0.1602463621578744,-0.0749798315007392,59.71808,76.73303,174.102,0.5576648,-0.3621458,0.6631764,2
5.6,-24.81754,1.295519,-33.24081,-0.349429764788062,-0.1496697887952257,-0.0888023062667562,62.95967,75.91704,172.9905,0.5487527,-0.3788935,0.6515217,2
5.62,-24.6312,1.117761,-33.23332,-0.2760891902965601,-0.1319773007000421,-0.1044084174204282,61.84085,70.40368,167.4406,0.5374932,-0.3632655,0.6643916,2
5.64,-24.52688,1.303747,-33.22627,-0.2152928342475117,-0.0860689800849988,-0.1214463091022244,64.97957,68.73082,165.4051,0.5285856,-0.3793235,0.6521076,2
5.66,-24.4234,1.487036,-33.21938,-0.1517896112810137,-0.0884507626093385,-0.1402696217590184,68.08685,66.52921,162.8514,0.5192088,-0.3950984,0.6393178,2
5.68,-24.27887,1.162191,-33.21681,-0.0920921335378111,-0.0382423653846925,-0.1608836483244431,55.68651,70.52466,168.9354,0.5448715,-0.3303673,0.6926298,2
5.7,-24.17507,1.342093,-33.21196,-0.0314560896364777,0.0358499550980721,-0.1820831386332955,58.73027,69.4092,167.2918,0.5377598,-0.3457436,0.6811684,2
5.72,-24.02205,1.211175,-33.2343,0.0329170866874335,0.0401343689763518,-0.208954357736915,43.16096,79.0006,173.8391,0.605891,-0.2516122,0.703923,2
5.74,-23.90619,1.383953,-33.23575,0.0987775336686933,0.0914033415046742,-0.2378731119766799,46.55516,78.57833,172.9181,0.59947,-0.2693478,0.6941476,2
5.76,-23.79189,1.553359,-33.23725,0.1555972053560466,0.161114289584063,-0.2674696007517827,49.95028,78.00632,171.8864,0.5922956,-0.2869323,0.68388,2
5.78,-23.72731,1.25126,-33.25879,0.20027439980303,0.1828121777909322,-0.2967068048833932,26.041,84.24761,175.9686,0.6589633,-0.1440151,0.7168655,2
5.8,-23.61001,1.421072,-33.26093,0.243667362171791,0.2030082447420019,-0.3253256499203916,29.46273,84.24891,175.5746,0.6554933,-0.1634158,0.7101892,2
5.82,-23.58115,1.264664,-33.2657,0.2850997955350456,0.2187226176356048,-0.3531581576143212,13.73332,87.40897,177.1813,0.6879013,-0.06953258,0.7154788,2
5.84,-23.4535,1.273036,-33.26787,0.3264147691226324,0.2297987093395782,-0.3798117101769023,2.221362,90.10066,177.9518,0.7077264,-0.001045468,0.7059946,2
5.86,-23.33479,1.440877,-33.2693,0.3608788009055828,0.2165633983441714,-0.4042840437608985,5.660295,90.30889,177.9838,0.7086486,-0.02235501,0.7036131,2
5.88,-23.27263,1.279433,-33.26907,0.4007945149212597,0.2492449762963711,-0.4295752853350789,354.4007,91.96767,178.4322,0.7177539,0.04376355,0.6944476,2
5.9,-23.1498,1.444493,-33.26995,0.436987267834477,0.2779420138470712,-0.4540457023939392,357.9421,92.16245,178.5946,0.7200008,0.02128814,0.6936326,2
5.92,-23.0998,1.2914,-33.26825,0.4555825337002765,0.2339249843599988,-0.4728996777400542,352.2167,92.68904,179.0881,0.7214399,0.0525946,0.6890977,2
5.94,-22.96722,1.296059,-33.26682,0.4770826237435317,0.257797293492682,-0.4963865515559513,353.4574,92.95613,179.537,0.7237647,0.04222058,0.6876718,2
5.96,-22.84232,1.456981,-33.26435,0.4935000170533969,0.2779227149440219,-0.5208808802006724,357.0233,93.13408,179.863,0.7259125,0.01872506,0.6872956,2
5.98,-22.72001,1.614095,-33.26219,0.5040918712130802,0.2915878586714163,-0.5462655208920806,0.5869944,93.33187,180.1995,0.7273482,-0.004781581,0.6862475,2
6.0,-22.76993,1.262089,-33.26495,0.4961410367235683,0.2727468056055157,-0.5634470037462078,355.7483,93.66209,180.5914,0.7289588,0.02161612,0.6835325,2
6.02,-22.73785,1.254421,-33.2679,0.4711361730161578,0.2295198820850635,-0.578825499905383,357.4597,93.70387,181.1326,0.7295238,0.007948838,0.6835249,2
6.04,-22.61492,1.418548,-33.26833,0.4596197817996423,0.2379644815707106,-0.5944471608721829,1.042843,93.90434,181.418,0.7306212,-0.01525426,0.6826106,2
6.06,-22.57927,1.240379,-33.26139,0.4301392132402215,0.1960482850395785,-0.6054890334774541,4.03276,94.24882,182.071,0.7318268,-0.03717209,0.6803424,2
6.08,-22.45493,1.406406,-33.26207,0.396890538572602,0.1534379002146878,-0.6191974094550012,7.67889,94.48487,182.3869,0.7314792,-0.06070816,0.6782511,2
6.1,-22.47259,1.232081,-33.25595,0.3597506461139033,0.1324035666556892,-0.6249227444099557,8.266751,94.3912,182.8771,0.7303092,-0.06733256,0.6788443,2
6.12,-22.40275,1.217443,-33.24946,0.30420526918898,0.0864989388428211,-0.6281847550770401,11.89175,94.55167,183.3548,0.728306,-0.09164019,0.6767581,2
6.14,-22.28134,1.390025,-33.25141,0.2581485492965423,0.0917805374766981,-0.633184244460594,15.48942,94.82382,183.6461,0.7262517,-0.1143567,0.6733671,2
6.16,-22.29832,1.199661,-33.245,0.2009612114879071,0.069411817566443,-0.6319620548515301,14.75793,94.85711,183.6719,0.727177,-0.1102392,0.6735923,2
6.18,-22.17876,1.376363,-33.2474,0.1296846677855598,0.0219673052968254,-0.6291453599896295,18.32978,95.14317,183.9643,0.7245452,-0.1325987,0.6697237,2
6.2,-22.21593,1.183159,-33.23874,0.078201265304814,0.028639926385319,-0.6273648592667698,17.40097,94.45542,183.9326,0.7216595,-0.1275612,0.6746867,2
6.22,-22.15532,1.168174,-33.23092,0.0109375029491083,-0.0197377307693182,-0.6203243459635921,20.14676,93.21873,184.0931,0.7107373,-0.1456316,0.6804865,2
6.24,-22.03901,1.352924,-33.23313,-0.032261868958384,-0.011043886541948,-0.6153477752054375,23.67803,93.48801,184.2729,0.7070703,-0.1670649,0.6757864,2
6.26,-22.05587,1.152948,-33.22396,-0.0923784265879263,-0.057585243904413,-0.6063236994683399,23.07573,91.88261,184.0857,0.6987007,-0.1641004,0.6860336,2
6.28,-21.94109,1.341754,-33.22588,-0.1523261749321496,-0.1028851598754507,-0.5999335838719784,26.58669,92.12324,184.1782,0.6945103,-0.1849897,0.6808791,2
6.3,-21.9736,1.138984,-33.21684,-0.2012010170137461,-0.1222534136340091,-0.5874474094977877,26.30059,90.33322,183.9909,0.6845595,-0.1843511,0.6917605,2
6.32,-21.90144,1.128756,-33.21041,-0.2340278291067203,-0.1103384936440081,-0.5767939026851163,30.08029,88.45257,183.6863,0.6672716,-0.2075213,0.697507,2
6.34,-21.84333,1.124928,-33.20951,-0.2655066566011643,-0.1244934456897556,-0.563375748762355,32.12341,87.39864,183.4904,0.6575054,-0.2201537,0.7002527,2
6.36,-21.73165,1.321967,-33.21183,-0.2944385292287714,-0.1366961390030625,-0.5525897601120784,35.59935,87.25842,183.2149,0.6504943,-0.2396064,0.6948174,2
6.38,-21.62035,1.515921,-33.21429,-0.3161591319001271,-0.1475587967993964,-0.5406443756821613,39.07361,87.0721,182.909,0.642791,-0.2588288,0.6888309,2
6.4,-21.64785,1.117224,-33.2133,-0.3235820360980552,-0.1266984426029259,-0.5308853069711743,39.67416,86.23782,182.6405,0.637078,-0.2624501,0.6917853,2
6.42,-21.61888,1.115683,-33.21807,-0.3403167938113882,-0.1625555210577742,-0.5193894997662314,41.88762,86.269,182.3122,0.6331484,-0.2736816,0.6863296,2
6.44,-21.51024,1.31567,-33.22102,-0.3466720546944422,-0.1381666580138446,-0.5097141284598283,45.27728,85.92276,181.8685,0.6243194,-0.2919063,0.6796152,2
6.46,-21.43844,1.113655,-33.22256,-0.343344591736864,-0.1412066035560854,-0.499444815120726,46.40576,85.79962,180.3982,0.6246523,-0.2907864,0.6742216,2
6.48,-21.33045,1.313921,-33.22276,-0.336126524413292,-0.1429753402241567,-0.4917146054920893,49.75871,85.66618,180.0117,0.6167389,-0.3085848,0.6653099,2
6.5,-21.28037,1.109806,-33.22591,-0.3160153428211325,-0.1440269546374554,-0.4834698940991995,50.70845,85.28426,178.799,0.6154345,-0.3085602,0.661668,2
6.52,-21.1034,1.103591,-33.23304,-0.2923991468211668,-0.1442985803151565,-0.4779196774556125,56.51057,84.19295,176.282,0.6015877,-0.3319306,0.6429644,2
6.54,-20.99789,1.299392,-33.23554,-0.2358996333632883,-0.1414839329737797,-0.4753453703390082,59.76648,83.96159,175.5204,0.5939807,-0.3474232,0.6310157,2
6.56,-20.86061,1.104356,-33.24435,-0.1829223093601837,-0.108043978384373,-0.4752132594694398,61.23252,80.58011,171.291,0.5844012,-0.3450972,0.6295467,2
6.58,-20.75558,1.295241,-33.24936,-0.1249181188783472,-0.1266417658901371,-0.4757800651505821,64.43008,79.80716,169.8347,0.5768375,-0.3592619,0.6161796,2
6.6,-20.6406,1.1179,-33.25717,-0.0686222548544948,-0.0874663465206724,-0.4785466956114943,61.82578,76.53171,167.3513,0.5725365,-0.3423711,0.6344681,2
6.62,-20.44555,1.14409,-33.27014,-0.0110047132602648,-0.0972020699502398,-0.4812838585338967,58.39982,76.44857,167.9881,0.5772499,-0.3246422,0.6504157,2
6.64,-20.33904,1.325506,-33.2771,0.0446274650346714,-0.0743988258051509,-0.4868159542906287,61.52227,75.6945,166.2701,0.5717301,-0.3379584,0.6361769,2
6.66,-20.22401,1.178464,-33.29164,0.0998626261863968,-0.0522390444072515,-0.4946327296859945,52.01591,80.90112,171.3591,0.6065714,-0.2888052,0.66053,2
6.68,-20.11834,1.356536,-33.30191,0.1542542917949667,-0.0338468936273529,-0.5047074861622356,55.10963,80.91795,170.3094,0.6029714,-0.302126,0.6467988,2
6.7,-20.01406,1.531844,-33.3129,0.1988681766557474,-0.0138189074763671,-0.5159866343511794,58.20323,80.79034,169.155,0.5987136,-0.3152411,0.6326854,2
6.72,-19.88289,1.239666,-33.36421,0.2470734454978735,-0.0165500852200696,-0.5300708754423455,31.96697,90.55284,175.4492,0.6901971,-0.1664959,0.6681824,2
6.74,-19.76481,1.409604,-33.38254,0.2873747117752514,0.0240783315622163,-0.5425405027591488,35.42067,91.21465,175.1279,0.689127,-0.1836882,0.6565754,2
6.76,-19.64888,1.576061,-33.40151,0.3170067963429321,0.016044022163257,-0.5526906137154324,38.87638,91.88172,174.8428,0.6873872,-0.2006998,0.64434,2
6.78,-19.61605,1.263817,-33.42414,0.343862512754066,0.0056556136193769,-0.5643726442828179,13.82873,96.86093,177.2416,0.7444175,-0.06197976,0.6563444,2
6.8,-19.49635,1.431703,-33.44785,0.3744913274916226,0.0601870897824128,-0.5744475455479581,17.33277,97.69321,177.2217,0.7465389,-0.08108526,0.6476221,2
6.82,-19.37896,1.595946,-33.47212,0.3882721458932523,0.0419052394386136,-0.5778169004731373,20.8372,98.54095,177.2551,0.7479168,-0.1001104,0.6382653,2
6.84,-19.27057,1.279273,-33.48888,0.4117751820906421,0.0694145021581452,-0.5821506805102157,354.4102,102.6335,178.4687,0.7792077,0.04089211,0.6247241,2
6.86,-19.17721,1.284946,-33.50467,0.4299886053746946,0.1174161209665157,-0.587666555627135,353.3252,103.2542,178.8209,0.7822442,0.04419006,0.6201612,2
6.88,-19.05361,1.447857,-33.53167,0.4414632134294287,0.0942026958832873,-0.5874497629598636,356.9181,104.0605,179.1501,0.7879062,0.02238945,0.6151635,2
6.9,-18.93275,1.606877,-33.55918,0.4570063619761255,0.1167314737467966,-0.5885439797487653,0.5048473,104.8854,179.5292,0.792741,0.0005718027,0.6095291,2
6.92,-18.90777,1.295855,-33.5545,0.4585726685211249,0.0858135074498804,-0.5844320454256691,353.4662,104.6778,179.5687,0.7902154,0.03779311,0.6101623,2
6.94,-18.78441,1.456497,-33.58272,0.4590098590134195,0.0758357124973403,-0.5793429591326982,357.0392,105.4767,179.9655,0.7956088,0.01588198,0.6052597,2
6.96,-18.66392,1.613252,-33.6114,0.452729005913806,0.0887885311944025,-0.5759372707625943,0.6051941,106.2985,180.4113,0.800173,-0.00603963,0.5997353,2
6.98,-18.54654,1.766305,-33.64047,0.4263092797035968,0.0521820927664359,-0.5670532658572389,4.16331,107.1494,180.9094,0.8039043,-0.02794852,0.5935956,2
7.0,-18.59689,1.250372,-33.60297,0.3944354218437715,0.0143384407827315,-0.5602384124701185,359.4011,106.1765,181.4268,0.7995279,-0.006816687,0.6004773,2
7.02,-18.56193,1.245619,-33.60323,0.3718085058112357,0.0003499138889226,-0.5465700779039464,1.439663,106.1462,181.6373,0.79915,-0.01896763,0.6008307,2
7.04,-18.43962,1.410147,-33.63377,0.3579374984934234,0.0121698882621459,-0.5343471477297328,5.085227,106.9964,182.0335,0.802452,-0.04063434,0.5948019,2
7.06,-18.41532,1.231909,-33.61545,0.3220094787925387,-0.0270443014606537,-0.5155049782472148,8.267936,106.4487,182.9098,0.7975484,-0.06342848,0.5983995,2
7.08,-18.29425,1.400427,-33.64641,0.2946031953315007,-0.0155734987835847,-0.4998080861708178,11.90212,107.3406,183.286,0.799189,-0.08437142,0.591391,2
7.1,-18.3189,1.217309,-33.62342,0.2417013765945095,-0.0562048729432747,-0.4766519830104805,11.89666,106.8778,183.3896,0.7967221,-0.08533248,0.5946755,2
7.12,-18.30615,1.208656,-33.61773,0.2058371719558669,-0.0458932841601816,-0.4567692525900924,13.44114,106.7754,183.5737,0.7946103,-0.09461749,0.5949403,2
7.14,-18.18766,1.383045,-33.64805,0.1588921602074049,-0.0618648604725815,-0.4306040909568542,17.03196,107.6953,183.9402,0.7950736,-0.1147615,0.5871961,2
7.16,-18.19357,1.183012,-33.62038,0.1092798388952793,-0.0762217165179811,-0.406677884801101,17.41514,106.4243,183.9638,0.7880186,-0.1179846,0.5957907,2
7.18,-18.16061,1.175617,-33.6199,0.0581973328719653,-0.0913043395718341,-0.3775817992930745,18.74003,105.948,184.1037,0.7836952,-0.1261806,0.5984156,2
7.2,-18.04505,1.358131,-33.64838,0.0056798721024637,-0.1045303134827602,-0.3508545123439273,22.2883,106.8741,184.4032,0.7830529,-0.1453257,0.5900055,2
7.22,-18.03084,1.152828,-33.62339,-0.0386511817910695,-0.1193992422659877,-0.3195628232092931,23.09146,103.9623,184.1178,0.7669401,-0.1509276,0.608733,2
7.24,-17.91699,1.341379,-33.65015,-0.0747758239526215,-0.1025262972616067,-0.2922585936429875,26.61726,104.8527,184.2866,0.765496,-0.1691165,0.5998127,2
7.26,-17.92188,1.13892,-33.63153,-0.1260795845399931,-0.1412280556156263,-0.2605861148588655,26.29991,102.768,184.0221,0.7554069,-0.1685954,0.6135963,2
7.28,-17.81037,1.331357,-33.6581,-0.1574662089249139,-0.1213793951356446,-0.2333117435039229,29.77571,103.6075,184.0683,0.7533975,-0.1857325,0.6043897,2
7.3,-17.82471,1.128652,-33.63656,-0.188104543746403,-0.1016852780368971,-0.2088905409610761,30.0368,101.0285,183.747,0.7396353,-0.1890586,0.6203763,2
7.32,-17.71462,1.324211,-33.66251,-0.2173128337929997,-0.1101188464936871,-0.1796448876692844,33.47758,101.7955,183.6538,0.7369714,-0.2052478,0.6107999,2
7.34,-17.66394,1.118657,-33.65185,-0.2403420881747788,-0.1145568215875966,-0.1535496796333602,37.40344,98.91373,183.0364,0.714019,-0.2274209,0.6219392,2
7.36,-17.55515,1.31718,-33.67727,-0.2527659493501768,-0.087156665609692,-0.1311252907067333,40.80693,99.54739,182.7498,0.70999,-0.2422529,0.6115034,2
7.38,-17.53201,1.11553,-33.67994,-0.2728199513237705,-0.1163796326236992,-0.1076639845532838,41.85637,99.29693,182.3812,0.7068515,-0.246017,0.6102866,2
7.4,-17.42474,1.315335,-33.70605,-0.2901215875410941,-0.1450300217631271,-0.0873662120575806,45.22493,99.88223,182.051,0.7020041,-0.2600578,0.5992728,2
7.42,-17.40985,1.114417,-33.69987,-0.2816572416776339,-0.1449257800996709,-0.0691826067181544,44.68111,99.17678,181.1609,0.7017241,-0.2535377,0.6025165,2
7.44,-17.30339,1.314742,-33.72474,-0.2580835339356691,-0.1132996635759662,-0.0539313611481464,48.0193,99.76051,180.8466,0.6965792,-0.2673485,0.5909156,2
7.46,-17.1979,1.109916,-33.73621,-0.2299284657161182,-0.1392774352252049,-0.0406650051007648,50.68286,97.54413,178.7498,0.6827592,-0.2746514,0.5920903,2
7.48,-17.09296,1.309165,-33.76151,-0.1934141178221875,-0.1057996606630529,-0.0309836297673546,53.97804,97.92615,178.2099,0.6767123,-0.2874174,0.5796248,2
7.5,-16.99961,1.103693,-33.77517,-0.151587486843844,-0.1284105268895959,-0.0237151801925188,56.50077,96.12357,176.2267,0.6653216,-0.2945929,0.5768119,2
7.52,-16.89643,1.299592,-33.80168,-0.0987814506719901,-0.0919328487962583,-0.0199641651709647,59.75305,96.2252,175.3953,0.6583605,-0.3063868,0.5635715,2
7.54,-16.67186,1.10911,-33.84025,-0.0374909112811283,-0.0764744655792949,-0.0195936692406899,62.65903,88.24272,167.874,0.6307695,-0.3083632,0.5715318,2
7.56,-16.56986,1.297611,-33.86813,0.0248214358873293,-0.0612654858577927,-0.0227137319608869,65.78643,87.18839,165.8085,0.6231523,-0.3187824,0.5572187,2
7.58,-16.44662,1.128822,-33.88406,0.0858548439111788,-0.0383548868310135,-0.0265343244713296,60.95303,85.80283,166.8091,0.6254762,-0.301682,0.5874842,2
7.6,-16.34452,1.312823,-33.9119,0.1471208180242837,-0.0158578179065297,-0.0335294040477949,64.02379,84.71005,164.6705,0.6184188,-0.3120376,0.5733809,2
7.62,-16.24155,1.161666,-33.9236,0.2041493686805722,0.0122560795483197,-0.040146197366182,55.77274,86.80657,168.8431,0.6374941,-0.2791672,0.6078854,2
7.64,-16.07259,1.195507,-33.95473,0.247597459634723,0.0637967218764047,-0.0488355246084442,48.2915,91.92935,173.2213,0.6716752,-0.2450563,0.6157902,2
7.66,-15.96806,1.37172,-33.98329,0.2963680768449195,0.0700973736149062,-0.0622082379505783,51.43889,92.06403,172.3483,0.667082,-0.2573461,0.603242,2
7.68,-15.86517,1.545059,-34.01223,0.3436088871623697,0.1226703175740687,-0.0778906142979067,54.58634,92.12559,171.4223,0.6619355,-0.2694214,0.5902022,2
7.7,-15.77966,1.239144,-34.03869,0.3799842754150353,0.1273068415063031,-0.0925064362455749,32.03481,97.29974,175.3864,0.7282961,-0.1531048,0.6261587,2
7.72,-15.63902,1.257598,-34.07452,0.4190426249964125,0.1071164766674193,-0.1089574077276616,19.98393,100.37,176.6164,0.7594154,-0.08871891,0.6263895,2
7.74,-15.52285,1.426177,-34.10879,0.4532355477153007,0.1526488882181129,-0.1221336228363316,23.46812,101.1138,176.4671,0.7597408,-0.1058335,0.6168981,2
7.76,-15.4595,1.268117,-34.11831,0.4835384443670256,0.1951750873828625,-0.1365336313694412,8.115088,103.5725,177.5876,0.7844867,-0.02726289,0.6157393,2
7.78,-15.34124,1.435109,-34.15473,0.5002245744306157,0.1639327137737135,-0.1453448640061081,11.66445,104.3732,177.6058,0.7870523,-0.04586657,0.6081082,2
7.8,-15.22542,1.598368,-34.19142,0.5193091907734431,0.1781017186524994,-0.1509448280573293,15.21218,105.1862,177.6755,0.7888212,-0.06441906,0.5998704,2
7.82,-15.19879,1.279175,-34.17389,0.5353507121157379,0.1905425466016576,-0.1567034456095815,354.4402,106.7867,178.4401,0.8013359,0.03983254,0.596091,2
7.84,-15.07944,1.443834,-34.21136,0.5485577004330757,0.154418251419425,-0.1587446777167516,358.0069,107.5681,178.6496,0.8064968,0.01978098,0.5908653,2
7.86,-14.96268,1.604683,-34.24905,0.5592505272828425,0.1859192346131195,-0.1616061620376916,1.569419,108.3615,178.9076,0.8108309,-0.0002852278,0.5850426,2
7.88,-14.86099,1.295977,-34.23829,0.5687829928080645,0.2375196146968164,-0.1653031965041016,353.4663,107.5086,179.5169,0.8050293,0.03708743,0.5904767,2
7.9,-14.73964,1.456743,-34.27385,0.5496872371445418,0.2124560414919795,-0.1584779868557921,357.041,108.2729,179.8613,0.8101255,0.01610719,0.5856864,2
7.92,-14.68067,1.262076,-34.26543,0.5241772375437648,0.1608822932262331,-0.1481262432291537,355.7458,107.9497,180.5923,0.8083039,0.0176517,0.587572,2
7.94,-14.60724,1.254406,-34.28252,0.507793134541783,0.1768988114971364,-0.1418042700837753,357.4536,108.1876,181.1482,0.8098681,0.004916679,0.5861056,2
7.96,-14.48845,1.418429,-34.31843,0.4856370248702659,0.1905015797408361,-0.1346149437839034,1.03296,108.9735,181.4877,0.8138117,-0.01580255,0.580914,2
7.98,-14.46764,1.245661,-34.30341,0.4369909458134613,0.1291274067724238,-0.1159589830993521,1.437568,108.6846,181.6135,0.8122667,-0.01875163,0.5829813,2
8.0,-14.34693,1.410215,-34.33978,0.383960932360913,0.066120755307733,-0.0963426051279734,5.087095,109.4946,181.9841,0.8152438,-0.0397355,0.5771564,2
8.02,-14.30027,1.231926,-34.31904,0.3507581232164851,0.0984674399762018,-0.0854885374253751,8.267489,108.678,182.8961,0.8090461,-0.06248949,0.5827659,2
8.04,-14.18053,1.400447,-34.35483,0.3039312091715509,0.0787775077048458,-0.0652625493782288,11.90562,109.5284,183.2565,0.8103521,-0.08289327,0.5760068,2
8.06,-14.18343,1.21736,-34.33195,0.2427024745048029,0.0342962427022753,-0.0401413336587337,11.89397,109.007,183.3737,0.8076478,-0.08397168,0.5797608,2
8.08,-14.06551,1.389673,-34.36766,0.1922729394039231,0.0412790583167889,-0.021684753277734,15.50202,109.8757,183.7241,0.8081055,-0.1037895,0.5725023,2
8.1,-14.09503,1.199591,-34.33686,0.1381307971485597,0.0472388829114706,-0.0026746569511253,14.7641,109.0741,183.6872,0.804924,-0.1004912,0.5784362,2
8.12,-13.97869,1.376047,-34.37162,0.0727032940612879,0.0247459821936417,0.0219396288635476,18.34677,109.9572,184.0344,0.8047428,-0.1198906,0.5707868,2
8.14,-13.97266,1.17562,-34.33879,0.0216734921376173,0.031054030674103,0.0412252550275518,18.74934,107.8376,184.0876,0.7934608,-0.1243075,0.5853909,2
8.16,-13.85796,1.35811,-34.37147,-0.0306352928813937,0.0367342833367195,0.0604989082637787,22.30922,108.7186,184.3681,0.792459,-0.1430318,0.577269,2
8.18,-13.87741,1.160654,-34.34363,-0.0916308912990271,0.0141609349967448,0.0846438398900426,21.58764,106.3218,184.1375,0.7815967,-0.1405912,0.593989,2
8.2,-13.76415,1.347309,-34.37504,-0.1519830899398211,-0.0059151934613329,0.1085857003810284,25.12234,107.1744,184.3183,0.7800775,-0.1585992,0.585573,2
8.22,-13.7451,1.138936,-34.34637,-0.2108883977464604,-0.0237487157056199,0.1318993998263815,26.32022,103.7565,184.0053,0.7606605,-0.1672343,0.6070141,2
8.24,-13.63352,1.331329,-34.37546,-0.2655552598353154,-0.0408649330383747,0.1537781042587775,29.82112,104.5483,184.0316,0.7583041,-0.1842317,0.5980742,2
8.26,-13.62805,1.128664,-34.356,-0.3180622042190937,-0.0557148189121704,0.174675001201499,30.04216,102.0393,183.7413,0.7450777,-0.1874565,0.6138124,2
8.28,-13.51837,1.324224,-34.38406,-0.3511243207962835,-0.0134245701271555,0.1878999030749089,33.4897,102.7634,183.6393,0.7421041,-0.2034852,0.6045109,2
8.3,-13.40926,1.516605,-34.41271,-0.399817489570639,-0.05681400838566,0.2066734494758089,36.93712,103.5105,183.5874,0.7384223,-0.2193169,0.5946406,2
8.32,-13.44827,1.118679,-34.37585,-0.4376315793462633,-0.0687499387862393,0.2196689431999487,37.39637,99.82681,183.032,0.7189767,-0.2255381,0.616233,2
8.34,-13.35732,1.115577,-34.39396,-0.4709387853952707,-0.0787442721430464,0.2310242614844728,41.84834,99.49659,182.3633,0.7079719,-0.2454121,0.6090286,2
8.36,-13.25034,1.315426,-34.4209,-0.4955184192010395,-0.0868214191781384,0.238593648348913,45.21652,100.0274,182.0094,0.7028794,-0.2594,0.5982968,2
8.38,-13.21582,1.114427,-34.41808,-0.5155526896184017,-0.0932354482452361,0.2445409832308875,44.6792,99.48002,181.1572,0.7033293,-0.2527546,0.6006523,2
8.4,-13.10963,1.314768,-34.44363,-0.5186062201285191,-0.0418225992504565,0.2455365430952758,48.01727,100.0197,180.8345,0.6979475,-0.2665702,0.5893109,2
8.42,-12.98494,1.109921,-34.45832,-0.5255219158100408,-0.0777617617846434,0.2489131640241018,50.68292,97.85114,178.7472,0.6843492,-0.2737553,0.5902512,2
8.44,-12.88026,1.309181,-34.48424,-0.5014152299558601,-0.0827442062598167,0.2446990447252455,53.97779,98.1899,178.2006,0.6780687,-0.2865513,0.5780377,2
8.46,-12.76792,1.103694,-34.50187,-0.472985350103229,-0.0871240049192944,0.2385785149109702,56.49907,96.5083,176.2277,0.667257,-0.2933415,0.574583,2
8.48,-12.66502,1.299601,-34.52903,-0.4362857450770703,-0.0872919234530099,0.2298468750422451,59.75104,96.56856,175.3921,0.6600608,-0.3051767,0.5615916,2
8.5,-12.54521,1.10445,-34.54665,-0.3959920279555085,-0.0874310613816512,0.2194224825173432,61.21029,92.05266,171.2441,0.6445848,-0.3051811,0.5678931,2
8.52,-12.44347,1.2955,-34.5747,-0.3335695871677608,-0.0785177964400807,0.205204904563117,64.38956,91.44776,169.7005,0.6368361,-0.3160702,0.5541502,2
8.54,-12.22614,1.128853,-34.60628,-0.2668123031298419,-0.0935149216523153,0.1903665532237024,60.95144,85.60998,166.7616,0.6246159,-0.3021125,0.58837,2
8.56,-12.12406,1.312903,-34.63443,-0.216020910598256,-0.0533955970985004,0.1761381443748,64.0175,84.42399,164.5603,0.6173011,-0.3124988,0.5745286,2
8.58,-12.00259,1.161673,-34.64972,-0.1643275195001676,-0.0152759996733079,0.1611674499895077,55.77274,86.75646,168.8259,0.6372703,-0.2792385,0.6081066,2
8.6,-11.89955,1.341315,-34.67825,-0.114736580080719,0.0030264782044049,0.1458570825735492,58.85094,86.10482,167.1428,0.6310568,-0.2901689,0.5949084,2
8.62,-11.81557,1.195475,-34.68494,-0.0639828185252576,0.0205770946880985,0.1298444076339455,48.30227,91.98978,173.204,0.6720128,-0.2448415,0.6153557,2
8.64,-11.71123,1.371736,-34.7136,-0.0127618946624566,0.0841320952766797,0.1108824420484317,51.44613,92.07318,172.3143,0.6671896,-0.2571605,0.6030623,2
8.66,-11.55939,1.23909,-34.75515,0.0311696887300231,0.0994508038180096,0.0918461209405849,32.07728,96.69197,175.3282,0.7249762,-0.1542078,0.6298161,2
8.68,-11.44181,1.408332,-34.78913,0.0682546723568626,0.0907048570931238,0.0746379386717768,35.61113,97.20141,174.8742,0.7225164,-0.17008,0.6187394,2
8.7,-11.39661,1.257233,-34.79585,0.1059295901912986,0.0795157931267618,0.0570218929438484,20.03629,99.94408,176.589,0.7570513,-0.08939269,0.62911,2
8.72,-11.25838,1.26845,-34.82309,0.1480050306022602,0.0889744925660954,0.041554191404999,8.090621,102.5969,177.57,0.7792291,-0.02759299,0.6223986,2
8.74,-11.14078,1.435854,-34.85748,0.1845937625479664,0.1199245530775729,0.0268766979560233,11.60572,103.3567,177.5685,0.7816767,-0.04611826,0.6150759,2
8.76,-11.02554,1.599594,-34.89213,0.2182766643332783,0.1477518618221535,0.013059554676909,15.11955,104.1269,177.615,0.7833509,-0.06459322,0.6071534,2
8.78,-10.9777,1.279259,-34.88068,0.25608872800679,0.2181183065762806,-0.0033039694539338,354.4462,105.9633,178.4357,0.7970328,0.04005199,0.601836,2
8.8,-10.90524,1.284945,-34.8886,0.2792505451879308,0.1938229303796098,-0.0097244076142617,353.3328,106.0568,178.7987,0.7971715,0.04333139,0.6008554,2
8.82,-10.7832,1.447893,-34.9216,0.2998394057301599,0.1669654134457342,-0.0144949789032535,356.9287,106.7881,179.1027,0.8023178,0.02226344,0.596244,2
8.84,-10.6579,1.29588,-34.92946,0.3229550080956279,0.1580507548468069,-0.0193396675411454,353.4663,106.4768,179.5416,0.7996879,0.03730498,0.5976923,2
8.86,-10.5356,1.456561,-34.96165,0.334878446641643,0.1239425116124314,-0.0197968920186166,357.0431,107.2021,179.9083,0.804624,0.01595438,0.5932233,2
8.88,-10.41614,1.613356,-34.99413,0.3439178380450806,0.0880601732358174,-0.0183170552856211,0.6138821,107.9485,180.3196,0.8087292,-0.00540651,0.58815,2
8.9,-10.45649,1.262053,-34.95931,0.3514196384820954,0.1174753102378103,-0.0218469279759316,355.7455,107.0965,180.6019,0.8039079,0.0178322,0.5935712,2
8.92,-10.34793,1.250104,-34.97231,0.3324262941447963,0.0726025747061183,-0.01406902111614,359.4413,107.122,181.3826,0.8044564,-0.006810284,0.5938693,2
8.94,-10.22755,1.414446,-35.00537,0.319160106275274,0.0794928378329443,-0.0112115120642526,3.05089,107.8822,181.733,0.8077965,-0.02788902,0.5886662,2
8.96,-10.10978,1.57499,-35.03868,0.2957748881417884,0.0618172777869341,-0.0013508786565097,6.654984,108.6679,182.1333,0.8102892,-0.04893509,0.5828537,2
8.98,-10.13737,1.237611,-34.9995,0.2696639108818631,0.0445230624716271,0.010008288099689,6.177332,107.6815,182.6098,0.8052743,-0.05014283,0.5900124,2
9.0,-10.01653,1.404544,-35.03273,0.2342806129575284,0.0255271662515075,0.0235859385546461,9.818861,108.4839,182.9838,0.8069386,-0.07104366,0.5838304,2
9.02,-9.898174,1.567648,-35.06622,0.1965689131753224,0.0075640628309412,0.0385385857325086,13.45367,109.3205,183.415,0.8077425,-0.09186337,0.5770336,2
9.04,-9.932303,1.208598,-35.00948,0.1505841388840552,-0.0133467467822863,0.0549760695722802,13.45272,107.7588,183.5657,0.7996813,-0.09396987,0.5880897,2
9.06,-9.889646,1.199701,-35.01138,0.1025722816160661,-0.0326145177341394,0.0726160431641815,14.75224,107.7166,183.672,0.7980411,-0.1013385,0.5879253,2
9.08,-9.772991,1.376272,-35.04352,0.051054462558303,-0.0531196407764268,0.0904623854797472,18.32592,108.5577,184.0013,0.7977741,-0.1208973,0.5805528,2
9.1,-9.658147,1.549252,-35.07601,-0.0013655562282894,-0.0717308014641704,0.1093234040773056,21.8934,109.4396,184.3945,0.796689,-0.1403272,0.5725929,2
9.12,-9.74754,1.175756,-35.01767,-0.0476416220416272,-0.0920042715296237,0.1274958332562628,18.72994,106.7006,184.0676,0.7876614,-0.1251649,0.5932271,2
9.14,-9.632931,1.358398,-35.04836,-0.0937438519962241,-0.109810970046421,0.1464430637874114,22.27411,107.5359,184.3249,0.786568,-0.1439485,0.5853923,2
9.16,-9.519724,1.537575,-35.07945,-0.1405540244183954,-0.1270961454800123,0.1628465864926367,25.81327,108.4114,184.6465,0.7846835,-0.1625828,0.5769763,2
9.18,-9.587259,1.14544,-35.01648,-0.1862791616380168,-0.141961445459469,0.1795066237128191,24.60294,103.2695,184.0668,0.7608936,-0.1593364,0.6119671,2
9.2,-9.56247,1.139065,-35.01102,-0.2113824625163889,-0.1011155233743981,0.1875446785177423,26.28638,102.0617,183.9804,0.7516953,-0.1692108,0.6181982,2
9.22,-9.451228,1.331624,-35.03725,-0.2599015213611849,-0.1447774814034398,0.2050974078054954,29.75801,102.8026,183.9778,0.7493152,-0.1863124,0.6095459,2
9.24,-9.424326,1.124828,-35.01411,-0.2951055852855716,-0.1567972933218111,0.2163588574798778,32.07421,98.9847,183.5512,0.7248189,-0.2020002,0.6304797,2
9.26,-9.314304,1.321761,-35.03805,-0.3273305018949013,-0.1665096993996553,0.2269062280365092,35.50781,99.61954,183.3611,0.7214412,-0.2180307,0.6211607,2
9.28,-9.20474,1.515549,-35.06258,-0.341135803413058,-0.1184698902502656,0.2296005128847325,38.94198,100.2686,183.2111,0.7173828,-0.2338527,0.6112633,2
9.3,-9.223938,1.117105,-35.04017,-0.3682726601884333,-0.1561848002335537,0.2361171191427216,39.61915,97.97987,182.7006,0.7045032,-0.239048,0.6232158,2
9.32,-9.193913,1.115586,-35.04541,-0.3915718978792027,-0.192922770375514,0.2418833591019558,41.84185,97.70007,182.3599,0.6983606,-0.2494034,0.6200573,2
9.34,-9.08642,1.315456,-35.06907,-0.3892472047588418,-0.1439826278175675,0.2372075448615005,45.20512,98.18893,181.9988,0.6932446,-0.2638003,0.609494,2
9.36,-9.009256,1.113703,-35.07039,-0.3831945470088014,-0.1515206393571578,0.233598043420188,46.36856,96.81823,180.382,0.6866308,-0.2636243,0.6111786,2
9.38,-8.902675,1.314038,-35.0924,-0.376777917053423,-0.1860054096217359,0.2302833964215356,49.6954,97.25238,179.9759,0.6810046,-0.2776009,0.5997155,2
9.4,-8.796323,1.511428,-35.11501,-0.3553428330253183,-0.1606195333413591,0.2214688978957086,53.02325,97.67944,179.5812,0.6747715,-0.2913285,0.5877253,2
9.42,-8.750797,1.107105,-35.11043,-0.3113669837271055,-0.1919496540747351,0.2100664606788278,53.30809,95.26452,177.7084,0.6662332,-0.2890424,0.5955257,2
9.44,-8.557692,1.102184,-35.14174,-0.2672347065645022,-0.1638259266534488,0.1957513575522629,59.66465,92.54182,174.0726,0.6437996,-0.3110009,0.5802605,2
9.46,-8.454281,1.295756,-35.16558,-0.2204976798635699,-0.1371074102272768,0.1802436522986257,62.89727,92.25529,172.9103,0.636174,-0.3228729,0.5668641,2
9.48,-8.321861,1.109043,-35.18142,-0.1652600170339023,-0.1312100586988624,0.1644906772295824,62.64189,86.43426,167.9353,0.621546,-0.3152618,0.5817051,2
9.5,-8.219296,1.297582,-35.20536,-0.1101501050432815,-0.149128417724942,0.1496902700043811,65.76601,85.33037,165.8973,0.6138347,-0.3263419,0.5676739,2
9.52,-7.99597,1.144211,-35.23307,-0.0557084007358031,-0.1105249721433767,0.1328998054067725,58.39271,84.17893,167.8538,0.6201467,-0.2980618,0.6095894,2
9.54,-7.879616,1.161585,-35.25274,0.0130220612024311,-0.1173507228223854,0.1161150801039037,55.7858,84.82919,168.8239,0.6269298,-0.2856941,0.6186858,2
9.56,-7.775541,1.341188,-35.27757,0.0653444069435619,-0.0731052763474106,0.0995964176722328,58.86958,84.1378,167.1365,0.6207275,-0.2971464,0.6055611,2
9.58,-7.672881,1.517983,-35.30276,0.1170497236773853,-0.0308457468821843,0.0830347752144522,61.9392,83.18493,165.2032,0.6140106,-0.3083513,0.5919421,2
9.6,-7.567191,1.21167,-35.31393,0.1624571827556671,-0.011095511150444,0.0650214698862274,43.10112,92.0488,174.0062,0.6817479,-0.2197084,0.6311093,2
9.62,-7.457586,1.385428,-35.34023,0.1991629210907616,-0.0146757128884935,0.0490839112531693,46.37735,92.29716,173.3259,0.6776356,-0.233745,0.6192137,2
9.64,-7.349792,1.556079,-35.36688,0.2395911555761013,0.027854291139894,0.0298862464838043,49.65452,92.5012,172.6231,0.6729289,-0.2475747,0.6067829,2
9.66,-7.224715,1.257105,-35.39441,0.2782312338614721,0.0228077110963948,0.0132177095558683,20.05477,98.44248,176.6031,0.7487133,-0.09157309,0.6389726,2
9.68,-7.157606,1.263905,-35.4076,0.3101334708584282,0.0612540229463141,-0.0014436883371731,13.86314,99.86324,177.199,0.7613552,-0.05909391,0.6365485,2
9.7,-7.039804,1.43194,-35.43784,0.3392604841308467,0.0971172082368599,-0.0148916413563586,17.3611,100.5696,177.1317,0.7625943,-0.0773749,0.628549,2
9.72,-6.910678,1.275764,-35.44926,0.3703340841807238,0.1081413486577549,-0.0238218681883086,358.3984,103.4135,178.2052,0.7845408,0.02095105,0.6197223,2
9.74,-6.790602,1.44145,-35.48084,0.3962972096194725,0.1414168778097576,-0.0320700930679045,1.950347,104.137,178.3456,0.7887008,0.0009246394,0.6143724,2
9.76,-6.673003,1.603378,-35.51269,0.4191161556488356,0.1714890781194523,-0.0383731751179547,5.499232,104.8714,178.5314,0.7920669,-0.01909688,0.6084123,2
9.78,-6.558109,1.761703,-35.54472,0.4280662183878138,0.1295843048322996,-0.0374969624253136,9.044395,105.6225,178.7647,0.7946365,-0.0390935,0.6018486,2
9.8,-6.517669,1.29383,-35.51776,0.4442946199543999,0.1562857198053222,-0.0411244605263378,352.8215,105.3291,179.2827,0.7932858,0.04293396,0.6055902,2
9.82,-6.395364,1.455266,-35.54868,0.4637405830258517,0.2035494131935089,-0.0464919501593721,356.3967,106.0198,179.597,0.7982731,0.02172413,0.6014643,2
9.84,-6.32776,1.26982,-35.53675,0.4633243257518995,0.1735422385183013,-0.0431190406239725,354.0911,105.6042,180.0193,0.7954988,0.03102703,0.6037593,2
9.86,-6.263793,1.261816,-35.54817,0.4505921625869662,0.1652125553215399,-0.0388396960704255,355.7757,105.6964,180.5687,0.7965975,0.01830495,0.6033652,2
9.88,-6.143267,1.425249,-35.57853,0.4339175508653616,0.1568604779093452,-0.0329287623157323,359.3518,106.4004,180.8995,0.8007225,-0.002897318,0.5989574,2
9.9,-6.025374,1.584919,-35.60917,0.4127243908297504,0.1457068804536548,-0.0250781971335811,2.922918,107.1252,181.2743,0.8040261,-0.02409057,0.5939428,2
9.92,-6.060437,1.245893,-35.57309,0.3859185053582621,0.1350500745103532,-0.0158920066698451,1.406985,106.1591,181.6044,0.7992287,-0.01856677,0.6007386,2
9.94,-5.938995,1.41071,-35.60353,0.3582699711444587,0.1510560141962685,-0.008142815131638,5.035545,106.8951,181.9619,0.8019713,-0.03989774,0.5955003,2
9.96,-5.913857,1.23201,-35.57642,0.3271504305210478,0.1654217544539045,0.0012719961381986,8.254934,105.9039,182.8865,0.7947158,-0.06340039,0.6021783,2
9.98,-5.792786,1.400609,-35.60604,0.2669471306364994,0.1021551807948229,0.0240449904564927,11.88837,106.679,183.2333,0.7958124,-0.0843179,0.5959691,2
10.0,-5.817861,1.217448,-35.57897,0.2118379927952279,0.0870624292866609,0.0419058133748722,11.88568,105.9834,183.36,0.7920886,-0.08558005,0.6008621,2
10.02,-5.698545,1.389848,-35.60828,0.1548018434635455,0.073694752627505,0.06108056208903,15.4893,106.775,183.6917,0.7923644,-0.1059472,0.5941376,2
10.04,-5.695655,1.190911,-35.57869,0.079342977217109,0.0063286676180899,0.0893846420686799,16.08183,105.8676,183.7898,0.7868748,-0.1103904,0.6001759,2
10.06,-5.578424,1.369447,-35.60648,0.0247910762245955,0.0177120668946257,0.1059487313731128,19.65668,106.6793,184.1157,0.7862461,-0.1302351,0.5928453,2
10.08,-5.597723,1.175758,-35.58143,-0.0198064859588231,0.0563761663428331,0.1190276449183711,18.72813,104.9863,184.0722,0.7786958,-0.1268114,0.6049494,2
10.1,-5.482153,1.358362,-35.60839,-0.0936214741110027,0.0134763040550623,0.1429538767763132,22.27594,105.7877,184.3326,0.7775335,-0.1460349,0.5973307,2
10.12,-5.469315,1.152994,-35.57915,-0.1738795794189759,-0.0563680817256075,0.1719395671785868,23.07744,102.5327,184.0773,0.7593621,-0.1522687,0.618218,2
10.14,-5.355398,1.34166,-35.60395,-0.2235871929844613,-0.0434341584075178,0.1887070214797104,26.60174,103.2914,184.1962,0.7574154,-0.1706036,0.6100773,2
10.16,-5.361139,1.139004,-35.58265,-0.28747544962854,-0.0854351756994251,0.2113263502315296,26.29053,101.0363,184.0017,0.7460949,-0.1707555,0.6249236,2
10.18,-5.249295,1.331504,-35.60624,-0.3497301978046816,-0.1253985034999396,0.2346996958470475,29.7658,101.7517,184.0189,0.7436115,-0.1882594,0.6164462,2
10.2,-5.138176,1.520772,-35.63036,-0.3837880011121604,-0.0813439381347778,0.244902121857784,33.23953,102.4947,184.0884,0.7404143,-0.2055782,0.6073843,2
10.22,-5.202729,1.12481,-35.58727,-0.420959775185647,-0.0930338177166834,0.256592648706075,32.07348,98.10624,183.56,0.7199504,-0.2035064,0.6360332,2
10.24,-5.11482,1.118747,-35.59005,-0.454446632637825,-0.1021482083105117,0.2676141369199891,37.37781,96.51084,183.0098,0.7009326,-0.2318338,0.6367658,2
10.26,-5.005747,1.317365,-35.61158,-0.472053928044709,-0.0525993113876939,0.2706864767067847,40.77274,97.01006,182.6843,0.6965008,-0.2471819,0.6269963,2
10.28,-4.897004,1.512913,-35.63369,-0.5002710671515551,-0.0888461428669593,0.2767138327262346,44.16879,97.50958,182.3819,0.6914269,-0.2622996,0.6166558,2
10.3,-4.905873,1.114987,-35.62225,-0.5243248421150248,-0.1240786596080689,0.2818927498184083,43.26743,96.63357,181.7601,0.6903785,-0.2558044,0.622324,2
10.32,-4.79816,1.315097,-35.6433,-0.5253269164344049,-0.0733174573599161,0.2792852217897632,46.62609,97.08915,181.4109,0.6850036,-0.2704584,0.6115918,2
10.34,-4.690682,1.512215,-35.66494,-0.5086353124167886,-0.0794774998918681,0.2752099533262786,49.9856,97.54318,181.0794,0.6790103,-0.2848652,0.600315,2
10.36,-4.606606,1.109937,-35.66101,-0.486532965440249,-0.1124569708829429,0.270394183913865,50.68389,94.79058,178.7486,0.6683364,-0.2824602,0.6083176,2
10.38,-4.529209,1.107132,-35.67124,-0.4556569921976,-0.0855625876981936,0.2609961681556774,53.28892,94.05317,177.7043,0.6599641,-0.2925299,0.602576,2
10.4,-4.424326,1.305406,-35.69164,-0.4205339863647601,-0.059426384186352,0.2500360344495664,56.55989,94.20744,177.0383,0.6532665,-0.3057091,0.5902605,2
10.42,-4.192296,1.10445,-35.72108,-0.3761945662768524,-0.1185593284059604,0.2397509982360777,61.21222,88.62514,171.2327,0.6273391,-0.317283,0.5868695,2
10.44,-4.089087,1.295511,-35.74311,-0.3194481990704662,-0.0902264200151767,0.2241060382517927,64.39512,87.92344,169.6595,0.6195969,-0.3290442,0.5732988,2
10.46,-3.986626,1.483827,-35.76558,-0.2579088490860867,-0.0807988176318668,0.2094396712724169,67.56586,86.89969,167.7759,0.6113297,-0.3405233,0.5592499,2
10.48,-3.832429,1.128784,-35.77396,-0.1941755719145739,-0.0712717953979465,0.193915221911447,60.95791,82.68087,166.7711,0.6093335,-0.3127148,0.6041505,2
10.5,-3.743803,1.14418,-35.78403,-0.1329905116018765,-0.0544611410600962,0.1785687061062368,58.39232,83.08904,167.8955,0.6142117,-0.302014,0.6156038,2
10.52,-3.640145,1.326014,-35.80555,-0.0700780275599479,-0.0376835992568017,0.1625451600052008,61.46476,82.16404,166.0238,0.6075209,-0.313615,0.6022437,2
10.54,-3.446972,1.1954,-35.82489,-0.013626956445129,-0.0160499429157239,0.1450548535787792,48.32127,88.64441,173.173,0.6537922,-0.2543432,0.634567,2
10.56,-3.341137,1.371662,-35.84752,0.0417248703237659,0.0295581704370162,0.1263493022697606,51.46764,88.63133,172.249,0.6488819,-0.2674187,0.6225634,2
10.58,-3.236888,1.545054,-35.87051,0.0970540163511459,0.0727326704398453,0.1073289850467329,54.61247,88.52928,171.254,0.6434403,-0.2802733,0.6100574,2
10.6,-3.150391,1.239058,-35.89145,0.1422972004945031,0.0433718698823475,0.0907177785234498,32.09175,93.83972,175.3656,0.7090024,-0.1602565,0.6477112,2
10.62,-3.098457,1.250297,-35.9022,0.1908950026770465,0.0605008962344406,0.0727283625059316,26.21037,95.17639,176.0242,0.7239593,-0.1278896,0.6506864,2
10.64,-2.980042,1.419151,-35.92844,0.2388963731107694,0.0766920981930145,0.0548045444245053,29.71177,95.733,175.7372,0.7226965,-0.1452236,0.6409162,2
10.66,-2.877324,1.268216,-35.93755,0.2857785700011963,0.088947689743033,0.0372074206344228,8.139261,99.42645,177.5704,0.7616963,-0.02974743,0.6436908,2
10.68,-2.757246,1.43537,-35.96486,0.3181945478214098,0.0965307187198314,0.0253915305931258,11.67796,100.1156,177.5662,0.7639298,-0.04910124,0.6368833,2
10.7,-2.639518,1.598822,-35.9925,0.3557528629438756,0.1274089780763224,0.012047818723369,15.21542,100.814,177.606,0.7654043,-0.06840125,0.629451,2
10.72,-2.561464,1.285019,-35.97015,0.3903816083206886,0.1554055798210195,-0.0001554090237165,353.3312,102.0338,178.7815,0.7755827,0.04483964,0.6284716,2
10.74,-2.437772,1.448096,-35.99433,0.4199599892338623,0.159922349544822,-0.0085986337002621,356.9211,102.6974,179.0656,0.7805172,0.02314515,0.6245039,2
10.76,-2.316722,1.607304,-36.01889,0.4362272629900631,0.1385649953913587,-0.0123334160877277,0.5063545,103.3772,179.3907,0.7846492,0.001432796,0.6199018,2
10.78,-2.270131,1.295901,-36.0089,0.4486618587000519,0.1153128032960785,-0.0139722147477074,353.4639,103.0066,179.5457,0.7812245,0.03858258,0.6216291,2
10.8,-2.146176,1.456612,-36.03279,0.4567449182529883,0.0873482220007141,-0.0132339087640058,357.0383,103.662,179.9119,0.7859164,0.01657462,0.6177921,2
10.82,-2.025009,1.61345,-36.05705,0.4481045697101215,0.0739801551826091,-0.0117268328708419,0.6071881,104.3387,180.3183,0.7898039,-0.005443803,0.6133301,2
10.84,-2.013406,1.254651,-36.03434,0.4352839781532351,0.0605297870161506,-0.0083207135610354,357.4161,103.5964,181.1685,0.7857393,0.005932029,0.6180629,2
10.86,-1.94741,1.249822,-36.03965,0.4149946478566795,0.0477157248275239,-0.0029555157048308,359.4563,103.8079,181.3879,0.7869468,-0.006603725,0.6168841,2
10.88,-1.824212,1.413777,-36.06511,0.3995248532504198,0.0607927780496923,0.0012698885602793,3.099048,104.4988,181.7417,0.7900514,-0.02856607,0.6122559,2
10.9,-1.703635,1.573872,-36.09089,0.3611007956239089,0.024590090133841,0.0135174765400973,6.736824,105.2154,182.1413,0.7923188,-0.05049429,0.6069862,2
10.92,-1.756258,1.237545,-36.05176,0.3196772339310587,-0.0117625939352518,0.0275891012925715,6.17909,104.174,182.6048,0.786842,-0.05101506,0.6143789,2
10.94,-1.633349,1.404382,-36.07714,0.2815263344518881,-0.0273640769847557,0.0409165128457864,9.831296,104.9061,182.9716,0.7883185,-0.07268485,0.6087274,2
10.96,-1.512884,1.567379,-36.10287,0.2297180245674845,-0.0673039690322151,0.0589022063323323,13.47739,105.6711,183.391,0.788956,-0.09427122,0.6024353,2
10.98,-1.572195,1.208626,-36.04842,0.1895055302857717,-0.0551783776038527,0.0699007596428451,13.44933,104.1436,183.5605,0.7807412,-0.09627806,0.6130194,2
11.0,-1.550758,1.19974,-36.04377,0.1465082865942259,-0.043545264520986,0.082164562265282,14.75023,103.9064,183.6633,0.778065,-0.1040344,0.6141248,2
11.02,-1.432258,1.376306,-36.06797,0.0921833139807284,-0.0609826855617764,0.0995771564658447,18.32803,104.6748,183.9797,0.7776684,-0.1243878,0.607226,2
11.04,-1.42884,1.175679,-36.03942,0.0371951487447095,-0.0758912066537489,0.1182612653107844,18.74562,102.795,184.0737,0.7669617,-0.1289505,0.6197186,2
11.06,-1.311833,1.358178,-36.06187,-0.0195098281250681,-0.090102722922453,0.1345373712195119,22.31065,103.5632,184.3339,0.7657373,-0.1487518,0.6122855,2
11.08,-1.196195,1.537183,-36.08478,-0.0757204913755905,-0.1017932280951872,0.1516792273239948,25.87094,104.3702,184.6542,0.7637399,-0.1683977,0.6042414,2
11.1,-1.27998,1.153041,-36.03861,-0.1116134745468521,-0.0587750067127962,0.1619287953990698,23.06498,100.6234,184.0712,0.7489837,-0.1543748,0.6307877,2
11.12,-1.212863,1.139033,-36.03169,-0.173641351908277,-0.0999738356191032,0.1817170317897947,26.29563,98.72338,183.9929,0.7333349,-0.173796,0.6398376,2
11.14,-1.099889,1.33151,-36.05101,-0.2186196747465796,-0.0813134206627013,0.194074827249481,29.78346,99.40022,183.9985,0.7308064,-0.1918325,0.6315222,2
11.16,-1.095894,1.128709,-36.03334,-0.2613712112608964,-0.062236060385268,0.2067396325649877,30.02472,97.01972,183.7366,0.7175248,-0.1951,0.645866,2
11.18,-0.9846048,1.324302,-36.05176,-0.3032320731035234,-0.0708591411399461,0.2178953315158631,33.46843,97.63171,183.6211,0.7143751,-0.2122745,0.6371267,2
11.2,-0.8738141,1.516742,-36.07072,-0.3414294956479111,-0.0768651241768557,0.2290267530531915,36.91199,98.26084,183.5465,0.7105538,-0.2292456,0.6277955,2
11.22,-0.8944567,1.117197,-36.04304,-0.3805482012155149,-0.1398285174322314,0.2414402999475742,39.59962,94.37811,182.6641,0.6846933,-0.246181,0.6450098,2
11.24,-0.7855116,1.3165,-36.06097,-0.3951081687888114,-0.1433919961387547,0.2451081650207571,42.97519,94.80591,182.296,0.679864,-0.2615991,0.6350717,2
11.26,-0.6768295,1.512775,-36.07947,-0.4019718917559296,-0.1142146999111299,0.245513373445644,46.35178,95.22734,181.9424,0.6744164,-0.2767765,0.624563,2
11.28,-0.6696302,1.114469,-36.06922,-0.4132532662009285,-0.1415081959940341,0.2472309989489325,44.67755,94.576,181.1448,0.6770205,-0.2645915,0.6301666,2
11.3,-0.5617137,1.314848,-36.08609,-0.420158084690505,-0.1679657561418244,0.2484423328178815,48.024,94.99089,180.7941,0.6715032,-0.2796003,0.6192424,2
11.32,-0.4539881,1.512262,-36.10352,-0.41184543663445,-0.1654676195491825,0.2458935590941404,51.37115,95.4019,180.4571,0.6653866,-0.2943564,0.6077725,2
11.34,-0.3371406,1.107127,-36.104,-0.3866232272664717,-0.1900725761613488,0.2411869793556746,53.30302,92.2885,177.7065,0.6505628,-0.2978242,0.6126339,2
11.36,-0.2267182,1.103768,-36.11795,-0.357600163573768,-0.2149901875112903,0.2355334074308235,56.47746,91.37877,176.203,0.6410034,-0.3094493,0.6038553,2
11.38,-0.1220921,1.299759,-36.1364,-0.3192457844576872,-0.2074833856889045,0.2245015021271958,59.72936,91.28919,175.3133,0.633781,-0.3224784,0.5912034,2
11.4,-0.01791419,1.492959,-36.15536,-0.2732904292571312,-0.1693336799701861,0.2106961235882218,62.97858,91.07775,174.3145,0.6260169,-0.3352249,0.5780548,2
11.42,0.1233059,1.109072,-36.16035,-0.2258306059381511,-0.1827994399670891,0.1952644667731995,62.64215,83.56177,167.8955,0.6068829,-0.3254661,0.5969573,2
11.44,0.2268894,1.297646,-36.1796,-0.184613902052186,-0.159770988692492,0.1775244252076211,65.76582,82.33424,165.7954,0.5990847,-0.3372251,0.5831436,2
11.46,0.4314693,1.144159,-36.1917,-0.1416668769370709,-0.1368496456444227,0.1591636248214794,58.40091,81.0648,167.8448,0.6033602,-0.3086512,0.6261544,2
11.48,0.5359262,1.326008,-36.21025,-0.1009867754914687,-0.1627940888608758,0.1410248834772902,61.47357,80.05346,165.9112,0.5966226,-0.3206194,0.6128955,2
11.5,0.6394485,1.178059,-36.21431,-0.066381878372136,-0.111019793498728,0.1205760070648445,52.1001,84.39621,171.2257,0.6265777,-0.2782237,0.6410522,2
11.52,0.7451147,1.356004,-36.23298,-0.0366987787477985,-0.0808011208890329,0.0985111957864317,55.21796,84.04978,169.975,0.6210342,-0.2911161,0.6286412,2
11.54,0.9228861,1.228059,-36.2626,-0.0067286877784038,-0.0723083834656611,0.0756513786796473,37.91153,90.02035,174.7107,0.6787632,-0.1985466,0.6573288,2
11.56,1.038811,1.399233,-36.28417,0.0124527250330473,-0.0198829638820102,0.0519768781627814,41.32703,90.29775,174.1107,0.6752438,-0.2144694,0.6461738,2
11.58,1.152729,1.567008,-36.30612,0.0113983156860446,-0.0156486920253584,0.0291818562276837,44.74364,90.54019,173.4999,0.6710899,-0.230188,0.6344188,2
11.6,1.196479,1.256891,-36.3108,0.012659732092377,-0.0137470562878259,0.0062392618540698,20.11285,95.13198,176.5878,0.7299014,-0.09613355,0.6602426,2
11.62,1.336735,1.268238,-36.328,-0.0044143352821106,0.0086019240985071,-0.0152490446008055,8.12631,97.80907,177.5737,0.7525389,-0.03064889,0.654386,2
11.64,1.457458,1.435413,-36.35155,-0.0151522331213096,0.0313535133922174,-0.0408736356150196,11.66294,98.46598,177.5702,0.7546892,-0.05035506,0.6478279,2
11.66,1.575854,1.598893,-36.37545,-0.0248767647506756,0.0529427689768277,-0.0662832211195176,15.19834,99.13175,177.6085,0.7560929,-0.07000575,0.6406367,2
11.68,1.6212,1.279189,-36.36357,-0.0479701093647058,0.0736640493287363,-0.0946992306245633,354.4718,101.1105,178.4329,0.7708478,0.0411838,0.635045,2
11.7,1.743451,1.443924,-36.38796,-0.0703228338898882,0.0928210145398204,-0.1225540101058983,358.0356,101.7532,178.628,0.77549,0.02010253,0.6310138,2
11.72,1.863199,1.604869,-36.41268,-0.1122474802314654,0.0631001073834265,-0.1496450358846877,1.596017,102.4074,178.8629,0.7793509,-0.0009929659,0.6263543,2
11.74,1.983711,1.295973,-36.40108,-0.1610125159557859,0.0745033447945473,-0.1844576096606323,353.4598,101.9115,179.5114,0.7752347,0.03923831,0.6290781,2
11.76,2.040682,1.283211,-36.403,-0.21024286937521,0.0851835658434948,-0.2196207893137787,353.74,102.092,179.7659,0.7764193,0.03591406,0.6278438,2
11.78,2.162208,1.445644,-36.42462,-0.2822447289897998,0.0445110403670747,-0.2524709304101762,357.2572,102.7181,180.108,0.7808642,0.01420862,0.6242415,2
11.8,2.281121,1.604368,-36.44661,-0.3433978144676962,0.0716749628986778,-0.2910531746997096,0.7695115,103.3638,180.488,0.784538,-0.007504649,0.6200299,2
11.82,2.237101,1.254753,-36.41959,-0.4289843814759271,0.0495143353853269,-0.3234471630991358,357.4071,102.3862,181.1496,0.779166,0.00636321,0.6263292,2
11.84,2.357857,1.419137,-36.4416,-0.5265869603691862,0.0019967793464544,-0.3538798728463908,0.955049,103.0323,181.4858,0.7826236,-0.01533529,0.6223045,2
11.86,2.401569,1.240477,-36.41987,-0.607653746024067,0.0298618433799864,-0.3924284558600428,3.994879,102.4754,182.0729,0.7787542,-0.03591497,0.6260996,2
11.88,2.524582,1.406522,-36.44171,-0.7031931386809394,0.0328486188422272,-0.4242784800971764,7.62843,103.1609,182.426,0.7806957,-0.05787716,0.6210034,2
11.9,2.511936,1.232235,-36.41979,-0.7978386095395796,0.0365284776619181,-0.4574827594057806,8.219623,102.4443,182.8807,0.7762018,-0.06441693,0.6258988,2
11.92,2.633769,1.40107,-36.44151,-0.9183042774704648,-0.0120636316346763,-0.4776114398922901,11.83077,103.1516,183.2189,0.7771533,-0.08591069,0.6201933,2
11.94,2.641831,1.20887,-36.41279,-1.0250883976389256,-0.0142422451842105,-0.5011809204839732,13.41407,102.4589,183.5513,0.7716866,-0.09709394,0.6244404,2
11.96,2.684013,1.199916,-36.41146,-1.129681759586499,-0.0146750486587329,-0.5264627362155112,14.72086,102.413,183.6618,0.7700276,-0.1049193,0.6242261,2
11.98,2.802202,1.376698,-36.43224,-1.254162070998302,-0.0684006384935597,-0.5390392725670505,18.27178,103.1482,183.9743,0.7695878,-0.1254411,0.6175624,2
12.0,2.918676,1.549948,-36.45342,-1.349366827845506,-0.0437756480676176,-0.5650513178035581,21.81742,103.9203,184.3428,0.7683773,-0.145832,0.6102871,2
12.02,2.823606,1.168488,-36.38905,-1.4518806301072416,-0.0465161729196459,-0.5785619310007961,20.1102,98.55229,184.0331,0.741752,-0.1400957,0.6466514,2
12.04,2.939378,1.353387,-36.40536,-1.5492543024547936,-0.0469708236674163,-0.5943636562332602,23.6244,99.25174,184.1806,0.7403655,-0.1597132,0.6393249,2
12.06,2.928064,1.153175,-36.38702,-1.624958425412791,0.0078236854237004,-0.6198437719204444,23.05411,97.32327,184.0313,0.7305807,-0.1577832,0.6520594,2
12.08,3.042763,1.342058,-36.4025,-1.722787529833529,-0.0212450623991128,-0.6277297666878692,26.55772,97.99402,184.097,0.7286419,-0.1768585,0.6443449,2
12.1,3.156553,1.527633,-36.41847,-1.814389262349172,-0.0488029008500057,-0.638235763603916,30.05898,98.69157,184.2129,0.7259986,-0.1957599,0.6360126,2
12.12,3.080033,1.128845,-36.37183,-1.8875743260460185,-0.0499018482947222,-0.6465190796567946,30.01576,92.82536,183.6861,0.6935139,-0.2009455,0.67163,2
12.14,3.191993,1.324583,-36.38346,-1.9459737030399853,-0.0181442231889786,-0.6624051242864208,33.45284,93.37637,183.5146,0.6904634,-0.2186997,0.663058,2
12.16,3.303503,1.51718,-36.39565,-1.996656062076884,0.0135010300570775,-0.6817510126159734,36.89018,93.93764,183.3769,0.6867672,-0.2362454,0.6538734,2
12.18,3.281882,1.118723,-36.37307,-2.039678263468648,0.017120823846851,-0.6955026496300185,37.37576,91.15239,183.0238,0.6703759,-0.2420481,0.6688638,2
12.2,3.392507,1.317307,-36.38398,-2.0738312439788755,0.0227718350644775,-0.7128283327980354,40.777,91.59256,182.708,0.666028,-0.2587076,0.6592517,2
12.22,3.473073,1.114985,-36.38738,-2.108938485221864,-0.0292559643174024,-0.723145427328741,43.26297,91.25877,181.7652,0.6604392,-0.2679902,0.65403,2
12.24,3.548756,1.114419,-36.39116,-2.1159170400565164,0.0067022343579757,-0.7433257948799747,44.66184,91.38395,181.1698,0.6591849,-0.2721483,0.6488723,2
12.26,3.657021,1.314771,-36.40145,-2.1136121557745584,0.0421555951138122,-0.7665668608484131,47.99744,91.78407,180.8419,0.6538617,-0.2878914,0.6379741,2
12.28,3.703427,1.112902,-36.39909,-2.1097890212792203,-0.0109754737040922,-0.783196530097447,48.04113,90.52814,179.5654,0.6499229,-0.2840453,0.641786,2
12.3,3.810654,1.313214,-36.41043,-2.08180406418644,0.023489067324539,-0.8063111987887437,51.34347,90.79588,179.0825,0.6441349,-0.2990461,0.6303773,2
12.32,3.872424,1.107118,-36.41029,-2.034641836215223,0.0010066777663386,-0.8302809101516289,53.27807,89.87442,177.7226,0.6375365,-0.3047822,0.6263206,2
12.34,4.06248,1.102139,-36.43163,-1.979105720576543,-0.0225364005277839,-0.8557624703008546,59.64306,88.17489,174.1278,0.6211268,-0.3258121,0.6046224,2
12.36,4.167042,1.295704,-36.44667,-1.9171369633339008,0.0394681481566674,-0.8849937081019084,62.87264,87.82337,173.004,0.6135723,-0.338925,0.5914531,2
12.38,4.288135,1.108943,-36.46722,-1.841857562855028,0.051840803069218,-0.908627772250802,62.63842,83.33983,168.0087,0.605412,-0.326839,0.5985517,2
12.4,4.391677,1.29745,-36.48441,-1.7592094354646288,0.0640529345622076,-0.9327401195220588,65.76728,82.18562,166.0245,0.5976476,-0.3389905,0.5847775,2
12.42,4.481523,1.128582,-36.50497,-1.6612995215720492,0.02809108189493,-0.9469539740886016,60.97506,81.75648,166.8774,0.6041084,-0.3166539,0.6093549,2
12.44,4.652617,1.161352,-36.54147,-1.5624187179748554,0.0742767432366222,-0.963045359355017,55.81224,83.29568,168.9051,0.6183313,-0.2913185,0.6271912,2
12.46,4.757364,1.340852,-36.56121,-1.4579331030684286,0.1181557154856469,-0.9787371495506054,58.90858,82.57993,167.3064,0.6119034,-0.3036928,0.6143828,2
12.48,4.835047,1.195146,-36.57702,-1.3627989123706696,0.1401531627460802,-0.979466319269366,48.34669,88.88484,173.2749,0.6548412,-0.2543927,0.6334094,2
12.5,4.941027,1.371243,-36.59715,-1.2621612177988255,0.1612002362712498,-0.9801611380373504,51.50461,88.89567,172.4664,0.649725,-0.268066,0.6216086,2
12.52,4.990873,1.226936,-36.61491,-1.154761701462276,0.1832789047891578,-0.9675300265538418,38.04751,91.59276,174.7464,0.6874173,-0.1959642,0.6477296,2
12.54,5.091407,1.250059,-36.63971,-1.0473467273349493,0.1811013951478464,-0.9481290636134992,26.25887,94.91837,176.047,0.7224057,-0.1287421,0.6522774,2
12.56,5.210501,1.418718,-36.66416,-0.9464131766126656,0.2219751937213093,-0.9267212255138366,29.77655,95.42226,175.7831,0.7208037,-0.1464637,0.6428466,2
12.58,5.178702,1.263408,-36.68178,-0.853549801297423,0.2137825215985844,-0.8895758696304519,13.93876,98.42181,177.1974,0.753239,-0.06086597,0.6460093,2
12.6,5.298956,1.430871,-36.7085,-0.7582992372632986,0.2035446119423998,-0.8508474476734644,17.49103,99.02869,177.1245,0.7539662,-0.07982422,0.6386055,2
12.62,5.257679,1.271751,-36.72374,-0.6635556530819291,0.2136118314284825,-0.7982056577948979,2.435684,102.6426,177.9891,0.7805996,0.0004150057,0.624424,2
12.64,5.346828,1.278977,-36.76892,-0.5676294349318567,0.224255488227058,-0.7330537082766391,354.4896,106.0658,178.478,0.7976033,0.03950324,0.601118,2
12.66,5.467273,1.443491,-36.80213,-0.4709218445840253,0.2331290769851363,-0.6643367803302676,358.0634,106.6752,178.7156,0.8018897,0.01907953,0.597128,2
12.68,5.473702,1.2911,-36.84253,-0.3865713291784121,0.1927932293798137,-0.5818709415134338,352.235,109.2854,179.1543,0.8133763,0.04518633,0.5777374,2
12.7,5.594923,1.452748,-36.87894,-0.2912864996103637,0.220630477239382,-0.5006977016879928,355.8304,109.8704,179.5248,0.8178676,0.02429122,0.5742407,2
12.72,5.574605,1.295875,-36.91706,-0.2197780754669978,0.1961880008386862,-0.4070900867860274,353.4401,112.4862,179.616,0.8299296,0.03457404,0.5549168,2
12.74,5.598254,1.269981,-36.96506,-0.1545382804709443,0.1444199874296902,-0.3023483550457015,354.0636,115.3987,180.0882,0.8441429,0.02702023,0.5336116,2
12.76,5.711767,1.433354,-37.01066,-0.090386810298243,0.159909413556769,-0.1989469769296254,357.5679,115.9896,180.509,0.8478509,0.007481817,0.5297915,2
12.78,5.669323,1.254465,-37.04086,-0.0362352289208067,0.1518158141340053,-0.0885518488959302,357.422,118.3433,181.2102,0.8585632,0.002461708,0.5121053,2
12.8,5.780825,1.41853,-37.09342,0.0166753806438508,0.1432132011314152,0.0251465520692377,0.9839156,118.9583,181.605,0.8612671,-0.01642473,0.5078871,2
12.82,5.724757,1.245639,-37.0989,0.0444272373257901,0.0841131628865841,0.1469385211005098,1.413729,121.0486,181.6668,0.870318,-0.01873144,0.4921213,2
12.84,5.748187,1.237696,-37.13518,0.084410336692255,0.0736695109542876,0.2706220644976724,6.126192,123.0586,182.6888,0.876966,-0.04606109,0.4769992,2
12.86,5.856752,1.404758,-37.1953,0.1234925242656597,0.0635871546032874,0.3971658653655101,9.733873,123.7392,183.1382,0.8772726,-0.06404682,0.4716522,2
12.88,5.801501,1.226289,-37.18124,0.1486956396085907,0.051742861436107,0.5219662640233063,10.27526,125.072,183.3048,0.8821775,-0.06676482,0.4614387,2
12.9,5.906922,1.396637,-37.24361,0.1725657486354759,0.0408726014517978,0.6491203423666203,13.85024,125.7863,183.7684,0.8813801,-0.08396401,0.4556118,2
12.92,5.825208,1.208696,-37.20819,0.1879987950811688,0.0271689930555509,0.7726413940720036,13.37149,127.0211,183.7171,0.8867784,-0.08073173,0.4461465,2
12.94,5.832382,1.190789,-37.21878,0.1903601231328626,-0.012610009916136,0.9011097666088768,16.01133,128.1775,183.9809,0.888055,-0.09175851,0.4368095,2
12.96,5.932566,1.369238,-37.28244,0.2086693318092884,0.002352209007071,1.0240221369435725,19.52264,128.9509,184.498,0.8857845,-0.1078998,0.4303365,2
12.98,5.878463,1.175445,-37.24847,0.2151234679139246,-0.0092124847267226,1.144028064720863,18.66627,128.6427,184.2968,0.8860488,-0.103563,0.4327654,2
13.0,5.97646,1.357805,-37.31244,0.2219668919193622,-0.0189132879880888,1.2651464955245029,22.15388,129.4271,184.7844,0.8831402,-0.1190318,0.4260719,2
13.02,5.894565,1.15263,-37.24483,0.2047979047750665,-0.0844853216620462,1.3844137300720811,23.0008,126.6234,184.3167,0.8715316,-0.1224569,0.4465164,2
13.04,5.991015,1.340968,-37.3066,0.2108330654298913,-0.0956913716788138,1.4922973096921632,26.45871,127.3884,184.6801,0.8677832,-0.1369632,0.4394175,2
13.06,6.086428,1.526068,-37.36841,0.2182766062431285,-0.1047560260026119,1.599780992669256,29.91078,128.2032,185.1082,0.8632125,-0.151335,0.431908,2
13.08,5.989519,1.132284,-37.29184,0.2286701909471036,-0.1134284953626266,1.699623197620789,28.00389,124.5456,184.1596,0.854221,-0.1436678,0.4589137,2
13.1,6.084103,1.326073,-37.35395,0.2406901994870698,-0.1200283090561595,1.7988256198618844,31.45983,125.2321,184.3114,0.8493959,-0.1567551,0.4514678,2
13.12,6.057328,1.121802,-37.31216,0.2403146763836361,-0.1842315357751782,1.8949196841512224,34.67511,120.2534,183.2752,0.8231517,-0.1720234,0.4826441,2
13.14,6.149345,1.319599,-37.3746,0.2691848352727253,-0.1611323311374109,1.980712433329046,38.07866,120.7111,183.0186,0.8170316,-0.1829356,0.4748638,2
13.16,6.240839,1.514328,-37.43735,0.2999196659802261,-0.1385855200313988,2.0640779123669857,41.48281,121.1711,182.7853,0.8101653,-0.1936789,0.4666551,2
13.18,6.219899,1.115605,-37.40014,0.3174923723656468,-0.2035699123883965,2.14140358097037,41.83041,118.8635,182.3613,0.8003795,-0.1980839,0.4812877,2
13.2,6.311469,1.31548,-37.46107,0.3482147188435738,-0.2094772375583792,2.2087123332619543,45.20249,119.2146,181.9882,0.7928408,-0.2082211,0.4727509,2
13.22,6.336592,1.113836,-37.45086,0.3850579195828219,-0.2428494512503365,2.275378091785241,46.33755,117.0535,180.3277,0.7835081,-0.2076576,0.480951,2
13.24,6.42755,1.314334,-37.50937,0.4273495161896541,-0.2165504839464111,2.337231700618456,49.65043,117.2977,179.8399,0.7753841,-0.217358,0.4717024,2
13.26,6.518145,1.511926,-37.56827,0.4759472001156519,-0.2180356288629579,2.395261118637375,52.96325,117.5134,179.3397,0.7665868,-0.2268684,0.462048,2
13.28,6.556891,1.107284,-37.56223,0.5248674198075123,-0.2188914390870412,2.4485701659898487,53.2771,113.2112,177.6292,0.7512247,-0.2312859,0.4841266,2
13.3,6.64838,1.305707,-37.61729,0.5843262253111268,-0.2175288415194601,2.4970273735038058,56.54711,113.1868,176.8603,0.7420604,-0.2405592,0.473876,2
13.32,6.808661,1.104495,-37.66217,0.6560607756936216,-0.2413358156491986,2.546269619544568,61.18626,106.1035,171.229,0.709314,-0.2524196,0.4848068,2
13.34,6.899799,1.295682,-37.71416,0.7327004425729247,-0.2067870073988695,2.5878600998375783,64.35374,105.2707,169.6139,0.6992072,-0.2609724,0.4732553,2
13.36,6.990144,1.484157,-37.76629,0.7979804594952296,-0.1928263908346425,2.62758335086054,67.50695,104.0955,167.6668,0.6885196,-0.2693072,0.4613156,2
13.38,7.126127,1.129017,-37.7678,0.8600832484719994,-0.1794574439742221,2.661366384789318,60.93042,95.68371,166.5539,0.674395,-0.2631558,0.5305356,2
13.4,7.220096,1.313417,-37.81601,0.9150068772997406,-0.1594941294531641,2.6912773250552764,63.9558,94.09165,164.0799,0.6648275,-0.2714193,0.5187643,2
13.42,7.372682,1.178474,-37.7934,0.9756157961584976,-0.1607227045950866,2.718927937632192,52.07282,95.96722,170.9894,0.6885711,-0.2404576,0.5739402,2
13.44,7.470242,1.356966,-37.83706,1.033904633123279,-0.1116618826362472,2.741174470109565,55.13607,95.35017,169.4769,0.6812101,-0.2502058,0.5629926,2
13.46,7.566353,1.532655,-37.88069,1.0745855264553146,-0.0875729414748562,2.758485419079955,58.18707,94.52793,167.7749,0.6733026,-0.2597529,0.5515982,2
13.48,7.667169,1.228884,-37.8155,1.1100605486577049,-0.0650176224363831,2.770467310016053,37.85567,96.49651,174.4063,0.7153968,-0.1813121,0.617339,2
13.5,7.776741,1.400951,-37.85754,1.1333867492103578,-0.0435229313053618,2.773316459865316,41.20307,96.49947,173.4701,0.7105552,-0.1941494,0.6073393,2
13.52,7.898547,1.258626,-37.79189,1.15291944674052,-0.0458155601970341,2.772591495021606,20.00067,96.19593,176.2154,0.7364097,-0.09170964,0.6530856,2
13.54,7.979898,1.265391,-37.78244,1.1740288835836816,-0.0034109562015109,2.766022273850541,13.8249,96.31876,176.7987,0.741542,-0.05959208,0.6594492,2
13.56,8.094487,1.435094,-37.81699,1.1808234668683868,0.0121518370281267,2.753664890482256,17.22523,96.78706,176.317,0.742105,-0.07562936,0.6525856,2
13.58,8.141408,1.272886,-37.74791,1.178509755685712,0.0262477610408594,2.7365041330016187,2.397176,96.12527,177.6659,0.7438437,0.001170856,0.6677161,2
13.6,8.261534,1.440403,-37.77468,1.1789079586413482,0.0391012078646964,2.712487474910886,5.914289,96.70517,177.4424,0.7468327,-0.0176202,0.6626344,2
13.62,8.292433,1.27956,-37.6971,1.161108207078517,0.0279200334365734,2.682599338467317,354.4848,94.9534,178.2852,0.7355802,0.04352929,0.6755624,2
13.64,8.433666,1.291441,-37.63659,1.158219575611125,0.0621766618978219,2.647246890601175,352.2425,92.72762,178.9967,0.7216421,0.05300054,0.6888984,2
13.66,8.55996,1.453483,-37.64186,1.1439714888378485,0.0700530845772119,2.611118712677725,355.8398,93.29922,179.2155,0.7265026,0.02989115,0.6861705,2
13.68,8.597354,1.296146,-37.57566,1.1094201936454915,0.0515821616996579,2.5695614935634508,353.4488,90.61809,179.4736,0.7095571,0.04344498,0.7023129,2
13.7,8.723016,1.45716,-37.57385,1.0820978631542952,0.0778699841141102,2.526559353258013,357.0154,91.18687,179.7663,0.7141116,0.0196797,0.6995445,2
13.72,8.686605,1.270249,-37.51112,1.0278569128456574,0.0533005026656801,2.4766382572078323,354.0739,88.58731,179.9563,0.6973884,0.03726535,0.7148269,2
13.74,8.768227,1.254696,-37.45423,0.9810590252042152,0.0498662656954379,2.4264651368118653,357.4286,86.36391,181.0781,0.684269,0.009923831,0.7288239,2
13.76,8.891262,1.41895,-37.44381,0.9401635976546026,0.0738677532513902,2.3768692460405942,1.004663,86.95165,181.3421,0.6879004,-0.01441989,0.7256578,2
13.78,8.890361,1.245853,-37.38617,0.8742635945189277,0.0479912517520106,2.3239486330198176,1.41659,84.80994,181.551,0.6741296,-0.01825369,0.7383857,2
13.8,9.015057,1.41057,-37.37094,0.824335503794347,0.0717020066367515,2.2696544694515675,5.06879,85.41697,181.8487,0.6769927,-0.0434201,0.7344838,2
13.82,8.97455,1.237799,-37.32146,0.7453339613214207,0.0435939973778006,2.214198881345617,6.158762,82.94033,182.5263,0.6602258,-0.0548198,0.7488213,2
13.84,9.022321,1.226575,-37.2611,0.6850901723794005,0.0652477311406691,2.154319323429789,10.31708,80.83817,183.0662,0.6436849,-0.08570431,0.7595271,2
13.86,9.144062,1.397118,-37.23955,0.6321515904572346,0.1114325801224266,2.094433172907252,13.94245,81.47272,183.2857,0.6448522,-0.110498,0.7540804,2
13.88,9.098853,1.209127,-37.20321,0.5460494123353408,0.0785802355790061,2.03237493795754,13.42753,79.57047,183.4183,0.6325613,-0.1087538,0.7650706,2
13.9,9.218341,1.38389,-37.17962,0.4799949311876206,0.0975657281602458,1.963961008614845,17.02671,80.20852,183.6117,0.6331978,-0.1332518,0.7590752,2
13.92,9.150342,1.191444,-37.15094,0.3869073153157927,0.0623823219269887,1.8968064590650864,16.06448,77.82501,183.6242,0.6182216,-0.1283385,0.7728629,2
13.94,9.179285,1.176309,-37.10389,0.3188031664371555,0.0815806044908254,1.8208670884290024,18.71752,75.10394,183.8747,0.5966662,-0.1491784,0.7851518,2
13.96,9.294074,1.35942,-37.07526,0.2632162019440021,0.1292295058172816,1.7425636595709904,22.26704,75.70609,183.9223,0.5965193,-0.1729816,0.7783284,2
13.98,9.247849,1.161361,-37.05264,0.1797679558343967,0.093852507152252,1.6634770941468702,21.55279,72.94943,183.9146,0.5785084,-0.1702094,0.7932737,2
14.0,9.360697,1.34862,-37.02281,0.1065216359996561,0.0871823960520486,1.573029909793922,25.07708,73.5079,183.8493,0.5779374,-0.1934597,0.7860258,2
14.02,9.305299,1.146028,-37.0131,0.0286851530366774,0.0539591578801442,1.4891898513163344,24.56959,71.33349,183.8756,0.5635477,-0.1920258,0.7975604,2
14.04,9.355417,1.133287,-36.98006,-0.0212449165836741,0.0799128929452557,1.3928682405716015,28.00529,69.1093,183.7555,0.5435125,-0.2172061,0.8031805,2
14.06,9.46443,1.328047,-36.94826,-0.0819949497823206,0.0498268515884068,1.2995207504827802,31.46698,69.5537,183.4771,0.5420016,-0.2392817,0.7949342,2
14.08,9.455334,1.125019,-36.92931,-0.1402214465610796,0.0208736678348513,1.2131152110139176,32.0476,67.31363,183.4908,0.5254389,-0.2458832,0.8043205,2
14.1,9.56144,1.322142,-36.89378,-0.1811921230405213,0.0199663078812663,1.108903352649305,35.4702,67.74669,183.224,0.5235455,-0.2677484,0.7952762,2
14.12,9.573004,1.117256,-36.87441,-0.2285596270667744,-0.007482041465376,1.007642560093747,39.5766,65.79424,182.6468,0.5043589,-0.2959864,0.794102,2
14.14,9.677076,1.316622,-36.83872,-0.2535407183226901,0.0250211742188414,0.8985623225440049,42.94659,66.11261,182.2499,0.50148,-0.3167208,0.7837287,2
14.16,9.781161,1.512983,-36.80356,-0.2781278653012446,0.0004414391465348,0.796584557663012,46.31718,66.4157,181.8565,0.4981491,-0.3371654,0.7726572,2
14.18,9.783706,1.114492,-36.7926,-0.3041184973741868,-0.052342097345323,0.700747761818973,44.66505,65.99872,181.1406,0.5005824,-0.3236799,0.7777925,2
14.2,9.830228,1.113765,-36.77247,-0.3084122163805831,-0.017616539552535,0.5987382024963512,46.32735,65.34851,180.3651,0.4952839,-0.332691,0.7745683,2
14.22,9.960956,1.109995,-36.71847,-0.3137992317811597,-0.0408928996557081,0.5033096110935258,50.64344,64.21029,178.7343,0.4843831,-0.3569659,0.7631305,2
14.24,10.06184,1.309359,-36.68295,-0.2922324673948606,-0.0334815067745576,0.4114719376059943,53.92543,64.32036,178.1439,0.480584,-0.3761064,0.7505356,2
14.26,10.16673,1.10375,-36.63852,-0.2658336735463327,-0.0258494128684212,0.3275510329513187,56.45794,62.8888,176.2344,0.4726359,-0.3882162,0.7431644,2
14.28,10.2669,1.299748,-36.60455,-0.2317843994870212,-0.0747595577378497,0.2548854360089407,59.70446,62.72518,175.3632,0.468219,-0.4064287,0.7295038,2
14.3,10.37844,1.104425,-36.55639,-0.1860277740243725,-0.0369542472239304,0.1815258359141749,61.1904,58.52894,171.2713,0.4533561,-0.4107018,0.7298138,2
14.32,10.56839,1.117855,-36.47961,-0.1368880774162353,-0.0515492864822817,0.1182768451098592,61.82541,53.53736,167.2806,0.4348417,-0.4130506,0.7356627,2
14.34,10.66796,1.304182,-36.44624,-0.0837303924587062,-0.0303629648518327,0.0681089576757614,64.91783,52.19169,165.1336,0.430391,-0.4299167,0.7208521,2
14.36,10.79025,1.144035,-36.39265,-0.0282603314606186,-0.0100215672054988,0.0269413363447919,58.41898,52.98322,167.8542,0.4333674,-0.3931224,0.7537795,2
14.38,10.89066,1.325883,-36.35926,0.0285666476964603,-0.0393485889425105,-0.0037857026640581,61.49337,51.88792,165.9274,0.4294796,-0.4102004,0.7396054,2
14.4,10.9847,1.177902,-36.31607,0.080538033898454,0.0083351270019006,-0.031772455080028,52.1322,56.29397,171.214,0.452186,-0.353847,0.7738523,2
14.42,11.15617,1.211025,-36.25671,0.1306461678129182,0.0083300823512334,-0.0522784871224368,43.22698,60.33541,173.9384,0.4833837,-0.2933067,0.7928597,2
14.44,11.26511,1.38423,-36.22086,0.1774377863522618,0.0319021850783543,-0.0718348847953045,46.56776,60.36888,173.1764,0.4813534,-0.3136002,0.7807767,2
14.46,11.35607,1.23897,-36.19802,0.2249287273652531,0.0535785328958891,-0.0809731638431001,32.13691,63.85132,175.3292,0.5173091,-0.2140156,0.8089346,2
14.48,11.47227,1.408245,-36.16143,0.2635799699880772,0.024940821694729,-0.0820843337836461,35.6689,64.16396,174.8672,0.5167211,-0.2365974,0.7984802,2
14.5,11.51602,1.257021,-36.14703,0.3021926088932951,0.0633611216630471,-0.0877126301941091,20.13874,67.09619,176.5773,0.5482334,-0.129401,0.8173333,2
14.52,11.64824,1.268278,-36.0985,0.3315334169318256,0.0530126333019327,-0.0820171688718716,8.182778,69.81329,177.5608,0.5718988,-0.04634903,0.8169413,2
14.54,11.76533,1.435574,-36.06238,0.3570424959664939,0.086259791541459,-0.0804069895786803,11.71134,70.37879,177.5421,0.5749304,-0.07106402,0.8115392,2
14.56,11.8258,1.275633,-36.03288,0.3837358760126492,0.1400329496682363,-0.0749981168809847,358.4501,72.22073,178.202,0.5890446,0.0201713,0.8078351,2
14.58,11.94449,1.441234,-35.99649,0.3970559895202876,0.1216268162222251,-0.0602099353215708,2.012744,72.78884,178.3314,0.593392,-0.005498211,0.8045903,2
14.6,11.99306,1.285056,-35.96745,0.407667427363086,0.1263994287775983,-0.0516512162286195,353.338,73.41563,178.7537,0.5961829,0.05306879,0.8006703,2
14.62,12.04784,1.291083,-35.94127,0.412786311038994,0.1044032352690388,-0.0317882919007797,352.2547,73.45763,179.0977,0.5962181,0.05882736,0.7999383,2
14.64,12.16795,1.452776,-35.90099,0.4259080348904076,0.1279510886837366,-0.0169330747971576,355.8598,73.99087,179.4129,0.601203,0.03193085,0.7982631,2
14.66,12.23708,1.282892,-35.85878,0.4164227284785311,0.1223437732977154,-0.0094651780930989,353.7734,73.74712,179.7835,0.5990824,0.04457849,0.7988412,2
14.68,12.27749,1.270195,-35.83807,0.4005197232436743,0.1155680034020502,0.0046776176827023,354.067,73.83488,180.0126,0.5998632,0.04131033,0.7984271,2
14.7,12.39326,1.433705,-35.79874,0.3748997391721635,0.1047034387616924,0.0104763674605727,357.5774,74.37389,180.3579,0.6043321,0.0149542,0.7964458,2
14.72,12.38838,1.254593,-35.79523,0.3305866504960564,0.0691025012835913,0.0187606978924899,357.4245,73.95478,181.1357,0.6014965,0.01199236,0.7984982,2
14.74,12.47526,1.245912,-35.7497,0.3046594791381229,0.0834668859230836,0.0242200599337323,1.391169,74.09751,181.6069,0.6022549,-0.01813619,0.7980885,2
14.76,12.59361,1.410724,-35.70975,0.2648241828443423,0.0738005323088525,0.025252430446673,5.021059,74.67971,181.959,0.6052756,-0.04517912,0.7946268,2
14.78,12.5889,1.237801,-35.69687,0.2203723122146659,0.0638697777256846,0.0307675250743484,6.139325,74.34155,182.5928,0.6022061,-0.05630969,0.7962234,2
14.8,12.70688,1.404939,-35.65744,0.1888356353031008,0.1008669145038961,0.0336267990085552,9.766392,74.95136,182.9427,0.6042818,-0.08309953,0.7918003,2
14.82,12.66567,1.217772,-35.64135,0.1207632688716895,0.0592215064451003,0.0342483314645063,11.84232,73.7044,183.3404,0.5938938,-0.09989925,0.7973815,2
14.84,12.78095,1.390437,-35.60237,0.0726640445289183,0.0679456199472557,0.0337475323840417,15.42224,74.33624,183.644,0.5949904,-0.1259033,0.7918386,2
14.86,12.89465,1.559475,-35.56459,0.0317594975922026,0.1022919611490515,0.0301281938653374,18.99755,74.99986,183.9951,0.5954856,-0.1517732,0.785503,2
14.88,12.81215,1.191055,-35.56924,-0.0402376352450373,0.0563299056059745,0.0222292674792612,16.05557,74.14321,183.7918,0.5928924,-0.1311138,0.7924168,2
14.9,12.92539,1.369702,-35.5307,-0.1038823627960416,0.0373625038400997,0.0112765591301995,19.61556,74.79941,184.1104,0.5932571,-0.1566998,0.7860142,2
14.92,12.871,1.168459,-35.51818,-0.1771299595146112,-0.0084541141723607,0.0022989966109623,20.10244,71.02991,184.0621,0.5666057,-0.1622427,0.8045611,2
14.94,12.98067,1.353272,-35.47808,-0.224183345664203,0.0013852369814872,-0.0045489328993513,23.61876,71.65162,184.2345,0.5664124,-0.1869892,0.7975227,2
14.96,13.08952,1.534723,-35.43886,-0.2759274124466917,-0.01499767086955,-0.0164808682402011,27.13205,72.30296,184.4548,0.5656689,-0.2115477,0.7897175,2
14.98,13.00974,1.145554,-35.44518,-0.3271372846332427,-0.0295872299111196,-0.026289226003481,24.57176,69.25959,184.0725,0.5486853,-0.1947108,0.8077853,2
15.0,13.02816,1.139132,-35.42923,-0.372535170852486,-0.0443488412521512,-0.0380192151074281,26.25945,68.18703,183.9909,0.5390106,-0.2070076,0.81042,2
15.02,13.0925,1.128765,-35.38926,-0.4197872177305068,-0.0859268744124072,-0.0472521826646206,30.0031,66.23009,183.7298,0.5203677,-0.2338605,0.8132033,2
15.04,13.19713,1.324405,-35.34849,-0.440490097727281,-0.0684938227405924,-0.0513845613508383,33.44107,66.715,183.5972,0.5188111,-0.2567164,0.804512,2
15.06,13.20961,1.121806,-35.33135,-0.4495936115909544,-0.0208919825165919,-0.0538603263459505,34.67521,64.97488,183.2749,0.5053191,-0.2659151,0.8094297,2
15.08,13.3133,1.319605,-35.29131,-0.4718277320618256,-0.0596724602788178,-0.0599346419442685,38.0821,65.37361,183.014,0.5031002,-0.2879102,0.7999436,2
15.1,13.32054,1.117157,-35.28334,-0.4732957928313852,-0.0388008041526115,-0.0621062988587066,39.57925,64.51219,182.6915,0.4953222,-0.2980318,0.7997518,2
15.12,13.3493,1.115621,-35.27296,-0.4707691869726296,-0.0186683541857408,-0.0628692121003426,41.80688,64.37375,182.3581,0.4913042,-0.3121357,0.7943568,2
15.14,13.45163,1.315534,-35.2342,-0.4563878081437309,-0.026621595083789,-0.0601466488674402,45.16599,64.66177,181.9748,0.488136,-0.3329493,0.7836081,2
15.16,13.52011,1.113718,-35.19808,-0.4377477914578884,-0.0333124297583466,-0.0560052538598476,46.34506,63.72829,180.3906,0.4841757,-0.3358537,0.7814877,2
15.18,13.57621,1.112942,-35.17334,-0.4152924673989413,-0.0421593729906497,-0.0505061545496206,48.02567,63.1854,179.5546,0.4798817,-0.3447675,0.7772404,2
15.2,13.67655,1.313304,-35.1347,-0.3742575023376333,0.0322577083805384,-0.0401618114345501,51.3247,63.34708,179.0452,0.4763404,-0.364607,0.7651862,2
15.22,13.73089,1.107173,-35.10809,-0.3211017680891834,0.0194108515075306,-0.0244964927610249,53.25767,62.12288,177.7111,0.4688052,-0.3746536,0.7609808,2
15.24,13.91306,1.102209,-35.03209,-0.2682678082226037,0.0375710926315852,-0.0105892650879733,59.66359,59.56445,174.0583,0.4526837,-0.4088392,0.7390932,2
15.26,14.01211,1.295845,-34.99607,-0.1982428317101305,0.0021494625759466,0.0114658993091092,62.88714,59.06279,172.8612,0.4479624,-0.4268265,0.7248695,2
15.28,14.13315,1.109002,-34.94127,-0.1277725985074869,0.0003466234970636,0.0330073835545725,62.62423,53.55413,167.9657,0.4314171,-0.4210666,0.7339884,2
15.3,14.23159,1.297618,-34.90552,-0.0553229777601638,-0.0018963828138464,0.05496886953759,65.74297,52.24107,165.8997,0.4267884,-0.4382552,0.7190816,2
15.32,14.32621,1.128649,-34.85884,0.0307572193514831,0.0057533869032735,0.0824115335641266,60.96606,50.80563,166.7867,0.4199521,-0.4126599,0.7482513,2
15.34,14.50041,1.161401,-34.7842,0.1039527881944897,0.0390635940233576,0.1033332245338964,55.81308,51.6734,168.7995,0.4243986,-0.3816521,0.7716751,2
15.36,14.60032,1.341095,-34.74764,0.1774150573225652,0.0248522333384604,0.1240023394179719,58.88944,50.7667,167.0751,0.4209166,-0.3992881,0.7580432,2
15.38,14.69499,1.195179,-34.70558,0.2475764909416544,0.0596799711379393,0.1414792327383685,48.36399,57.23691,173.175,0.4575737,-0.3329445,0.7876996,2
15.4,14.79613,1.371461,-34.6686,0.3121964723572699,0.0471571527510178,0.1552395031114848,51.50938,57.0801,172.2587,0.4550983,-0.3517993,0.7753986,2
15.42,14.87907,1.226938,-34.64923,0.3779940852424612,0.0808872124503068,0.1674212601220892,38.07953,60.55235,174.6785,0.4891514,-0.2593012,0.8078443,2
15.44,15.01548,1.250208,-34.60651,0.4320168193262366,0.0891828365872498,0.1735120525251803,26.23384,63.82164,175.993,0.5212272,-0.1745262,0.8220249,2
15.46,15.13033,1.41898,-34.567,0.4836291593152415,0.0961443648931357,0.1786578300955001,29.74775,64.21007,175.6635,0.5215239,-0.1978479,0.812945,2
15.48,15.17988,1.263446,-34.54859,0.5249149121052583,0.1004059955964689,0.180859961216667,13.94067,67.12424,177.1764,0.5510798,-0.08757298,0.8252243,2
15.5,15.29637,1.430958,-34.50902,0.5624703255563399,0.1034548750418099,0.1820010673318259,17.49256,67.63931,177.0768,0.5531517,-0.1122573,0.8187069,2
15.52,15.36089,1.275486,-34.46878,0.6082656680831682,0.1053073395286928,0.1854724872893411,358.479,70.11566,178.2082,0.5741123,0.01984353,0.8185198,2
15.54,15.47834,1.440935,-34.42748,0.6472982401010556,0.128950848968157,0.18615782795362,2.054244,70.65728,178.3435,0.5783236,-0.00626538,0.8154826,2
15.56,15.5938,1.602599,-34.38758,0.6731714413560503,0.1045449413585498,0.1838741515562878,5.626996,71.20907,178.5131,0.5819545,-0.03236075,0.8116357,2
15.58,15.64437,1.291275,-34.35599,0.7020123043115594,0.125719800592045,0.1817400874931101,352.2422,72.05125,179.0714,0.5863371,0.05946357,0.8071975,2
15.6,15.69953,1.293795,-34.32922,0.7245496388559629,0.1431118106097234,0.1785109764609505,352.8015,72.05596,179.321,0.586709,0.05424747,0.8073394,2
15.62,15.80977,1.283092,-34.27841,0.7274806980955089,0.131570600777719,0.1707550004064266,353.7545,72.32379,179.7856,0.5891094,0.04508331,0.8062128,2
15.64,15.92574,1.445263,-34.23502,0.7302362106541715,0.1172950534628485,0.1639172044052381,357.2895,72.83421,180.142,0.5935162,0.01829672,0.8044734,2
15.66,15.942,1.262186,-34.22337,0.7271694473815931,0.1023846787303435,0.1556988540150792,355.7217,72.8457,180.5833,0.5934713,0.02701445,0.8039731,2
15.68,16.05747,1.425997,-34.18177,0.7249051744094586,0.1332303520184052,0.1455263796002679,359.2624,73.36806,180.9227,0.5974115,0.0003518285,0.8018688,2
15.7,16.06097,1.2502,-34.17254,0.70450210012143,0.115845769071245,0.133472214160899,359.4006,73.19251,181.3758,0.5961718,-0.002958134,0.8027503,2
15.72,16.0881,1.245843,-34.15454,0.679512155667247,0.0981620425032724,0.1203910122657339,1.393767,73.14997,181.6052,0.5956349,-0.0181128,0.8030411,2
15.74,16.20596,1.410552,-34.11239,0.6670419629026663,0.1281831599205531,0.1113723956696342,5.033412,73.70516,181.9547,0.5984932,-0.04535184,0.7997423,2
15.76,16.2165,1.232128,-34.08547,0.653385036673189,0.1800262639339827,0.1001473514061848,8.224172,73.15738,182.8841,0.5927547,-0.07252455,0.8017938,2
15.78,16.33333,1.400795,-34.04379,0.6007011303613425,0.1307628583244301,0.0843461008071271,11.85195,73.75054,183.2203,0.594312,-0.09932778,0.7970957,2
15.8,16.44832,1.565702,-34.00343,0.5617249172060279,0.1319926993839213,0.0715662517199753,15.47497,74.37438,183.6006,0.5952528,-0.1260211,0.7915785,2
15.82,16.3446,1.199922,-34.00322,0.502283085244414,0.0798518252736651,0.0554120340708879,14.73026,72.36826,183.6422,0.5819274,-0.1220215,0.8024656,2
15.84,16.45771,1.37658,-33.96191,0.4523738438919387,0.0549207746871666,0.0383607943952295,18.30381,72.98261,183.9286,0.5824025,-0.1479194,0.7964889,2
15.86,16.56948,1.54968,-33.92169,0.3996708254461611,0.031745915367997,0.0205027258927739,21.87306,73.6298,184.2626,0.582293,-0.1736619,0.7897199,2
15.88,16.48952,1.175833,-33.92876,0.3436193864930086,0.0073051328260062,0.0018282133815699,18.71991,71.85019,184.063,0.573883,-0.1521395,0.8018838,2
15.9,16.50508,1.168395,-33.91459,0.2757374235394114,-0.0204282016724928,-0.0313455351754621,20.11434,70.93431,184.0723,0.5659063,-0.1624367,0.8050274,2
15.92,16.55761,1.153109,-33.87927,0.2071627562497089,-0.0460220402967906,-0.0643185480678631,23.06058,69.34156,184.0642,0.5512004,-0.1840538,0.8093621,2
15.94,16.66604,1.341823,-33.83785,0.1623224635396591,-0.0161353029080302,-0.0933431695477473,26.58401,69.91077,184.157,0.5503889,-0.2085359,0.801895,2
15.96,16.65223,1.139081,-33.82769,0.0813762038651209,-0.071024959206614,-0.1462650633933382,26.27344,67.9624,183.9963,0.5373923,-0.2073248,0.8114589,2
15.98,16.75835,1.331612,-33.78656,-0.0166803573592502,-0.1525729909087022,-0.2160259912279789,29.74845,68.49109,183.9952,0.5361571,-0.2310246,0.8034842,2
16.0,16.73541,1.128765,-33.78014,-0.0844985266690621,-0.1484137729023782,-0.2769764463534452,29.99949,66.14696,183.734,0.5197744,-0.2339377,0.8135912,2
16.02,16.81374,1.121838,-33.737,-0.1480655441361107,-0.1710490525925407,-0.3431897670002124,34.66478,64.49233,183.2681,0.5019385,-0.2663867,0.8115641,2
16.04,16.91712,1.319657,-33.69631,-0.2010833379200671,-0.1609719669856354,-0.4068554550995884,38.07194,64.85905,182.9969,0.4995635,-0.2884596,0.8021951,2
16.06,17.02043,1.514414,-33.65616,-0.2497734002444231,-0.1511139061938348,-0.46822130184988,41.47947,65.22242,182.7411,0.4967329,-0.3102649,0.7921014,2
16.08,17.0114,1.115566,-33.65405,-0.2808622315718829,-0.0855139112143243,-0.5238816839931593,41.81649,64.33034,182.3867,0.4909078,-0.3123904,0.7945619,2
16.1,17.11379,1.315399,-33.61443,-0.3327007352395257,-0.1350255969631404,-0.5977750881822548,45.19087,64.61208,182.0321,0.4875822,-0.3334447,0.7838469,2
16.12,17.21622,1.51224,-33.57529,-0.3649738874548065,-0.1242524055092153,-0.6633730080541751,48.5655,64.88015,181.6796,0.4838197,-0.3541963,0.7724366,2
16.14,17.27741,1.112899,-33.53806,-0.3795153752986389,-0.1408244082548919,-0.7329257714401995,48.05044,63.22566,179.5787,0.4800369,-0.3449605,0.7770418,2
16.16,17.37815,1.313184,-33.49871,-0.3879420486341707,-0.1844063757320531,-0.8034505900557001,51.37359,63.38073,179.0947,0.4763132,-0.3650719,0.7649882,2
16.18,17.47897,1.510565,-33.45981,-0.3863680494296071,-0.168279332216736,-0.8688686812651891,54.69655,63.49921,178.5875,0.4721739,-0.384861,0.752275,2
16.2,17.57969,1.705052,-33.42144,-0.373119056055105,-0.122911347816924,-0.9275850000701028,58.01908,63.57259,178.0471,0.4676234,-0.404311,0.7389135,2
16.22,17.67826,1.102126,-33.37104,-0.3514987449663342,-0.161705936841789,-0.977909499396148,59.6292,59.88534,174.1429,0.4545132,-0.4081441,0.7381703,2
16.24,17.77754,1.295688,-33.33458,-0.318663967770735,-0.1411525222484748,-1.0219978768232334,62.87193,59.4045,172.9992,0.4496369,-0.4263633,0.7239597,2
16.26,17.97364,1.117825,-33.24622,-0.2938811536812467,-0.0916278609302564,-1.0673001086455232,61.83182,51.95662,167.2656,0.4246996,-0.4173423,0.7415225,2
16.28,18.06412,1.128609,-33.20626,-0.2518167330758594,-0.1162696375293906,-1.1000996747243654,60.97205,50.62964,166.784,0.4188054,-0.413161,0.7488622,2
16.3,18.16283,1.312693,-33.16979,-0.2147991641002415,-0.1090248628234797,-1.1310824331943747,64.03998,49.18643,164.5709,0.4143827,-0.4303863,0.7343507,2
16.32,18.35863,1.177848,-33.08231,-0.1757173878472486,-0.1018917063039435,-1.1578251765720982,52.14561,54.44093,171.1883,0.4396779,-0.35812,0.780955,2
16.34,18.45921,1.355776,-33.04527,-0.1345576039648222,-0.0447836367305655,-1.1821550061855437,55.26836,53.92365,169.9022,0.4365008,-0.3764569,0.7680635,2
16.36,18.56513,1.210917,-33.00715,-0.095502675342324,-0.0339330617815796,-1.205419138138435,43.25512,58.87342,173.9364,0.4732003,-0.296376,0.7988738,2
16.38,18.67293,1.384101,-32.96816,-0.0552668305128651,-0.0238464127397485,-1.2250073345366257,46.5989,58.85119,173.1708,0.4709464,-0.3170232,0.7869709,2
16.4,18.74619,1.238857,-32.9528,-0.0138099946522531,0.0308218116497962,-1.242010009961251,32.17889,62.53279,175.3293,0.5079266,-0.2163698,0.8147393,2
16.42,18.86133,1.408095,-32.91306,0.0258692619655782,0.0143702894558872,-1.2527662911861626,35.71481,62.79217,174.867,0.5070769,-0.2392852,0.8044946,2
16.44,18.97027,1.263426,-32.88713,0.0635976047598827,0.0202370045968466,-1.2571914852760928,14.00112,67.79988,177.1782,0.5559093,-0.08750011,0.8219017,2
16.46,19.08679,1.431009,-32.84861,0.0963414588140243,0.047480588092832,-1.2590660516590697,17.54568,68.29102,177.0845,0.5577616,-0.1120727,0.8154899,2
16.48,19.13255,1.271775,-32.83757,0.1261881899177397,0.072134207224021,-1.2582741772117654,2.483104,71.29752,177.9665,0.5828987,-0.007265082,0.8120625,2
16.5,19.2507,1.438171,-32.80062,0.1491801521636291,0.0723700582220272,-1.2489895148791923,6.046732,71.81858,178.0397,0.5863325,-0.03269402,0.8081719,2
16.52,19.38156,1.285076,-32.7628,0.169479120666983,0.0715447497916969,-1.2367548448102357,353.3377,74.14873,178.753,0.6012924,0.05290719,0.79684,2
16.54,19.50133,1.44836,-32.72586,0.1938754323712492,0.1147088050321729,-1.222053883566216,356.9193,74.64225,179.0008,0.6058533,0.0266606,0.7950748,2
16.56,19.5657,1.293646,-32.70224,0.2045061396452552,0.085241367283259,-1.200120027416446,352.8174,74.88947,179.3132,0.6064931,0.05336758,0.7925952,2
