t,pX,pY,pZ,aX,aY,aZ,reX,reY,reZ,rtX,rtY,rtZ,ID
5.32,-44.30582,1.101693,-35.82856,3.473045411630963,-0.1238058617400217,0.6950403061502604,14.60389,356.3863,163.598,-0.01283335,-0.1301972,0.9818307,13
5.34,-44.30658,1.301527,-35.82808,3.543939464200119,-0.1390274808465368,0.659490712355919,14.62012,356.3921,163.6207,-0.01278956,-0.1303267,0.9818413,13
5.36,-44.2944,1.155002,-35.80755,3.6122370715165184,-0.1295676208685349,0.6238881086917818,14.67972,0.1442313,163.6261,0.01942833,-0.1262748,0.9816744,13
5.38,-44.28078,1.154213,-35.77464,3.677342552367264,-0.0973558796201666,0.5882073018903773,16.57779,1.59129,164.6203,0.03290636,-0.1410154,0.9802923,13
5.4,-44.29222,1.351317,-35.76457,3.7304538660686015,-0.1098541755662655,0.5468775632625924,16.87441,1.698665,164.9934,0.03369487,-0.1435383,0.9803157,13
5.42,-44.18843,1.168109,-35.67924,3.770429964763556,-0.1210209328759209,0.503832843884882,17.66088,7.593963,166.8867,0.08249868,-0.1447001,0.9783685,13
5.44,-44.14155,1.172251,-35.62655,3.808161790201948,-0.1082383765791721,0.4611648814861508,16.99644,10.27762,167.7959,0.1037294,-0.1369342,0.9780572,13
5.46,-44.13464,1.36542,-35.58522,3.839871908101241,-0.1182341336648762,0.4179329355045418,18.26322,10.28367,167.8158,0.1047608,-0.1477808,0.9762906,13
5.48,-44.03533,1.186378,-35.53307,3.869103487741184,-0.1045193917737834,0.3751643936589319,12.77776,16.36899,169.7923,0.1507145,-0.09712002,0.9783583,13
5.5,-44.01684,1.374991,-35.47367,3.884544926802283,-0.1144983975555727,0.3319478509881026,14.64859,16.36161,169.7611,0.1518332,-0.1130906,0.9762125,13
5.52,-43.90416,1.201196,-35.4346,3.902363667556962,-0.122541406625183,0.2911480671262145,7.017958,22.76398,171.8948,0.2007272,-0.0459303,0.9751953,13
5.54,-43.74994,1.217358,-35.3418,3.917594971669697,-0.1075713553082293,0.2515850434337876,2.340084,28.59898,174.2061,0.2476233,-0.0072816,0.9673228,13
5.56,-43.70123,1.38901,-35.2396,3.92022701528524,-0.1160112548093167,0.2125195426518278,5.703204,28.61189,174.3901,0.2488569,-0.03607174,0.9660292,13
5.58,-43.54361,1.243185,-35.20121,3.9202585141518345,-0.1015099329466912,0.1750573603970382,358.9904,33.70623,176.873,0.2895699,0.01633868,0.9567275,13
5.6,-43.47577,1.40155,-35.07724,3.897696327322055,-0.1146127157549557,0.1367353094598034,3.139738,33.71302,177.2375,0.2904148,-0.01922403,0.9562054,13
5.62,-43.31389,1.271698,-35.1636,3.869547078930631,-0.1293808527913902,0.0997355135350197,353.862,40.46806,180.0844,0.3453964,0.04997988,0.9369283,13
5.64,-43.24992,1.437605,-35.06883,3.8393974982958223,-0.1202617449925461,0.0644084234302582,357.1611,40.43872,180.4591,0.3455996,0.02186057,0.9380465,13
5.66,-43.1871,1.6003,-34.9758,3.792176224198068,-0.1362991586996511,0.0298712715425732,0.4615678,40.43103,180.8298,0.3455131,-0.006281795,0.9383774,13
5.68,-43.08762,1.250635,-35.09604,3.743881650594511,-0.1282259763100255,-0.0027067581050452,359.389,46.80704,181.4898,0.3972287,-0.0002708596,0.9176122,13
5.7,-43.00969,1.415874,-35.00407,3.6940608289920265,-0.0979510536435718,-0.0333946175820321,2.905913,46.81517,181.8949,0.3967026,-0.02983311,0.9174482,13
5.72,-42.93042,1.237757,-35.10143,3.612802304224656,-0.1183264028289767,-0.0630105526192954,6.14644,52.74657,182.756,0.4422953,-0.05868539,0.8949447,13
5.74,-42.84333,1.405095,-35.01583,3.531661234949259,-0.113454015219,-0.0903851915680586,9.725614,52.81077,183.2207,0.4408099,-0.08834874,0.8931531,13
5.76,-42.75782,1.568789,-34.93177,3.4502861011479995,-0.085277832066704,-0.115584297715106,13.30317,52.90554,183.6952,0.4388879,-0.1179157,0.8904768,13
5.78,-42.74481,1.217208,-35.06677,3.3378538276522125,-0.11020235781454,-0.1422063385599807,11.82335,58.98677,183.6305,0.4866194,-0.1051156,0.8669553,13
5.8,-42.65313,1.389832,-34.99076,3.2268573245181846,-0.1086197776833127,-0.166286640365155,15.33387,59.11783,184.1884,0.4843408,-0.1338389,0.8639022,13
5.82,-42.65722,1.199367,-35.06915,3.117050702508143,-0.0825100472356818,-0.187874550441129,14.65513,62.6941,184.0024,0.5118538,-0.1268761,0.8488577,13
5.84,-42.59155,1.182714,-35.07869,2.9795007781838976,-0.1116964135022339,-0.2086726011199857,17.27754,65.40469,184.3201,0.529002,-0.1464378,0.8344096,13
5.86,-42.49731,1.363321,-35.01388,2.832779505542588,-0.1399998255681707,-0.2284551684686944,20.69032,65.61439,184.9644,0.5259691,-0.1738771,0.8302734,13
5.88,-42.49716,1.167525,-35.0602,2.689227220559696,-0.139852535425108,-0.2451175942772216,20.00831,67.05986,184.5358,0.5378171,-0.1662251,0.824077,13
5.9,-42.40245,1.351953,-34.99988,2.548764454694308,-0.1132931336825349,-0.2586962762459537,23.38602,67.29163,185.1625,0.5344105,-0.1929802,0.8194324,13
5.92,-42.42429,1.15204,-35.05038,2.37961973211236,-0.1433336288228554,-0.2737666941957961,22.92832,68.17117,184.5803,0.5422331,-0.1864258,0.815481,13
5.94,-42.36639,1.137715,-35.0454,2.215008652215104,-0.1438637508242056,-0.2843135395713752,26.16637,68.88647,184.5645,0.5430372,-0.2084707,0.8077414,13
5.96,-42.2719,1.329403,-34.99221,2.054795842527496,-0.1169823610290285,-0.2900263078784748,29.48597,69.14921,185.1271,0.5388745,-0.2338751,0.8019421,13
5.98,-42.17791,1.518192,-34.93934,1.898970880819388,-0.0647047550559809,-0.2908873502933797,32.80457,69.4581,185.7241,0.5342418,-0.2590736,0.7954571,13
6.0,-42.20431,1.123711,-35.0013,1.7179522326953025,-0.0980019782962957,-0.2924431506478226,32.06098,69.14658,183.9719,0.5371869,-0.246145,0.7963382,13
6.02,-42.17092,1.12113,-35.00443,1.5321516100859274,-0.1287919920778009,-0.2936156750961807,34.72701,69.37562,183.5099,0.535401,-0.2619107,0.7896284,13
6.04,-42.0689,1.318519,-34.96732,1.3532311397978738,-0.1287623478798007,-0.2892746393364103,38.11311,69.34744,183.4625,0.5293671,-0.2846391,0.7825916,13
6.06,-42.00012,1.115255,-34.98978,1.1736813801388335,-0.1561171186224375,-0.282894150916368,41.88491,71.42296,182.4922,0.5387043,-0.3020077,0.7626859,13
6.08,-41.89613,1.31497,-34.96133,1.0017640539116606,-0.1523963713335459,-0.2710354701882087,45.2509,71.23463,182.219,0.5313929,-0.3230868,0.7545593,13
6.1,-41.86339,1.11431,-34.97464,0.8269142274098353,-0.1760831224472643,-0.2579883879243221,44.7047,72.73575,181.1972,0.5451846,-0.3119413,0.7470393,13
6.12,-41.73478,1.112836,-34.96287,0.6538277831286265,-0.1973482290264565,-0.2423424384064763,48.08405,73.01516,179.5673,0.5445498,-0.3254108,0.7331276,13
6.14,-41.63095,1.31321,-34.94196,0.4898932614640054,-0.1876008596864372,-0.2210644870818869,51.38341,72.62038,179.0502,0.5364931,-0.3449124,0.7240065,13
6.16,-41.53518,1.107042,-34.94011,0.3441252420578049,-0.2059101775970972,-0.1902364102707814,53.33949,73.10299,177.7022,0.5393069,-0.3498256,0.7123513,13
6.18,-41.43208,1.305383,-34.92192,0.2066753591483356,-0.2209171612195052,-0.1542681126986087,56.60414,72.51605,176.9857,0.5305994,-0.3684841,0.7023489,13
6.2,-41.30821,1.102181,-34.91676,0.0785219589995644,-0.205989676295112,-0.1129825878011718,59.70518,71.58527,174.0425,0.527545,-0.3768559,0.6874293,13
6.22,-41.09814,1.109073,-34.89522,-0.0258809427412174,-0.2132331168013556,-0.0596116924592395,62.67416,65.99758,167.915,0.5085034,-0.3847845,0.6825414,13
6.24,-40.99612,1.297618,-34.87963,-0.1210480239838593,-0.191695629843066,-0.0011901407095269,65.79366,64.11338,165.8236,0.4990466,-0.4018034,0.6706127,13
6.26,-40.86239,1.128891,-34.86792,-0.2043624927808718,-0.1902783569050344,0.0634343111702318,60.95371,63.72562,166.835,0.5013323,-0.3757716,0.6964511,13
6.28,-40.75999,1.312901,-34.85186,-0.2776295256521042,-0.1609297250401355,0.1331815440317454,64.02187,61.77318,164.6344,0.492194,-0.3926316,0.6847851,13
6.3,-40.647,1.161847,-34.84336,-0.3436543902744882,-0.1511751339042654,0.20635922159392,55.74395,65.0576,168.8944,0.5112538,-0.3463118,0.7174925,13
6.32,-40.46967,1.195572,-34.8247,-0.3984042122012967,-0.1141935888337102,0.2849277606294134,48.26195,70.55805,173.2818,0.5457376,-0.3022857,0.7298961,13
6.34,-40.35512,1.209956,-34.81894,-0.4350453626099266,-0.0951189252279991,0.3679102250666091,43.28054,72.19756,173.9495,0.5626153,-0.2686551,0.7385388,13
6.36,-40.23691,1.381294,-34.80074,-0.4579190785937461,-0.0800459846957957,0.456864210984917,46.81413,71.6153,173.1271,0.5552645,-0.2894101,0.7289762,13
6.38,-40.12061,1.549131,-34.78285,-0.477656963575833,-0.0656365246178639,0.5430426392217891,50.34052,70.911,172.1883,0.547371,-0.3098772,0.718704,13
6.4,-40.06453,1.249471,-34.80454,-0.4842747464277837,-0.0259076897983447,0.6304141810589741,26.21721,76.92029,176.0121,0.6115751,-0.1564072,0.7572666,13
6.42,-40.01823,1.256989,-34.80097,-0.4868984599699777,-0.0380206672011678,0.7157958420121062,19.98739,78.37104,176.5908,0.6259724,-0.1159424,0.759744,13
6.44,-39.89725,1.424778,-34.78363,-0.4881538285107947,0.0006154351297973,0.7945735495944017,23.55715,78.2833,176.3544,0.6226715,-0.1385846,0.7547739,13
6.46,-39.80093,1.271893,-34.77315,-0.4841282312052337,0.0164185447668598,0.8691029968280821,2.2907,82.11935,177.9436,0.6568783,-0.003285506,0.7535183,13
6.48,-39.67911,1.438307,-34.75604,-0.4643350051664843,0.0277093415221509,0.94257999501332,5.864652,82.11987,177.9507,0.656573,-0.0268364,0.7523143,13
6.5,-39.63546,1.27916,-34.74563,-0.4521287874002366,0.0423576277099913,1.008970430173326,354.4066,83.51235,178.4165,0.6646026,0.0455866,0.7454752,13
6.52,-39.48043,1.291362,-34.71563,-0.4252718192933784,0.0525601548159309,1.0713972787976749,352.2212,83.7587,179.0736,0.6655968,0.05588616,0.7431793,13
6.54,-39.35688,1.453181,-34.69349,-0.4049154612703596,0.0626618242061704,1.1290502139940894,355.8281,83.73289,179.3214,0.6667821,0.03105556,0.7443399,13
6.56,-39.30259,1.296081,-34.6766,-0.3904589559396632,0.0941995648448834,1.1769074231873091,353.4667,83.43542,179.5186,0.6641952,0.04532484,0.7453724,13
6.58,-39.18031,1.457019,-34.65225,-0.3832872459074892,0.0736142119635066,1.2045469444209689,357.0381,83.41111,179.8121,0.665048,0.0203854,0.7463515,13
6.6,-39.19819,1.269818,-34.64526,-0.382568020358403,0.0975821193767493,1.2289409146575094,354.0826,83.30904,179.9955,0.6637501,0.03859197,0.7461714,13
6.62,-39.10305,1.254446,-34.62384,-0.3935957850423968,0.0723449577393971,1.2283824870271944,357.4702,82.88204,181.12,0.6618177,0.01008062,0.7492763,13
6.64,-38.98302,1.418708,-34.60009,-0.4183145022025645,0.064746619950164,1.2399269758564806,1.04898,82.87875,181.3748,0.6616696,-0.01480149,0.7496439,13
6.66,-38.96871,1.245703,-34.58262,-0.4358855794130551,0.0564723458351452,1.2394980409012826,1.463654,82.60763,181.5741,0.6598039,-0.01865956,0.751204,13
6.68,-38.84682,1.410451,-34.55732,-0.4466105451135682,0.0445959749884664,1.2262892380106898,5.119509,82.62359,181.852,0.6588694,-0.04420004,0.7507573,13
6.7,-38.72729,1.571406,-34.5325,-0.4846177333252077,0.0316440175711366,1.224410766611288,8.774889,82.65765,182.1334,0.6572608,-0.06969444,0.7495422,13
6.72,-38.8188,1.226286,-34.51352,-0.5274667726552158,-0.0075502540833289,1.210099809244796,10.37246,80.83145,183.1188,0.6435629,-0.0863672,0.7595577,13
6.74,-38.69934,1.396795,-34.4867,-0.5645877817293048,0.0043447577765101,1.211133816129264,14.00327,80.87945,183.346,0.6408275,-0.1115316,0.7573996,13
6.76,-38.58185,1.563632,-34.46033,-0.617956122275551,-0.0362767701387031,1.1954123382133126,17.63285,80.94339,183.5805,0.6374477,-0.1365769,0.7544794,13
6.78,-38.68215,1.199633,-34.45946,-0.6662245336398307,-0.0762508131740767,1.1679276417139484,14.7922,79.96044,183.6034,0.6337612,-0.1186244,0.7621158,13
6.8,-38.56555,1.376383,-34.43215,-0.6990905818094815,-0.0417655502845663,1.1606825168588166,18.3889,80.01965,183.8107,0.6302388,-0.143419,0.759091,13
6.82,-38.45051,1.549613,-34.40521,-0.7603537175462725,-0.0879080666778392,1.134453319981402,21.98432,80.09428,184.0268,0.626095,-0.1680648,0.7553172,13
6.84,-38.5402,1.168231,-34.39039,-0.8019496544100839,-0.0790959135607577,1.120827456538387,20.176,76.64053,184.0194,0.6052758,-0.1587475,0.7757617,13
6.86,-38.51099,1.160836,-34.37481,-0.8340743234732537,-0.0417991419932508,1.110098181440704,21.59325,75.47398,184.042,0.5956054,-0.1692506,0.7803897,13
6.88,-38.39972,1.347932,-34.34515,-0.8903162463520555,-0.0885404472488494,1.0821520153220527,25.11917,75.48438,184.0683,0.5909819,-0.1930559,0.7760884,13
6.9,-38.28936,1.531761,-34.31573,-0.9264648189477018,-0.0778944542943289,1.0627283350899646,28.64378,75.49712,184.0964,0.5858015,-0.2166712,0.771054,13
6.92,-38.40429,1.139091,-34.31871,-0.9699548918270802,-0.1233269066772039,1.031884871246132,26.31542,71.79655,183.9294,0.5642973,-0.2038617,0.7929053,13
6.94,-38.29844,1.331487,-34.28115,-0.996080703437392,-0.1382063726649226,1.0076630704252754,29.793,71.79224,183.9939,0.5590116,-0.2278686,0.7876329,13
6.96,-38.19435,1.520534,-34.24097,-1.0094555603405615,-0.1202071125447362,0.9848614336082582,33.26075,71.86316,184.1742,0.5534602,-0.2520618,0.7814503,13
6.98,-38.09137,1.706389,-34.20013,-1.0287213692744217,-0.1584433297129978,0.9502288170056384,36.72448,71.98484,184.4282,0.5474924,-0.276242,0.774478,13
7.0,-38.19888,1.117874,-34.198,-1.0404296648898257,-0.1955723094584881,0.9096932000516098,37.46678,66.01968,183.3389,0.5078571,-0.2842377,0.7989124,13
7.02,-38.17598,1.116411,-34.19009,-1.0321546018038583,-0.2042540519902523,0.8772454615598804,39.65449,65.74289,182.9812,0.5029979,-0.2980637,0.7946229,13
7.04,-38.07661,1.315124,-34.14739,-1.006815633012673,-0.1811969824626261,0.8476544353526858,43.043,65.59821,182.8989,0.4959666,-0.3210136,0.7867466,13
7.06,-38.03183,1.114004,-34.12869,-0.982868791441013,-0.2149995078893546,0.8112017563898126,44.71218,64.68775,181.3493,0.4909696,-0.3271534,0.7836934,13
7.08,-37.93347,1.314106,-34.08658,-0.9470450231704524,-0.1886411876769791,0.7804101672365702,48.06522,64.45925,181.1532,0.4835912,-0.3493898,0.7747349,13
7.1,-37.91155,1.112488,-34.07435,-0.9110052949828962,-0.2200208343509561,0.7450990433200708,48.09011,63.10001,179.7458,0.4786074,-0.3461658,0.7777613,13
7.12,-37.86282,1.109528,-34.05352,-0.8580488188670072,-0.191841270934876,0.7142590604068477,50.70586,62.41828,178.9296,0.4716582,-0.3618357,0.7708012,13
7.14,-37.76665,1.30863,-34.01211,-0.7894963256964829,-0.1904000545402503,0.6903390630387891,53.98921,61.98746,178.498,0.4639014,-0.3830519,0.7606995,13
7.16,-37.60875,1.101811,-33.94265,-0.7160630897401354,-0.1887810078268981,0.6654513575349181,59.72808,58.64236,174.2819,0.4458031,-0.4124284,0.743006,13
7.18,-37.51897,1.104167,-33.90242,-0.6355698042608537,-0.1815178875971138,0.6435607307223687,61.24952,55.5173,171.4397,0.4333126,-0.4196195,0.7416599,13
7.2,-37.425,1.295061,-33.86081,-0.5510302740656607,-0.1745143415543301,0.6212332252705357,64.4358,54.17052,170.0293,0.4250017,-0.4394003,0.7292984,13
7.22,-37.23137,1.12881,-33.77116,-0.4530817005104479,-0.1573824212235191,0.6069217872734791,60.96422,48.6169,166.8685,0.4052876,-0.4187004,0.7563558,13
7.24,-37.13714,1.312785,-33.72828,-0.3687405353830826,-0.1130545409483404,0.5915615439390605,64.03805,46.58758,164.6761,0.3972228,-0.4379327,0.7438545,13
7.26,-37.02732,1.161837,-33.67717,-0.2839354632139432,-0.1164127668337507,0.5756448374768013,55.74852,49.19818,168.859,0.4074964,-0.3873743,0.7810612,13
7.28,-36.93237,1.341495,-33.63318,-0.2029173548354759,-0.0686679914424467,0.560343261059904,58.82313,47.65263,167.1134,0.4000897,-0.4068993,0.7695777,13
7.3,-36.86039,1.195663,-33.60113,-0.1218602151409022,-0.0231514914200845,0.5449292813409601,48.26317,54.2045,173.2059,0.4366009,-0.3386661,0.7999359,13
7.32,-36.7645,1.372004,-33.55595,-0.0471614197331149,-0.0005318000106227,0.5244497773654473,51.4022,53.38891,172.2298,0.4301113,-0.3591358,0.789978,13
7.34,-36.62354,1.239533,-33.51767,0.018203199824204,0.021383524274518,0.5032111366538539,31.95976,58.76348,175.3423,0.4810257,-0.220524,0.8315189,13
7.36,-36.51478,1.409218,-33.46832,0.0817874034758467,0.0663013143402183,0.4846540565026354,35.45341,58.57699,174.8518,0.4774359,-0.2443593,0.8232289,13
7.38,-36.47033,1.257446,-33.45938,0.1324355942229189,0.0629014637040989,0.461206650939685,19.94952,61.86727,176.5596,0.5105066,-0.1333123,0.8417441,13
7.4,-36.35974,1.425751,-33.41027,0.1806611780605793,0.0575783390158452,0.4390497616356779,23.47318,61.88254,176.3065,0.5087708,-0.1581523,0.8359566,13
7.42,-36.3423,1.268146,-33.40576,0.23337569651415,0.071844504781479,0.422871430210276,8.0609,64.63694,177.5596,0.5344466,-0.04802814,0.8420082,13
7.44,-36.23042,1.4352,-33.35599,0.293527496959741,0.1089355812791937,0.4105481236363451,11.61579,64.76267,177.5111,0.534533,-0.07386642,0.8387922,13
7.46,-36.1477,1.279237,-33.31874,0.342681892981826,0.0984653365105706,0.3966937653278535,354.4098,67.60403,178.4185,0.555051,0.04818621,0.8302719,13
7.48,-36.03497,1.44405,-33.26823,0.3914381246872374,0.1328528433366391,0.3863690920838376,357.9745,67.74554,178.5713,0.5570374,0.02162188,0.830206,13
7.5,-35.99189,1.291357,-33.24611,0.4230057437563896,0.1190562169007218,0.3718447655792261,352.2201,68.23662,179.0851,0.5591451,0.06063004,0.8262513,13
7.52,-35.8783,1.45319,-33.19243,0.4613357812147383,0.150775277013473,0.3613132181354999,355.8215,68.34601,179.3539,0.5611411,0.03332669,0.8268976,13
7.54,-35.81616,1.282524,-33.1619,0.4771342911056662,0.1520158094048053,0.3444771733088387,353.7819,68.68356,179.7787,0.5632105,0.04587005,0.8245295,13
7.56,-35.70479,1.444612,-33.10837,0.4870473869269647,0.1526378499926454,0.3297503462571907,357.3357,68.7961,180.0959,0.5648022,0.01871019,0.8248985,13
7.58,-35.70868,1.261983,-33.11234,0.4861435435443244,0.1496268494636935,0.309776437387133,355.7693,68.97441,180.5799,0.5659831,0.02756045,0.8235748,13
7.6,-35.59805,1.425818,-33.06053,0.4797622138065325,0.1462557443920215,0.2918934129339252,359.3192,69.0985,180.8772,0.5671254,0.0005518233,0.8235747,13
7.62,-35.61336,1.250094,-33.06853,0.4686078308068069,0.1440451633396273,0.2692380206100075,359.4579,69.25513,181.3668,0.5682393,-0.002885155,0.8227633,13
7.64,-35.54894,1.240488,-33.03294,0.4569903897937228,0.1684413234010942,0.2496130863861125,4.033096,69.45722,182.0746,0.5687205,-0.0392219,0.8215793,13
7.66,-35.43657,1.406687,-32.98114,0.4237388990249835,0.1422909002491276,0.2254211729057784,7.664864,69.6254,182.3861,0.568353,-0.06672433,0.8198038,13
7.68,-35.32623,1.569144,-32.93045,0.4016207009116099,0.1658474107545469,0.2049179800964795,11.29467,69.81536,182.7117,0.5674095,-0.09415188,0.8171991,13
7.7,-35.41734,1.225692,-32.92921,0.3529863840247316,0.1378274671553883,0.1770073163859145,10.38805,69.50055,183.3041,0.5652798,-0.09071706,0.819418,13
7.72,-35.38136,1.208235,-32.88078,0.2913439707828047,0.0830162055609245,0.1484940387303348,13.45996,69.71143,183.6931,0.5641803,-0.1144047,0.8166745,13
7.74,-35.27146,1.382749,-32.83075,0.2566606061013647,0.1038233170259257,0.1236629414001271,17.06611,69.80797,183.9728,0.5613109,-0.1412292,0.8134894,13
7.76,-35.30642,1.190556,-32.81929,0.218176752290522,0.123874061078059,0.1012287470954698,16.09927,69.56522,183.8839,0.560622,-0.1340851,0.81547,13
7.78,-35.19799,1.369319,-32.77087,0.1481657457644187,0.0626922613161283,0.069805130433445,19.67858,69.64484,184.1229,0.5572252,-0.1604321,0.8118376,13
7.8,-35.09091,1.544618,-32.72304,0.0940880098925509,0.0538752756769585,0.0393144263087421,23.25643,69.7427,184.3734,0.553284,-0.1866147,0.8074114,13
7.82,-35.21211,1.16793,-32.73693,0.0385553983789828,0.0469993032995944,0.0119982263849234,20.17179,67.73581,184.1478,0.5430465,-0.1651705,0.8204894,13
7.84,-35.10576,1.352821,-32.69015,-0.0360377756728906,-0.0165005348624055,-0.0183769807531533,23.71614,67.77986,184.2458,0.5390066,-0.1906753,0.8160824,13
7.86,-35.0004,1.534386,-32.64379,-0.0818699862497664,0.0035590106409745,-0.0435641807981088,27.25933,67.83249,184.3509,0.5344534,-0.2159945,0.8108946,13
7.88,-35.10106,1.138964,-32.66151,-0.1157569991657796,0.0522927736803281,-0.0636719791279327,26.34095,64.44352,183.9646,0.5121943,-0.2106014,0.8274477,13
7.9,-34.99818,1.33167,-32.61505,-0.1743821352373729,0.0161717374476361,-0.0907155501326615,29.83081,64.41885,183.8766,0.5073958,-0.2350776,0.8217703,13
7.92,-34.99181,1.124825,-32.59945,-0.2357389716634892,-0.0473560067602533,-0.1152445912720945,32.10726,61.57837,183.5258,0.484378,-0.2525816,0.8295202,13
7.94,-34.93715,1.12185,-32.57209,-0.2633989201254767,-0.0244565362592335,-0.1315951735033627,34.72672,60.99269,183.2237,0.4769336,-0.2706684,0.8263316,13
7.96,-34.83757,1.319893,-32.52707,-0.2891558644664553,-0.001606799886395,-0.1456439910064992,38.12051,60.80053,182.872,0.4710858,-0.2935615,0.8191101,13
7.98,-34.83052,1.117187,-32.52462,-0.3282022222718481,-0.0656297274218679,-0.1658439941592759,39.63276,60.47276,182.6529,0.4668424,-0.303775,0.8165294,13
8.0,-34.73167,1.316632,-32.48016,-0.365267736932974,-0.1296803707214928,-0.1841296868062176,43.00257,60.20707,182.2254,0.4604146,-0.326088,0.8083344,13
8.02,-34.6699,1.114517,-32.45561,-0.3693331905942925,-0.0814062236608699,-0.1948656290469426,44.69844,60.43153,181.1087,0.4622539,-0.3330763,0.8010394,13
8.04,-34.5723,1.315068,-32.41101,-0.3623800792352147,-0.0902690096253612,-0.2004142273105635,48.03963,60.13171,180.6716,0.4555388,-0.3549596,0.7916879,13
8.06,-34.53362,1.112964,-32.39306,-0.3548105972727402,-0.1262566680428307,-0.2055442271751983,48.07137,59.43937,179.5126,0.4542714,-0.3518,0.7922926,13
8.08,-34.43687,1.31345,-32.34949,-0.3359722891129788,-0.1026762821058927,-0.2054205303395013,51.37007,59.01017,178.9285,0.4473448,-0.3730471,0.7822863,13
8.1,-34.38428,1.107151,-32.32582,-0.3138850749661062,-0.0800511819316834,-0.2034635730789498,53.32145,58.34223,177.6569,0.4435164,-0.3828079,0.7756972,13
8.12,-34.28868,1.305583,-32.28287,-0.2748176696533404,-0.0852429230361192,-0.1939454005307292,56.58342,57.72424,176.882,0.4361781,-0.4033698,0.7646583,13
8.14,-34.10201,1.104553,-32.19743,-0.2256138586383329,-0.0597758030517047,-0.1796719966055042,61.2289,52.96234,171.1528,0.4177657,-0.4248709,0.7505096,13
8.16,-34.00739,1.295747,-32.15549,-0.1734446819833857,-0.0359304237964736,-0.1637084059574576,64.39651,51.45675,169.4422,0.40995,-0.444192,0.7378033,13
8.18,-33.903,1.118172,-32.10526,-0.1133688186003687,-0.0308519960222294,-0.1453750897589492,61.79477,48.11014,167.2372,0.3997192,-0.4271259,0.755448,13
8.2,-33.80915,1.304601,-32.06223,-0.0531359989163569,-0.0206453248696769,-0.1283250143915797,64.86716,46.11209,164.9837,0.3921902,-0.4460595,0.7424921,13
8.22,-33.62421,1.161946,-31.97295,0.0083994067658244,-0.0108304141667265,-0.1106301829438756,55.73911,47.53225,168.7738,0.3963985,-0.3909212,0.7867426,13
8.24,-33.52932,1.341739,-31.9282,0.0662943544559175,0.0052548622078547,-0.1000078734256555,58.7987,46.00836,166.9434,0.3896369,-0.4102167,0.7749259,13
8.26,-33.44006,1.195731,-31.88582,0.1240928975883619,0.0205404907707118,-0.0894164065119613,48.25738,52.75829,173.1848,0.4265404,-0.3414727,0.8053595,13
8.28,-33.34467,1.372147,-31.83935,0.178805853178614,0.081759486113994,-0.0803092733543202,51.38948,52.01406,172.1896,0.4207444,-0.3618577,0.7950417,13
8.3,-33.25055,1.5458,-31.79352,0.2280393561976237,0.0717168452708111,-0.0802509534161317,54.51122,51.12075,171.0502,0.4146228,-0.3819553,0.7841083,13
8.32,-33.18752,1.23928,-31.79067,0.271116767879386,0.0847355667317636,-0.0835000950064923,32.00366,57.52398,175.3454,0.47196,-0.222676,0.836578,13
8.34,-33.07553,1.257737,-31.74958,0.3141816694580734,0.0964551204975341,-0.0867505054272856,19.92913,60.62248,176.5823,0.5013173,-0.1344943,0.8472914,13
8.36,-32.96798,1.426491,-31.69791,0.3477533801413659,0.10460331407189,-0.0937781256651097,23.40889,60.5498,176.3412,0.499008,-0.1593471,0.8419635,13
8.38,-32.93082,1.268233,-31.68687,0.3785146981349685,0.1116819905574701,-0.1016252004925326,8.058337,63.40016,177.5554,0.5253301,-0.04858655,0.847727,13
8.4,-32.82066,1.435393,-31.63442,0.4151153804761813,0.1624986039435395,-0.1045599025863559,11.60717,63.40509,177.4885,0.5245758,-0.07455235,0.8450595,13
8.42,-32.7205,1.279264,-31.59032,0.4354998643843046,0.1412405352183341,-0.1152596818732782,354.4087,66.39253,178.4103,0.5462383,0.04839667,0.8360942,13
8.44,-32.6092,1.444069,-31.53696,0.4685527527684852,0.1439611713025035,-0.1204680005349532,357.9795,66.40021,178.5406,0.5472474,0.02172461,0.8366885,13
8.46,-32.54839,1.291362,-31.50756,0.4978740158485442,0.1448759390499799,-0.1258978958945511,352.2216,67.00668,179.0778,0.5502415,0.06098794,0.8322078,13
8.48,-32.43655,1.453213,-31.45075,0.5135753552571511,0.1424230845412261,-0.1364049140435561,355.8247,66.99654,179.3317,0.5513589,0.0335936,0.8334522,13
8.5,-32.41261,1.296055,-31.44149,0.5248163717060308,0.1386219346089875,-0.147366785216402,353.4613,67.24904,179.5295,0.5526471,0.04975709,0.8314518,13
8.52,-32.30208,1.456983,-31.38379,0.5327974011053618,0.1284228527076497,-0.1606254520311125,357.0309,67.23989,179.836,0.5534642,0.02236575,0.8324688,13
8.54,-32.28003,1.262056,-31.37805,0.5293850815752688,0.0938423787836138,-0.1776888702518686,355.7589,67.78049,180.5849,0.5573715,0.02787085,0.8294227,13
8.56,-32.17152,1.425986,-31.32299,0.5288442068138668,0.1072312459398919,-0.1925064850801749,359.301,67.78399,180.8805,0.5576411,0.0007791556,0.8300241,13
8.58,-32.1659,1.250123,-31.3249,0.5231632200972367,0.1182151777139936,-0.208694118977792,359.4532,68.08668,181.3659,0.5598209,-0.002719178,0.8285143,13
8.6,-32.05534,1.414593,-31.27013,0.5049784384551717,0.1055186615746578,-0.2264207637153918,3.067227,68.10918,181.652,0.5594042,-0.0302413,0.8283378,13
8.62,-32.08292,1.240341,-31.28159,0.4831320879148948,0.0928102006943027,-0.2446555574974382,4.045872,68.38206,182.0656,0.5609862,-0.03931697,0.8268765,13
8.64,-31.97148,1.406354,-31.22689,0.4754865472329141,0.1276280205402518,-0.2547648559772875,7.698596,68.42859,182.3622,0.5597578,-0.06706704,0.8256778,13
8.66,-31.97939,1.226248,-31.22292,0.4448609349857717,0.111431899357602,-0.2720528631903196,10.35342,68.37003,183.1673,0.5572988,-0.09007492,0.8249398,13
8.68,-31.86932,1.396691,-31.16961,0.3988048225212504,0.0705030793768015,-0.2942514773978519,13.97558,68.44507,183.4467,0.5549533,-0.1173366,0.8224041,13
8.7,-31.91241,1.208739,-31.18629,0.3496978521440308,0.0302175032463732,-0.3173643246619897,13.44437,68.69185,183.5394,0.5570576,-0.1139035,0.8216189,13
8.72,-31.86603,1.190917,-31.1589,0.3106028769697539,0.0102403843465898,-0.3372594992165902,16.08364,68.64259,183.7778,0.5541766,-0.133878,0.8199229,13
8.74,-31.75904,1.369715,-31.10829,0.2807140208654202,0.020483588992582,-0.3576661555304188,19.64786,68.7403,184.0438,0.550944,-0.1603697,0.8161966,13
8.76,-31.65337,1.545072,-31.05832,0.2487522992791766,0.0302668906522748,-0.3790135369847363,23.21056,68.85835,184.3228,0.5471768,-0.1866979,0.8116783,13
8.78,-31.74069,1.168232,-31.08883,0.2356017820572451,0.0911004369709273,-0.3957233241827844,20.1493,66.97874,184.0641,0.5377595,-0.1650627,0.8240352,13
8.8,-31.72984,1.16076,-31.08055,0.1826720781787885,0.0424822385148734,-0.4205076615542595,21.57818,66.19039,184.0983,0.5304291,-0.1759035,0.826084,13
8.82,-31.62572,1.347746,-31.03189,0.1294080404671977,-0.0045369875653591,-0.4456329236521883,25.0956,66.24084,184.1851,0.5263503,-0.2013087,0.8213094,13
8.84,-31.6427,1.139006,-31.02719,0.093209708469514,-0.026643733991002,-0.4638239552053678,26.31103,63.84278,183.9733,0.5078723,-0.2109095,0.8301741,13
8.86,-31.5409,1.331691,-30.97917,0.0487781153958581,-0.074270479361143,-0.4837880124334623,29.79099,63.8299,183.9119,0.5031499,-0.2355087,0.8244702,13
8.88,-31.43962,1.521247,-30.9314,0.0055465892163848,-0.1201091437529982,-0.50357262653166,33.26957,63.81214,183.8474,0.4979656,-0.2598817,0.8180084,13
8.9,-31.51134,1.124804,-30.95398,-0.0061941708105708,-0.0813477836935188,-0.5136869455021102,32.10421,61.06161,183.5351,0.4806163,-0.2531196,0.8317114,13
8.92,-31.43428,1.11874,-30.91364,-0.0373801057946736,-0.1282192660730536,-0.5285579394547462,37.41856,59.85877,182.9894,0.465156,-0.2902213,0.8247415,13
8.94,-31.33544,1.317536,-30.86747,-0.0512772924865276,-0.1144762948027686,-0.5381968470919234,40.80905,59.62291,182.5904,0.4589968,-0.3129635,0.816934,13
8.96,-31.23677,1.513386,-30.82139,-0.0628512368598759,-0.1273355655670813,-0.5465240496008836,44.19715,59.34111,182.15,0.4524344,-0.3354232,0.808408,13
8.98,-31.24348,1.115038,-30.8314,-0.0706602107897746,-0.1382799829100155,-0.553667904477499,43.28315,59.91619,181.7258,0.459301,-0.3264784,0.8080004,13
9.0,-31.14581,1.315327,-30.78594,-0.0724797059888975,-0.1475614771930819,-0.5562565268463682,46.63653,59.62283,181.2884,0.4526497,-0.3485667,0.7989579,13
9.02,-31.04822,1.512742,-30.74055,-0.0700524384192258,-0.1550931758512412,-0.5573616404987694,49.98706,59.26978,180.7946,0.4456095,-0.3703471,0.7892285,13
9.04,-30.97701,1.109946,-30.70702,-0.0512653478312405,-0.1620884342291636,-0.5516165645634628,50.71334,58.35924,178.7146,0.4447447,-0.3689394,0.7865894,13
9.06,-30.9012,1.107148,-30.67199,-0.0292816114793192,-0.168023090573153,-0.5446542175577296,53.31803,57.72573,177.6633,0.4393212,-0.3840658,0.7780971,13
9.08,-30.80594,1.305556,-30.62768,0.0064728234730195,-0.1712572764132097,-0.5314405860861089,56.5914,57.08073,176.8961,0.4318133,-0.4048729,0.7670963,13
9.1,-30.71074,1.501203,-30.58311,0.0449734582309462,-0.1741081951715626,-0.5169011227165932,59.87045,56.25172,175.9873,0.4236767,-0.4255211,0.7555537,13
9.12,-30.59643,1.104518,-30.52867,0.1072158663666567,-0.1695487549614085,-0.4927580853403195,61.22914,52.21145,171.1737,0.4127604,-0.4268119,0.7532818,13
9.14,-30.50261,1.295697,-30.48517,0.1710568252769229,-0.1654417979493163,-0.4672794877946771,64.40028,50.66014,169.4741,0.4046818,-0.4464082,0.7407011,13
9.16,-30.40937,1.484248,-30.4419,0.2251159142240482,-0.1525988072824587,-0.4461731592863596,67.54517,48.66208,167.3298,0.3962819,-0.4656398,0.7275219,13
9.18,-30.21299,1.144261,-30.3632,0.2794809523840702,-0.1399880714515944,-0.4241976150728757,58.37713,49.73234,167.9455,0.4115359,-0.4014806,0.7661724,13
9.2,-30.131,1.161766,-30.33663,0.3321686908894845,-0.0758727399869786,-0.4027563547275066,55.75794,50.60697,168.8589,0.4170581,-0.3840712,0.7759547,13
9.22,-30.0349,1.341447,-30.29519,0.3819056814360366,-0.0832562172267642,-0.3828378348915615,58.83075,49.12336,167.1286,0.4098725,-0.4032964,0.7643861,13
9.24,-29.86533,1.211877,-30.2566,0.4242507671724693,-0.0644321075456635,-0.3706224543015142,43.04995,58.32751,173.9746,0.469534,-0.296126,0.8018097,13
9.26,-29.76287,1.385749,-30.21424,0.4664438982502794,-0.0466432080389219,-0.3584611099546384,46.32055,57.7593,173.1958,0.4637027,-0.3174335,0.7923759,13
9.28,-29.66191,1.556604,-30.17247,0.5085564101868241,0.0154796131238349,-0.3462667211839565,49.58453,57.08488,172.3168,0.457477,-0.3384762,0.7822836,13
9.3,-29.58969,1.25,-30.19033,0.5370404764689098,0.0057586733256855,-0.3413799049751751,26.19131,63.92096,176.0245,0.5219254,-0.174233,0.8216918,13
9.32,-29.5453,1.257567,-30.18282,0.5652836825713465,-0.0064049085664855,-0.3365977385804268,19.94804,65.69556,176.6084,0.5382833,-0.1296366,0.824275,13
9.34,-29.43382,1.426162,-30.13971,0.5971447947247666,0.0475316607043782,-0.3257920277980184,23.43869,65.61251,176.3961,0.5356117,-0.1539563,0.8191192,13
9.36,-29.33777,1.272017,-30.12937,0.619723397530815,0.0524379995107322,-0.3180817090791046,2.31693,70.51393,177.9646,0.5773287,-0.006255986,0.8160686,13
9.38,-29.22294,1.438638,-30.08749,0.6330301882326936,0.0336989926288903,-0.3132982550055332,5.867529,70.51373,177.9964,0.5771291,-0.03170778,0.8148612,13
9.4,-29.11032,1.601645,-30.04646,0.6535794239101271,0.0610596694732734,-0.3032098652413753,9.411859,70.53664,178.0353,0.5765237,-0.05710757,0.8127729,13
9.42,-29.08284,1.285329,-30.05356,0.6711113044539636,0.0411595361989526,-0.2963100087794501,353.3029,73.14873,178.7455,0.5942992,0.0534171,0.8020462,13
9.44,-28.95025,1.293749,-30.01571,0.6857252698481902,0.0665574267018818,-0.289165879746319,352.8333,73.92387,179.3038,0.5997944,0.05358492,0.7976866,13
9.46,-28.83323,1.455137,-29.97176,0.6948402935721338,0.0885578194310459,-0.283518259587372,356.4174,73.91519,179.593,0.6008375,0.02711273,0.798752,13
9.48,-28.81206,1.282768,-29.97381,0.6832417479379993,0.0801674069746084,-0.2850677406348998,353.7665,74.57768,179.7801,0.6048532,0.04441768,0.7944763,13
9.5,-28.69678,1.444993,-29.93099,0.655764134100068,0.0471661272635414,-0.293055312950095,357.3089,74.57168,180.0934,0.6056397,0.01818941,0.795392,13
9.52,-28.64186,1.254573,-29.92966,0.6365506804874164,0.0603237471089071,-0.2963688367639143,357.4402,75.38394,181.1588,0.6114111,0.01149337,0.7909334,13
9.54,-28.57256,1.249758,-29.90809,0.601666975098023,0.023474045519672,-0.3055305810366007,359.4866,75.69792,181.3753,0.6135741,-0.003826524,0.7895333,13
9.56,-28.45461,1.413761,-29.86766,0.5757085968501165,0.0387665325353649,-0.3094908862618677,3.139836,75.70948,181.6713,0.6130506,-0.03057582,0.789434,13
9.58,-28.33899,1.57397,-29.82805,0.5454935596410837,0.0521059821285247,-0.3156241317966186,6.791378,75.74503,181.9718,0.6119336,-0.05729344,0.7885017,13
9.6,-28.39281,1.237429,-29.84893,0.4983892758260526,0.0403937295783125,-0.3228061432587275,6.215909,76.21656,182.6082,0.6151115,-0.05667466,0.7862467,13
9.62,-28.27495,1.404242,-29.8088,0.4323866984123916,0.004198033338214,-0.3361806171995734,9.884794,76.23536,182.9265,0.6130522,-0.08346355,0.7849219,13
9.64,-28.15927,1.567264,-29.76938,0.3841436610875202,0.0185380241334092,-0.341703978502009,13.55268,76.27547,183.2507,0.610361,-0.1101621,0.7827868,13
9.66,-28.22489,1.208333,-29.79404,0.3134934852760622,-0.0200482338927359,-0.3540743243315543,13.45199,79.78432,183.6736,0.6337231,-0.110231,0.7639886,13
9.68,-28.19517,1.199363,-29.78871,0.2583681143723209,-0.0060284950542033,-0.3609770937061349,14.76193,80.22511,183.7758,0.635369,-0.119245,0.7607583,13
9.7,-28.08011,1.375808,-29.75666,0.2012570683162389,0.0075516521095713,-0.3696717532920655,18.33606,80.34639,184.1567,0.6320252,-0.1447601,0.7575681,13
9.72,-28.08141,1.175468,-29.74664,0.132299080570001,-0.0075734868749163,-0.3762502161069267,18.75102,79.1686,184.142,0.6237531,-0.1481864,0.7636476,13
9.74,-27.96809,1.357969,-29.71609,0.072632537959115,0.0087588567535077,-0.3803627587147322,22.30992,79.28736,184.4251,0.6197397,-0.1730269,0.7596814,13
9.76,-27.85596,1.53708,-29.68588,0.0130034022871212,0.0251543775163199,-0.3855604426750121,25.86652,79.43319,184.7266,0.6151515,-0.1976966,0.7549604,13
9.78,-27.74522,1.712881,-29.65604,-0.0734152435751864,-0.0425027232308773,-0.3980758515545766,29.4209,79.60678,185.0515,0.6099734,-0.2221801,0.7495054,13
9.8,-27.90131,1.145311,-29.67821,-0.1301860700010912,-0.0267751496168626,-0.3998924021416719,24.62918,75.42274,184.0831,0.59122,-0.1899079,0.777057,13
9.82,-27.79156,1.336114,-29.64844,-0.1709630054901936,0.0180885316398999,-0.3963308069758766,28.13263,75.48627,184.1272,0.5864625,-0.2134471,0.7719117,13
9.84,-27.79655,1.128725,-29.63168,-0.2281592328228256,-0.0219303318683826,-0.3965517265549758,30.06515,72.11757,183.7007,0.5614051,-0.2279229,0.7852709,13
9.86,-27.75574,1.124824,-29.61572,-0.2722986658980675,-0.0295634046845168,-0.3926001960507146,32.08958,71.03018,183.5355,0.5510827,-0.2420853,0.7868361,13
9.88,-27.64915,1.321927,-29.58628,-0.3126206301333618,-0.0346769388820252,-0.3888002912172963,35.52776,70.87233,183.2769,0.5448188,-0.2642657,0.7806565,13
9.9,-27.54285,1.515976,-29.55677,-0.3495707900265627,-0.0406152402221527,-0.3852911550381157,38.96664,70.68871,183.0044,0.5380446,-0.2862625,0.7737765,13
9.92,-27.58969,1.117136,-29.56425,-0.3759313575510861,-0.0467765756589534,-0.3780813638134002,39.64687,69.45389,182.6785,0.5292485,-0.291166,0.7774778,13
9.94,-27.48464,1.316489,-29.53513,-0.3937398911171721,-0.0202461418046019,-0.3695950425942076,43.04564,69.13311,182.2735,0.5217044,-0.3125187,0.7700274,13
9.96,-27.43649,1.114526,-29.52224,-0.4065001894199982,0.0061880718623394,-0.3608425848241445,44.70092,68.96493,181.1081,0.5205661,-0.3185059,0.7644205,13
9.98,-27.33327,1.315081,-29.49275,-0.4203561181311257,-0.0552248706883414,-0.3546791178207038,48.04912,68.5974,180.6629,0.5127372,-0.3393047,0.7558604,13
10.0,-27.30919,1.112979,-29.4837,-0.4196304533316439,-0.0571203159724482,-0.3419178668240961,48.06992,67.71075,179.5075,0.5102454,-0.336046,0.7574623,13
10.02,-27.20723,1.313485,-29.45478,-0.4137961351768107,-0.0573933617807401,-0.3288706500521927,51.37008,67.20987,178.9102,0.5021865,-0.3562272,0.7482623,13
10.04,-27.05576,1.103753,-29.4082,-0.3875373533877346,-0.1155185636498722,-0.312675889799467,56.5219,65.34998,176.1662,0.4885859,-0.3824277,0.7324452,13
10.06,-26.95556,1.299846,-29.37953,-0.3540523044259847,-0.0860619613362997,-0.2950713680680095,59.76829,64.46568,175.1783,0.479762,-0.4016362,0.7215862,13
10.08,-26.84021,1.104535,-29.34272,-0.3141870489113123,-0.0275342830973152,-0.2763825839982705,61.21595,60.74703,171.1771,0.4676849,-0.4045024,0.7205395,13
10.1,-26.74112,1.295749,-29.31391,-0.2656982457191827,-0.0485242582227531,-0.2576150287733183,64.38161,59.19283,169.4806,0.4586713,-0.4229659,0.708643,13
10.12,-26.53771,1.128986,-29.24691,-0.2018720826917035,-0.0924040376056044,-0.2373614854292753,60.93605,54.39936,166.7478,0.4433815,-0.4025137,0.7347367,13
10.14,-26.43914,1.313244,-29.21612,-0.1389525962827478,-0.0515928798479096,-0.2195235374425936,63.97325,52.35531,164.4405,0.4350832,-0.4203618,0.7225358,13
10.16,-26.32206,1.162004,-29.17982,-0.0734497778684692,-0.0583936984791729,-0.2043262047453011,55.73319,55.29284,168.7343,0.4488658,-0.3717862,0.7580363,13
10.18,-26.22214,1.341922,-29.14881,-0.0062438856629896,-0.0672214255694136,-0.1905825354040868,58.77782,53.72071,166.8673,0.4411529,-0.3899003,0.74685,13
10.2,-26.12341,1.519147,-29.11811,0.0467275996636891,-0.0023618659127062,-0.1838117955088098,61.79079,51.7952,164.652,0.4331149,-0.4077222,0.7350706,13
10.22,-26.04187,1.212019,-29.10071,0.1049024259983988,0.0175770655589685,-0.1830829102274047,43.04592,61.9076,173.8885,0.4945734,-0.2886705,0.7865902,13
10.24,-25.89376,1.239566,-29.07784,0.1646950214772551,0.0364698557231945,-0.1839709844717054,32.00005,65.78706,175.2356,0.5312107,-0.209549,0.8002338,13
10.26,-25.77898,1.409442,-29.04476,0.2143794459447892,0.097187012333202,-0.1862520975059127,35.48363,65.50593,174.6333,0.5267199,-0.231875,0.7924155,13
10.28,-25.66623,1.575839,-29.01231,0.2509567161789516,0.0857615454575594,-0.1952005129071334,38.96079,65.20302,173.9995,0.5219584,-0.2539687,0.7837204,13
10.3,-25.63987,1.263338,-29.02635,0.2874721255725232,0.0722746707849409,-0.2059563092177967,13.89256,70.90225,177.1579,0.5780172,-0.08420949,0.8066432,13
10.32,-25.52204,1.430653,-28.99154,0.3273766874164807,0.1248938178224321,-0.2098594768046933,17.47075,70.91579,177.004,0.5764136,-0.1086736,0.8025154,13
10.34,-25.4063,1.594288,-28.95745,0.3726262580617203,0.1304598353036779,-0.2124149596516615,21.0468,70.92023,176.8453,0.5742573,-0.1330046,0.7975998,13
10.36,-25.32835,1.279179,-28.94846,0.4109525772727229,0.1125515706336926,-0.2176599664481986,354.4318,75.76944,178.4133,0.6127604,0.04682488,0.7886538,13
10.38,-25.2528,1.284956,-28.92738,0.4492252834696382,0.1400850130127682,-0.2193077163174002,353.333,76.26745,178.7855,0.6159348,0.05226778,0.7855774,13
10.4,-25.13327,1.447938,-28.89009,0.4838179717504869,0.1643391796344569,-0.2220728886084857,356.9387,76.30328,179.0309,0.6173248,0.02622744,0.7862095,13
10.42,-25.00871,1.295893,-28.86937,0.4948310844837804,0.1143778701397155,-0.2319891774961062,353.4736,77.41931,179.537,0.6241758,0.04694042,0.7791975,13
10.44,-24.88916,1.456629,-28.8321,0.5152432873259722,0.1327702595214271,-0.2357279480036256,357.0566,77.44969,179.8535,0.6253487,0.02083603,0.7799219,13
10.46,-24.77209,1.613537,-28.79568,0.517351759738021,0.1223788975411408,-0.2445808806983986,0.6384188,77.49976,180.1714,0.6259051,-0.005281257,0.7798782,13
10.48,-24.81175,1.262033,-28.82284,0.5154150163777698,0.1118800940628473,-0.254800622261349,355.7545,78.41875,180.5942,0.6318626,0.02542457,0.7741776,13
10.5,-24.77114,1.254401,-28.81866,0.5060439125055312,0.1009561664045196,-0.2634890019502807,357.4627,78.62778,181.1335,0.6335516,0.0108629,0.7733204,13
10.52,-24.65298,1.418542,-28.78579,0.4936268769698495,0.0900645404629419,-0.2733089813782481,1.044766,78.69453,181.4177,0.633857,-0.01489337,0.7732977,13
10.54,-24.61295,1.240235,-28.77659,0.471264865497417,0.0807994667825293,-0.2803458552541036,4.045954,79.31689,182.0783,0.6372141,-0.03873916,0.7696649,13
10.56,-24.49293,1.406099,-28.74343,0.4527584974419834,0.0975436338891318,-0.2855041395005613,7.708156,79.36907,182.3912,0.6358981,-0.06500974,0.7685601,13
10.58,-24.37515,1.568161,-28.71091,0.430224200894064,0.1130733629042952,-0.2917618066722185,11.36996,79.44228,182.712,0.6339274,-0.09121994,0.7666646,13
10.6,-24.45152,1.226012,-28.7287,0.3732757407710823,0.0513235699352763,-0.3053898976366507,10.37493,79.61854,183.1814,0.635438,-0.08712791,0.7663458,13
10.62,-24.44442,1.217369,-28.72708,0.3309357372104444,0.036463032225309,-0.3137325043130983,11.90311,79.83418,183.3511,0.6356217,-0.0981531,0.7644592,13
10.64,-24.32662,1.389736,-28.69603,0.2861455902916994,0.0237967971837578,-0.3234496904806097,15.53249,79.79849,183.622,0.6319624,-0.123703,0.7624965,13
10.66,-24.34931,1.191006,-28.70068,0.2383565055579639,0.010404920817367,-0.3346354515467133,16.08013,80.09573,183.7529,0.6332552,-0.1278722,0.760523,13
10.68,-24.23413,1.369768,-28.67205,0.1876658479713282,-0.0064360924958442,-0.3431993890369931,19.66105,80.06473,183.989,0.6288421,-0.1527065,0.7578039,13
10.7,-24.12044,1.545034,-28.64351,0.1487396769418758,0.0065543602615955,-0.3479164801064636,23.2429,80.06183,184.24,0.623878,-0.1774459,0.7542804,13
10.72,-24.23474,1.160996,-28.65965,0.1087667233358242,0.0195914513207878,-0.352698912090394,21.55111,76.48488,184.0438,0.6025165,-0.1682022,0.7751526,13
10.74,-24.1235,1.348141,-28.63162,0.0620650169001892,0.0045459063036925,-0.3579456486429713,25.06243,76.49084,184.0776,0.5978398,-0.1917926,0.7709506,13
10.76,-24.01314,1.532031,-28.60374,0.0057856185433946,-0.0357813297037466,-0.364880018836121,28.5738,76.50217,184.1165,0.5926139,-0.2152184,0.7660138,13
10.78,-24.09004,1.139235,-28.61886,-0.0501599625938298,-0.0741376947520167,-0.3718877610152886,26.31845,74.48597,183.8747,0.5828412,-0.2010521,0.779387,13
10.8,-23.97991,1.332081,-28.59276,-0.106177558642404,-0.1137456525209527,-0.3789879838873613,29.82302,74.32948,183.7111,0.5768192,-0.2238588,0.7746956,13
10.82,-23.8702,1.521687,-28.56643,-0.1458295144148467,-0.129320654110204,-0.3819284921015389,33.33831,74.13903,183.5458,0.5700955,-0.2466305,0.769358,13
10.84,-23.89295,1.121793,-28.56298,-0.1829752721088224,-0.1423337349728318,-0.3846291048241608,34.75853,71.41812,183.2479,0.5499271,-0.2582266,0.7795522,13
10.86,-23.84009,1.118752,-28.54971,-0.2086270311739446,-0.1531611362452268,-0.3884784383582778,37.41033,70.86591,182.9968,0.5421078,-0.2755731,0.7763562,13
10.88,-23.7338,1.317494,-28.52296,-0.2211286345610181,-0.1317265079166011,-0.3902642928432005,40.8374,70.41634,182.5957,0.5337281,-0.2972206,0.770085,13
10.9,-23.62794,1.513235,-28.49586,-0.2422692454810686,-0.1664668609924584,-0.3943364933242765,44.25478,69.95973,182.1551,0.5251675,-0.3185559,0.7629338,13
10.92,-23.6514,1.114958,-28.51355,-0.2598962694627342,-0.2002247995790075,-0.3983437615554099,43.29736,70.97485,181.7686,0.5348759,-0.3086776,0.7600242,13
10.94,-23.54674,1.315162,-28.48704,-0.2502987594547741,-0.2047741599976306,-0.3986524257741948,46.68401,70.47054,181.3578,0.525845,-0.3298812,0.7525967,13
10.96,-23.44219,1.512468,-28.46034,-0.2395195510371039,-0.236097232681828,-0.3995908368625795,50.07041,69.89243,180.8751,0.5163268,-0.3508255,0.744508,13
10.98,-23.3784,1.109904,-28.45239,-0.2168169798091042,-0.2073156949620926,-0.3977960765756143,50.73097,69.45438,178.7454,0.5185739,-0.3464264,0.7399237,13
11.0,-23.31512,1.107069,-28.43854,-0.1903886082455081,-0.179135668992619,-0.3956631785342308,53.31478,68.94989,177.7178,0.5131436,-0.3597113,0.7315438,13
11.02,-23.21423,1.305415,-28.41314,-0.1322997239715988,-0.177488298401762,-0.3934706574545705,56.57558,68.22053,177.0073,0.5038949,-0.3793419,0.7218955,13
11.04,-23.00254,1.104399,-28.36611,-0.0714666566557178,-0.1756925783957241,-0.3911566944763329,61.21513,63.93162,171.2986,0.4871078,-0.3961379,0.7076131,13
11.06,-22.90303,1.295512,-28.34118,-0.0115377719911715,-0.1658928114972746,-0.3935861373063756,64.3782,62.5279,169.7528,0.4781218,-0.4143143,0.69582,13
11.08,-22.80396,1.484018,-28.31625,0.0498845647027712,-0.1559044274218596,-0.3965081853649814,67.52592,60.67627,167.7872,0.4685544,-0.4322627,0.6835672,13
11.1,-22.66749,1.128796,-28.28777,0.1100937263956365,-0.0906661749843938,-0.401137539505457,60.96134,58.11969,166.8362,0.4666605,-0.3924882,0.7201046,13
11.12,-22.47927,1.161847,-28.24744,0.1839072987865675,-0.0960937186810814,-0.4127414654605719,55.74672,59.38384,168.8324,0.4753086,-0.3616018,0.7417406,13
11.14,-22.37831,1.341749,-28.22187,0.2424172694295054,-0.0502322268208717,-0.4307603224576617,58.79193,57.98644,167.1025,0.4678474,-0.3791817,0.730518,13
11.16,-22.27119,1.196026,-28.2074,0.2999532974469572,-0.0061754293935551,-0.4501223286182636,48.23749,64.96978,173.0889,0.5100755,-0.3145196,0.7552654,13
11.18,-22.16859,1.372888,-28.18399,0.3520382078225976,0.0156650060491902,-0.4789683328646763,51.32454,64.21441,172.0251,0.5034278,-0.3326283,0.7456496,13
11.2,-22.06728,1.546967,-28.16068,0.4040643767444636,0.0368060996559818,-0.5102412654120188,54.40769,63.31276,170.8306,0.4963822,-0.3505822,0.7354545,13
11.22,-21.94151,1.25074,-28.18253,0.4566302672569424,0.0099361069742456,-0.5480955111449917,26.13663,72.40823,175.9085,0.5815125,-0.161799,0.780751,13
11.24,-21.82334,1.419817,-28.15962,0.5068137156417598,0.0286613571120508,-0.5868508158588144,29.6364,72.25278,175.4513,0.5777097,-0.1837949,0.7742566,13
11.26,-21.70699,1.585234,-28.1368,0.5490085353521508,0.0684945787266187,-0.6271047216035002,33.14515,72.03745,174.97,0.5732021,-0.2057463,0.7671188,13
11.28,-21.67546,1.268202,-28.1461,0.5783824578957542,0.0598664898183554,-0.6701756135013568,8.109187,77.25587,177.5137,0.62375,-0.0417145,0.7781198,13
11.3,-21.55484,1.435105,-28.12213,0.6046505738563948,0.0494105393118262,-0.716285936126976,11.691,77.19395,177.4075,0.6222363,-0.06553914,0.7758533,13
11.32,-21.43657,1.598364,-28.09864,0.6287807438693553,0.0606539500892268,-0.7572663942527318,15.26398,77.1614,177.3075,0.6203607,-0.08927119,0.7726461,13
11.34,-21.33222,1.285336,-28.08936,0.6516669254058436,0.0489272831621105,-0.8024840607938328,353.3136,80.97493,178.7076,0.6476353,0.05165986,0.7596325,13
11.36,-21.24431,1.291259,-28.07237,0.6708014476530018,0.0348186871226101,-0.8504740028491318,352.2339,81.33961,179.0811,0.64977,0.0565767,0.7570665,13
11.38,-21.1219,1.453047,-28.04451,0.6767713481838826,0.0401824623636401,-0.8955959630748662,355.8422,81.29471,179.3391,0.6508033,0.03127794,0.7583576,13
11.4,-21.0018,1.61083,-28.01672,0.6846417845707542,0.0683477030738902,-0.9414678089687571,359.4617,81.23541,179.5969,0.6509851,0.005855753,0.759068,13
11.42,-21.0204,1.282621,-28.03076,0.6680046565518318,0.0455387040414927,-0.9874366634213176,353.7831,81.9797,179.7772,0.6548795,0.04220475,0.7537831,13
11.44,-20.90011,1.444563,-28.00238,0.6419237166474305,0.0433144324709889,-1.0341459819830918,357.3499,81.89825,180.0892,0.6552268,0.01695576,0.755078,13
11.46,-20.86512,1.254322,-28.00736,0.610911258462699,0.0410880829656787,-1.0844562740060062,357.4618,82.41329,181.1591,0.6587501,0.01000057,0.7519679,13
11.48,-20.74533,1.418188,-27.97978,0.5579530654417844,-0.0112402313334848,-1.1341369296786707,1.065791,82.27084,181.4589,0.6576701,-0.01537866,0.7531413,13
11.5,-20.74654,1.245574,-27.97855,0.5237058528849876,0.0107549389716664,-1.1781451360390074,1.449558,82.44292,181.6207,0.6587182,-0.01883226,0.7521507,13
11.52,-20.62539,1.410199,-27.95101,0.4756806637298116,0.009047599391334,-1.214779668995441,5.101512,82.4152,181.9533,0.6574703,-0.04469508,0.7519729,13
11.54,-20.61241,1.23192,-27.9379,0.4156906781521665,-0.0180085174425068,-1.251202982371891,8.278162,82.17987,182.8796,0.6539548,-0.07085306,0.7526679,13
11.56,-20.49212,1.40055,-27.91124,0.3638982379144,0.0060729646063259,-1.2870820308707058,11.92295,82.19249,183.1771,0.65135,-0.09636293,0.7511355,13
11.58,-20.37416,1.565595,-27.8851,0.2878935237936462,-0.0215366894201847,-1.3197244453120365,15.54962,82.30148,183.4929,0.648586,-0.1216864,0.7484256,13
11.6,-20.46898,1.208484,-27.90252,0.208774828942972,-0.0482355536241388,-1.3553958656807747,13.46944,83.24911,183.5709,0.6566116,-0.1081735,0.7444223,13
11.62,-20.40509,1.190981,-27.89558,0.1321634108051337,-0.0535928518325434,-1.3792910595976808,16.09039,83.63656,183.741,0.6564516,-0.1257969,0.7405813,13
11.64,-20.28875,1.369854,-27.87423,0.0614797861891163,-0.0578485799467605,-1.3976773496829895,19.64695,83.71143,183.9911,0.6526501,-0.1498947,0.7374262,13
11.66,-20.17395,1.54525,-27.85288,-0.0100272871338993,-0.0597502852514995,-1.418533652617692,23.19835,83.87152,184.2835,0.6486022,-0.1739313,0.7332157,13
11.68,-20.24643,1.168219,-27.8692,-0.0813664430369471,-0.0610595219433023,-1.4299055153893394,20.14279,82.88297,184.0832,0.6465724,-0.1542243,0.7417356,13
11.7,-20.13211,1.352998,-27.84987,-0.1521219574804537,-0.0600563312758613,-1.4432864654203783,23.65546,83.1896,184.2842,0.64358,-0.177468,0.7365547,13
11.72,-20.01881,1.534418,-27.8307,-0.2440568382900978,-0.114685084499556,-1.451650290095238,27.16765,83.55012,184.5295,0.640145,-0.2006096,0.7305222,13
11.74,-20.06498,1.138715,-27.83693,-0.3073176109693276,-0.1137076582018153,-1.4529510443853968,26.36468,81.50927,184.0617,0.6290976,-0.1951677,0.7423638,13
11.76,-20.02229,1.132661,-27.83211,-0.3679120139276155,-0.1103045012384901,-1.456206231126259,28.03924,80.8271,183.9756,0.6222126,-0.2061552,0.7437087,13
11.78,-19.91083,1.326869,-27.81635,-0.4399757748439996,-0.1635556412582622,-1.4568662859952743,31.53744,80.82761,183.9115,0.6164806,-0.2280814,0.7383146,13
11.8,-19.79966,1.517875,-27.80057,-0.4815327420769886,-0.1302904277580406,-1.4533529303764348,35.04742,80.81037,183.8519,0.6100531,-0.2499258,0.7322904,13
11.82,-19.85142,1.12156,-27.80936,-0.5343085199403739,-0.1532117686642617,-1.4471245628223943,34.7547,79.26598,183.3458,0.6017801,-0.247688,0.7402439,13
11.84,-19.74159,1.31918,-27.79492,-0.5846476523687416,-0.2034800844164553,-1.4427634125440134,38.2182,79.17055,183.1246,0.5950106,-0.268617,0.7336272,13
11.86,-19.68626,1.115369,-27.80365,-0.6117200586385008,-0.1657592035619493,-1.4368005441269354,41.90583,79.73204,182.4578,0.5925844,-0.2872497,0.7215425,13
11.88,-19.57736,1.315109,-27.79223,-0.6351546713745153,-0.1545917360156513,-1.4274060264341872,45.3415,79.47208,182.1205,0.5842744,-0.3072627,0.7140189,13
11.9,-19.55354,1.114307,-27.79781,-0.653504190221341,-0.1416790829570828,-1.4196631696242266,44.72993,80.23682,181.2224,0.5927615,-0.2973176,0.709767,13
11.92,-19.44589,1.314623,-27.78739,-0.6755642594492697,-0.1872013536307546,-1.41069751920423,48.13293,79.90376,180.877,0.5839149,-0.3170881,0.7019308,13
11.94,-19.32974,1.109815,-27.79022,-0.6645600139647758,-0.1740735127484368,-1.399737502014626,50.7495,79.69387,178.799,0.5823397,-0.3229274,0.6907729,13
11.96,-19.2424,1.106854,-27.78761,-0.648667441840667,-0.1599974433196772,-1.3900398118001238,53.33823,79.53403,177.839,0.5780194,-0.3341592,0.6813415,13
11.98,-19.13767,1.304868,-27.77861,-0.6244521179667661,-0.2032578305520039,-1.3825016616401813,56.63681,79.20898,177.3108,0.5696153,-0.352216,0.6709753,13
12.0,-19.03319,1.500129,-27.76971,-0.5903090574585417,-0.1593516148590464,-1.3734420886354868,59.92802,78.79541,176.6944,0.5607686,-0.3699389,0.6600497,13
12.02,-18.81243,1.108652,-27.78421,-0.5351032730308662,-0.1369694197291953,-1.3668683395986556,62.70144,73.65422,168.1438,0.5521627,-0.3613583,0.6477176,13
12.04,-18.70889,1.296841,-27.77958,-0.4761366939058178,-0.1152281552543746,-1.360999417755012,65.86272,72.24865,166.3537,0.5434783,-0.377218,0.6350762,13
12.06,-18.57634,1.129065,-27.7906,-0.4304396313383711,-0.0379064632907724,-1.3590373800321265,60.90329,71.80481,166.8642,0.5491545,-0.35001,0.6597045,13
12.08,-18.47413,1.31353,-27.79034,-0.3771807486254432,-0.0338991900905797,-1.3586130123526483,63.90359,70.17403,164.7326,0.540933,-0.3644109,0.647743,13
12.1,-18.37288,1.495416,-27.79019,-0.3217038491365369,-0.0319353848294134,-1.3590280595683617,66.87208,68.1083,162.1513,0.532463,-0.3784937,0.6351564,13
12.12,-18.18107,1.195459,-27.83541,-0.2650399420262375,0.0029851115891612,-1.3652367238385517,48.26671,82.65726,173.4581,0.6191941,-0.272142,0.6687778,13
12.14,-18.07562,1.371791,-27.83894,-0.2188418010813853,0.0590599643628459,-1.3753753921885687,51.37987,82.77849,172.8746,0.614875,-0.2875745,0.6569598,13
12.16,-17.97141,1.545335,-27.84284,-0.1714784299641545,0.1120328440323094,-1.3872696138779983,54.50062,82.81751,172.2485,0.6098856,-0.3028821,0.6447743,13
12.18,-17.87708,1.240072,-27.8985,-0.1341780617206043,0.1410562109035491,-1.396435616143561,31.91977,89.28758,175.4604,0.6828294,-0.1687229,0.6758755,13
12.2,-17.76011,1.410412,-27.91259,-0.0960090843431547,0.1686773691358795,-1.4073593058854827,35.33265,89.8724,175.1657,0.6814705,-0.1862516,0.6648693,13
12.22,-17.63715,1.264566,-27.95686,-0.0632087223538098,0.1468424353283911,-1.4159245584701252,13.7574,95.67235,177.2468,0.7376122,-0.06269207,0.6640961,13
12.24,-17.54982,1.269123,-27.9773,-0.0332504232686265,0.191128778754283,-1.419738467559493,8.000433,97.61175,177.61,0.7514443,-0.03028019,0.6557702,13
12.26,-17.43146,1.437027,-27.99771,-0.005964730964389,0.2323606611658248,-1.4250230437041478,11.46763,98.11661,177.6377,0.7527874,-0.04996105,0.6503179,13
12.28,-17.3766,1.275561,-28.01777,0.0103804203982409,0.2005738209169807,-1.4262408802222306,358.3951,100.7431,178.2477,0.7698944,0.02070746,0.6378346,13
12.3,-17.25497,1.440967,-28.04052,0.037006976257691,0.2371435950274586,-1.4244079179425757,1.96388,101.2414,178.4268,0.7729259,-0.000261764,0.6341167,13
12.32,-17.21402,1.285067,-28.0554,0.0560798758377456,0.2262006397953281,-1.4192662767081892,353.3228,102.6432,178.7857,0.7789119,0.04465099,0.6243346,13
12.34,-17.07577,1.293662,-28.08765,0.0724188732440371,0.2124479012719043,-1.4155589245337814,352.8304,103.5968,179.3276,0.7840614,0.04326935,0.6174983,13
12.36,-16.95204,1.454927,-28.11124,0.0871243863424593,0.2639651807554227,-1.4111168826711211,356.4128,104.059,179.671,0.7878831,0.02151912,0.6150224,13
12.38,-16.93059,1.282798,-28.12195,0.0820405938398418,0.2623142901666485,-1.397599758257364,353.763,104.7113,179.8048,0.7905869,0.0345732,0.6099264,13
12.4,-16.80921,1.444918,-28.14653,0.0729843903896636,0.2600485203001133,-1.3866379050760305,357.301,105.1761,180.173,0.7940882,0.01310959,0.6073443,13
12.42,-16.82615,1.262057,-28.15045,0.0469978160040551,0.206302668587585,-1.3706002536238442,355.7446,105.5486,180.5998,0.7958161,0.01829506,0.6043766,13
12.44,-16.73498,1.250105,-28.17536,0.038050384139193,0.2228803741308396,-1.3515555998723263,359.4363,106.2253,181.3874,0.7997849,-0.006730481,0.6001446,13
12.46,-16.61403,1.414465,-28.20404,0.0255220513516034,0.237148839898035,-1.3355355149969363,3.046835,106.7247,181.7267,0.8018118,-0.02794935,0.5967953,13
12.48,-16.61138,1.240305,-28.20393,5.7026265408266497e-05,0.2284331471979812,-1.306221003020299,4.026604,107.1522,182.0907,0.8036349,-0.03552672,0.5938053,13
12.5,-16.49001,1.406199,-28.2341,-0.027954453352013,0.2200262070465138,-1.2805017312073197,7.67434,107.6795,182.4472,0.8045334,-0.05667952,0.5897424,13
12.52,-16.51837,1.232038,-28.2232,-0.0541484339722528,0.208530936074527,-1.2462116037365454,8.251863,107.6804,182.909,0.803945,-0.06287968,0.5897952,13
12.54,-16.46086,1.217418,-28.23232,-0.0915792604358456,0.1723854328320274,-1.2114651924877884,11.87824,108.1176,183.3926,0.8031238,-0.08454412,0.5860279,13
12.56,-16.34281,1.389852,-28.26342,-0.1156187352000026,0.1878915292155095,-1.1789016271649424,15.47269,108.69,183.7428,0.8021541,-0.1047188,0.5808614,13
12.58,-16.36949,1.199569,-28.25201,-0.1599719829177113,0.1507381456875485,-1.1409205472179975,14.75248,108.8737,183.7197,0.803895,-0.1008117,0.5798723,13
12.6,-16.25343,1.376115,-28.28347,-0.2060268839532275,0.1145052973884402,-1.1076515661222666,18.31987,109.465,184.0804,0.8022704,-0.1205539,0.5742973,13
12.62,-16.29917,1.183074,-28.26404,-0.2429104906463008,0.1013043333171612,-1.0619236035487143,17.39054,108.8109,183.9866,0.800263,-0.1158988,0.5792837,13
12.64,-16.24949,1.168067,-28.26881,-0.2795286350421329,0.0904721021785702,-1.0129215854143228,20.1374,107.8103,184.1531,0.7913437,-0.1317566,0.5847885,13
12.66,-16.13655,1.352622,-28.29954,-0.315614291294809,0.0816532550168701,-0.968352614239646,23.66473,108.3951,184.415,0.7885965,-0.1504394,0.5785429,13
12.68,-16.16149,1.152796,-28.28405,-0.368498086813166,0.0168502714061144,-0.9195040389195128,23.07092,106.8789,184.1549,0.7821683,-0.1475699,0.5890794,13
12.7,-16.05002,1.341386,-28.31439,-0.3928613797958105,0.0349778969042442,-0.8700830034407425,26.57909,107.4427,184.3397,0.7788483,-0.1656262,0.5824711,13
12.72,-16.09013,1.138886,-28.29566,-0.4336267227493215,-0.0025166376148851,-0.8160152785643127,26.28637,105.7846,184.0519,0.7712772,-0.1645544,0.5935546,13
12.74,-16.02475,1.128574,-28.3074,-0.4760374175595234,-0.0673135467746771,-0.7638738311242945,30.03322,104.2436,183.7813,0.7566996,-0.1841486,0.5994425,13
12.76,-15.91695,1.324108,-28.33819,-0.492806482530008,-0.0454689924734448,-0.7132335652130584,33.47316,104.6853,183.6999,0.7520678,-0.2003156,0.5921124,13
12.78,-15.90662,1.121707,-28.33748,-0.5080857768786391,-0.0502896878782213,-0.6604743249829577,34.71545,103.3124,183.2925,0.7429601,-0.2065113,0.5986049,13
12.8,-15.80051,1.319479,-28.36981,-0.5198108028935431,-0.0532152291188101,-0.6127685718262397,38.12294,103.6511,183.0483,0.7373964,-0.221539,0.5907914,13
12.82,-15.79935,1.117099,-28.37192,-0.541604382594201,-0.1138224677410182,-0.5647083917362616,39.6217,103.1779,182.6974,0.7320392,-0.2278612,0.5906169,13
12.84,-15.70514,1.11497,-28.405,-0.5353078160443379,-0.1156872662711276,-0.5178124300098736,43.26543,103.4175,181.7636,0.7259877,-0.2396419,0.5803989,13
12.86,-15.60156,1.315118,-28.43843,-0.5246353478837877,-0.1159584072058952,-0.4760896692129552,46.6153,103.6445,181.4023,0.7188994,-0.2533802,0.5714261,13
12.88,-15.5617,1.113671,-28.45048,-0.5074511003328273,-0.1150528833296933,-0.4333399593475775,46.36752,103.4008,180.3931,0.7205659,-0.2464668,0.5707818,13
12.9,-15.45926,1.314033,-28.48423,-0.4859822041570902,-0.1129367810569869,-0.3955827427350047,49.68681,103.5737,179.9786,0.713053,-0.2597605,0.5612824,13
12.92,-15.41675,1.109928,-28.49775,-0.4505111382041458,-0.1102157263701371,-0.3585829810798349,50.67001,102.7219,178.7488,0.7088457,-0.259468,0.5606739,13
12.94,-15.2522,1.103685,-28.55251,-0.3980806972731463,-0.1343909762766226,-0.3305487610387105,56.50158,101.3126,176.2324,0.6907343,-0.2775222,0.5461198,13
12.96,-15.15255,1.299624,-28.58779,-0.343831738682266,-0.0995487332859049,-0.3055197852685349,59.75606,101.0582,175.3682,0.6815962,-0.2893639,0.5352061,13
12.98,-15.02639,1.104447,-28.62963,-0.2801795964834666,-0.0879369678260916,-0.2843488637788751,61.21574,97.31863,171.2415,0.6699825,-0.2859943,0.5376546,13
13.0,-14.92821,1.295526,-28.66605,-0.2138585717482257,-0.0766959123099176,-0.2679793201997342,64.39307,96.39516,169.6655,0.6602403,-0.2969053,0.5259985,13
13.02,-14.75213,1.12875,-28.72604,-0.1446429146028611,-0.1177105183393374,-0.2552871189407382,60.95895,92.43546,166.8275,0.658354,-0.2772797,0.5503651,13
13.04,-14.65426,1.312789,-28.76365,-0.0804080091020444,-0.0958951714705554,-0.247131758573178,64.0267,90.99809,164.6689,0.6489319,-0.287579,0.5385824,13
13.06,-14.55749,1.49413,-28.80128,-0.0156939174758763,-0.0747454043236523,-0.2432637772576393,67.06335,89.08702,162.0461,0.6389861,-0.2976439,0.5263692,13
13.08,-14.42376,1.178119,-28.8445,0.0442637955998213,-0.0496601839798026,-0.2416939803578843,52.07738,96.69721,171.2775,0.6916011,-0.2398453,0.5704667,13
13.1,-14.3243,1.356012,-28.88329,0.1049367169753046,-0.025792653737342,-0.244334766995097,55.19943,96.18655,170.0522,0.6838894,-0.2510927,0.5597911,13
13.12,-14.19057,1.22707,-28.95352,0.1645453594500594,-0.0492954364256618,-0.2526413178100557,38.01743,103.0639,174.7331,0.7487879,-0.168392,0.5758173,13
13.14,-14.07809,1.396922,-28.99974,0.2115374986982408,-0.0055037207321044,-0.2589048853432985,41.56234,103.1593,174.1393,0.7428156,-0.1827467,0.5660275,13
13.16,-13.96771,1.563159,-29.04569,0.2573261912168139,0.0347978215866057,-0.2689725805765368,45.1069,103.208,173.5184,0.7361081,-0.1969181,0.5556822,13
13.18,-13.92748,1.257282,-29.07195,0.291039498584092,0.0010525126182442,-0.2778870939581539,20.03261,108.3229,176.6019,0.8009828,-0.07812111,0.5721449,13
13.2,-13.81581,1.425519,-29.12013,0.3174248417157679,0.0114998164862672,-0.2794510564652346,23.55392,108.7284,176.417,0.798957,-0.0939851,0.5649019,13
13.22,-13.74664,1.271928,-29.13968,0.3454994235885629,-0.0020965729927711,-0.2840851629369916,2.385678,111.9298,177.9505,0.828591,0.003167509,0.5591817,13
13.24,-13.63329,1.438429,-29.18881,0.3693450043487893,0.0283834451118373,-0.2866517945287428,5.943936,112.4065,178.0002,0.8302755,-0.01435339,0.5546636,13
13.26,-13.52224,1.601196,-29.23758,0.3886488552364482,0.035420745729391,-0.2868511825429309,9.500948,112.89,178.0803,0.8311433,-0.03185679,0.5496051,13
13.28,-13.46764,1.285242,-29.24755,0.4039751921819352,0.0402153386095822,-0.2880969436124712,353.3155,114.3459,178.7441,0.8384849,0.04079714,0.5416873,13
13.3,-13.35245,1.448551,-29.29666,0.4133669635977808,0.0442701510582731,-0.2847761272361508,356.8967,114.7979,178.9755,0.8419697,0.02211741,0.5387711,13
13.32,-13.26999,1.296125,-29.31082,0.4145408780194768,0.0198278364955775,-0.2791645595116865,353.4485,114.2499,179.5164,0.8383458,0.03455506,0.5421194,13
13.34,-13.15354,1.457117,-29.357,0.4222050883297048,0.0406365080823258,-0.275254687085253,357.0094,114.6937,179.8409,0.8416452,0.01524813,0.5393983,13
13.36,-13.03975,1.614286,-29.40278,0.4094738916520581,0.0335685883834449,-0.2653298076755694,0.5666861,115.1566,180.1924,0.8441091,-0.00406844,0.5361462,13
13.38,-13.06854,1.262154,-29.38202,0.3908212192174727,0.0256949763220677,-0.2560817837869211,355.7341,115.0723,180.5899,0.8432377,0.01563694,0.5362266,13
13.4,-12.95512,1.426035,-29.4281,0.366277969061499,0.0165528421200688,-0.241372429927495,359.2701,115.5271,180.9257,0.8458368,-0.003435419,0.533343,13
13.42,-12.93128,1.245811,-29.41971,0.3331380124330179,-0.0176878780684538,-0.2240786928438951,1.419824,114.8808,181.598,0.8425927,-0.01841976,0.5382286,13
13.44,-12.8153,1.410559,-29.46643,0.3151852300616777,-0.0018905318004177,-0.2107577650914893,5.060428,115.3682,181.9332,0.8437716,-0.03783949,0.5346189,13
13.46,-12.70178,1.571493,-29.51278,0.2811269982818827,-0.0104178198804543,-0.1894931737551428,8.696955,115.8804,182.3021,0.8440762,-0.05721465,0.5304599,13
13.48,-12.74059,1.232041,-29.47836,0.2423868203234829,-0.0187183796051883,-0.1688678656503732,8.255313,115.3494,182.8927,0.841594,-0.05975073,0.534704,13
13.5,-12.62599,1.40075,-29.52528,0.196123762892644,-0.0296104968009161,-0.1426416759268609,11.8814,115.8752,183.2284,0.8410369,-0.07866473,0.5302532,13
13.52,-12.60442,1.20873,-29.51341,0.1391155495927138,-0.066909401991266,-0.1122940943383135,13.43244,115.7179,183.5636,0.8385894,-0.08833638,0.5311779,13
13.54,-12.55397,1.199787,-29.52836,0.0999904268862441,-0.0531263146020002,-0.0888375422296539,14.7359,115.8059,183.6761,0.8375368,-0.0950543,0.5301809,13
13.56,-12.44337,1.376497,-29.57461,0.0501355336299167,-0.0649114011060824,-0.0603538280672726,18.2965,116.3612,183.9911,0.8354784,-0.1129878,0.5249261,13
13.58,-12.45966,1.183179,-29.55276,-0.0024377026486002,-0.0752640586162657,-0.0330287831698683,17.39137,115.4213,183.9452,0.8323687,-0.1094795,0.5321411,13
13.6,-12.35013,1.363836,-29.59816,-0.0557840588433449,-0.0866421942596414,-0.0027744687606627,20.94065,115.9813,184.2354,0.8297135,-0.1270722,0.5265697,13
13.62,-12.38529,1.168197,-29.56742,-0.1240619549939199,-0.1238567961595816,0.0327456463576361,20.13651,114.0979,184.105,0.8222775,-0.1246191,0.5404564,13
13.64,-12.33278,1.152996,-29.57297,-0.1693304920418168,-0.1051766629263829,0.0590614843949035,23.06479,112.3782,184.0906,0.8096157,-0.1402318,0.5508012,13
13.66,-12.22538,1.341722,-29.61563,-0.2196389386489228,-0.1135192365326875,0.0886289065854493,26.57736,112.8902,184.2065,0.8058338,-0.1567302,0.5446038,13
13.68,-12.23829,1.139017,-29.59585,-0.2786251578305336,-0.1478749274130271,0.1206212403133824,26.28685,110.8259,183.9989,0.7967069,-0.1569717,0.5589822,13
13.7,-12.13274,1.331579,-29.63764,-0.3163442327648724,-0.1239497348652163,0.1433615020608796,29.75865,111.2868,183.9957,0.7923229,-0.1726409,0.5524775,13
13.72,-12.15455,1.128723,-29.61419,-0.3683491576434416,-0.1562705892807568,0.1713050542687266,30.02497,108.878,183.7281,0.7804161,-0.1761221,0.5682772,13
13.74,-12.07706,1.121803,-29.63265,-0.3982674746036534,-0.1580852076643531,0.1906368381039325,34.70461,107.1349,183.2594,0.7625927,-0.1988896,0.5734429,13
13.76,-11.97372,1.319658,-29.67283,-0.4186445961250766,-0.1276035351110324,0.2039942492305284,38.1108,107.4284,182.9773,0.7566283,-0.2129445,0.5660319,13
13.78,-11.95324,1.117147,-29.67629,-0.4464896626705734,-0.153969002411618,0.2185930846138131,39.61179,106.7123,182.6811,0.7499602,-0.2198353,0.5677404,13
13.8,-11.85109,1.316446,-29.71656,-0.456567460227621,-0.1206879508055999,0.2253010915081441,42.98832,106.9315,182.3164,0.7430602,-0.2331898,0.5597404,13
13.82,-11.84231,1.114998,-29.71775,-0.4695491928383668,-0.1446274176534842,0.2326437106929608,43.26011,106.6943,181.7533,0.7423202,-0.2314332,0.5593886,13
13.84,-11.7388,1.113716,-29.75254,-0.4632318384587305,-0.1088405922262242,0.2322861215359815,46.36185,105.9971,180.3744,0.7333671,-0.2393011,0.5542711,13
13.86,-11.63823,1.314124,-29.79135,-0.4511101315707654,-0.0437215950323841,0.2287186140142578,49.68,106.1289,179.9348,0.7255068,-0.2520236,0.5451311,13
13.88,-11.57733,1.109949,-29.80996,-0.4346228671675688,-0.0667092459105508,0.2233034785544125,50.67088,105.1462,178.7363,0.7205729,-0.252135,0.5455136,13
13.9,-11.47805,1.3093,-29.84901,-0.4051476673631943,-0.0305501988236615,0.2117534371996265,53.95554,105.136,178.1452,0.7120364,-0.2642439,0.5357769,13
13.92,-11.39739,1.103743,-29.87534,-0.3602633569447352,-0.0501001761800498,0.1942004011992564,56.48298,103.5743,176.2124,0.701482,-0.2696729,0.5323648,13
13.94,-11.21034,1.104451,-29.94219,-0.3038530223932995,-0.0111901900643606,0.1709612363347652,61.21228,99.02255,171.2326,0.6779349,-0.2795794,0.5276114,13
13.96,-11.11332,1.295554,-29.98178,-0.2541418823187081,0.0562843376282735,0.1481952732735774,64.39125,98.05286,169.6299,0.6678761,-0.2902,0.516259,13
13.98,-10.99013,1.11797,-30.02157,-0.1953641141649842,0.0462557146631793,0.123003173538212,61.81299,94.35555,167.281,0.6641188,-0.2772774,0.5378908,13
14.0,-10.89324,1.304309,-30.06082,-0.1407587006539111,0.0690430429105666,0.0984864557327842,64.89994,92.88431,165.1262,0.6542405,-0.2874754,0.5262726,13
14.02,-10.79267,1.144218,-30.09131,-0.0743364286437523,0.0705691813325189,0.0693779295175414,58.38983,93.60096,167.8633,0.6681024,-0.2647624,0.5566421,13
14.04,-10.62185,1.178178,-30.15122,-0.0186806038379745,0.1226881761274878,0.0425446476742354,52.07412,96.78764,171.2401,0.6921375,-0.2393074,0.5698087,13
14.06,-10.52276,1.356148,-30.19075,0.0370495629536856,0.1273923608520709,0.0131867350125949,55.18888,96.22006,169.9717,0.6842561,-0.2504397,0.5593472,13
14.08,-10.42744,1.211253,-30.23203,0.0943558586317777,0.1291750809573201,-0.0175324451292713,43.15757,101.1152,173.9494,0.7294682,-0.1954248,0.5749624,13
14.1,-10.32154,1.384468,-30.27511,0.1379307017242971,0.1547900985984347,-0.0454612948389137,46.49629,101.0265,173.181,0.722779,-0.2083823,0.5651163,13
14.12,-10.22639,1.250269,-30.32821,0.1725138533004319,0.1560022429425086,-0.0700030319937567,26.21495,105.8851,175.9933,0.7815424,-0.1094063,0.58023,13
14.14,-10.11471,1.419092,-30.37509,0.2025354750799584,0.1999849080279803,-0.0906537929579682,29.72478,106.1793,175.6563,0.7781087,-0.1246455,0.5722835,13
14.16,-10.00514,1.584327,-30.42165,0.2285861878610988,0.1960084127485259,-0.1086364141783562,33.23513,106.4596,175.328,0.7739272,-0.1397618,0.5637919,13
14.18,-9.970415,1.268133,-30.43347,0.2467708253139899,0.1667343302860247,-0.1224239374195725,8.146364,110.6315,177.5659,0.8208967,-0.0229899,0.5662479,13
14.2,-9.913785,1.271858,-30.4542,0.2734802457420215,0.2043538613139423,-0.1381415720042635,2.4087,111.8532,177.9494,0.8282156,0.003045029,0.5597299,13
14.22,-9.769753,1.279096,-30.50611,0.2881636245596128,0.1935650290612143,-0.1468001131867442,354.4589,113.5201,178.432,0.8349639,0.03792401,0.5480081,13
14.24,-9.654939,1.443707,-30.5546,0.3105136665312447,0.2057719584349054,-0.1579216642339149,358.0363,113.9583,178.6127,0.8381748,0.01948638,0.5449984,13
14.26,-9.575269,1.291226,-30.57821,0.330401825335688,0.215794625179021,-0.16693112914382,352.2357,114.3618,179.0947,0.8381417,0.04331793,0.5411773,13
14.28,-9.458122,1.452979,-30.62548,0.3347662360200358,0.1742318446291209,-0.1674221159924087,355.8377,114.7797,179.3957,0.8416865,0.02400984,0.5387183,13
14.3,-9.417455,1.295992,-30.63363,0.3447492558811088,0.2001748033738825,-0.1712146237411618,353.453,114.6496,179.543,0.8402416,0.03417893,0.5391825,13
14.32,-9.325883,1.270011,-30.65929,0.3335010340000799,0.1743073432983488,-0.1647395084968987,354.0748,114.8983,180.0161,0.8417919,0.02769076,0.5373225,13
14.34,-9.212444,1.433495,-30.70463,0.3209619205227543,0.1682953707133116,-0.1588589889772134,357.5898,115.3215,180.3551,0.8447397,0.008632749,0.5347553,13
14.36,-9.186188,1.25452,-30.71429,0.3049078900197566,0.1614677614246842,-0.1512426913679965,357.4388,115.2442,181.1416,0.8444009,0.003555357,0.5351528,13
14.38,-9.072445,1.418679,-30.76148,0.2702052854645932,0.1037114227125698,-0.1338718015091897,1.012171,115.6869,181.4553,0.8464361,-0.01545203,0.5322658,13
14.4,-9.062039,1.245726,-30.7527,0.2534764150047141,0.1195924479652963,-0.1246417331568299,1.425893,115.6226,181.601,0.8460577,-0.01845053,0.5327631,13
14.42,-8.972317,1.237829,-30.77592,0.2148353725452311,0.0852647399803339,-0.1040603397804655,6.151342,115.5969,182.5883,0.8440987,-0.04766935,0.533021,13
14.44,-8.857711,1.405045,-30.82334,0.1799301400459503,0.07494792226201,-0.0850912538370334,9.775897,116.0888,182.9225,0.8439482,-0.06663999,0.5290089,13
14.46,-8.853423,1.226456,-30.80864,0.1425946643510207,0.0650345833838627,-0.0649261962118883,10.31079,115.6557,183.1678,0.8413833,-0.07112912,0.5322108,13
14.48,-8.740432,1.397014,-30.85609,0.0839679190665502,0.0018848839193403,-0.0339612407786056,13.91,116.1656,183.4785,0.8402359,-0.08956252,0.5276806,13
14.5,-8.768303,1.208916,-30.83029,0.0457374707504274,0.0126283060913682,-0.0137622408671873,13.40881,115.9464,183.5482,0.8396825,-0.08795091,0.529501,13
14.52,-8.704032,1.191081,-30.84232,-0.0149472220478317,-0.0308390553220996,0.0197861725121644,16.05253,115.7264,183.7848,0.8355755,-0.1019222,0.5303493,13
14.54,-8.594213,1.369858,-30.88809,-0.0631450023912767,-0.0199980767924936,0.0456572670459305,19.60212,116.2625,184.0876,0.833127,-0.1196647,0.5250943,13
14.56,-8.600295,1.175831,-30.8697,-0.1031777252809265,0.0173100852058877,0.0676872390322493,18.70943,114.8935,184.0742,0.8280476,-0.1169715,0.535462,13
14.58,-8.491838,1.35859,-30.91463,-0.1687281281796143,-0.0279388909481541,0.1029327384537062,22.23898,115.4215,184.3186,0.8250217,-0.1342027,0.5299361,13
14.6,-8.518861,1.160822,-30.88697,-0.2278169696165929,-0.0451385809628437,0.1340734410448361,21.55104,113.2731,184.1273,0.8162372,-0.1322977,0.5455238,13
14.62,-8.507367,1.153117,-30.88269,-0.2909896645560198,-0.0893888734963808,0.1692324055420639,23.03824,112.2925,184.0752,0.8092654,-0.1401075,0.5514056,13
14.64,-8.400763,1.341977,-30.92528,-0.3315098521544453,-0.0764672126838122,0.1932185740047662,26.5293,112.7748,184.1732,0.8054187,-0.1564464,0.545406,13
14.66,-8.397168,1.132759,-30.90363,-0.3752307109051056,-0.0894491674469643,0.217647809332643,28.01414,109.5009,183.9586,0.7870663,-0.1669756,0.5664713,13
14.68,-8.358432,1.128778,-30.91115,-0.4164402834043454,-0.1006172542442229,0.2411716762824305,30.00764,108.4648,183.7151,0.7784161,-0.176642,0.5710849,13
14.7,-8.254328,1.324511,-30.9514,-0.451213414115493,-0.1111513645370342,0.2607646721325656,33.43404,108.8228,183.5595,0.7732729,-0.1915066,0.564362,13
14.72,-8.261706,1.121809,-30.93631,-0.4932208210526659,-0.1483494928878478,0.2825705528920021,34.70148,106.8421,183.2573,0.7611353,-0.1994315,0.5753902,13
14.74,-8.175711,1.117169,-30.96463,-0.5126628189646321,-0.1261780162313304,0.2931224795866471,39.60638,106.0973,182.6733,0.746931,-0.2211432,0.5717484,13
14.76,-8.0733,1.316491,-31.00398,-0.5292257999057987,-0.1307224613668766,0.3009542616226284,42.98138,106.2879,182.2978,0.7399609,-0.234623,0.5638719,13
14.78,-8.045563,1.114997,-31.01236,-0.5413065373627655,-0.1339880933841058,0.306825264485373,43.26102,106.2161,181.7529,0.7399777,-0.2326315,0.562479,13
14.8,-7.943992,1.315179,-31.05107,-0.5369434982319259,-0.0797738256123809,0.3053930573012353,46.60956,106.3862,181.3743,0.7324407,-0.2458271,0.5539993,13
14.82,-7.889809,1.112937,-31.06357,-0.5313306118147878,-0.1134798021209407,0.3044395770303039,48.04973,105.3871,179.5441,0.7274745,-0.2438622,0.5522801,13
14.84,-7.789712,1.313312,-31.10244,-0.50778605324701,-0.0879030592953175,0.295707320309476,51.3542,105.4255,179.022,0.7192564,-0.2563682,0.543026,13
14.86,-7.689842,1.510826,-31.14161,-0.4801394062579448,-0.0334067200554516,0.2840754089744051,54.65749,105.4143,178.4619,0.7104252,-0.2686499,0.5333138,13
14.88,-7.588042,1.103712,-31.17262,-0.441164750482843,-0.0655392071191215,0.2688275458100468,56.4976,103.5081,176.2189,0.701114,-0.2700089,0.5327519,13
14.9,-7.490009,1.299684,-31.2119,-0.3942924533445123,-0.0652577030692298,0.2498560541434598,59.75116,103.1898,175.3317,0.6915388,-0.281509,0.5223191,13
14.92,-7.309781,1.109006,-31.27307,-0.3308414660984652,-0.0892227918111142,0.2254767966860127,62.64053,96.25018,167.9552,0.6689904,-0.2783318,0.5264778,13
14.94,-7.213196,1.29758,-31.31296,-0.2622455318905412,-0.055394855933574,0.19774593422229,65.76322,94.82433,165.8897,0.6587345,-0.288671,0.5149081,13
14.96,-7.117456,1.483468,-31.3529,-0.200584242374968,-0.0418856418768168,0.1724330385694896,68.85754,92.89011,163.3237,0.6479414,-0.2987725,0.5029225,13
14.98,-6.972988,1.144123,-31.39508,-0.1375570661850652,-0.0291808659166382,0.1462299036929142,58.40585,94.05119,167.8587,0.6702541,-0.2631838,0.5539403,13
15.0,-6.889012,1.161533,-31.42362,-0.0788048438469117,-0.0111900561560517,0.120782511152405,55.7934,94.38332,168.8214,0.6762621,-0.2532845,0.5642926,13
15.02,-6.718621,1.195348,-31.48459,-0.0099331770114732,-0.0145835810596556,0.0893825224956375,48.32479,99.58314,173.197,0.7112434,-0.2224397,0.5694261,13
15.04,-6.618828,1.371589,-31.52454,0.0601041124684585,0.0302415811253247,0.0556768238275333,51.47348,99.31099,172.2763,0.7039325,-0.2342385,0.5595464,13
15.06,-6.518316,1.227094,-31.57742,0.1200193534785593,0.0936210485694999,0.0242995790214086,38.02447,102.9623,174.6898,0.7483266,-0.168396,0.5763599,13
15.08,-6.406066,1.397008,-31.62422,0.1699166833314636,0.0854411134143637,-0.0046311430056924,41.56711,102.9815,174.0458,0.7420753,-0.1826424,0.5669178,13
15.1,-6.359966,1.250002,-31.64933,0.220674975237156,0.1222359307601785,-0.033816417615359,26.25264,106.3157,176.0077,0.7836503,-0.1089413,0.5772612,13
15.12,-6.315471,1.257486,-31.6663,0.2699448930913019,0.1555922713913836,-0.0626428676504673,20.03766,107.6755,176.5831,0.7977447,-0.07890742,0.5766301,13
15.14,-6.204165,1.426007,-31.71311,0.3162467745072992,0.1614978026355438,-0.0867471324458506,23.53514,108.0295,176.3777,0.7955534,-0.09473562,0.569725,13
15.16,-6.105913,1.271968,-31.74691,0.3597189109556534,0.1658618438083624,-0.1095714557119587,2.397602,111.7333,177.9497,0.8276303,0.003068116,0.5605986,13
15.18,-6.034208,1.275521,-31.77119,0.3997612627350786,0.1657987679405243,-0.1307512632986833,358.4346,112.5433,178.2124,0.8313824,0.02055614,0.5553141,13
15.2,-5.919468,1.440967,-31.8189,0.4466944860117043,0.2301916661395409,-0.1550820987237582,2.010443,112.9728,178.3428,0.8336792,0.002369807,0.551781,13
15.22,-5.874513,1.285079,-31.82748,0.4857679476982383,0.2241844804980762,-0.1732652619857972,353.3319,113.6752,178.7552,0.8353118,0.04088873,0.5465848,13
15.24,-5.735391,1.293705,-31.87323,0.517093753465546,0.2400576000201947,-0.1888754546441156,352.8383,113.9299,179.3077,0.8364798,0.03910266,0.5443943,13
15.26,-5.617995,1.454992,-31.91869,0.5354874483461637,0.2037704904126013,-0.1961642937507806,356.424,114.3278,179.6263,0.8397564,0.01965736,0.5420568,13
15.28,-5.591031,1.282895,-31.92093,0.5453959789479197,0.188097736786582,-0.2008922208552874,353.7635,114.3354,179.783,0.8389599,0.03108168,0.5414646,13
15.3,-5.475576,1.445044,-31.96548,0.5505832129197391,0.1715246686859395,-0.2033017582110821,357.3043,114.7354,180.1272,0.8419293,0.01175001,0.5390738,13
15.32,-5.485037,1.262137,-31.95562,0.5555010962842998,0.1505748060811741,-0.204326299842859,355.7358,114.5195,180.5771,0.8406397,0.01588778,0.5402922,13
15.34,-5.391237,1.250162,-31.98469,0.5594300806733019,0.1571672005005137,-0.2062394640318903,359.4248,114.5996,181.3682,0.8414707,-0.007335252,0.5401479,13
15.36,-5.27586,1.414554,-32.03066,0.5442760376276314,0.1139263635384606,-0.198556387043439,3.037349,115.0319,181.6856,0.8429445,-0.02663568,0.5371467,13
15.38,-5.26572,1.240356,-32.02188,0.5377529312907134,0.1203563771280553,-0.1941373511935422,4.012304,114.9113,182.069,0.8419814,-0.03403899,0.5380681,13
15.4,-5.149657,1.406278,-32.06817,0.5081659118805841,0.0762882626067226,-0.1776515284250663,7.662387,115.37,182.4032,0.8422989,-0.05339378,0.5344461,13
15.42,-5.16909,1.232134,-32.04581,0.4900282223549108,0.0816817249683776,-0.167381384049146,8.238776,114.868,182.8783,0.8393585,-0.05976645,0.5382316,13
15.44,-5.105836,1.217461,-32.05563,0.4562481561700886,0.059883652357004,-0.1495692478954806,11.88762,114.7798,183.3549,0.8358364,-0.08030839,0.5383458,13
15.46,-4.992575,1.389981,-32.10096,0.4187852977768739,0.0392017108047678,-0.1299264986405575,15.48667,115.2758,183.6614,0.8342491,-0.09882132,0.5337524,13
15.48,-5.010798,1.199673,-32.0804,0.375200951109749,0.0162917735232034,-0.1081071773594413,14.75704,114.977,183.6703,0.8336614,-0.09577031,0.536213,13
15.5,-4.899265,1.376321,-32.12515,0.3288075639526332,-0.0051946301999795,-0.0847493755598574,18.33046,115.4866,183.9759,0.8314177,-0.1139206,0.5312547,13
15.52,-4.933111,1.175883,-32.08305,0.2865921170081498,-0.0287444600259093,-0.0618572371169818,18.71792,112.5454,184.0417,0.8169245,-0.1191745,0.5522787,13
15.54,-4.822888,1.358634,-32.1245,0.2495532149568756,-0.0214187944210849,-0.0429722966526222,22.26178,113.0407,184.2517,0.8138779,-0.1367798,0.5468646,13
15.56,-4.713955,1.53797,-32.16592,0.1942544081972554,-0.0691014970145899,-0.0146394036831489,25.80269,113.5638,184.5016,0.8100395,-0.1542474,0.5409222,13
15.58,-4.77921,1.153101,-32.12015,0.1548172526598696,-0.0601808271920396,0.0051183807760644,23.06309,110.5796,184.0568,0.800916,-0.1422696,0.5633986,13
15.6,-4.759414,1.145517,-32.12158,0.1144338673567311,-0.0515847726122804,0.0255279500025293,24.59086,109.7747,184.0592,0.7944201,-0.1507166,0.5678096,13
15.62,-4.689814,1.132769,-32.13255,0.0686050153681477,-0.0717348451009697,0.0485641234085836,28.0312,107.8319,183.9489,0.778715,-0.1695714,0.577842,13
15.64,-4.582947,1.327043,-32.17056,0.0338567714774985,-0.0891670422612908,0.0674588461190257,31.51241,108.2093,183.864,0.7738403,-0.1854023,0.571372,13
15.66,-4.570998,1.124844,-32.1622,0.0003321076147487,-0.104302043082904,0.0858562712412842,32.06998,106.1251,183.5462,0.76269,-0.1896847,0.5841172,13
15.68,-4.465855,1.321856,-32.19945,-0.0170203199723937,-0.0612027719621879,0.0943347867113484,35.49928,106.4217,183.3266,0.7571021,-0.2046332,0.5772106,13
15.7,-4.457015,1.118766,-32.1936,-0.039837380147877,-0.0744006354949726,0.103773584960134,37.36283,105.0092,183.0094,0.7462227,-0.2146381,0.5831021,13
15.72,-4.428852,1.117216,-32.20491,-0.0600712442481773,-0.0857218124727503,0.1118632805658714,39.58587,104.8717,182.6567,0.7408565,-0.2236752,0.579701,13
15.74,-4.326194,1.316601,-32.24239,-0.0614441415921847,-0.0392400952833269,0.1104840095719925,42.94812,105.0274,182.2599,0.7338802,-0.237304,0.571945,13
15.76,-4.26196,1.114503,-32.26165,-0.0574472620198917,0.0350309373596299,0.1058528965463354,44.67451,104.775,181.1275,0.7303978,-0.2391543,0.5674564,13
15.78,-4.15975,1.314965,-32.29771,-0.0576599258359444,-0.0067667294144719,0.1045909456796749,48.01572,104.9084,180.7361,0.7226678,-0.2525873,0.5587373,13
15.8,-4.057745,1.51251,-32.33408,-0.0440919037643903,0.0113765260875486,0.0973884701494176,51.35654,105.0145,180.3295,0.7143109,-0.2657984,0.5495372,13
15.82,-3.978626,1.107111,-32.35368,-0.0138698748123648,-0.0281977519856046,0.0849945956962923,53.28812,103.5627,177.7244,0.7075972,-0.2634392,0.5458629,13
15.84,-3.879031,1.305392,-32.39069,0.0275333913559517,-0.0355104125492061,0.0673017947200129,56.56601,103.4241,177.0478,0.6985367,-0.2756867,0.5358816,13
15.86,-3.779757,1.500877,-32.42794,0.0705156262327424,-0.042530091244659,0.0485698918324288,59.84166,103.1949,176.2901,0.688889,-0.2876994,0.5254535,13
15.88,-3.629721,1.104422,-32.47569,0.1147270809796013,-0.0525983371897562,0.0290083614360936,61.20578,98.36979,171.2517,0.6748908,-0.2820965,0.5315576,13
15.9,-3.540417,1.108986,-32.50481,0.1656707589379862,-0.0551784542819916,0.0074089068018778,62.63897,94.8908,167.9602,0.6626901,-0.2836085,0.5344016,13
15.92,-3.349521,1.12874,-32.56719,0.2172991032362811,-0.0579208777533505,-0.0147295274870078,60.96455,91.98645,166.7851,0.6562812,-0.2787597,0.5527607,13
15.94,-3.251358,1.312783,-32.60444,0.2568686498507518,-0.0064901186294659,-0.0339339570675756,64.0342,90.43082,164.5662,0.6464984,-0.2892853,0.5413527,13
15.96,-3.124672,1.161581,-32.64446,0.3109210721691853,-0.0255278721192632,-0.0558893867624581,55.78689,93.15343,168.8233,0.6701782,-0.2575394,0.5715467,13
15.98,-3.025405,1.341192,-32.68222,0.3623429434719787,-0.0694051015897843,-0.0774575301559146,58.87024,92.11535,167.1007,0.6614293,-0.2684261,0.5607827,13
16.0,-2.936058,1.195269,-32.71001,0.4069863099860263,-0.038895701706335,-0.0986363267905767,48.33883,98.52517,173.1967,0.7059229,-0.2257069,0.5759296,13
16.02,-2.769547,1.226982,-32.78556,0.4567754233883605,-0.0288679318819516,-0.1245017514255204,38.05175,101.6847,174.6859,0.7418069,-0.1716475,0.5846004,13
16.04,-2.656194,1.396875,-32.82974,0.4948383677038254,0.0016240869087359,-0.1467819443220337,41.59726,101.6813,174.0386,0.735543,-0.1862326,0.5752127,13
16.06,-2.544908,1.563144,-32.87361,0.5304348601091572,0.0289857614257013,-0.1681658117207494,45.1421,101.6209,173.3525,0.7285514,-0.2006347,0.5652589,13
16.08,-2.501528,1.25656,-32.89807,0.5627269352258766,0.0979214691598121,-0.1864212280676342,20.15988,106.8117,176.5791,0.7932475,-0.08069652,0.5824856,13
16.1,-2.386193,1.423963,-32.94413,0.5754289626919769,0.0715722549694029,-0.1960423292411537,23.76262,107.1436,176.3701,0.790841,-0.09725898,0.5755554,13
16.12,-2.273102,1.587591,-32.98982,0.5937560554522072,0.0904325879187471,-0.2067913119064055,27.36562,107.4703,176.178,0.7876393,-0.1137193,0.5680515,13
16.14,-2.178237,1.275496,-33.01742,0.6197862565193286,0.086035439094784,-0.2182737582664256,358.4422,111.9006,178.1915,0.8282525,0.02068467,0.5599682,13
16.16,-2.062976,1.440906,-33.06445,0.6376733759059832,0.0579638875078701,-0.2250039264288581,2.025992,112.3099,178.2995,0.8304718,0.002477448,0.5565827,13
16.18,-1.950067,1.602528,-33.11105,0.6535904886009908,0.0750927741258303,-0.2309531966842115,5.607827,112.7273,178.4335,0.831866,-0.01572695,0.5526486,13
16.2,-1.839721,1.760519,-33.15715,0.6707165749238575,0.1131953494319062,-0.2373029615865034,9.18757,113.1561,178.595,0.8324343,-0.0339108,0.5481703,13
16.22,-1.811451,1.293754,-33.14717,0.6648151384950742,0.0779859406555039,-0.2325672133114666,352.828,113.6161,179.2672,0.8349671,0.03958099,0.5466974,13
16.24,-1.69426,1.455142,-33.19296,0.6645712960273461,0.0882953705419537,-0.2305265612165277,356.4147,113.997,179.5479,0.8381725,0.02034521,0.5444937,13
16.26,-1.638549,1.269879,-33.19718,0.655539110922441,0.1188875198482618,-0.2255893096387478,354.0929,113.8992,180.0073,0.8370797,0.02804763,0.5446494,13
16.28,-1.587954,1.261871,-33.21577,0.6239754765453107,0.0732527984092393,-0.2100380897537865,355.7684,113.9146,180.5544,0.837781,0.01607734,0.5447358,13
16.3,-1.47267,1.425348,-33.26057,0.5899251081613115,0.0522158866655234,-0.1935674295523668,359.3477,114.3079,180.8545,0.8401169,-0.003177129,0.5423245,13
16.32,-1.402506,1.245923,-33.2729,0.5515475645875446,0.0310957205369742,-0.1748271726026393,1.402547,114.3121,181.5922,0.8399146,-0.01830972,0.5424029,13
16.34,-1.286342,1.410788,-33.31795,0.526643011620149,0.0582819577786314,-0.1616326070009961,5.034401,114.7356,181.9185,0.8408226,-0.03776466,0.5392675,13
16.36,-1.272,1.237689,-33.31082,0.4812164572413703,0.0368440933753995,-0.1375188272621041,6.159634,114.5163,182.5864,0.8390312,-0.04800645,0.5409563,13
16.38,-1.155931,1.404713,-33.35598,0.4319913318753363,0.0162588872534158,-0.111297717144235,9.802741,114.9668,182.9186,0.8387101,-0.06730923,0.5372393,13
16.4,-1.172252,1.226362,-33.33267,0.3938795668636634,0.0438928856903817,-0.090832491581132,10.31605,114.3813,183.1628,0.8354113,-0.07179598,0.5415312,13
16.42,-1.0577,1.396747,-33.37764,0.3300001804759848,-0.0072532970318323,-0.0567058770350517,13.93416,114.849,183.468,0.834101,-0.09058985,0.5372834,13
16.44,-1.052678,1.199704,-33.35828,0.2738347360313744,-0.0329288290624773,-0.0266950469971218,14.75305,114.5209,183.6711,0.8315243,-0.09611949,0.5395293,13
16.46,-0.9404463,1.376244,-33.40211,0.2226389414250325,-0.0288687429567796,-0.0006490389125985,18.3373,115.011,183.9776,0.8291947,-0.1144467,0.5346997,13
16.48,-0.9582483,1.183232,-33.38003,0.168641399128837,-0.0250542805853563,0.0267565180337623,17.39161,114.0196,183.9263,0.8258154,-0.1106763,0.542265,13
16.5,-0.8476581,1.363876,-33.42305,0.1047174740921966,-0.0488784171680613,0.0588071562786236,20.94995,114.5095,184.194,0.8229145,-0.1285374,0.5371295,13
16.52,-0.8330073,1.160781,-33.40494,0.0399115949155978,-0.0702804292710445,0.0915319958671023,21.57158,111.85,184.1228,0.8093741,-0.134049,0.5555989,13
16.54,-0.7239379,1.347495,-33.44622,-0.0045933908472181,-0.0363114009004734,0.1121819763419997,25.10912,112.3069,184.2634,0.8056098,-0.1511386,0.5499918,13
16.56,-0.7313851,1.145458,-33.42823,-0.0711779106164882,-0.0865137116798105,0.1450811828817251,24.59603,110.4523,184.0803,0.7977276,-0.1499744,0.5631263,13
16.58,-0.6237149,1.336191,-33.46827,-0.147064979983317,-0.1627889349759863,0.1821933598332723,28.10581,110.8769,184.1349,0.7933818,-0.1664791,0.557169,13
16.6,-0.5168443,1.523667,-33.50841,-0.1964915669620526,-0.1538514159242518,0.2061466252340782,31.61338,111.3201,184.2217,0.7882835,-0.182816,0.5506872,13
16.62,-0.5820605,1.128731,-33.45961,-0.2376745549486162,-0.1713922383388752,0.2281166314865554,30.02827,107.5128,183.7289,0.7735828,-0.1784226,0.5775315,13
16.64,-0.5047624,1.121828,-33.4757,-0.2709162835430513,-0.1556226351649653,0.2446207319251705,34.69256,105.6871,183.2575,0.7553168,-0.2016283,0.5830452,13
16.66,-0.4005264,1.31969,-33.51333,-0.3019011128718315,-0.1396028526327428,0.2596212039883951,38.10222,105.9136,182.9673,0.7491192,-0.2161046,0.5759763,13
16.68,-0.2966487,1.514507,-33.55121,-0.3314266180379843,-0.1511221164951657,0.2715645065425152,41.51181,106.1282,182.6805,0.7422469,-0.2303826,0.5683924,13
16.7,-0.3117792,1.11558,-33.54087,-0.3661156551592216,-0.1886867253261244,0.2849915011551838,41.83908,105.2199,182.3704,0.7375039,-0.2321225,0.5729572,13
16.72,-0.2089183,1.315469,-33.57824,-0.3829326085665999,-0.1655975256865706,0.2902284554616958,45.21301,105.3555,181.9902,0.729979,-0.2457755,0.5649379,13
16.74,-0.1062971,1.512386,-33.61589,-0.3831485856107189,-0.1693320745269488,0.2905485125959108,48.58656,105.4658,181.5975,0.7218092,-0.2592079,0.5564234,13
16.76,-0.004079863,1.706344,-33.65376,-0.3789941955889592,-0.1710977693431464,0.2888353404220591,51.95962,105.5464,181.1866,0.7130024,-0.2724084,0.5474211,13
16.78,0.0494096,1.109966,-33.65729,-0.3650323806321737,-0.1145167211469503,0.2824699862966859,50.67905,103.2765,178.7447,0.7115346,-0.2578364,0.5572026,13
16.8,0.150615,1.309282,-33.69322,-0.3469680751972768,-0.0602605130875371,0.273936267704995,53.9914,103.2014,178.1498,0.7027708,-0.270638,0.5476437,13
16.82,0.348458,1.102172,-33.7555,-0.3202086817321012,-0.1227760634146997,0.264175016879709,59.6486,100.1514,174.0938,0.6808819,-0.2844813,0.5363858,13
16.84,0.465574,1.104355,-33.79363,-0.2869119841475364,-0.0970741732942201,0.2500427067326596,61.20602,97.37098,171.3043,0.6701002,-0.2861168,0.5376137,13
16.86,0.5638455,1.295417,-33.8294,-0.2357146066999553,-0.1224272860755161,0.2322159246255521,64.3903,96.38868,169.7566,0.6599829,-0.2974406,0.5264004,13
16.88,0.661419,1.483787,-33.86527,-0.1829049108639965,-0.1729676518482443,0.2142831304895187,67.55881,95.05147,167.8615,0.649325,-0.3085178,0.5147597,13
16.9,0.8019323,1.128709,-33.90232,-0.1354104463335151,-0.138232440662934,0.196826676391792,60.96299,91.1951,166.771,0.652487,-0.2816426,0.5572325,13
16.92,0.9003302,1.312828,-33.9384,-0.0714023160554836,-0.1206831260798472,0.1751784630267483,64.02451,89.60047,164.5303,0.6426749,-0.2923049,0.5459202,13
16.94,0.9976605,1.494251,-33.97445,-0.0201287474797139,-0.078083641545442,0.1565340126308418,67.05048,87.50301,161.795,0.6323459,-0.3027294,0.5341725,13
16.96,1.200905,1.195387,-34.03081,0.0313555556652942,-0.0821116446598604,0.1362137781516397,48.32658,97.22823,173.1678,0.6994466,-0.2293542,0.5838289,13
16.98,1.290346,1.209827,-34.06762,0.0803042981332168,-0.038346997978172,0.1154152417017622,43.36917,98.83811,173.8923,0.7175435,-0.2024262,0.5886768,13
17.0,1.403299,1.381407,-34.1082,0.1203875099767431,-0.0413685977395178,0.0966366028441765,46.8813,98.63718,173.0559,0.7101886,-0.216694,0.5786896,13
17.02,1.542014,1.249921,-34.17199,0.1653627008988807,-0.0198800447151705,0.0755560373347581,26.27868,103.7679,176.0055,0.7705898,-0.1135275,0.5944985,13
17.04,1.656493,1.418407,-34.214,0.2009859933708033,0.0224293981080418,0.0596989419164746,29.8195,104.0062,175.6803,0.766941,-0.1295851,0.5868285,13
17.06,1.768842,1.583241,-34.25572,0.233981142606412,0.0626298726386483,0.0449116153825484,33.36197,104.2291,175.3599,0.7625432,-0.1455192,0.5785897,13
17.08,1.878845,1.744568,-34.29706,0.2537401482568476,0.0297773253051014,0.0367360188394672,36.9051,104.4368,175.0425,0.7574023,-0.1613109,0.5697914,13
17.1,1.888807,1.271807,-34.29547,0.2817161514957338,0.0648907100873266,0.026736984384331,2.432952,109.7645,177.9559,0.8178747,0.002376162,0.5747282,13
17.12,2.004369,1.438204,-34.33945,0.3068821468812382,0.0975887499369988,0.0182841376719222,6.000486,110.1579,178.0076,0.8192151,-0.01572121,0.5708297,13
17.14,2.132685,1.285168,-34.37297,0.3288489171078448,0.0589206765905422,0.0147742998234674,353.3304,111.6183,178.7308,0.8253573,0.04183245,0.5614982,13
17.16,2.220143,1.291134,-34.39916,0.3447876067600355,0.0655705468031517,0.0132424633160246,352.2489,111.9294,179.0931,0.8264725,0.04437257,0.5588498,13
17.18,2.339372,1.452863,-34.44085,0.3576718508940537,0.0710323622879552,0.0142150531506999,355.8543,112.287,179.3911,0.8297734,0.02456009,0.5569022,13
17.2,2.455993,1.610701,-34.48215,0.3487462657191038,0.0238731962000145,0.0244827669580578,359.4568,112.662,179.7108,0.8322359,0.00472821,0.554396,13
17.22,2.44807,1.282834,-34.46779,0.3370896139087025,-0.025661710945756,0.0373162539047138,353.7744,112.4285,179.7829,0.8298379,0.03176892,0.555353,13
17.24,2.565406,1.444827,-34.50822,0.3255797541225066,-0.035712809516492,0.0482575607709803,357.328,112.7892,180.1259,0.8326567,0.01198957,0.5532976,13
17.26,2.680186,1.603063,-34.54829,0.3025241367514741,-0.0696152104933123,0.0646604032254805,0.8782802,113.1705,180.4908,0.8346559,-0.007795922,0.5507019,13
17.28,2.680032,1.250431,-34.53547,0.2854462127986106,-0.0528296765144428,0.0770680823142653,359.3863,112.8266,181.3829,0.8330131,-0.007090904,0.5530959,13
17.3,2.722826,1.245781,-34.54419,0.2747226898090306,-0.0122826073586408,0.0875803257145335,1.409271,112.8776,181.6095,0.8330551,-0.01850038,0.5528752,13
17.32,2.840701,1.410468,-34.58575,0.2342832284815326,-0.0457535171280863,0.1108345520509432,5.05304,113.2827,181.9523,0.8338991,-0.03845199,0.5498909,13
17.34,2.956135,1.571336,-34.62695,0.1985939853974972,-0.0284530379368209,0.1308753979401942,8.693835,113.7126,182.3236,0.8338816,-0.05835979,0.5463427,13
17.36,2.936924,1.226185,-34.59167,0.1602659169980904,-0.0124409919292489,0.1526311551835535,10.33589,112.8322,183.1792,0.8279888,-0.07282218,0.5527787,13
17.38,3.053384,1.396366,-34.63312,0.1071171249964054,-0.0248777836952347,0.1806649734140366,13.97125,113.2843,183.4997,0.826624,-0.09215955,0.5486318,13
17.4,3.167748,1.562806,-34.67429,0.0387422835086058,-0.0616193084473671,0.2148832847368949,17.6029,113.7656,183.8559,0.8244113,-0.1113969,0.5439258,13
17.42,3.13102,1.190921,-34.63531,-0.0110039830536771,-0.0457913740262848,0.2400750906108077,16.08203,113.1307,183.7888,0.8233106,-0.1043463,0.5491293,13
17.44,3.182171,1.183282,-34.64657,-0.0777019065000337,-0.083423218278672,0.2732771038447179,17.38519,112.696,183.9192,0.8195121,-0.1118386,0.5517634,13
17.46,3.293476,1.363978,-34.68708,-0.1282670946105486,-0.0645908559733375,0.2974941463371081,20.93882,113.1642,184.1783,0.8165867,-0.1299303,0.5467417,13
17.48,3.403378,1.541222,-34.7275,-0.1990344630041509,-0.0995406502103282,0.3280883976525501,24.48924,113.662,184.476,0.812863,-0.1478902,0.5411892,13
17.5,3.326831,1.160876,-34.67682,-0.2493594883249996,-0.0777646421412185,0.3487629151328359,21.55477,110.65,184.1064,0.8035561,-0.1352608,0.5640368,13
17.52,3.436056,1.347715,-34.71603,-0.3212933331936497,-0.1105589868241151,0.3756573355857329,25.07627,111.0803,184.2285,0.7997799,-0.1524446,0.5585625,13
17.54,3.544261,1.531233,-34.75526,-0.3770315295790712,-0.0843664393569182,0.3938240640233506,28.59576,111.5323,184.3844,0.7952389,-0.1694781,0.5525575,13
17.56,3.499829,1.132801,-34.70767,-0.4504947635647132,-0.11404828923808,0.418098381232328,28.01601,107.0887,183.9501,0.7749773,-0.1706414,0.5828977,13
17.58,3.538352,1.128807,-34.71339,-0.5042497022113317,-0.0840245591094985,0.4335400790286225,30.00098,106.0302,183.7118,0.7661266,-0.1806183,0.5874953,13
17.6,3.644037,1.32454,-34.74927,-0.5737462545589556,-0.1096482834465255,0.4530037475542139,33.43229,106.3243,183.5476,0.7608093,-0.1960936,0.5810671,13
17.62,3.703377,1.11876,-34.75239,-0.6401456766075533,-0.133613041144455,0.4721739752566085,37.36666,103.764,183.0126,0.739827,-0.2172619,0.5911775,13
17.64,3.808017,1.31742,-34.78736,-0.6917724530500045,-0.1285615351943158,0.4794588896418226,40.76459,103.9237,182.6638,0.7331011,-0.2317097,0.5838263,13
17.66,3.912359,1.513061,-34.82259,-0.7417949744917938,-0.1189223400355072,0.4831772577664575,44.16224,104.0633,182.3089,0.7257193,-0.2459465,0.575956,13
17.68,3.912962,1.11502,-34.82087,-0.7866776058331615,-0.1070209996159146,0.4849980175123454,43.25825,103.6648,181.7507,0.7272838,-0.2389185,0.578813,13
17.7,3.956098,1.114463,-34.83159,-0.8268093056358532,-0.0961273592238904,0.4852859572143977,44.65879,103.4321,181.1499,0.7236918,-0.2426637,0.5760656,13
17.72,4.058859,1.314903,-34.86475,-0.8607760704578409,-0.0856707189567794,0.4809708772198195,47.99178,103.54,180.7764,0.7159216,-0.2565129,0.5674898,13
17.74,4.169643,1.11,-34.8914,-0.8870958313754909,-0.0732800846906124,0.4740157739425026,50.6466,101.6256,178.737,0.7035428,-0.2625232,0.5674519,13
17.76,4.271045,1.309383,-34.92449,-0.9060224380684754,-0.0623050825359131,0.4647557137274543,53.93676,101.5208,178.1279,0.6948799,-0.2755518,0.5579642,13
17.78,4.372203,1.505945,-34.95784,-0.915637789199548,-0.1405665777888081,0.4528852331328545,57.22481,101.3421,177.4544,0.6856314,-0.2883434,0.54801,13
17.8,4.472963,1.699702,-34.9914,-0.9146481816065936,-0.1302163383388207,0.4348152468081059,60.5104,101.0668,176.6932,0.675805,-0.3008885,0.5375973,13
17.82,4.607954,1.104426,-35.01963,-0.9062134956965556,-0.1194109637408235,0.4148261034049341,61.20827,95.29703,171.234,0.6604344,-0.293357,0.5493882,13
17.84,4.707397,1.295549,-35.053,-0.8968933015612195,-0.0990558387366053,0.3929058548409445,64.39441,94.21413,169.5946,0.6502951,-0.3049515,0.5381911,13
17.86,4.909356,1.128741,-35.10003,-0.884201717488498,-0.0498461067125721,0.3706357654676591,60.961,88.64908,166.7331,0.6400476,-0.2908908,0.5714583,13
17.88,5.003556,1.144096,-35.12379,-0.8684041903114601,-0.0484583644546228,0.3465524642191964,58.40923,89.11892,167.8512,0.6458083,-0.2808992,0.5822289,13
17.9,5.103816,1.326034,-35.15504,-0.846668036490499,-0.0486393534844226,0.3224809816854845,61.47226,87.80315,165.8987,0.6367118,-0.2923096,0.5711349,13
17.92,5.29878,1.195322,-35.20113,-0.8196509966111971,-0.0154927033254019,0.2910921434869689,48.34592,94.47589,173.1274,0.6852623,-0.2373803,0.6002864,13
17.94,5.401338,1.371683,-35.23295,-0.7866545305311377,0.0167793566333067,0.2602433207406189,51.48656,94.09056,172.1354,0.6779963,-0.2500609,0.5905434,13
17.96,5.504418,1.227049,-35.27374,-0.7567323872888383,5.757080538237869e-05,0.2277153152273561,38.05929,97.71222,174.649,0.7211429,-0.1810653,0.6098557,13
17.98,5.620045,1.397097,-35.31054,-0.7362849543959376,0.051198301497527,0.1991342155411182,41.59289,97.64449,173.9608,0.7149696,-0.196373,0.6005694,13
18.0,5.666029,1.250021,-35.32874,-0.7111828006054679,0.1242951692939589,0.1726166848617438,26.27866,100.924,175.9798,0.7556264,-0.1182783,0.6133934,13
18.02,5.797163,1.26394,-35.36715,-0.7000820368740577,0.1262515231532168,0.1494766729736101,13.91791,103.7293,177.1472,0.7823803,-0.05535941,0.6104102,13
18.04,5.912333,1.432107,-35.40384,-0.6926092085232733,0.1724198384427724,0.1327819438205617,17.4147,104.0643,177.0096,0.7814346,-0.07277106,0.6048076,13
18.06,6.025374,1.596692,-35.44032,-0.6859869206805633,0.2171206825705877,0.1197151479918954,20.9119,104.397,176.8908,0.7797506,-0.09011284,0.5986377,13
18.08,6.064515,1.275802,-35.43904,-0.6889095879044773,0.1865681983958436,0.1118210973075326,358.4014,107.3366,178.185,0.8052903,0.02102196,0.5925053,13
18.1,6.182126,1.441572,-35.47633,-0.6915278195163372,0.153918761693179,0.1090088737665313,1.954796,107.7079,178.2836,0.807459,0.002032759,0.5894871,13
18.12,6.29742,1.603619,-35.51336,-0.6804485445128994,0.1649365326878674,0.1075543442473589,5.506482,108.0865,178.4056,0.8088407,-0.01695296,0.5858987,13
18.14,6.411171,1.293848,-35.52794,-0.6701153367775108,0.1754397495715217,0.1122262731763976,352.8174,108.7599,179.2581,0.8110477,0.04173338,0.5815811,13
18.16,6.488928,1.296072,-35.54491,-0.6787354401927859,0.1791615477364898,0.1261383174361929,353.4409,108.8372,179.5281,0.811814,0.03663009,0.5810927,13
18.18,6.609426,1.457052,-35.57844,-0.6846847897822401,0.2068672269566105,0.1440303976208348,357.0017,109.1791,179.8598,0.8147243,0.01615564,0.5792571,13
18.2,6.598671,1.270133,-35.56536,-0.6933065630675228,0.23336245012256,0.168157415691013,354.0705,109.1113,180.0095,0.8135912,0.02992629,0.5791324,13
18.22,6.716051,1.433652,-35.59843,-0.7255968009719607,0.1817696441257972,0.2013458478979757,357.5843,109.4561,180.3389,0.8162715,0.009758268,0.5772762,13
18.24,6.770258,1.250365,-35.60541,-0.7410346005200685,0.2017764683947457,0.2321013820465278,359.393,109.2814,181.3681,0.815506,-0.006671349,0.5786013,13
18.26,6.830762,1.245908,-35.61639,-0.7582999169146616,0.2209895790547562,0.2681280209754018,1.392457,109.4224,181.6023,0.8160124,-0.01843142,0.5777377,13
18.28,6.950528,1.410734,-35.65069,-0.7983940400619935,0.1620332831967275,0.3142997914934042,5.025358,109.8089,181.9375,0.8168648,-0.03902223,0.5749135,13
18.3,7.06786,1.571765,-35.68477,-0.8346975702722612,0.1535333449676107,0.3581440968263134,8.655447,110.2194,182.2997,0.8168792,-0.05956923,0.5715034,13
18.32,6.998465,1.232073,-35.64335,-0.8608258406378448,0.1723276163993227,0.4022529563130455,8.234784,109.3491,182.8789,0.8124756,-0.06194594,0.5780172,13
18.34,7.117544,1.400702,-35.67766,-0.9059472194804952,0.1374077474564038,0.4533305986289706,11.87125,109.7716,183.1987,0.8116445,-0.08216802,0.5742624,13
18.36,7.234425,1.565574,-35.71177,-0.9517716247365609,0.1045236551636775,0.5094687010171892,15.5042,110.2213,183.5511,0.809981,-0.1023002,0.5699223,13
18.38,7.161013,1.199657,-35.66017,-0.9788017967714836,0.1462776555779973,0.559405779533706,14.76316,109.2222,183.6675,0.8056886,-0.1002372,0.5773817,13
18.4,7.17885,1.19105,-35.65828,-1.031924367423767,0.105888013415607,0.6132043161549339,16.06838,108.9944,183.7679,0.8029926,-0.107624,0.5784726,13
18.42,7.293776,1.369694,-35.69119,-1.0842369787248909,0.0675485887535506,0.6721741748769627,19.64269,109.4458,184.0491,0.8004218,-0.12687,0.5736317,13
18.44,7.291664,1.16821,-35.67377,-1.113713249967108,0.1086258317434145,0.7242232966937614,20.14105,108.5457,184.0999,0.795136,-0.1306318,0.5796392,13
18.46,7.40412,1.352787,-35.70721,-1.1570086134840605,0.0928329279241909,0.7767578716818422,23.68921,108.9845,184.299,0.7916725,-0.149015,0.5743134,13
18.48,7.370254,1.152979,-35.69705,-1.2076919653143985,0.0516690484008866,0.8324086215083923,23.05943,108.5863,184.119,0.790922,-0.1451727,0.5773246,13
18.5,7.480639,1.341582,-35.73151,-1.2560059034472362,0.0126633758461942,0.8923988932368792,26.58251,109.0084,184.2581,0.7868439,-0.162835,0.5716538,13
18.52,7.425242,1.138938,-35.71879,-1.285637386155766,-0.0011039277545255,0.9441308082901694,26.24335,108.6131,184.0784,0.7857312,-0.160515,0.5744155,13
18.54,7.528814,1.3313,-35.74601,-1.3118270488970385,-0.0117504606259738,0.9988995521548932,29.54548,108.7478,184.3377,0.7797831,-0.1781659,0.5706794,13
18.56,7.489729,1.123935,-35.72903,-1.3445388441199833,-0.0793437386859338,1.058064725953794,31.74948,107.5418,183.9846,0.7698064,-0.1885401,0.5758029,13
18.58,7.586128,1.320647,-35.75356,-1.3505398808598796,-0.0591250844104552,1.1081331536989243,34.88284,107.2329,184.1725,0.7610688,-0.2056388,0.5743248,13
18.6,7.54928,1.117621,-35.74632,-1.3515862582846097,-0.0655188068780776,1.154586458938054,36.92823,106.2347,183.5062,0.7525211,-0.2132041,0.5767655,13
18.62,7.639278,1.316039,-35.76896,-1.3469351407456884,-0.0981139087640507,1.207181086190614,39.90961,105.4536,183.6021,0.7411159,-0.2300903,0.5775107,13
18.64,7.631413,1.113794,-35.78032,-1.328732389945208,-0.0698543518831752,1.2587260076730793,42.7687,104.7414,182.2374,0.7329674,-0.236976,0.5740469,13
18.66,7.667203,1.113989,-35.79659,-1.312740391716272,-0.0983304568323358,1.31272508205224,44.41925,103.7379,181.334,0.7254739,-0.2418601,0.5750738,13
18.68,7.753608,1.314631,-35.82308,-1.2902329795530183,-0.126108736116575,1.3702453246533368,47.34023,102.4649,181.0589,0.7117451,-0.2579738,0.5763531,13
18.7,7.838667,1.51331,-35.84838,-1.2461651096306852,-0.0679744305386718,1.425483893056139,50.19997,101.1722,180.6768,0.6980214,-0.273459,0.5768875,13
18.72,7.80914,1.110026,-35.84531,-1.1937933805959993,-0.0674157256676133,1.4824700891057656,50.50848,100.3291,178.7274,0.6974878,-0.2655668,0.575686,13
18.74,7.902734,1.309887,-35.87537,-1.1282373646860195,-0.0932811060948629,1.5525698143838484,53.64858,98.74027,177.9827,0.6823346,-0.2818764,0.5749817,13
18.76,7.996471,1.507375,-35.9047,-1.0586077232810136,-0.0595464727800178,1.6235006707476138,56.7753,96.94686,177.0171,0.6666049,-0.2979485,0.5737846,13
18.78,8.105546,1.104623,-35.93775,-0.984050456189384,-0.0270783556370635,1.695846162578392,61.15825,93.68298,171.1806,0.6529121,-0.2986626,0.5586148,13
18.8,8.175166,1.109211,-35.96132,-0.9072131086910696,-0.0759551246103638,1.778983897254185,62.58284,90.4688,167.9009,0.6418837,-0.2997817,0.5595568,13
18.82,8.270756,1.298352,-35.98786,-0.8267072689009285,-0.1279021012040835,1.863541501215594,65.63187,87.3636,165.5585,0.6250942,-0.3158606,0.5559116,13
18.84,8.4247,1.144316,-36.04349,-0.748138635624136,-0.068256844873766,1.9483503070533743,58.38022,87.78283,167.7654,0.6392576,-0.2849708,0.5895221,13
18.86,8.522305,1.32679,-36.06675,-0.6633884818823286,-0.0795150300298016,2.050016523075314,61.37816,84.88658,165.5684,0.623057,-0.3007538,0.5863069,13
18.88,8.601412,1.178325,-36.09886,-0.5938719865720485,-0.062580131228671,2.153632365242068,52.07758,90.36404,171.1319,0.6593626,-0.2592171,0.6073422,13
18.9,8.700932,1.35695,-36.11957,-0.5219039695818928,-0.0211547926068598,2.2578023187879293,55.12708,88.16302,169.6319,0.644232,-0.2753201,0.6051252,13
18.92,8.843687,1.228338,-36.19411,-0.4489567970519637,0.0177090423488815,2.363034561886618,37.91257,95.47408,174.6209,0.7094105,-0.1853864,0.6240791,13
18.94,8.954282,1.400252,-36.21609,-0.3913736623535946,0.0324337930935164,2.4743014972609005,41.27101,93.95886,173.7991,0.6962053,-0.2030855,0.6236176,13
18.96,9.002728,1.250595,-36.25453,-0.3347411916536396,0.0459713668394701,2.587297690940802,26.24191,97.8493,175.8898,0.7390422,-0.1227318,0.6333491,13
18.98,9.117515,1.420138,-36.27652,-0.2798111268310668,0.1029848979184489,2.7027755688256665,29.70457,96.606,175.3484,0.7280515,-0.1410779,0.6346706,13
19.0,9.221356,1.589231,-36.29316,-0.2291551467841874,0.1556611024892209,2.8196269055870227,32.87147,95.29839,174.7933,0.7167615,-0.1582146,0.635976,13
19.02,9.220392,1.277288,-36.30508,-0.1880910968897706,0.1591955811798092,2.924642804092934,1.868329,100.5518,177.8005,0.7690873,0.004342379,0.6386479,13
19.04,9.317529,1.45127,-36.32048,-0.1534079006432549,0.1851328203349071,3.0322318299857915,4.753733,99.82583,177.6697,0.7647935,-0.0111571,0.6426191,13
19.06,9.413606,1.622805,-36.33494,-0.1236210577385319,0.2082864719365043,3.1416117025818684,7.644458,99.08553,177.5048,0.75996,-0.02671482,0.6461793,13
19.08,9.449404,1.289066,-36.33905,-0.1064059513906714,0.159698474044767,3.2522334689275523,352.9476,101.0368,178.6241,0.7698426,0.04835333,0.6351508,13
19.1,9.552146,1.459134,-36.34368,-0.0900967021904952,0.157469836789265,3.352317874855265,355.9438,100.0672,178.7628,0.7656513,0.03100015,0.6421912,13
19.12,9.647188,1.300669,-36.32943,-0.0844969199392915,0.1273909700219473,3.451782153379092,352.9918,97.86662,179.4964,0.7523523,0.04345872,0.6559051,13
19.14,9.749143,1.469269,-36.32637,-0.0857065012629427,0.0955689788850848,3.553328490194387,355.946,96.85059,179.6582,0.7475498,0.02570133,0.6632569,13
19.16,9.739761,1.275019,-36.29028,-0.0941859280462935,0.1294327566106582,3.653069782427529,353.5743,94.70557,179.9661,0.7343716,0.03818727,0.6764296,13
19.18,9.838049,1.445893,-36.28114,-0.1161055134086133,0.1123262446744832,3.734419560180858,356.474,93.61888,180.128,0.7287593,0.0202426,0.6840775,13
19.2,9.934391,1.614476,-36.27126,-0.1460807977731544,0.0952417635250547,3.817536544637744,359.3706,92.55222,180.2332,0.7226744,0.002325672,0.6911639,13
19.22,9.883428,1.255118,-36.2407,-0.176129450096995,0.0795531262147213,3.8787760677904526,358.8927,91.15842,181.2566,0.7142168,-0.001068974,0.6997722,13
19.24,9.98196,1.427316,-36.23091,-0.2178004058561946,0.0393537444547289,3.936573887835185,1.832016,90.29707,181.3418,0.7086664,-0.01957424,0.7052656,13
19.26,10.07769,1.597542,-36.22115,-0.2573253095459,0.0503362948228434,3.9923854767039577,4.735005,89.47582,181.3762,0.7028611,-0.03778654,0.7100258,13
19.28,10.02608,1.236573,-36.17633,-0.2958271352567483,0.0853086000487981,4.0461171199996455,7.691554,87.42182,182.7751,0.6880879,-0.06516252,0.7221188,13
19.3,10.03577,1.231403,-36.16135,-0.3581615952875727,0.0435950801245608,4.076202542019893,9.66239,86.48534,183.0469,0.6807835,-0.07947872,0.727148,13
19.32,10.12787,1.409787,-36.14722,-0.4356293195300162,-0.0232930298457759,4.094971361791616,12.46312,85.69731,183.0985,0.6736472,-0.09783033,0.7305502,13
19.34,10.09259,1.205253,-36.11824,-0.4979571354641094,-0.0427037603819938,4.097440541890643,13.81701,84.30573,183.5923,0.6631161,-0.1100119,0.7381431,13
19.36,10.18037,1.388853,-36.10129,-0.5665892325401931,-0.0599053595539044,4.102216144807863,16.51782,83.71823,183.7223,0.6565579,-0.1283774,0.7397882,13
19.38,10.26687,1.570358,-36.08254,-0.6418987479292075,-0.077840184932503,4.108989354681696,19.23658,83.00579,183.8375,0.6487868,-0.1469379,0.7416878,13
19.4,10.17505,1.179225,-36.06892,-0.7112814227472428,-0.0987673996414087,4.079950919998705,17.91577,79.70493,184.0351,0.6283962,-0.1417481,0.7613764,13
19.42,10.26419,1.366451,-36.0457,-0.778768947684799,-0.1170966940500056,4.034975690037075,20.72115,79.38791,184.1967,0.622785,-0.1612941,0.7606193,13
19.44,10.35266,1.55158,-36.0224,-0.8506685073723499,-0.1329637967796977,3.9924464054124655,23.53188,79.07491,184.342,0.6168025,-0.1807559,0.7593801,13
19.46,10.2695,1.147284,-35.99453,-0.9190882777903,-0.148874289999207,3.9305620122329614,23.77709,73.10441,184.0259,0.5766079,-0.185858,0.7899081,13
19.48,10.28512,1.140506,-35.97644,-0.9913452645398166,-0.1620844932296963,3.87124487520802,25.40496,71.38956,183.9849,0.562634,-0.1982609,0.7962415,13
19.5,10.36757,1.335724,-35.94941,-1.0460620869359385,-0.1186441890907716,3.80785461156713,28.06483,71.34113,183.9575,0.5585842,-0.2163953,0.7925528,13
19.52,10.37089,1.125539,-35.91416,-1.115586477438968,-0.1598728403967944,3.72659020100268,31.21948,64.34569,183.4486,0.5057504,-0.2430927,0.8191684,13
19.54,10.45052,1.324692,-35.88764,-1.16421713185222,-0.1698506868393488,3.6387485339119614,33.84158,63.71151,183.0175,0.4982499,-0.2604204,0.8163711,13
19.56,10.46164,1.119056,-35.85088,-1.214043284170491,-0.1771855413984774,3.5525807292388167,36.75603,60.49496,182.931,0.4709221,-0.284498,0.8235922,13
19.58,10.54479,1.319022,-35.81626,-1.248499165281184,-0.1820114763620486,3.451140765996362,39.59426,59.87814,182.438,0.463232,-0.3034184,0.8187528,13
19.6,10.5559,1.115754,-35.79306,-1.2825208030817528,-0.1845778950541753,3.3510273149024945,41.58262,58.20221,182.2778,0.4484263,-0.3191314,0.8201331,13
19.62,10.63807,1.114675,-35.73047,-1.296037637232335,-0.1852992148160766,3.246832906598172,44.58619,55.45056,181.0423,0.427387,-0.339693,0.8205969,13
19.64,10.72964,1.315513,-35.68116,-1.3081474811122151,-0.2126825293611237,3.1419034102219143,47.84349,54.7748,180.502,0.4189089,-0.3618787,0.8124541,13
19.66,10.7585,1.113168,-35.63691,-1.3041715965163354,-0.1797244176447538,3.035791700535792,48.00035,51.73286,179.4358,0.4003533,-0.3640229,0.821136,13
19.68,10.84852,1.313928,-35.58379,-1.2901219452348274,-0.1171165537744134,2.929151500250753,51.2651,50.90039,178.7175,0.391783,-0.3862579,0.8119648,13
19.7,10.93837,1.511984,-35.53049,-1.2713556598684352,-0.1415512748021999,2.825716483990721,54.52138,49.93387,177.8629,0.3828921,-0.4081672,0.8021168,13
19.72,10.9766,1.104091,-35.45766,-1.2501152911999427,-0.1664545413424466,2.722877196920943,56.42383,45.26102,176.0445,0.3539329,-0.4243742,0.806595,13
19.74,11.1091,1.104876,-35.32368,-1.2008546815581775,-0.157554061602867,2.6317882713522,61.14914,38.33158,170.9733,0.3195903,-0.4567329,0.7975839,13
19.76,11.19152,1.296616,-35.26295,-1.150615194474143,-0.1487317279417446,2.541142040823914,64.26523,36.22676,168.925,0.3108279,-0.477758,0.7851408,13
19.78,11.27334,1.485785,-35.20239,-1.097669123624902,-0.1920219607914161,2.4535609132080074,67.33909,33.56723,166.3211,0.3018185,-0.4983896,0.7720625,13
19.8,11.3389,1.129053,-35.07375,-1.0468836099507612,-0.1493498754218281,2.3673205204651184,60.92017,28.57517,166.5373,0.2688439,-0.4629368,0.8148984,13
19.82,11.41562,1.313715,-35.00566,-0.984531810636058,-0.1241173025643123,2.2933567180311707,63.91224,25.98803,163.9386,0.2609509,-0.4840077,0.8019949,13
19.84,11.49146,1.495804,-34.93805,-0.923315497742633,-0.0994520120775244,2.2198403209888333,66.83895,22.75179,160.6908,0.252854,-0.5046865,0.7884548,13
19.86,11.59157,1.195681,-34.75611,-0.8724171080179028,-0.0274089312988573,2.15120953386673,48.3194,30.82547,172.9757,0.2662068,-0.3789659,0.8712792,13
19.88,11.65285,1.210179,-34.68539,-0.8243381938729155,0.0410553591336134,2.082951830883384,43.36973,31.74065,173.7038,0.2732433,-0.3409258,0.886913,13
19.9,11.73282,1.382376,-34.5989,-0.7701834009236117,0.0624564304514833,2.01187535630271,46.83385,30.67817,172.6023,0.266963,-0.3668034,0.876323,13
19.92,11.81131,1.551178,-34.51356,-0.7188229983213974,0.082871356010288,1.9438665839805696,50.28134,29.43763,171.3236,0.2604293,-0.392325,0.8648871,13
19.94,11.8775,1.256748,-34.40626,-0.6743207056021152,0.1002741117627337,1.8847186272088905,20.17954,35.26585,176.4573,0.3032513,-0.1576614,0.9361892,13
19.96,11.9556,1.424452,-34.31149,-0.637214547070797,0.0937556462953988,1.8244107623275816,23.77573,34.8418,176.0753,0.2995264,-0.1864007,0.9310082,13
19.98,12.03205,1.588458,-34.21818,-0.5968311190078419,0.1330847022735276,1.7715090498262445,27.3688,34.37892,175.6535,0.2955071,-0.2149551,0.9248955,13
20.0,12.1067,1.748923,-34.12654,-0.563337831900715,0.1697483388256469,1.7236621206444358,30.95749,33.86908,175.183,0.2911952,-0.2432863,0.9178593,13
20.02,12.07361,1.275709,-34.10668,-0.5359875006083374,0.1340352369043745,1.6752534482523425,358.4701,37.16001,178.0832,0.3183439,0.01798183,0.9477339,13
20.04,12.14662,1.441453,-34.00772,-0.4994112636870964,0.1660643385295583,1.6320886046406082,2.054724,36.87992,178.043,0.3165043,-0.01160585,0.9482682,13
20.06,12.21799,1.6035,-33.91041,-0.4681188574618966,0.1937301971199862,1.594552493519486,5.638067,36.59642,177.985,0.3143554,-0.04117362,0.9478683,13
20.08,12.23658,1.293939,-33.81486,-0.4468188497341265,0.1457474295685312,1.5475054441543403,352.8254,36.39763,179.1736,0.3112666,0.06168549,0.9482335,13
20.1,12.2598,1.29613,-33.76092,-0.4222878199321334,0.1685742153596164,1.505938597007027,353.443,36.07886,179.4816,0.3089155,0.05577633,0.949358,13
20.12,12.29325,1.270276,-33.67641,-0.4046779643149452,0.1876229352801527,1.469781618088112,354.0725,35.55072,179.9663,0.3048631,0.04932512,0.9509918,13
20.14,12.35367,1.433926,-33.5718,-0.3959774746200506,0.1770492014932952,1.421711696018804,357.5935,35.25414,180.2151,0.3027906,0.01944456,0.9528242,13
20.16,12.41261,1.594014,-33.46908,-0.3976117084889055,0.1414602184373666,1.371521505097908,1.114694,34.97333,180.4455,0.3004313,-0.01044601,0.9537462,13
20.18,12.393,1.250439,-33.48333,-0.3899509017457661,0.1577850858184505,1.3226585802560291,359.4036,34.54316,181.3216,0.2969348,0.001545568,0.9548141,13
20.2,12.45324,1.41522,-33.37696,-0.3889035807087029,0.1709988995184956,1.2787292427191663,3.002877,34.27027,181.5486,0.2941599,-0.02901685,0.9553016,13
20.22,12.43464,1.240516,-33.3866,-0.4054392706569101,0.1078242976493972,1.2150916076821048,3.986994,34.11205,182.0206,0.2924972,-0.03841948,0.9554713,13
20.24,12.46145,1.232337,-33.31723,-0.4062572645065641,0.1207263846313685,1.154979902622376,8.21559,33.63144,182.8243,0.2867737,-0.07566052,0.9550019,13
20.26,12.52048,1.401329,-33.21042,-0.4209159696689313,0.0806525350133965,1.0851414750331685,11.84141,33.39349,183.0476,0.2830452,-0.1063673,0.9531806,13
20.28,12.57821,1.566681,-33.10531,-0.4411738018484927,0.039838621726008,1.0225950907544838,15.46703,33.16679,183.2586,0.2790334,-0.1369577,0.9503965,13
20.3,12.52327,1.208955,-33.17479,-0.455595109770277,0.0231153485991507,0.9425323817423132,13.42035,32.99752,183.4972,0.2784992,-0.1205904,0.9528271,13
20.32,12.5245,1.200031,-33.16617,-0.4619381689762576,0.0343216812541186,0.8698708191839759,14.72747,32.86795,183.6066,0.2765695,-0.1317003,0.9519058,13
20.34,12.54237,1.183438,-33.11729,-0.4811908243960001,-0.009305727574714,0.7901754421648302,17.38274,32.04746,183.866,0.2678113,-0.1543622,0.9509768,13
20.36,12.59868,1.364302,-33.01469,-0.4855253463690601,0.0044354733300697,0.7166637640410247,20.9469,31.82505,184.0275,0.2632923,-0.1841799,0.9468264,13
20.38,12.65411,1.541802,-32.91311,-0.4928600672769185,0.0170499130150445,0.6510455000443574,24.51055,31.60807,184.178,0.2585197,-0.2138093,0.9417544,13
20.4,12.60074,1.161027,-32.9873,-0.503538331276931,0.0252633389550113,0.5930579748498408,21.54734,29.4016,184.0637,0.242731,-0.1895358,0.9512991,13
20.42,12.60133,1.15332,-32.97827,-0.5092988850593283,0.0056064321735278,0.511219915829745,23.03082,28.62114,184.0132,0.2352808,-0.201799,0.9506115,13
20.44,12.65489,1.342413,-32.87871,-0.5171323591548895,-0.0120116505370862,0.4385629308279593,26.5273,28.34011,183.9972,0.2303675,-0.2306259,0.9450946,13
20.46,12.64389,1.132928,-32.87929,-0.5369267426480684,-0.0871367055611502,0.3627924311623296,27.99314,25.74304,183.9206,0.2079595,-0.2430422,0.9472177,13
20.48,12.69542,1.327431,-32.78112,-0.54213330242456,-0.1023964588066079,0.2888484408181124,31.45371,25.38803,183.7569,0.2027367,-0.2712178,0.9404852,13
20.5,12.74652,1.518901,-32.68324,-0.5376843638128415,-0.0854120049357481,0.2259931327287532,34.91231,25.00698,183.5605,0.1973307,-0.2991361,0.9328899,13
20.52,12.71641,1.121904,-32.72738,-0.5343539245439075,-0.1248538969547634,0.1677497449975704,34.67973,22.94986,183.2354,0.1815767,-0.2973264,0.936775,13
20.54,12.76149,1.117242,-32.64999,-0.519486916997943,-0.1028427583194826,0.1185729375395778,39.57882,22.39843,182.6551,0.1750073,-0.3362619,0.9243015,13
20.56,12.81191,1.316729,-32.55482,-0.5042213039146362,-0.081067623010406,0.0798477686205938,42.95186,21.82388,182.1976,0.169231,-0.3628028,0.9149072,13
20.58,12.83115,1.115076,-32.53233,-0.4839888963220879,-0.0864965023632184,0.0383156613836139,43.23696,22.29456,181.7305,0.1742533,-0.3641465,0.9130901,13
20.6,12.88082,1.315444,-32.43793,-0.4679450994809582,-0.118436567043587,-0.0003309077279336,46.58053,21.68706,181.2557,0.1685322,-0.3901998,0.9028742,13
20.62,12.93359,1.112986,-32.34781,-0.4412319315907957,-0.0896924422598922,-0.0267334648882662,48.03453,21.21602,179.5356,0.169771,-0.3993711,0.8975011,13
20.64,12.98032,1.11007,-32.26389,-0.4105261037264485,-0.0885403251635456,-0.0382820060930675,50.61454,20.71292,178.7138,0.1672283,-0.4186579,0.8883817,13
20.66,13.02893,1.309648,-32.17166,-0.3816654423890495,-0.086061402314093,-0.0420809111120683,53.88155,19.88518,178.0103,0.1616482,-0.443525,0.876596,13
20.68,13.07729,1.506543,-32.07944,-0.3457054860279311,-0.0255841849749968,-0.0373752078176035,57.14019,18.91244,177.1594,0.1559367,-0.4680136,0.8640853,13
20.7,13.14006,1.102257,-31.97151,-0.3092995841584729,-0.049167079443769,-0.0194304030573002,59.61074,17.62228,174.074,0.1581277,-0.4836622,0.8523967,13
20.72,13.18814,1.296108,-31.88046,-0.2755337184228486,-0.073789964433583,0.0053754221854336,62.82259,16.1933,172.7528,0.1525732,-0.5073541,0.8386124,13
20.74,13.297,1.117883,-31.68118,-0.2371366197181306,-0.0123009482561204,0.0340517621209319,61.82331,9.948827,167.2238,0.1308745,-0.5003261,0.8444659,13
20.76,13.34343,1.304436,-31.58971,-0.2010210761249418,0.0040175842253406,0.0736122164530335,64.89211,7.600064,164.899,0.1257856,-0.523335,0.8300686,13
20.78,13.40421,1.144037,-31.48035,-0.1687160874878674,-0.0027294568979614,0.1152091925412754,58.42308,9.180837,167.802,0.1211446,-0.4762945,0.8609497,13
20.8,13.44974,1.326114,-31.3876,-0.1401873534037299,-0.0111193021074977,0.161376041093606,61.47227,7.112771,165.7248,0.1162856,-0.4995231,0.8472877,13
20.82,13.55349,1.19522,-31.20929,-0.1116458796104367,0.0118537417131624,0.1980622354126424,48.36785,14.99975,173.1166,0.1432368,-0.398282,0.8995899,13
20.84,13.59904,1.371695,-31.1141,-0.0862152534524596,0.0343479674635501,0.2387263983451952,51.50063,13.92618,172.0656,0.1387656,-0.4226581,0.8882667,13
20.86,13.64374,1.545443,-31.02009,-0.057407724498546,0.0101312447918542,0.2843128379143289,54.61816,12.67344,170.8348,0.1341881,-0.4466943,0.8762472,13
20.88,13.68753,1.716551,-30.92739,-0.037384536857107,0.0311827534835574,0.3098902166116315,57.71614,11.19186,169.3748,0.1295107,-0.4703707,0.8635424,13
20.9,13.77701,1.250023,-30.86864,-0.0191069823740868,0.0756435176639166,0.3386032301174118,26.30367,21.71496,175.9844,0.1911422,-0.2168957,0.9542502,13
