t,pX,pY,pZ,aX,aY,aZ,reX,reY,reZ,rtX,rtY,rtZ,ID
5.88,-44.30582,1.101693,-38.82856,3.347158114448919,-0.0307039563181825,0.6222261609441722,14.60406,356.3863,163.5981,-0.01283395,-0.1301987,0.9818305,15
5.9,-44.30658,1.301526,-38.82808,3.415321337110432,-0.005876381556138,0.6070149662096176,14.62032,356.392,163.6207,-0.01279015,-0.1303285,0.981841,15
5.92,-44.29415,1.155002,-38.80761,3.4818949019483085,-0.0270065651056183,0.5829194358684786,14.6799,0.1586619,163.6262,0.01955203,-0.1262585,0.9816719,15
5.94,-44.25042,1.158753,-38.75233,3.5450064041322538,-0.0232971428784158,0.5599730624190284,17.37038,3.342828,165.2992,0.04790711,-0.1460118,0.9794291,15
5.96,-44.2588,1.356976,-38.74732,3.6041143083549976,0.0033811636158545,0.538176519258144,17.49169,3.520194,165.5869,0.04918314,-0.1469711,0.9795164,15
5.98,-44.26704,1.555173,-38.74214,3.6586903553371455,0.0512258660472627,0.5175222662257477,17.61644,3.70607,165.8718,0.05053371,-0.1479561,0.9795835,15
6.0,-44.14471,1.177303,-38.66898,3.707023237169034,0.0293705977106053,0.4808903480367732,16.04718,10.44932,167.7242,0.1045151,-0.1285629,0.9790848,15
6.02,-44.0957,1.183914,-38.63403,3.743031614705816,0.0085232052900366,0.4414660115426079,14.38003,13.08197,168.6676,0.1247429,-0.1125795,0.9794548,15
6.04,-44.08722,1.381159,-38.61399,3.7763174812707474,0.0117285400153996,0.4039015286522556,15.01258,12.70923,168.4877,0.1222014,-0.1181721,0.9789207,15
6.06,-43.92805,1.210374,-38.53688,3.808182934520796,-0.0077185507816305,0.3620400463875288,5.781952,21.97603,171.5962,0.1934771,-0.03542995,0.9770782,15
6.08,-43.90427,1.404772,-38.50592,3.837055581637028,-0.0036077883061834,0.3225176989500298,6.853661,21.52916,171.1695,0.1904075,-0.04419467,0.9768767,15
6.1,-43.77404,1.225749,-38.44468,3.853686823858907,-0.0223580152135118,0.2795000945054209,1.38224,27.32574,173.8728,0.2364802,0.0009191865,0.9700909,15
6.12,-43.59592,1.253421,-38.349,3.8579383955038047,-0.0403305324823731,0.2349444027854721,357.9443,32.0603,176.594,0.2754644,0.02543874,0.9606848,15
6.14,-43.54539,1.424357,-38.2562,3.859697596837957,-0.0350625523148541,0.193550213395075,1.042831,31.6781,176.6665,0.2730639,-0.0008126856,0.9615133,15
6.16,-43.38975,1.281828,-38.24099,3.8476203165799294,-0.0582514114349185,0.1471668300538828,353.8333,36.38638,179.8564,0.3117058,0.05149077,0.9486542,15
6.18,-43.32953,1.443075,-38.13063,3.824221973890172,-0.081675762579343,0.099780063964368,357.4469,35.978,180.2186,0.3087977,0.02060028,0.950865,15
6.2,-43.2781,1.27188,-38.24477,3.798877938344401,-0.0809299627852017,0.0554239393170545,354.7367,40.07142,180.4726,0.3424195,0.0417246,0.9384158,15
6.22,-43.1636,1.259316,-38.24494,3.763781739404097,-0.1058167160236327,0.0089577881331273,358.464,43.92004,181.2704,0.3740408,0.008285138,0.9272491,15
6.24,-43.10877,1.434867,-38.17405,3.727144625092988,-0.1060615284260611,-0.0343397549278483,1.07763,43.53974,181.4413,0.370724,-0.01339699,0.9286104,15
6.26,-43.04201,1.248711,-38.2252,3.673109503419754,-0.1312247658234751,-0.0793240397641321,3.089627,47.51317,181.9827,0.4022184,-0.03163832,0.9149836,15
6.28,-42.98167,1.424926,-38.15628,3.61807765843057,-0.1311960798880627,-0.1210501743992935,5.775501,47.14902,182.1729,0.3984861,-0.05374034,0.9155946,15
6.3,-42.93787,1.239715,-38.2245,3.541595883753919,-0.1572674346820246,-0.165123033712641,7.317348,51.06215,182.7931,0.4285911,-0.06804736,0.9009156,15
6.32,-42.8575,1.224119,-38.24361,3.46496793312335,-0.1574171063882015,-0.2058995948067821,10.93874,54.84433,183.272,0.4558443,-0.09765781,0.8844892,15
6.34,-42.81024,1.214927,-38.24444,3.371916450647793,-0.1857223867449074,-0.2488578340915843,12.48339,56.59435,183.4601,0.4681298,-0.1099135,0.8764383,15
6.36,-42.74186,1.397563,-38.18933,3.279283576852168,-0.1869437807860826,-0.288550106288552,15.10559,56.25839,183.6336,0.4634611,-0.1306741,0.8757609,15
6.38,-42.67432,1.578316,-38.13451,3.1680018327439647,-0.2153329395763188,-0.3293852863228608,17.72866,55.92656,183.7933,0.4585466,-0.1513639,0.8746122,15
6.4,-42.67946,1.187576,-38.24337,3.0580135632145726,-0.2158703281809723,-0.3668480802892633,16.48768,60.73579,183.8512,0.4958871,-0.1404551,0.8558353,15
6.42,-42.66142,1.179664,-38.2576,2.9275564946635857,-0.2439844070931467,-0.4056077860713776,17.81234,61.70485,184.0019,0.5016961,-0.1505177,0.8503956,15
6.44,-42.5887,1.368075,-38.2122,2.799541862246641,-0.2434817970377387,-0.4408549081565187,20.4225,61.36704,184.118,0.4964112,-0.1704043,0.8490814,15
6.46,-42.56975,1.155286,-38.26164,2.657755735318612,-0.2719441454142113,-0.4764920375462322,22.16457,63.11998,184.0538,0.5075168,-0.1818518,0.8392382,15
6.48,-42.49607,1.348119,-38.22199,2.519159868022033,-0.2707473162224402,-0.5085478222223596,24.7473,62.75506,184.0793,0.5017467,-0.2009328,0.837366,15
6.5,-42.49888,1.140315,-38.25387,2.3662770945933564,-0.2975115926215254,-0.540458859128429,25.42931,63.43727,183.9946,0.5060195,-0.2049826,0.8333099,15
6.52,-42.43377,1.129267,-38.24663,2.2175652770951766,-0.2940406143986316,-0.5686238381049336,29.19901,63.43983,183.7546,0.5014941,-0.2309628,0.8270624,15
6.54,-42.35846,1.327028,-38.21315,2.06534135139019,-0.3188344363850574,-0.5959315434614298,31.77872,62.98502,183.5953,0.4948571,-0.2491011,0.8242112,15
6.56,-42.32158,1.121831,-38.21976,1.917794370821212,-0.312847164014189,-0.6194359136014391,34.11755,63.39043,183.3006,0.4948887,-0.2639623,0.8175225,15
6.58,-42.23962,1.320911,-38.18641,1.7641627920722076,-0.3344627318530982,-0.6433367679929978,36.89654,62.85012,183.013,0.4873187,-0.2829423,0.8135284,15
6.6,-42.20167,1.117055,-38.19791,1.6160516085951766,-0.325050798026935,-0.6632523971915969,39.37167,64.30276,182.7008,0.494195,-0.2969319,0.8011653,15
6.62,-42.08794,1.114934,-38.18197,1.4615149947396366,-0.3430897617462645,-0.682370125640591,43.20466,65.73663,181.7587,0.4997857,-0.3169346,0.7839,15
6.64,-41.98993,1.315339,-38.14774,1.3153014273520318,-0.3585829079198206,-0.6985763739067794,46.47174,65.06199,181.3299,0.4902442,-0.3383299,0.7771255,15
6.66,-41.93111,1.113678,-38.14857,1.175556272082603,-0.3429258469253142,-0.7104722199733846,46.36396,66.27647,180.3729,0.5014479,-0.3312602,0.7704417,15
6.68,-41.83174,1.314239,-38.11587,1.0425020651770964,-0.2981910412345787,-0.7179104263868634,49.65494,65.53063,179.8693,0.4915822,-0.3525203,0.7629161,15
6.7,-41.73253,1.512096,-38.0829,0.916629077250029,-0.3116903298841751,-0.7232478933145847,52.93996,64.68196,179.2575,0.4813063,-0.3734763,0.7547482,15
6.72,-41.5936,1.103624,-38.08282,0.8128674420916324,-0.3221103915933729,-0.7234983446875187,56.53595,67.06422,176.2312,0.4992443,-0.3785666,0.7251663,15
6.74,-41.49444,1.299674,-38.05607,0.7153746245631689,-0.3025162775274839,-0.7188841925241913,59.76931,65.90202,175.2993,0.4883463,-0.3984123,0.7158302,15
6.76,-41.39568,1.493129,-38.02913,0.63027913157583,-0.3067096586017425,-0.7102843139754684,62.98982,64.49825,174.122,0.4770504,-0.4179219,0.7059063,15
6.78,-41.22518,1.10906,-38.01264,0.5517391219494963,-0.2816395538756777,-0.696314354158269,62.67345,60.76246,167.923,0.4767749,-0.400719,0.705079,15
6.8,-41.12629,1.297662,-37.98708,0.4800170131309027,-0.2292345329909489,-0.6768698114744192,65.78785,58.46973,165.7879,0.4655666,-0.4195387,0.6942838,15
6.82,-41.02821,1.483713,-37.96143,0.4211442375038183,-0.2232874639550914,-0.6551019690705111,68.85602,55.54171,163.0153,0.4539837,-0.4380091,0.6829265,15
6.84,-40.77689,1.161889,-37.95331,0.3699042320069701,-0.1892837706388703,-0.6272480548955874,55.74075,61.43959,168.8654,0.4884441,-0.3561687,0.7332076,15
6.86,-40.68241,1.179609,-37.94897,0.3265536662250854,-0.1290981926578845,-0.5932347509381062,51.85403,64.57245,171.2181,0.5072773,-0.3317622,0.7401911,15
6.88,-40.59037,1.360227,-37.92919,0.3046039826787368,-0.1103245941672524,-0.5613522160255648,54.65575,62.48908,169.7075,0.4941516,-0.3495818,0.7351216,15
6.9,-40.50015,1.538865,-37.90924,0.2922472178760378,-0.0650626363609637,-0.5224880214964527,57.39829,60.07855,167.8882,0.4805038,-0.3670656,0.7297379,15
6.92,-40.38001,1.229107,-37.95079,0.2953540970962072,-0.0693413767421402,-0.4845776379395596,37.72391,71.05202,174.6709,0.5615061,-0.2372622,0.7605824,15
6.94,-40.27052,1.401057,-37.92497,0.3039062835541211,-0.0504663048831561,-0.4454498882142745,41.07104,69.65362,173.8927,0.5493875,-0.2590572,0.7569557,15
6.96,-40.16305,1.569936,-37.89866,0.3174220526067435,-0.0068496790572363,-0.4072360956756649,44.40079,68.11552,172.9579,0.5367588,-0.2806007,0.7526132,15
6.98,-40.05776,1.735834,-37.87192,0.3358605780698225,-0.0156853571995814,-0.3687207978294973,47.71143,66.40288,171.8333,0.5236287,-0.3018907,0.7475518,15
7.0,-39.96328,1.268326,-37.96581,0.3685750990935705,-0.0309775826528501,-0.3238608421023299,8.031766,80.12713,177.5487,0.6430564,-0.0398527,0.762313,15
7.02,-39.9113,1.272189,-37.97322,0.4008491560251812,-0.0148118846153146,-0.2882550556527432,2.278142,81.94614,177.9302,0.6557388,-0.00316634,0.7545102,15
7.04,-39.79354,1.439102,-37.94921,0.4387502765198734,0.0246054994417659,-0.2509291180332882,5.820158,81.04195,177.8688,0.6494942,-0.02651832,0.7584432,15
7.06,-39.66483,1.285429,-37.96835,0.4821424301269958,0.0121851748850394,-0.2151977310739177,353.3002,84.40585,178.7102,0.6700808,0.05083124,0.7398995,15
7.08,-39.54499,1.44902,-37.94276,0.5154939006252572,0.0475358273689056,-0.1839522955652457,356.8829,83.49847,178.8193,0.6653809,0.02714909,0.7459372,15
7.1,-39.48901,1.293835,-37.95795,0.5439415991929408,0.0287584886127568,-0.157783760093725,352.8394,84.77757,179.2666,0.6725332,0.0504281,0.7374002,15
7.12,-39.43642,1.296139,-37.96128,0.56620999479322,0.0593543317493281,-0.1365258924451948,353.4604,85.25983,179.5139,0.6759736,0.04483262,0.7347031,15
7.14,-39.31657,1.457251,-37.93262,0.566131319592702,0.0580707049571795,-0.1309199029484808,357.0309,84.34518,179.7471,0.6710966,0.02068203,0.7409137,15
7.16,-39.27568,1.262085,-37.96095,0.5705721114731537,0.0555812924522514,-0.1367902564029872,355.7655,85.84361,180.5631,0.6806596,0.02370986,0.7316515,15
7.18,-39.22059,1.254417,-37.96387,0.5461229192666393,0.0474061632602908,-0.146176289809321,357.4769,85.95306,181.1047,0.6816571,0.00953712,0.731277,15
7.2,-39.10197,1.418741,-37.93948,0.5253237042794359,0.0392555158140491,-0.1693492373153686,1.066475,85.05805,181.2887,0.6758146,-0.01445916,0.7369273,15
7.22,-39.03762,1.240433,-37.95104,0.4837848639305013,0.029047857012761,-0.183483138426765,4.055529,86.15722,182.035,0.6820069,-0.03796159,0.7302741,15
7.24,-38.91763,1.406686,-37.92703,0.4391999608371018,0.0455460911023042,-0.1935304038615228,7.709569,85.28728,182.2394,0.6748085,-0.06264996,0.734667,15
7.26,-38.909,1.232154,-37.93699,0.3670656466061297,0.0091408078840905,-0.2201540982126468,8.279346,85.69704,182.8306,0.6767741,-0.06966223,0.732231,15
7.28,-38.79036,1.401263,-37.91366,0.3001648040375633,0.0247235021329559,-0.2354926994628297,11.90931,84.83968,183.0116,0.6686742,-0.09418838,0.735824,15
7.3,-38.81583,1.217519,-37.92966,0.2390157927914593,0.0375935137486235,-0.2570866418382458,11.90207,85.62824,183.3036,0.6734865,-0.09550761,0.7313371,15
7.32,-38.69881,1.390391,-37.90781,0.1388334667347752,0.0225523175387671,-0.2783821880119426,15.5059,84.78038,183.47,0.6646904,-0.1198145,0.7342377,15
7.34,-38.69657,1.19095,-37.92449,0.0245277637486571,0.0091889369117268,-0.2989688212041077,16.09736,85.67662,183.7352,0.6695305,-0.124555,0.7287692,15
7.36,-38.58185,1.369959,-37.90475,-0.0784518683093589,0.0248620958609746,-0.3152449699497524,19.67179,84.84067,183.8966,0.6599775,-0.1486307,0.7308622,15
7.38,-38.60193,1.175822,-37.91611,-0.2055964908241883,-0.0146314405572023,-0.3425584917073987,18.74447,84.39402,184.0105,0.6580886,-0.1437592,0.7343302,15
7.4,-38.48908,1.358922,-37.89733,-0.3229176041462258,-0.0543937156996235,-0.3743798109038927,22.28918,83.54052,184.0968,0.6480134,-0.167426,0.7358923,15
7.42,-38.53032,1.160815,-37.91156,-0.4504737012751274,-0.0679720291848849,-0.3931734041409749,21.58701,82.77789,184.061,0.6440843,-0.1634206,0.7408902,15
7.44,-38.41901,1.348024,-37.89375,-0.559010403888835,-0.0507639650603668,-0.4057338046698868,25.10911,81.89053,184.0475,0.6334714,-0.1866733,0.7418462,15
7.46,-38.42272,1.139059,-37.90359,-0.6845180962914643,-0.0898046474838365,-0.4243750465782083,26.3198,80.48269,183.9414,0.6226952,-0.1953157,0.7479019,15
7.48,-38.3138,1.331967,-37.88706,-0.7896872011517262,-0.0683724732841202,-0.4317312245146905,29.80124,79.52807,183.7833,0.6112571,-0.2179583,0.7478613,15
7.5,-38.32911,1.128796,-37.89497,-0.90873308346697,-0.1035552939362605,-0.44340225969359,30.05479,78.43382,183.6731,0.6038846,-0.2203465,0.7531321,15
7.52,-38.22203,1.324839,-37.87902,-1.0027593104757413,-0.0784832102287465,-0.446397996731557,33.48963,77.40115,183.3803,0.5918459,-0.2424095,0.7523203,15
7.54,-38.17012,1.11878,-37.88368,-1.1031804525328583,-0.0794870479911623,-0.4501230499907818,37.43572,76.34618,182.9663,0.5786255,-0.2673474,0.7494524,15
7.56,-38.06454,1.31778,-37.86893,-1.1888610374388753,-0.0788159052915137,-0.4547437339323812,40.82554,75.1584,182.4736,0.5654616,-0.2886854,0.7471631,15
7.58,-38.03619,1.115689,-37.88415,-1.2716756247228371,-0.0762458937786546,-0.4561402502259337,41.8718,76.24319,182.2994,0.5708205,-0.2926191,0.739043,15
7.6,-37.93161,1.315964,-37.87045,-1.3400117587360567,-0.0720594002863585,-0.4586558964221847,45.22459,74.98347,181.7411,0.5571591,-0.3135743,0.7359187,15
7.62,-37.91286,1.11456,-37.87962,-1.4072171703109069,-0.0662459984721612,-0.4581600261612939,44.68849,76.22369,181.0855,0.5679981,-0.3045152,0.7299214,15
7.64,-37.79638,1.11301,-37.87555,-1.4638740547315612,-0.0285916506844416,-0.4566425588805414,48.07481,75.55739,179.483,0.5609342,-0.3194215,0.7207076,15
7.66,-37.69378,1.3137,-37.86249,-1.5131766623195544,-0.0492038628479755,-0.4600445401409292,51.3619,74.1544,178.7876,0.5469652,-0.3399769,0.7162116,15
7.68,-37.59134,1.511757,-37.84876,-1.5446568957227005,-0.0103103495103464,-0.460441090361364,54.63522,72.57274,177.8987,0.5325139,-0.3602196,0.7110729,15
7.7,-37.4873,1.103793,-37.85205,-1.569124152271331,-0.0275056433401304,-0.4643663523906696,56.54524,73.26534,176.1135,0.5380876,-0.3620695,0.6967549,15
7.72,-37.27954,1.104587,-37.8356,-1.5763512676156166,-0.0709302647857143,-0.4694709902102882,61.22808,69.10424,171.1233,0.5190981,-0.3803954,0.684337,15
7.74,-37.17965,1.295965,-37.82092,-1.5789148072363297,-0.0270558584415943,-0.4711482084746627,64.38129,66.58006,169.263,0.504131,-0.3999045,0.6769471,15
7.76,-37.03893,1.118227,-37.81278,-1.5717499168466782,0.0150388519146505,-0.4733069449079554,61.79023,64.04401,167.1863,0.500745,-0.3818488,0.6926178,15
7.78,-36.93973,1.304874,-37.79558,-1.561056744731088,-0.0198619580121453,-0.47632189603185,64.83791,61.00876,164.7606,0.4859582,-0.401008,0.6848063,15
7.8,-36.84153,1.489057,-37.77784,-1.5583904486897169,0.0045977987288062,-0.479840196748305,67.81535,57.24998,161.6034,0.4707644,-0.4198177,0.6764091,15
7.82,-36.7037,1.162031,-37.78258,-1.5467445776492026,0.0285829885384791,-0.4836047842293256,55.72729,63.80956,168.7656,0.5038271,-0.3491237,0.7227236,15
7.84,-36.60355,1.342033,-37.76226,-1.5286638418200376,0.006016199649424,-0.487918074496088,58.76269,61.32106,166.8353,0.4898064,-0.3683141,0.7159382,15
7.86,-36.50479,1.5195,-37.74147,-1.5237993659378768,0.054913101389856,-0.4894021032530506,61.74443,58.38017,164.4437,0.4753819,-0.3871866,0.7085504,15
7.88,-36.31386,1.229162,-37.77937,-1.5108093236440867,0.1252365606346976,-0.4876004779162999,37.71146,73.17307,174.7343,0.5753753,-0.2333207,0.7502162,15
7.9,-36.20446,1.401227,-37.7564,-1.512057813427413,0.123058532666281,-0.4844823154432998,41.04249,71.86427,174.0302,0.5636231,-0.2548447,0.7465891,15
7.92,-36.05746,1.257694,-37.78895,-1.509143079349764,0.0955029442690621,-0.4782895274037857,19.92244,78.3538,176.5714,0.625927,-0.1154215,0.7599025,15
7.94,-35.96838,1.264346,-37.78815,-1.5011665469735558,0.1362831686078873,-0.4611168466862754,13.74879,79.74141,177.1661,0.6385257,-0.07609744,0.7598451,15
7.96,-35.85337,1.433009,-37.76542,-1.487687429215982,0.1739138901894694,-0.4428830055979853,17.20974,78.82623,176.957,0.6306086,-0.09888483,0.7611001,15
7.98,-35.79441,1.272197,-37.78386,-1.492661741610089,0.1372355833525047,-0.4232537825386107,2.293616,82.41475,177.9232,0.6588191,-0.003118078,0.751817,15
8.0,-35.6763,1.439126,-37.76136,-1.4914369055342975,0.0968434330866474,-0.4019866998052261,5.834973,81.55251,177.8582,0.6528668,-0.02634579,0.7555311,15
8.02,-35.52742,1.285425,-37.77656,-1.4834590991871242,0.1443420446554011,-0.3615369949260749,353.3021,84.77962,178.707,0.6724903,0.05073631,0.7377115,15
8.04,-35.40727,1.449019,-37.75221,-1.4811906487556108,0.144890051683404,-0.3109833213405855,356.8846,83.91435,178.8162,0.6680836,0.02711776,0.7435182,15
8.06,-35.33127,1.293828,-37.76457,-1.488522188591494,0.1187371886243961,-0.2607281082121737,352.8368,85.07637,179.2646,0.6744517,0.05035862,0.7356437,15
8.08,-35.21067,1.455395,-37.73738,-1.494980679671925,0.1375335181145688,-0.2001521328533524,356.4265,84.20383,179.4604,0.6700091,0.02628949,0.7416829,15
8.1,-35.19085,1.2828,-37.75793,-1.5004667197093724,0.153138216162901,-0.1363173758768079,353.7704,85.23432,179.7411,0.6760042,0.04151336,0.7348886,15
8.12,-35.07498,1.44758,-37.74544,-1.5271248661065666,0.1384802793241,-0.077711243990084,357.2098,84.27803,179.4969,0.6706473,0.02099804,0.7413641,15
8.14,-35.01814,1.255782,-37.76872,-1.5419173664873682,0.1471986667253747,-0.0110072440640855,357.3925,85.36703,180.8596,0.6778792,0.01164129,0.7347831,15
8.16,-34.90266,1.422955,-37.76179,-1.5554830020343946,0.153555067585335,0.05846498157082,0.8476107,84.36174,180.4655,0.6714271,-0.00820901,0.7410228,15
8.18,-34.91229,1.246482,-37.77538,-1.5867291126534635,0.1368891352296784,0.125375482158307,1.430626,85.48048,181.3835,0.6784627,-0.01736148,0.7344297,15
8.2,-34.79433,1.41329,-37.76112,-1.6200497139882994,0.1214855327620644,0.1913500167904853,5.002516,84.39634,181.1915,0.6706847,-0.03930615,0.7403852,15
8.22,-34.85767,1.232699,-37.81645,-1.6504519598097005,0.1063996188023071,0.2613430009547137,8.253178,85.77717,182.6874,0.6773875,-0.06862727,0.7317266,15
8.24,-34.73985,1.402433,-37.79676,-1.6935952461543238,0.0888533704024796,0.3265578556783488,11.86005,84.71096,182.712,0.6681288,-0.09218357,0.7364661,15
8.26,-34.85468,1.218084,-37.84718,-1.734102540173316,0.0724577554840494,0.395513610762678,11.87578,85.63094,183.154,0.6736485,-0.09446052,0.7312694,15
8.28,-34.73862,1.391618,-37.82916,-1.756321533631774,0.1049031651877842,0.4725346349667889,15.4522,84.56303,183.156,0.6636748,-0.1177841,0.7353446,15
8.3,-34.62458,1.561804,-37.81031,-1.8085622188653545,0.0576503729468232,0.529898196280052,19.02697,83.47546,183.0876,0.653005,-0.1409757,0.7386345,15
8.32,-34.84436,1.191223,-37.88568,-1.850466308474752,0.0370545076207127,0.5853821955652467,16.09328,86.49498,183.6394,0.6748257,-0.1234518,0.7239113,15
8.34,-34.8697,1.175991,-37.91523,-1.8878732798972424,0.0182589865494717,0.6446676529516022,18.74,87.26233,183.9526,0.6763381,-0.1412492,0.7175889,15
8.36,-34.75646,1.359263,-37.90328,-1.9268240581846827,-0.0010714034569765,0.6962467274781456,22.28401,86.20335,183.9672,0.6651304,-0.1642146,0.7205213,15
8.38,-34.87181,1.160929,-37.94027,-1.9604012725594284,-0.0182373287873743,0.7517447678589741,21.58429,86.50651,184.0195,0.6679081,-0.1598991,0.7195096,15
8.4,-34.76003,1.348273,-37.93057,-1.969266703362985,0.0191141533625558,0.8151706915478751,25.10464,85.41712,183.9503,0.65616,-0.1824214,0.7219042,15
8.42,-34.86589,1.13908,-37.96682,-2.002708750023406,-0.0279839573051662,0.8583814392360063,26.31868,85.49041,183.9336,0.6547889,-0.189773,0.7199771,15
8.44,-34.75647,1.332042,-37.95993,-2.016806405077343,-0.0455348983215985,0.9029130385981174,29.79833,84.34644,183.7548,0.6422116,-0.2117084,0.7214729,15
8.46,-34.8454,1.128797,-37.97768,-2.0238949720151185,-0.0605125020499896,0.951637569246472,30.05357,83.81509,183.674,0.6385735,-0.2135353,0.7239567,15
8.48,-34.73784,1.324869,-37.97182,-2.021736149907918,-0.0735687462809233,0.9952223777559056,33.48738,82.5968,183.3692,0.6253637,-0.2349233,0.7247091,15
8.5,-34.81599,1.121879,-37.98479,-2.011955701274836,-0.084451982177329,1.042958504024143,34.73104,82.58044,183.2126,0.6232628,-0.2418269,0.7223684,15
8.52,-34.70974,1.320123,-37.98043,-1.9844274344561408,-0.0939875463562482,1.08834724421171,38.12636,81.26045,182.7676,0.6092984,-0.2626646,0.7222346,15
8.54,-34.75675,1.115656,-38.0031,-1.95409976262556,-0.1299483721361436,1.132262733419119,41.8772,82.34232,182.3162,0.6092759,-0.2813786,0.7076494,15
8.56,-34.65162,1.315915,-38.00034,-1.9081353100980856,-0.1052627733363989,1.1828833611586758,45.23752,80.90607,181.761,0.594352,-0.3018239,0.7061617,15
8.58,-34.66957,1.114511,-38.00902,-1.8547557839672857,-0.0809930221179877,1.2369055392188324,44.69048,83.32424,181.11,0.6120414,-0.2899711,0.6933953,15
8.6,-34.56565,1.315253,-38.00721,-1.794645045309184,-0.0854303676800715,1.2848775317350345,48.01768,81.88995,180.5811,0.5970702,-0.3103622,0.6913326,15
8.62,-34.60078,1.112949,-38.02184,-1.7269234536183555,-0.0884125354285426,1.3362073945899748,48.07096,83.87945,179.5184,0.6116662,-0.3004033,0.6782019,15
8.64,-34.49791,1.313607,-38.02324,-1.6393461796145328,-0.0335105496274481,1.3937831770111666,51.35958,82.31539,178.8439,0.5963914,-0.3202624,0.6756253,15
8.66,-34.43026,1.103676,-38.04656,-1.5425692806225513,-0.0353728950567375,1.4590533530864418,56.53188,84.16914,176.2057,0.60162,-0.3317238,0.6427951,15
8.68,-34.32917,1.299867,-38.05048,-1.4402705616015965,-0.0632987508062198,1.5242201139087497,59.77,82.23116,175.1574,0.5854897,-0.35096,0.6387797,15
8.7,-34.26094,1.10462,-38.06545,-1.3323337168034568,-0.092648268710608,1.5907288638699528,61.21762,79.16297,171.1187,0.5771317,-0.3487919,0.6362194,15
8.72,-34.11945,1.11831,-38.06249,-1.2087709453350062,-0.0843342757464918,1.6667249463451492,61.78305,71.87835,167.1116,0.5471373,-0.3565252,0.656575,15
8.74,-34.01927,1.305087,-38.05967,-1.097080116057905,-0.0473347057438025,1.7425938673320402,64.81535,68.56659,164.5741,0.5306865,-0.3749961,0.6507499,15
8.76,-33.92001,1.489429,-38.05605,-0.982685614643172,-0.0121384724140156,1.8179719616805787,67.7675,64.48749,161.2594,0.5137772,-0.3931289,0.6443493,15
8.78,-33.86207,1.161992,-38.05302,-0.8723943585044625,0.0731103029204011,1.8932267498664488,55.73446,71.80062,168.7412,0.5530179,-0.3259561,0.6857612,15
8.8,-33.80928,1.178468,-38.05672,-0.7496850421701975,0.062200193862665,1.958197252342168,52.02254,74.77441,171.2351,0.5707247,-0.3057311,0.691633,15
8.82,-33.7075,1.356808,-38.04814,-0.6256154221870629,0.0491863665233342,2.02176921662027,55.10022,72.58024,169.8008,0.5558205,-0.3246883,0.6874697,15
8.84,-33.62129,1.228877,-38.03944,-0.4916015322201228,0.0637617486760559,2.0787919860016952,37.78106,75.25712,174.5668,0.5891594,-0.2287474,0.7391174,15
8.86,-33.50917,1.400697,-38.02325,-0.3579787924475619,0.0541961453424502,2.1259374198483734,41.14917,73.64677,173.6664,0.5758048,-0.2498847,0.7366482,15
8.88,-33.39908,1.569409,-38.00627,-0.2243680024707934,0.0420440869327243,2.170941761801686,44.49445,71.87396,172.584,0.5618933,-0.2707698,0.7334519,15
8.9,-33.44609,1.257479,-37.98546,-0.1055374992034305,0.0940013830335527,2.221888023189651,19.9758,74.92937,176.4193,0.603062,-0.1188816,0.7780214,15
8.92,-33.37076,1.268891,-37.94948,0.01044186315307,0.0731752297728808,2.246149824298378,8.012377,75.23438,177.3678,0.6100019,-0.04134021,0.7889832,15
8.94,-33.25583,1.436904,-37.91937,0.1175000098586762,0.0970072357604573,2.275886012937236,11.52443,74.146,177.0455,0.6016519,-0.06461708,0.7920125,15
8.96,-33.14333,1.601493,-37.88867,0.2328769741684588,0.0975130142937664,2.292245046042119,15.02873,73.02275,176.651,0.5926923,-0.08782718,0.7942225,15
8.98,-33.19749,1.279795,-37.85167,0.3425878770120389,0.0964786055987553,2.3057055837006617,354.4025,72.64488,178.2317,0.5909449,0.0484652,0.805086,15
9.0,-33.08475,1.445324,-37.80868,0.4523428719289981,0.0954365230923906,2.305904278613013,357.9596,71.62151,178.1236,0.5847024,0.02401626,0.8108875,15
9.02,-32.97467,1.607329,-37.7654,0.5551179112832969,0.0926976067678624,2.3032597326050164,1.513059,70.59276,177.9521,0.5778561,-0.0004500789,0.8158365,15
9.04,-32.9938,1.296574,-37.69791,0.6459572961926456,0.0844654859258517,2.284658880800841,353.4658,67.16412,179.3051,0.5519338,0.05082659,0.8319166,15
9.06,-32.97702,1.283282,-37.66732,0.7274638092082908,0.0754033798009048,2.262351436749697,353.7469,66.06837,179.6494,0.5441854,0.04738978,0.8371847,15
9.08,-32.87456,1.446228,-37.6044,0.7978029801899433,0.0621485171644413,2.2241254356801443,357.272,65.03242,179.7706,0.5373446,0.02114833,0.8430244,15
9.1,-32.77489,1.605681,-37.54173,0.8580959592308641,0.0485407737516071,2.1815091509220235,0.7977057,64.00603,179.828,0.5299594,-0.005107796,0.8479933,15
9.12,-32.89441,1.254928,-37.57746,0.9200698962019268,0.0334495911896033,2.126399184185799,357.4408,62.46685,181.0179,0.5185459,0.01448927,0.8547122,15
9.14,-32.7957,1.419826,-37.50991,0.9722094853749708,0.0179933857175421,2.068900624792432,0.9999053,61.44222,181.1105,0.5107436,-0.01245111,0.8596343,15
9.16,-32.69966,1.581264,-37.44273,1.0104910742420432,0.0046395213191093,2.0004685874139074,4.559064,60.4213,181.1406,0.5024154,-0.03937535,0.863654,15
9.18,-32.81597,1.238057,-37.46846,1.038160580484481,-0.0087458136735565,1.9305982420127217,6.192376,58.67274,182.4553,0.4880997,-0.05755641,0.8708531,15
9.2,-32.81926,1.23269,-37.45963,1.0725964915227375,0.0259762137547721,1.8621512519682009,8.242361,58.05882,182.7123,0.4823811,-0.07427496,0.8726911,15
9.22,-32.7244,1.402389,-37.38702,1.071800580121193,-0.0165111426621964,1.7689376333476297,11.84477,57.04899,182.7665,0.4726588,-0.1020961,0.8748584,15
9.24,-32.79257,1.209297,-37.40952,1.0797333562657387,-0.0344076959668699,1.675701509906574,13.43346,55.78971,183.3499,0.4614194,-0.1169076,0.8789661,15
9.26,-32.70072,1.384705,-37.33675,1.077002492088484,-0.0507590003434531,1.5794264243740512,17.01454,54.77628,183.3645,0.4509023,-0.1446522,0.8797603,15
9.28,-32.61089,1.556772,-37.26423,1.097202332460868,-0.0159353349672069,1.490445768170229,20.59428,53.74308,183.3119,0.4399184,-0.1722363,0.8796235,15
9.3,-32.74767,1.183679,-37.34948,1.0825410733595209,-0.0616098427663593,1.3837092387205976,17.40859,52.56193,183.7135,0.4330475,-0.1498016,0.8880124,15
9.32,-32.76032,1.176272,-37.35518,1.0579965629404544,-0.1061078835755809,1.2744095106324194,18.73479,51.90412,183.8493,0.4266245,-0.1607704,0.889062,15
9.34,-32.67274,1.359823,-37.28255,1.0724476819529674,-0.0718600553661456,1.176568644592603,22.27283,50.85959,183.7599,0.4153702,-0.1881598,0.8883507,15
9.36,-32.74448,1.153606,-37.32719,1.078486438598452,-0.0921751100869237,1.0704267048703704,23.06974,47.95798,183.8187,0.391885,-0.1958721,0.8974516,15
9.38,-32.65939,1.343314,-37.25542,1.0671866404289956,-0.138180488951482,0.9586690910735864,26.56618,46.83289,183.5474,0.380068,-0.2227101,0.8954891,15
9.4,-32.5755,1.529984,-37.18348,1.0822156290503373,-0.1258085047799069,0.8535922809939427,30.05579,45.65268,183.189,0.3678767,-0.2493161,0.8926173,15
9.42,-32.70261,1.133038,-37.27582,1.0841172289761445,-0.169398159519226,0.7420355613585059,28.03304,43.5181,183.8134,0.3519833,-0.2367872,0.9035869,15
9.44,-32.69043,1.125152,-37.2561,1.1113753514189204,-0.1522991252011728,0.6372627565508857,32.07822,41.07605,183.4051,0.3293364,-0.2686355,0.9024699,15
9.46,-32.61248,1.322788,-37.18252,1.132653548627549,-0.1351109865986211,0.5333357536278447,35.48436,39.80577,182.932,0.3167987,-0.2947342,0.8979103,15
9.48,-32.63621,1.118975,-37.19957,1.1638839475097904,-0.1458155450327619,0.4239586020349524,37.39355,38.81621,182.9006,0.3070057,-0.3102138,0.8958127,15
9.5,-32.56061,1.318172,-37.12541,1.1825814848820322,-0.1827027089062043,0.3122690621500066,40.76501,37.44834,182.3254,0.2941583,-0.3358908,0.889863,15
9.52,-32.54089,1.115225,-37.11853,1.2237939085229792,-0.1592121444299957,0.2050352745222374,43.27511,37.57465,181.6385,0.2943407,-0.3533327,0.881618,15
9.54,-32.50378,1.114619,-37.08115,1.2608867214593524,-0.1924509797070134,0.095665900406102,44.67814,36.96356,181.0598,0.2898659,-0.3631802,0.878323,15
9.56,-32.43251,1.315464,-37.00549,1.3158300832997694,-0.1650114978661959,-0.0074084218748158,47.99612,35.5409,180.4786,0.277202,-0.3884619,0.8704816,15
9.58,-32.36186,1.513648,-36.92932,1.3663537684495504,-0.1379136112357278,-0.1075160437164246,51.30152,33.96546,179.7253,0.2642902,-0.4133753,0.8618344,15
9.6,-32.37413,1.110131,-36.94739,1.4311222681436022,-0.1399519389976867,-0.2068478198408838,50.689,33.9678,178.6187,0.2689039,-0.406179,0.8627652,15
9.62,-32.30516,1.309915,-36.87139,1.489015194786368,-0.1687517695518457,-0.3046472591223637,53.95732,32.28784,177.7587,0.2562675,-0.4308397,0.8534026,15
9.64,-32.23685,1.507109,-36.79495,1.5623016028103471,-0.1379831568539103,-0.3962164931445713,57.2065,30.37397,176.649,0.2434086,-0.4550999,0.8432649,15
9.66,-32.14176,1.104629,-36.69141,1.6480685033153537,-0.1605725921823657,-0.4830496456203024,61.22702,27.65438,171.0818,0.2435061,-0.476999,0.8236902,15
9.68,-32.08132,1.109226,-36.62834,1.732549278348849,-0.1236058747796143,-0.5615345617875338,62.64915,24.54674,167.7894,0.2345894,-0.4858087,0.8182238,15
9.7,-32.01705,1.298146,-36.55117,1.8102651504500769,-0.0881186929660589,-0.6340936934859656,65.73136,21.38689,165.3857,0.2224125,-0.5090939,0.8058483,15
9.72,-31.87698,1.1444,-36.43045,1.9025651006049848,-0.0686059142752812,-0.7044861853336926,58.36839,23.67125,167.8068,0.2287419,-0.4555349,0.8390406,15
9.74,-31.81322,1.32649,-36.35133,1.980529626640672,-0.0229177743876193,-0.7689974268633382,61.41183,20.79471,165.6303,0.2167692,-0.4788959,0.8275151,15
9.76,-31.75083,1.506076,-36.27261,2.0491883528788137,0.0210004181740702,-0.8273527081367247,64.38981,17.34378,162.8693,0.2046164,-0.5018321,0.8152711,15
9.78,-31.68991,1.683235,-36.19439,2.112484905549472,-0.0072859907066822,-0.8878232429115345,67.27612,13.11183,159.3184,0.1922953,-0.524321,0.8023223,15
9.8,-31.55032,1.212058,-36.17511,2.1731791760044907,0.037092280729829,-0.940957894183618,43.01987,34.00451,174.0007,0.2900202,-0.3359205,0.8828617,15
9.82,-31.48193,1.386312,-36.09213,2.231437946484583,0.1034895638904719,-0.9855099738918902,46.25474,32.4293,173.1669,0.2788154,-0.3611787,0.8749474,15
9.84,-31.30706,1.250179,-36.06532,2.2831400564443185,0.0992640349697898,-1.0343757105512097,26.15056,42.12568,176.0822,0.3570859,-0.1990261,0.9056824,15
9.86,-31.23269,1.257711,-36.03619,2.3223902864359025,0.1151662514906999,-1.07896425564219,19.92059,44.70049,176.6754,0.3790189,-0.14904,0.9086455,15
9.88,-31.15294,1.426612,-35.9509,2.350097976679484,0.1302900599594958,-1.1167335565585592,23.38292,43.63671,176.4652,0.3695834,-0.1768109,0.9063507,15
9.9,-31.07541,1.592196,-35.86639,2.365409717448081,0.1416800632373813,-1.1476714724518209,26.84106,42.52842,176.1753,0.3597872,-0.2044023,0.9031562,15
9.92,-30.98993,1.272026,-35.94755,2.380043246477749,0.1501008636269561,-1.1817725818774614,2.31582,52.21272,178.006,0.4401982,-0.0104885,0.8975049,15
9.94,-30.90188,1.438817,-35.86589,2.3885741558222344,0.1811393793574572,-1.211234863342623,5.855343,51.23021,178.0162,0.4324919,-0.03857437,0.9000247,15
9.96,-30.7452,1.285266,-35.88152,2.384204145148943,0.2093000626445188,-1.2352333071618489,353.2979,58.25918,178.7937,0.4853898,0.05617343,0.8722787,15
9.98,-30.65122,1.448741,-35.80297,2.365873940626487,0.1656676074515404,-1.2629462723475964,356.8743,57.26196,178.9797,0.4787562,0.02820256,0.8774792,15
10.0,-30.56984,1.293726,-35.8376,2.3473595200810733,0.1663512072221392,-1.2905000991180744,352.8294,60.84883,179.3282,0.5050853,0.05688545,0.8607812,15
10.02,-30.47312,1.455206,-35.76069,2.316235284870533,0.1659843956123666,-1.3137725362989618,356.4146,59.84612,179.5777,0.4984892,0.02895001,0.8663236,15
10.04,-30.37196,1.269657,-35.81289,2.264316383957022,0.112243019333104,-1.3413960579315587,354.0899,64.48094,180.0574,0.5327863,0.04333672,0.8446781,15
10.06,-30.27382,1.433066,-35.74297,2.218466740454703,0.1265269925905094,-1.368637828653453,357.6245,63.48277,180.3455,0.5260238,0.01604197,0.850212,15
10.08,-30.22837,1.254424,-35.79506,2.1733012715947906,0.1650041334228119,-1.390332204830103,357.4563,66.1431,181.149,0.5457106,0.01312934,0.8376198,15
10.1,-30.12641,1.418706,-35.72996,2.0961495604214027,0.1291649178907497,-1.421175791187555,1.039334,65.1647,181.3762,0.5383584,-0.01410853,0.8425816,15
10.12,-30.04098,1.240364,-35.76963,2.004302410543628,0.0679286289277568,-1.4549018519718588,4.032169,68.90202,182.0894,0.5647283,-0.03931268,0.8243257,15
10.14,-29.93488,1.40653,-35.70885,1.93431506029514,0.0815458511297022,-1.4736585086198293,7.680323,67.95489,182.3474,0.5563571,-0.06694812,0.8279889,15
10.16,-29.91253,1.232053,-35.74446,1.8375488808216929,0.0443467820794511,-1.4984088394495698,8.260128,69.89265,182.9067,0.5696402,-0.07350633,0.8183438,15
10.18,-29.80633,1.401034,-35.6869,1.7317490249937029,0.0074210254546737,-1.5234320356584066,11.88252,68.96568,183.1615,0.5605504,-0.1008234,0.8211727,15
10.2,-29.70257,1.566473,-35.62944,1.647879221394274,0.0430635327665119,-1.53515182956816,15.50746,68.04201,183.3593,0.5508655,-0.128024,0.8231143,15
10.22,-29.76106,1.208647,-35.72761,1.5413885494829582,0.0249210698337525,-1.548102310224425,13.45107,71.85376,183.5564,0.5794913,-0.1128707,0.8059392,15
10.24,-29.70343,1.190851,-35.73219,1.428331582164299,0.0089054936330713,-1.5618424823570374,16.0834,72.61952,183.8043,0.5822627,-0.1321298,0.8002134,15
10.26,-29.59733,1.369706,-35.68469,1.3324202954330833,0.0459426045686093,-1.5624955950697856,19.65342,71.722,184.0327,0.5720019,-0.1585408,0.8015736,15
10.28,-29.493,1.545264,-35.63694,1.2053092245315855,0.0018228830019343,-1.5723565103446626,23.22536,70.81865,184.2058,0.5611513,-0.1847775,0.8020926,15
10.3,-29.55961,1.168216,-35.69661,1.073581492078096,-0.0407855387768525,-1.5832574168259184,20.14747,71.17343,184.0749,0.5675436,-0.1625281,0.8038113,15
10.32,-29.45492,1.353198,-35.65306,0.9706074185428504,-0.0036861727294528,-1.5719221976386626,23.68118,70.23936,184.157,0.556588,-0.1881457,0.8043028,15
10.34,-29.35159,1.535034,-35.6091,0.8586957176639758,-0.0225186153112337,-1.5569384431238964,27.21463,69.2841,184.1768,0.5450715,-0.2135629,0.803969,15
10.36,-29.39107,1.138969,-35.66098,0.7365715960570776,-0.0665207070395396,-1.5444459091760434,26.31677,69.6779,183.9858,0.5494387,-0.2060729,0.8032507,15
10.38,-29.35724,1.132673,-35.65754,0.6363448737846,-0.050538006056705,-1.5150379209757103,28.03677,69.22661,183.965,0.5438911,-0.2183055,0.8027762,15
10.4,-29.25463,1.327218,-35.62083,0.5354481259144697,-0.034252291305903,-1.4855109694227675,31.49952,68.18241,183.7973,0.5317246,-0.242539,0.801658,15
10.42,-29.19769,1.121777,-35.6305,0.4141183547306046,-0.1042568057207957,-1.462742617773209,34.73773,67.81641,183.255,0.5251756,-0.2627751,0.7965001,15
10.44,-29.09589,1.319882,-35.59789,0.324396083817029,-0.0866468426685225,-1.4160220862112336,38.14614,66.62385,182.8619,0.5120661,-0.2859591,0.7940512,15
10.46,-28.99455,1.515177,-35.5646,0.2419120735656039,-0.0948347063435253,-1.3662037645732177,41.54598,65.34055,182.3543,0.4984727,-0.3088607,0.7908359,15
10.48,-28.98508,1.115612,-35.60244,0.1623203653941876,-0.1008290296764864,-1.316230308918131,41.8716,67.88803,182.3409,0.5153551,-0.3070192,0.7787296,15
10.5,-28.93812,1.115021,-35.59931,0.0909537869887691,-0.1047188347049623,-1.2566081668066955,43.26007,68.3802,181.7337,0.5176978,-0.3127756,0.7719765,15
10.52,-28.83788,1.315492,-35.57061,0.0237370544645458,-0.1065530877476283,-1.1968584948092609,46.58851,67.06288,181.221,0.5038257,-0.3350304,0.7679183,15
10.54,-28.73626,1.112948,-35.57211,-0.026005145055215,-0.1071512710668172,-1.1293029948274986,48.07096,68.24763,179.5246,0.5137367,-0.3350476,0.7550949,15
10.56,-28.63638,1.313577,-35.5454,-0.0661567844339483,-0.0759308800956815,-1.0563827125079737,51.36745,66.78835,178.8615,0.4995875,-0.356904,0.7500085,15
10.58,-28.53677,1.511574,-35.51798,-0.1016723853943974,-0.0451574666606734,-0.9838886595618854,54.65028,65.1488,178.0013,0.4849921,-0.3784282,0.7442378,15
10.6,-28.43062,1.103768,-35.51936,-0.1249121773918542,-0.1017115185821448,-0.913871717547873,56.51846,66.60738,176.1597,0.4966217,-0.3792789,0.7270361,15
10.62,-28.34671,1.102245,-35.50789,-0.1168344949805901,-0.095600835612078,-0.8303791841140384,59.67907,65.73728,174.0177,0.4919296,-0.392785,0.7134791,15
10.64,-28.24887,1.296159,-35.48285,-0.104849780232719,-0.0894899676720569,-0.7476057802745126,62.88354,63.54552,172.6016,0.4769142,-0.4135534,0.7060851,15
10.66,-28.02905,1.118119,-35.45678,-0.0889823122752333,-0.086683699495267,-0.6660780663952162,61.80289,58.80512,167.2074,0.4684759,-0.3976971,0.7147863,15
10.68,-27.93208,1.304738,-35.43002,-0.0650906952437253,-0.0727702554095685,-0.593007094820579,64.85751,55.69855,164.7922,0.4535729,-0.4177969,0.7065889,15
10.7,-27.83618,1.488899,-35.40277,-0.0365472415265726,-0.0308290929894981,-0.5199735713083378,67.84035,51.85846,161.6345,0.4382851,-0.4375261,0.6977785,15
10.72,-27.61994,1.178177,-35.41562,-0.0040172518057564,0.0095731739076672,-0.4495073990486196,52.05814,65.03472,171.3354,0.5096042,-0.3324855,0.7377167,15
10.74,-27.52117,1.35629,-35.38808,0.0369679235250033,0.0305604761787288,-0.3957695169794437,55.15857,63.04146,170.0332,0.4959328,-0.3529176,0.7317058,15
10.76,-27.42395,1.531851,-35.36012,0.0795605074549898,0.0281631517232663,-0.3493861113630565,58.22706,60.74605,168.4164,0.4818506,-0.3730434,0.725076,15
10.78,-27.29572,1.228475,-35.39121,0.1274065019345078,0.0236034172232618,-0.3069448352536801,37.80351,70.30395,174.7517,0.5562558,-0.2396511,0.7641872,15
10.8,-27.18592,1.399834,-35.36098,0.1804142838663112,0.0137315055318054,-0.2690149043394303,41.20479,68.92149,174.0593,0.5439757,-0.2622947,0.7604277,15
10.82,-27.07823,1.568046,-35.3303,0.2164554445214799,0.0250746044904728,-0.2386987847777311,44.59057,67.40435,173.2131,0.531176,-0.2846765,0.7559284,15
10.84,-26.94604,1.263511,-35.37947,0.2573940492328712,0.0354780470905878,-0.2139226318340545,13.87567,76.84782,177.1582,0.6190813,-0.07930621,0.7755973,15
10.86,-26.86595,1.268319,-35.37346,0.2867962681526439,0.042912822178604,-0.1937691324749542,8.08542,78.16382,177.547,0.6298894,-0.04125201,0.7731853,15
10.88,-26.74994,1.435751,-35.34385,0.3192673467853488,0.0737364258696425,-0.1718082050858083,11.62098,77.20283,177.4131,0.6223212,-0.06508702,0.775866,15
10.9,-26.63635,1.599702,-35.31376,0.3457086945180423,0.0567595933777125,-0.1626210799198526,15.15279,76.22002,177.2159,0.6141251,-0.08884857,0.7777512,15
10.92,-26.60109,1.279325,-35.35069,0.3750396113333192,0.0375310363986573,-0.1604063170386904,354.428,81.18361,178.3862,0.6493124,0.0460584,0.7588372,15
10.94,-26.48339,1.444354,-35.32051,0.4075671207946776,0.0413738964128136,-0.1472160171406029,357.9972,80.24517,178.4341,0.644084,0.02216711,0.7646333,15
10.96,-26.36829,1.605801,-35.28986,0.4319572237112883,0.0190869321081594,-0.1441785003677855,1.565766,79.31089,178.4236,0.6381941,-0.001740562,0.7696316,15
10.98,-26.25753,1.296067,-35.32298,0.4467659627233766,0.0421837655493564,-0.1334123323746459,353.4708,82.47595,179.4736,0.6579146,0.04584556,0.7509224,15
11.0,-26.22086,1.283126,-35.32527,0.4601686670714695,0.0625542521411343,-0.1289605965100531,353.7469,82.91964,179.727,0.6610101,0.04244953,0.7483888,15
11.02,-26.1045,1.445824,-35.29298,0.4564662754159743,0.0525315450446095,-0.1268278192688434,357.2744,81.97221,179.9301,0.6556796,0.01835321,0.7546647,15
11.04,-26.0433,1.25473,-35.31989,0.4522578654259006,0.042457240755243,-0.1309215684496125,357.4333,83.3747,181.1129,0.6650298,0.01026778,0.7464179,15
11.06,-25.9271,1.419372,-35.28959,0.4323431906345831,0.0337840612442588,-0.1287314676576976,0.9922512,82.44238,181.3069,0.6588258,-0.01402788,0.7521593,15
11.08,-25.81351,1.580522,-35.25884,0.4116666075564947,0.025349350240321,-0.1318474523001178,4.552868,81.52026,181.4436,0.6519477,-0.03830216,0.7571186,15
11.1,-25.84081,1.240528,-35.29691,0.3974036489933295,0.0650996788425711,-0.1226195043768232,4.030923,83.51101,182.0327,0.6649714,-0.03803728,0.7458302,15
11.12,-25.75268,1.232296,-35.29219,0.3561930202205849,0.0289345991135807,-0.1291270454793007,8.244657,83.75492,182.8412,0.6642812,-0.07001477,0.7436094,15
11.14,-25.63558,1.401513,-35.26421,0.3167455423488503,0.044102459303367,-0.125414653966029,11.85932,82.86255,183.0336,0.6558999,-0.09484988,0.7472867,15
11.16,-25.63991,1.217662,-35.2782,0.2754134391213703,0.0585077700229046,-0.1262054943293549,11.87525,83.51024,183.3123,0.6598687,-0.09628177,0.7436769,15
11.18,-25.52444,1.390634,-35.25154,0.2182298683941996,0.0442761962087566,-0.1265090960772816,15.46395,82.62745,183.4871,0.650802,-0.1209105,0.7466352,15
11.2,-25.41103,1.560189,-35.22435,0.1606303071816319,0.0320177234454299,-0.1309671435382116,19.0538,81.73982,183.6069,0.6410608,-0.1454053,0.7488068,15
11.22,-25.50199,1.183416,-35.26593,0.088389361499376,-0.0345382197274145,-0.1454519195429631,17.39317,81.9771,183.847,0.6441711,-0.1358313,0.7490706,15
11.24,-25.38986,1.364616,-35.24137,0.0311893148242221,-0.0492028898494818,-0.1442777278805476,20.93872,81.08694,183.9418,0.6340763,-0.1599855,0.7508825,15
11.26,-25.27922,1.542594,-35.21623,-0.0180232906168114,-0.0323364549478533,-0.1381649481273967,24.48424,80.18079,183.9788,0.6233406,-0.183969,0.7519227,15
11.28,-25.34727,1.160896,-35.2502,-0.0849254756953987,-0.0699333971949056,-0.1397936492613416,21.58196,79.72588,184.0454,0.6241545,-0.1658448,0.7577725,15
11.3,-25.23687,1.348094,-35.22681,-0.1503501560846549,-0.1057055896054673,-0.1446474621697584,25.111,78.79475,184.0137,0.6132542,-0.1895792,0.758652,15
11.32,-25.12757,1.532171,-35.20279,-0.2088585666059161,-0.1157958708780258,-0.1417909186627728,28.63798,77.83279,183.9158,0.6017407,-0.2131137,0.7587599,15
11.34,-25.16409,1.132806,-35.23219,-0.2693867530625207,-0.1517987772794606,-0.1434731102971138,28.04246,76.69019,183.9104,0.595079,-0.2104439,0.7656068,15
11.36,-25.11548,1.128854,-35.22662,-0.3268534991660026,-0.1857986841519306,-0.1481719134155943,30.03033,75.73022,183.6671,0.5860001,-0.2233926,0.7672016,15
11.38,-25.00962,1.324935,-35.20592,-0.3722887191586315,-0.1910731571160742,-0.145355436165345,33.45571,74.65595,183.3643,0.5737479,-0.245821,0.7663231,15
11.4,-24.90426,1.518157,-35.18454,-0.4030823087974444,-0.1640182386887658,-0.1394101051959371,36.87445,73.51388,182.9684,0.5609518,-0.2680053,0.7647045,15
11.42,-24.93772,1.118819,-35.20844,-0.4426763455854896,-0.1931182119071047,-0.140233738101779,37.40386,73.64988,182.966,0.5608923,-0.2712737,0.7629253,15
11.44,-24.83313,1.31783,-35.18888,-0.4703568146604104,-0.1899186636827214,-0.1379728552459331,40.79045,72.42348,182.4679,0.5475527,-0.293038,0.7605177,15
11.46,-24.76403,1.115093,-35.20491,-0.4929645962838038,-0.1846312975674695,-0.136992521347314,43.27532,74.12659,181.7051,0.5557876,-0.3025431,0.7449653,15
11.48,-24.66051,1.31559,-35.18686,-0.5182643555572959,-0.2372543372843499,-0.1405491628481385,46.62234,72.83221,181.1617,0.5419293,-0.3239607,0.7413801,15
11.5,-24.6257,1.113814,-35.19464,-0.5248864041128152,-0.2015955178330142,-0.1353488469856048,46.36961,73.63563,180.3211,0.5499899,-0.3167156,0.7365512,15
11.52,-24.52334,1.31455,-35.17693,-0.5231665202455456,-0.1933176690601286,-0.129595332170922,49.67753,72.26772,179.7034,0.5360016,-0.3378766,0.7322859,15
11.54,-24.38487,1.107214,-35.17304,-0.5020824301117957,-0.2122977659847277,-0.1244452786161787,53.31449,72.25617,177.6334,0.5342937,-0.3514182,0.7162312,15
11.56,-24.28392,1.305842,-35.15575,-0.4764663705046881,-0.1716891050044091,-0.115831402665492,56.57541,70.60847,176.7285,0.5197349,-0.3720625,0.7105257,15
11.58,-24.18328,1.501894,-35.13779,-0.4411476892933672,-0.1857256313869167,-0.1087802435232943,59.8175,68.70155,175.551,0.5047206,-0.3923649,0.7041861,15
11.6,-24.02873,1.104595,-35.13033,-0.4019037923166046,-0.2010174873286487,-0.1024482396776038,61.21347,66.7434,171.1248,0.5049138,-0.3872889,0.6949485,15
11.62,-23.82379,1.118122,-35.10709,-0.3585057306372365,-0.1806993685664574,-0.0946334150769292,61.80514,62.2943,167.2047,0.4900252,-0.3873526,0.7001749,15
11.64,-23.72511,1.304706,-35.08635,-0.2964790879386911,-0.1521579141354641,-0.0857342595987944,64.86428,59.23446,164.7922,0.4751467,-0.4069358,0.6922284,15
11.66,-23.62744,1.48882,-35.06511,-0.2314844708299497,-0.1241734783417974,-0.0769444522914222,67.85286,55.44567,161.6422,0.4598661,-0.4261598,0.6836839,15
11.68,-23.47233,1.161865,-35.06224,-0.1809820430886239,-0.090278709024772,-0.0719504828773764,55.75161,61.71918,168.7519,0.4905678,-0.3549958,0.7316619,15
11.7,-23.37304,1.341882,-35.03822,-0.1287237630059157,-0.0567364877266862,-0.0673812992313855,58.7874,59.1838,166.809,0.4764218,-0.3745466,0.724771,15
11.72,-23.27517,1.519368,-35.01373,-0.0759840204422812,-0.0717549188387857,-0.0705748992881458,61.7683,56.18977,164.3979,0.4618807,-0.3937722,0.7172658,15
11.74,-23.06592,1.228917,-35.03884,-0.0334794852943352,-0.0377352281489859,-0.0732330880082186,37.77413,70.59978,174.7157,0.5583405,-0.2387029,0.762753,15
11.76,-22.97539,1.239485,-35.03762,0.0106441966340815,-0.0048713247397977,-0.0762467848661652,32.01983,72.32362,175.3153,0.575808,-0.1993043,0.76874,15
11.78,-22.86179,1.409421,-35.00936,0.0479941229459432,-0.021697529918853,-0.0859411175204742,35.49916,71.09677,174.7216,0.564549,-0.22228,0.7659116,15
11.8,-22.7504,1.576012,-34.98064,0.082604035964632,0.0291643736901261,-0.0874430941030786,38.96762,69.7665,174.004,0.5527285,-0.2450368,0.7623093,15
11.82,-22.71235,1.263407,-35.03134,0.1050633909806468,0.0314463757624068,-0.0957993537724348,13.90613,77.17197,177.1413,0.6212693,-0.07915369,0.7737997,15
11.84,-22.59503,1.430979,-35.00308,0.131070240951761,0.0090521950250874,-0.108113414418951,17.47261,76.21451,176.9071,0.6129786,-0.103008,0.7749147,15
11.86,-22.48037,1.275681,-35.02245,0.1529300560023694,0.0536176009660245,-0.1094375354090138,358.395,81.23069,178.1641,0.6506599,0.02105848,0.7590712,15
11.88,-22.36202,1.441426,-34.99468,0.1715091937562278,0.0750920910478148,-0.1122757635493538,1.970958,80.33836,178.1617,0.6450793,-0.002794733,0.7637538,15
11.9,-22.30128,1.285206,-35.00824,0.1880127561627116,0.0948429862972486,-0.1150074330612342,353.3266,82.46151,178.7147,0.6574437,0.05115,0.7511695,15
11.92,-22.18193,1.448627,-34.97834,0.1900724629900243,0.0654179370818772,-0.1245633483900423,356.9231,81.56104,178.8317,0.6526867,0.02698492,0.7570838,15
11.94,-22.0507,1.29601,-34.99136,0.1967291589280133,0.0779093600962513,-0.1285663980382541,353.4702,83.30944,179.4891,0.6633651,0.0455111,0.7461124,15
11.96,-21.99449,1.283141,-34.98798,0.2005664347172713,0.0893178802458101,-0.1326382472563194,353.7469,83.4892,179.7273,0.6647217,0.04227609,0.745094,15
11.98,-21.87763,1.445822,-34.95721,0.1880025995216314,0.048870622041977,-0.1442282417783236,357.275,82.58517,179.9339,0.6597075,0.01824591,0.7511461,15
12.0,-21.76348,1.604966,-34.92603,0.1735751796236986,0.0759075266747589,-0.1469655392087983,0.8048676,81.69569,180.0846,0.6540323,-0.005795926,0.7564337,15
12.02,-21.77179,1.249967,-34.98104,0.1529687626141957,0.0787384679070903,-0.1517540026353856,359.465,83.98487,181.3438,0.6690201,-0.004375319,0.7431375,15
12.04,-21.65259,1.414308,-34.95185,0.1303430108899483,0.0813967267940866,-0.1571786170557247,3.108634,83.10435,181.5519,0.6627222,-0.02927651,0.7482519,15
12.06,-21.63368,1.240648,-34.96566,0.113047018012518,0.1335925936965974,-0.1546738480180041,4.011238,83.96704,182.0395,0.6679382,-0.03790831,0.7431809,15
12.08,-21.5155,1.407129,-34.93693,0.0696138077583099,0.1106903178036738,-0.1600918963904858,7.640492,83.1054,182.254,0.6607261,-0.06286715,0.7474079,15
12.1,-21.39985,1.570022,-34.90776,0.0245751139974035,0.0874146689652318,-0.1662479663092888,11.27153,82.24933,182.415,0.6528162,-0.08775188,0.7508339,15
12.12,-21.46107,1.217592,-34.95534,-0.0239432047105627,0.0840250921720293,-0.1696263375559139,11.88588,84.19699,183.3102,0.664307,-0.09605198,0.7397026,15
12.14,-21.34474,1.390452,-34.93036,-0.0692131914465461,0.1083125104626869,-0.1699686827555924,15.48672,83.35777,183.4857,0.6555263,-0.1206253,0.7424555,15
12.16,-21.23047,1.559865,-34.90485,-0.1161297063418902,0.1317514008108893,-0.1707963174893985,19.08858,82.51447,183.6089,0.6460652,-0.1450642,0.744426,15
12.18,-21.30094,1.190955,-34.94202,-0.1729132596258518,0.1267832469138314,-0.172880554468187,16.092,84.04855,183.7487,0.6591001,-0.1256019,0.7382199,15
12.2,-21.18662,1.369851,-34.91858,-0.2295839118424409,0.1235946782282939,-0.1753492522231834,19.67396,83.22478,183.9257,0.6495656,-0.15007,0.7401164,15
12.22,-21.17247,1.16826,-34.93276,-0.3081869937383099,0.064656685571233,-0.183525487893629,20.15371,82.47896,184.0518,0.643982,-0.1544322,0.7439759,15
12.24,-21.12365,1.160827,-34.92859,-0.3558629889220697,0.0879972146555526,-0.1823455689308062,21.57846,81.54211,184.0826,0.6360373,-0.1645285,0.7478198,15
12.26,-21.01256,1.347909,-34.90766,-0.4019259287397818,0.1111311986136287,-0.1813396039711259,25.10965,80.67076,184.093,0.6254635,-0.188153,0.7485917,15
12.28,-21.03188,1.145523,-34.92116,-0.470550768379669,0.0491333625650313,-0.186448811636601,24.60286,80.00028,184.0297,0.6219047,-0.185189,0.752807,15
12.3,-20.92256,1.336654,-34.90129,-0.5101914169105739,0.0712375302919118,-0.1833505794832701,28.10196,79.08743,183.9417,0.6108137,-0.2083507,0.7529401,15
12.32,-20.95348,1.132818,-34.91481,-0.5614327006620115,0.0371716012261317,-0.1844410043452944,28.02067,78.29276,183.9206,0.6057429,-0.2085973,0.7572528,15
12.34,-20.88223,1.124919,-34.91087,-0.6090220092787964,0.0046053028201629,-0.1861217677957256,32.07143,76.7916,183.5091,0.5900152,-0.2346724,0.7581435,15
12.36,-20.7761,1.322274,-34.89372,-0.6315623938141401,0.0573212589674639,-0.1805334374035858,35.48622,75.72369,183.1553,0.577719,-0.2566005,0.7568035,15
12.38,-20.75564,1.118858,-34.9009,-0.6557396150770991,0.0536759149070711,-0.1782285669964887,37.38202,75.48196,182.9581,0.5730771,-0.2683002,0.7538939,15
12.4,-20.65055,1.317893,-34.88494,-0.6744604043462195,0.0519898945917338,-0.175875208588109,40.76036,74.29472,182.454,0.5599927,-0.289641,0.7515215,15
12.42,-20.64035,1.115695,-34.90344,-0.6950590678676525,-0.0076132053813134,-0.1774142982480606,41.84453,75.75306,182.3079,0.5676879,-0.2933648,0.7415574,15
12.44,-20.53562,1.114545,-34.90121,-0.6898586055027334,0.020713288004747,-0.1727139769880965,44.67545,76.05885,181.1005,0.566935,-0.3048339,0.7308006,15
12.46,-20.43228,1.315287,-34.88633,-0.6787320228273814,0.0485837653437432,-0.1680098458096779,48.00024,74.80954,180.5719,0.553306,-0.3258637,0.7269109,15
12.48,-20.3823,1.113037,-34.89172,-0.6611030043572796,0.0475556855511846,-0.1610728214390402,48.0545,74.89398,179.4835,0.5567942,-0.3207535,0.7240018,15
12.5,-20.27982,1.313746,-34.87766,-0.637666583901995,0.0477873081994561,-0.1538133513458337,51.34055,73.49178,178.7794,0.542886,-0.3413519,0.7194089,15
12.52,-20.21437,1.107235,-34.88049,-0.5793041257258693,0.0496294630317299,-0.1424837763552187,53.30025,73.92567,177.6275,0.544721,-0.347193,0.7084023,15
12.54,-20.0181,1.102296,-34.86522,-0.5133487717667364,0.0252916359309165,-0.1311336104991225,59.65763,71.90573,174.0026,0.5297021,-0.3754573,0.686015,15
12.56,-19.91783,1.296257,-34.85139,-0.4487411882214036,0.0602354073783073,-0.1172326678634831,62.85855,69.78185,172.5645,0.5147989,-0.395163,0.6790867,15
12.58,-19.78116,1.109227,-34.8433,-0.3765248472269589,0.0431368577175156,-0.1042973103642461,62.63644,65.42598,167.8128,0.5055038,-0.3858653,0.6849118,15
12.6,-19.6819,1.298166,-34.82721,-0.3010137998343967,0.0240737905027408,-0.090786883079371,65.71412,62.43196,165.4437,0.4906311,-0.405103,0.6769972,15
12.62,-19.57264,1.12895,-34.82428,-0.2293168131740031,0.0412481041648338,-0.0781002977446254,60.94007,62.82839,166.6996,0.4963318,-0.3778229,0.700002,15
12.64,-19.38214,1.161801,-34.81128,-0.1606684123545179,0.0639766428953491,-0.0674844411846935,55.76015,64.26318,168.7593,0.5066537,-0.3480493,0.7205796,15
12.66,-19.28171,1.341785,-34.79167,-0.0909189262694329,0.0860863520958528,-0.0566319053314421,58.80053,61.78167,166.8304,0.4926415,-0.3672005,0.7137941,15
12.68,-19.17408,1.195629,-34.79515,-0.0190670831753538,0.0594143243847991,-0.0521509966466382,48.28331,69.49403,173.1524,0.5392458,-0.3043998,0.7345509,15
12.7,-19.07257,1.372211,-34.77347,0.0469021362479968,0.1047518039065962,-0.044732648586832,51.4043,67.799,172.0555,0.5262849,-0.3242944,0.7293432,15
12.72,-18.9798,1.227309,-34.80101,0.1049044838842301,0.1025603929893776,-0.0449938040570279,37.99567,72.88671,174.6367,0.5733088,-0.2353072,0.7507469,15
12.74,-18.83432,1.250369,-34.81315,0.1671681305801304,0.0757053016550004,-0.0499438510320144,26.18573,76.67229,175.9624,0.6100339,-0.1562936,0.7585703,15
12.76,-18.71815,1.419417,-34.79099,0.2142481472625224,0.1145129287912169,-0.0479901014023615,29.68738,75.60046,175.4973,0.5999509,-0.1789938,0.7570261,15
12.78,-18.66051,1.263597,-34.81081,0.2541232741241446,0.1284910748354041,-0.0480959669289378,13.88654,79.59944,177.1332,0.6375361,-0.07695182,0.7604781,15
12.8,-18.54257,1.431395,-34.78825,0.2922863931202071,0.1412534057515344,-0.0490139833451124,17.43277,78.6827,176.8941,0.6295636,-0.1001764,0.7615665,15
12.82,-18.5063,1.271958,-34.80831,0.3179613783799919,0.1042397489889422,-0.0564278797890009,2.359173,82.40306,177.9163,0.6587427,-0.003511845,0.7518669,15
12.84,-18.3628,1.279162,-34.80745,0.3580205936104934,0.1135098679197388,-0.0558585141716783,354.4568,84.48862,178.4004,0.6709419,0.04516621,0.7398009,15
12.86,-18.24292,1.444004,-34.78429,0.3955411403539108,0.1208197920589274,-0.055492836541636,358.0385,83.63457,178.4683,0.6664296,0.02166643,0.7452518,15
12.88,-18.16732,1.291334,-34.79334,0.4208596827735098,0.1266385065117534,-0.0539379417603456,352.2344,84.94126,179.05,0.6732252,0.05553152,0.7362842,15
12.9,-18.04609,1.453317,-34.76677,0.4427305720326111,0.130502305056084,-0.0523336071407154,355.8447,84.07525,179.2243,0.6689808,0.03145511,0.7423645,15
12.92,-18.01095,1.296069,-34.78598,0.4498494349754216,0.1286732634711728,-0.0518618206702177,353.4586,85.27035,179.5026,0.676036,0.04490788,0.734644,15
12.94,-17.92559,1.270016,-34.78873,0.4508822201500024,0.1004229511469642,-0.0567421625022479,354.0787,85.95297,179.9848,0.6807833,0.03787908,0.7306617,15
12.96,-17.80834,1.433708,-34.76314,0.4462713552942208,0.1172734532731322,-0.0561490797787733,357.6025,85.09109,180.2123,0.6760556,0.01416022,0.7365515,15
12.98,-17.78606,1.254564,-34.78701,0.4324976101298408,0.1104686717955575,-0.0574362787442543,357.4507,85.91642,181.0995,0.681421,0.009742374,0.7314908,15
13.0,-17.66754,1.418955,-34.76294,0.4155801194087469,0.1030587044424543,-0.0597037130833486,1.032827,85.07024,181.2877,0.6758973,-0.01423728,0.7368551,15
13.02,-17.65455,1.240641,-34.78452,0.3756263798885659,0.0449803677395649,-0.0690719057564237,4.001152,86.4231,182.0258,0.6837202,-0.03753562,0.7286953,15
13.04,-17.53491,1.407074,-34.76151,0.3440050724122965,0.0362592986594986,-0.069969615744438,7.636039,85.60209,182.2329,0.6768663,-0.06205698,0.7328319,15
13.06,-17.41776,1.569905,-34.73799,0.3094573329438717,0.0278745511327755,-0.0719649052219715,11.27247,84.7866,182.3891,0.6692988,-0.08650526,0.7361847,15
13.08,-17.46438,1.226457,-34.76681,0.26639807299158,0.01692428663174,-0.0735271945177382,10.32851,86.0073,183.1291,0.677226,-0.0843481,0.7297465,15
13.1,-17.34623,1.397198,-34.74487,0.2211094316202881,0.0068011280851584,-0.0763542456409034,13.94431,85.20715,183.3161,0.6690497,-0.1087513,0.7326836,15
13.12,-17.38693,1.199973,-34.76849,0.1506752559925424,-0.0579177001083414,-0.0852821832661936,14.73106,86.11871,183.6149,0.6738306,-0.1149787,0.7270181,15
13.14,-17.27195,1.377096,-34.74929,0.1046304524830461,-0.0457804751922461,-0.084601200833271,18.29002,85.32819,183.7812,0.6648651,-0.1388805,0.729151,15
13.16,-17.1587,1.550902,-34.72951,0.0570923554408979,-0.0345422826408375,-0.0847813250707014,21.84984,84.53146,183.8984,0.6552281,-0.1626335,0.7305366,15
13.18,-17.22864,1.175894,-34.75745,-0.0183290624861844,-0.1057083897712564,-0.0918183574432607,18.72472,84.84194,184.0222,0.6609626,-0.1433734,0.7317774,15
13.2,-17.11559,1.358934,-34.73928,-0.0798861770782957,-0.1239532073141181,-0.0930669637430945,22.26781,84.04314,184.1263,0.6512208,-0.1670073,0.7330917,15
13.22,-17.15688,1.153216,-34.75608,-0.1469586955808879,-0.1691124701278943,-0.0968949593353247,23.0466,82.34492,184.0196,0.6393879,-0.1729002,0.7417175,15
13.24,-17.04671,1.342423,-34.73923,-0.1984775250766339,-0.1563280463114403,-0.0961970914332024,26.53954,81.49133,183.972,0.6288674,-0.195811,0.7421352,15
13.26,-16.93746,1.528581,-34.72176,-0.2544371533067582,-0.1705675774318845,-0.0963540957115816,30.03039,80.6068,183.8627,0.6177365,-0.2185219,0.741821,15
13.28,-16.9975,1.132843,-34.74376,-0.3084237681304524,-0.1827957319149525,-0.0972185667960277,28.02307,79.51318,183.9103,0.6137881,-0.2071936,0.7507438,15
13.3,-16.88947,1.327504,-34.72755,-0.3565498742876212,-0.1942924258447683,-0.0967752883162598,31.4802,78.57515,183.6949,0.6023834,-0.2294996,0.7501059,15
13.32,-16.88697,1.121943,-34.73988,-0.4022527952364974,-0.2325643108573709,-0.0990602129823381,34.70022,77.33852,183.2023,0.589656,-0.2494055,0.7501566,15
13.34,-16.78095,1.320178,-34.726,-0.4243593142836201,-0.2111342848450604,-0.0973122503505852,38.09255,76.2471,182.761,0.577208,-0.2707038,0.7482526,15
13.36,-16.67525,1.515598,-34.71147,-0.4464216812856354,-0.2160676730439604,-0.0971072995299326,41.47622,75.06667,182.2114,0.564226,-0.2917409,0.7456445,15
13.38,-16.67404,1.115695,-34.73602,-0.4643616608918095,-0.2194778997319638,-0.09726595131744,41.8471,76.62595,182.3114,0.573306,-0.2918333,0.7372119,15
13.4,-16.56908,1.315927,-34.7227,-0.4757475484811508,-0.2215583481251753,-0.0969508658397853,45.20713,75.42325,181.766,0.5599487,-0.3127277,0.7338687,15
13.42,-16.51386,1.113827,-34.73504,-0.4770190297126826,-0.251182015317709,-0.0979261449781665,46.35373,77.19139,180.3208,0.5726117,-0.3092062,0.7191749,15
13.44,-16.41051,1.314567,-34.72375,-0.460218367350623,-0.2211268353279793,-0.0941312820538549,49.65695,75.90843,179.7052,0.5590335,-0.3296577,0.7149537,15
13.46,-16.3073,1.512645,-34.71181,-0.4370516423400505,-0.2188241915855923,-0.089857850713015,52.94815,74.47178,178.9211,0.5449625,-0.3498033,0.7100924,15
13.48,-16.23529,1.10725,-34.72052,-0.4099654896928133,-0.2159166241298173,-0.0856288173013748,53.3059,75.18468,177.6196,0.5524822,-0.3440442,0.7023367,15
13.5,-16.13337,1.305897,-34.70868,-0.3679487808831949,-0.2107912836403133,-0.0797123618637343,56.56412,73.61291,176.7049,0.5382843,-0.3640385,0.6966322,15
13.52,-15.89614,1.104573,-34.69649,-0.3075595317926676,-0.2309024781692467,-0.073784554634086,61.20706,69.91101,171.1438,0.523879,-0.3779329,0.6808105,15
13.54,-15.77451,1.109145,-34.68623,-0.2392886735817836,-0.192569820031931,-0.0650677817575067,62.63539,66.41981,167.8507,0.5113003,-0.3829288,0.6806251,15
13.56,-15.6747,1.298041,-34.67162,-0.1776786382207387,-0.1748778408397223,-0.0579011864572027,65.72321,63.48725,165.5051,0.4966142,-0.4020043,0.6726098,15
13.58,-15.54732,1.128881,-34.66714,-0.1146801767526881,-0.1578062199426239,-0.0502726897411651,60.94967,63.57621,166.7041,0.5008594,-0.375629,0.6967217,15
13.6,-15.4474,1.313258,-34.65031,-0.0550348538537583,-0.1341638009605772,-0.0444686958637854,63.97807,60.57318,164.2417,0.4864149,-0.394497,0.6888497,15
13.62,-15.33887,1.161721,-34.65298,0.0011890141069799,-0.1340357297868108,-0.041240571794944,55.77212,64.79665,168.7553,0.5099962,-0.3466145,0.718156,15
13.64,-15.16588,1.195439,-34.64801,0.0567878472626905,-0.0829779635590159,-0.0358761278691046,48.31626,70.60889,173.1543,0.5463064,-0.3019128,0.7291694,15
13.66,-15.06366,1.371937,-34.6282,0.1084046954123778,-0.05506925552659,-0.0378158158413084,51.44661,68.96568,172.0733,0.5335617,-0.3216557,0.7238483,15
13.68,-14.95363,1.227251,-34.65268,0.1548598623453849,-0.0511308409255639,-0.0436359326902291,38.00142,73.77851,174.6441,0.5791109,-0.2335958,0.746263,15
13.7,-14.83693,1.397425,-34.6315,0.2009264792869063,-0.0015997406139332,-0.0463212140681932,41.52867,72.45258,173.8452,0.5671467,-0.2559131,0.7419565,15
13.72,-14.78804,1.250102,-34.66203,0.2357109922898772,-0.0009603724795168,-0.0557888347308885,26.2293,77.33669,175.9713,0.6143661,-0.1556595,0.7549584,15
13.74,-14.65549,1.263955,-34.67176,0.2744619087864297,0.0220159945461054,-0.0620084267071883,13.85981,80.83744,177.1525,0.6457157,-0.07583766,0.7535878,15
13.76,-14.53864,1.432222,-34.65163,0.3068136608091307,0.0656948336750225,-0.0636330780358314,17.35881,79.96756,176.9383,0.6380745,-0.09861664,0.7545909,15
13.78,-14.48171,1.272063,-34.66774,0.3282725057227229,0.06047929621608,-0.0699596295944902,2.368405,83.39316,177.9165,0.6652143,-0.003338001,0.7461451,15
13.8,-14.36271,1.438875,-34.64769,0.3556635452264358,0.100830740241122,-0.0704030374418627,5.920718,82.57785,177.8513,0.6595876,-0.02644296,0.7496181,15
13.82,-14.31835,1.279198,-34.66484,0.3763341174235737,0.0936443626656163,-0.0762011103959192,354.4641,85.25459,178.3968,0.6758732,0.0449911,0.7353019,15
13.84,-14.16241,1.291306,-34.66352,0.4056765342466095,0.131912290743404,-0.0755074662170942,352.2359,86.26263,179.0595,0.6816756,0.05500559,0.7284696,15
13.86,-14.04055,1.453276,-34.63979,0.4273194339448949,0.1901275796623606,-0.0713636235061772,355.8448,85.4351,179.246,0.6777488,0.0310954,0.7343698,15
13.88,-13.9856,1.296075,-34.65401,0.4259222097279038,0.1722896869353376,-0.0751217357537132,353.4589,86.34805,179.502,0.6829149,0.0445746,0.7282539,15
13.9,-13.86472,1.457135,-34.62877,0.4267002858792861,0.1992970471802153,-0.0740794030795353,357.0349,85.52248,179.7316,0.6786712,0.02058539,0.7339827,15
13.92,-13.8806,1.270065,-34.65295,0.4094128556799503,0.174814978470773,-0.0810413525583477,354.0776,86.79922,179.9805,0.6861588,0.03765148,0.7256153,15
13.94,-13.78044,1.254573,-34.6636,0.4006838303216671,0.1960496593346326,-0.0819147988407111,357.4439,87.30037,181.107,0.6902056,0.009471323,0.7232051,15
13.96,-13.66129,1.418938,-34.64242,0.3926978872670295,0.2427603236620611,-0.0790643244729079,1.025382,86.49358,181.3072,0.6849958,-0.01433286,0.7284029,15
13.98,-13.64149,1.245792,-34.65578,0.3591655941176535,0.2150134518303898,-0.0838831096066572,1.43469,87.48214,181.5592,0.6911592,-0.01845116,0.7224661,15
14.0,-13.52022,1.410658,-34.63472,0.3233923493745532,0.2125945536584467,-0.0850015412671005,5.094153,86.69183,181.7741,0.6851408,-0.04293002,0.7268897,15
14.02,-13.5381,1.237714,-34.65374,0.2783072426342787,0.1842396334148524,-0.0891769453866482,6.179846,87.6619,182.5518,0.6904889,-0.05427334,0.7209902,15
14.04,-13.46811,1.226341,-34.65366,0.2458446167600119,0.206537928007303,-0.0874079369609273,10.34151,87.87717,183.1342,0.68903,-0.0837714,0.7185957,15
14.06,-13.34874,1.396924,-34.63567,0.1918504404434524,0.1764914219860572,-0.0901164299689716,13.97161,87.11806,183.3288,0.6811374,-0.1079657,0.721416,15
14.08,-13.37077,1.208811,-34.64998,0.1353667243962195,0.1467537772335726,-0.093771757523454,13.44198,87.97498,183.5112,0.6868252,-0.1052963,0.7167019,15
14.1,-13.25322,1.383553,-34.63326,0.0794090921109813,0.1379561365043373,-0.0946523584333354,17.04547,87.22805,183.7073,0.6783519,-0.1293087,0.7189402,15
14.12,-13.29605,1.18334,-34.64787,0.0073980673363041,0.1038854865495636,-0.0986478139469326,17.39596,86.716,183.8743,0.6745542,-0.1328313,0.7218151,15
14.14,-13.18153,1.364339,-34.63222,-0.0420219034728956,0.1252086571590306,-0.0968598921507357,20.95515,85.96273,184.0071,0.6653318,-0.1563942,0.723272,15
14.16,-13.06846,1.542068,-34.61598,-0.1089090825963057,0.0909699475656249,-0.0987886549870245,24.51462,85.19946,184.0921,0.6554415,-0.1797913,0.7239922,15
14.18,-13.14025,1.160844,-34.63945,-0.1869709985252183,0.0298873935649349,-0.1031854704538659,21.58483,84.41491,184.0725,0.6545889,-0.1620612,0.7316259,15
14.2,-13.11997,1.153162,-34.64018,-0.2370754317555272,0.0508593645769997,-0.1014627259349856,23.06429,83.90803,184.0266,0.6494107,-0.1715957,0.7329144,15
14.22,-13.05367,1.139051,-34.63847,-0.3059266442896997,0.0159951971208472,-0.1029386687891182,26.32178,82.48035,183.9583,0.6356066,-0.1932756,0.7369493,15
14.24,-12.94343,1.331819,-34.62522,-0.3549157129852953,0.0114217636210157,-0.1012210475695436,29.82339,81.62411,183.8238,0.6247203,-0.2157246,0.7365733,15
14.26,-12.9402,1.128827,-34.63099,-0.4005413482787106,0.0087593767084234,-0.1001781160348098,30.03592,80.32473,183.6802,0.6162474,-0.2179263,0.7431034,15
14.28,-12.83225,1.324812,-34.61839,-0.455656769186884,-0.0515248605959477,-0.102046498475568,33.47713,79.38556,183.3994,0.6047672,-0.2396578,0.742008,15
14.3,-12.8317,1.121911,-34.62637,-0.4822281353754998,-0.0251814352197136,-0.0991555885964539,34.70069,78.78567,183.2175,0.5990487,-0.2473785,0.7426718,15
14.32,-12.73004,1.117252,-34.62916,-0.5183843920634383,-0.0557564554858764,-0.10040173948226,39.60517,78.48992,182.6378,0.58903,-0.2759987,0.7333919,15
14.34,-12.62444,1.316872,-34.61884,-0.5342843806345521,-0.0547654723213126,-0.0997046949062774,42.97158,77.36187,182.1241,0.5761524,-0.2966549,0.7305089,15
14.36,-12.58255,1.115112,-34.62999,-0.5448934108693924,-0.052459475388095,-0.0993575057042281,43.25687,78.26985,181.6999,0.5824065,-0.2945698,0.724422,15
14.38,-12.47793,1.315619,-34.61956,-0.558453740974376,-0.1088302660365493,-0.1015242826332007,46.59454,77.09949,181.1578,0.5692276,-0.3150765,0.7207556,15
14.4,-12.44418,1.113817,-34.62767,-0.5514536670378152,-0.0776244016751268,-0.098566597658519,46.35389,77.78154,180.3282,0.5762876,-0.3079864,0.7162321,15
14.42,-12.30219,1.110054,-34.62497,-0.5445053406518094,-0.1046694187696413,-0.097631200577994,50.65854,77.06979,178.688,0.5668941,-0.328184,0.7039309,15
14.44,-12.1996,1.309715,-34.61514,-0.5113262488705475,-0.1011049835140094,-0.0938163088089663,53.92945,75.67513,177.9177,0.5531538,-0.3481136,0.6987256,15
14.46,-12.08283,1.103847,-34.61455,-0.4734800596542756,-0.0974580950958677,-0.0900098593461971,56.48649,75.28423,176.1396,0.5503342,-0.3563774,0.6874396,15
14.48,-11.98153,1.300172,-34.60441,-0.4263317481926518,-0.1505975212315154,-0.0872836781044261,59.71294,73.55344,175.0241,0.536056,-0.375833,0.6810728,15
14.5,-11.85668,1.10457,-34.60234,-0.3708777905467526,-0.117017279740776,-0.0814599809431815,61.19498,70.93999,171.1653,0.5299261,-0.3748408,0.6761921,15
14.52,-11.6514,1.118037,-34.59204,-0.299566143334069,-0.1338996849430323,-0.0784629082490564,61.80859,66.4269,167.2122,0.5149217,-0.3746881,0.6820604,15
14.54,-11.55125,1.304663,-34.57887,-0.2456749176609788,-0.0941480792856056,-0.0753063690085928,64.86429,63.50571,164.8183,0.5005228,-0.3933595,0.6741267,15
14.56,-11.41551,1.144296,-34.57692,-0.1935111121599367,-0.0288021273003449,-0.0717951132571217,58.38414,65.48378,167.7948,0.5130983,-0.3577247,0.7020801,15
14.58,-11.31481,1.326459,-34.56156,-0.1355300651117835,-0.0363057432530299,-0.0722544924331423,61.4199,62.83915,165.6398,0.4991525,-0.376374,0.6946704,15
14.6,-11.20715,1.178167,-34.56703,-0.0828261524018605,-0.0159887635253599,-0.0745034212095214,52.08801,68.88152,171.1767,0.5344737,-0.3219402,0.719672,15
14.62,-11.13511,1.195425,-34.5695,-0.0207782893060084,-0.0174401967897596,-0.0817033813540604,48.32208,71.80563,173.1519,0.5538881,-0.2989928,0.7234,15
14.64,-11.03255,1.371971,-34.55208,0.0417276540638541,0.0277019606298656,-0.0863950169938876,51.44716,70.2062,172.0771,0.541355,-0.318449,0.718038,15
14.66,-10.86491,1.239071,-34.58984,0.0877755832142631,0.0461611472110038,-0.0945779840627487,32.09863,77.18247,175.2992,0.6078061,-0.1913235,0.7434477,15
14.68,-10.7896,1.250283,-34.59815,0.1342082277636855,0.0627426049284498,-0.1035017450853548,26.21935,78.95538,175.97,0.6249809,-0.1531925,0.7462203,15
14.7,-10.67242,1.419297,-34.58088,0.1687340391683544,0.0766109358791906,-0.1113018903196696,29.7229,77.9702,175.5219,0.6153985,-0.1754573,0.7444301,15
14.72,-10.63534,1.263546,-34.60648,0.1914104046346888,0.065948241397294,-0.1226475985627297,13.90821,82.18372,177.1414,0.6545061,-0.07494628,0.745895,15
14.74,-10.50141,1.271914,-34.6138,0.2223153593791528,0.0998677697007808,-0.1272698828928167,2.393037,85.2231,177.923,0.6770442,-0.003097412,0.7354231,15
14.76,-10.38127,1.438551,-34.59761,0.2495234460358883,0.1088446527403133,-0.1324094448216284,5.959613,84.44643,177.8667,0.6717125,-0.02599617,0.7387528,15
14.78,-10.31801,1.279165,-34.6108,0.274132480640063,0.1156976933841851,-0.1377458219773295,354.4655,86.803,178.3948,0.6857468,0.04468782,0.7261031,15
14.8,-10.19704,1.44401,-34.59333,0.3041307687898363,0.1663075041082611,-0.1380420789017025,358.047,86.02753,178.4626,0.6818467,0.02161054,0.731174,15
14.82,-10.10091,1.293989,-34.61079,0.3194620954690434,0.143111393463501,-0.1449718269878612,352.8067,87.648,179.2698,0.6907794,0.04966204,0.7203116,15
14.84,-9.979692,1.455787,-34.58958,0.3420360557776737,0.1654114281785659,-0.1463789891203877,356.3751,86.85875,179.4792,0.6870047,0.02609162,0.7259504,15
14.86,-9.861187,1.613911,-34.56788,0.3547679978182395,0.2069377226983668,-0.1449364984978416,359.9449,86.0849,179.639,0.6825356,0.00250172,0.7308457,15
14.88,-9.870535,1.269925,-34.60173,0.3422641252721852,0.1717615015068591,-0.1513479383282705,354.0898,87.84639,179.9818,0.6927652,0.03724209,0.7193183,15
14.9,-9.751881,1.433477,-34.58078,0.3244554010816577,0.1581849625851191,-0.1553291745444331,357.625,87.0626,180.2117,0.6886295,0.01375292,0.7248151,15
14.92,-9.726298,1.249961,-34.61214,0.2994393009850594,0.1192310392087727,-0.1625997411214088,359.4528,88.36028,181.3498,0.6969007,-0.004784646,0.7170553,15
14.94,-9.604834,1.414242,-34.59287,0.290591952343834,0.1306115622410872,-0.1636138219697498,3.097785,87.59957,181.5732,0.6915547,-0.02900572,0.721688,15
14.96,-9.485965,1.574852,-34.57309,0.2649689985578619,0.1185982873270724,-0.1635970247446261,6.74436,86.84976,181.749,0.685481,-0.05318894,0.7255515,15
14.98,-9.516955,1.237755,-34.60305,0.2360525937534565,0.1064458296769676,-0.1639674015881604,6.169016,88.395,182.5536,0.6950916,-0.0540793,0.7165606,15
15.0,-9.488635,1.232346,-34.60553,0.1973239321665536,0.0920017028542329,-0.1634479238836741,8.227902,88.58992,182.8317,0.6950716,-0.06854398,0.71493,15
15.02,-9.415164,1.217587,-34.60677,0.1480399596801913,0.0511046471578,-0.165755188019526,11.87769,88.91969,183.3277,0.6942122,-0.09404486,0.7117156,15
15.04,-9.296769,1.390344,-34.59157,0.1161222200764193,0.0606618468240836,-0.1630718197398186,15.48066,88.20574,183.53,0.6863018,-0.1179094,0.7140982,15
15.06,-9.308891,1.199817,-34.6034,0.0887203686976497,0.0959511637340738,-0.158102531263319,14.74826,88.78485,183.6373,0.6905228,-0.1136845,0.7111477,15
15.08,-9.192341,1.376718,-34.58922,0.0317374064950747,0.050811999417868,-0.1577972674416559,18.32598,88.07989,183.8316,0.6820785,-0.1373525,0.7129865,15
15.1,-9.223918,1.183325,-34.60213,-0.0061569749762021,0.0596176262398318,-0.1534420038171005,17.38832,88.27028,183.8949,0.6842673,-0.1318173,0.71262,15
15.12,-9.212698,1.175874,-34.60559,-0.0454623396360399,0.0675475452454381,-0.1495608672739861,18.71799,88.11415,184.0433,0.6815686,-0.1409979,0.7126293,15
15.14,-9.098619,1.358837,-34.59349,-0.0859217836672794,0.0468209215836423,-0.1454600697013583,22.26089,87.40244,184.1756,0.672368,-0.1641649,0.713742,15
15.16,-9.108259,1.153092,-34.60407,-0.1259594893510658,0.0279668555945188,-0.1419160453960071,23.06354,86.02951,184.0559,0.662825,-0.1697326,0.7207959,15
15.18,-9.078669,1.145499,-34.60485,-0.1660002037309058,0.0078190024025738,-0.1391366589479261,24.59149,85.39081,184.062,0.6565828,-0.1799,0.7227766,15
15.2,-8.96771,1.336515,-34.59451,-0.178962427109156,0.0666349780321196,-0.1313001871225543,28.09134,84.61497,184.0168,0.6462936,-0.2022578,0.7227172,15
15.22,-9.00045,1.132837,-34.60243,-0.2085974191063839,0.041349407727516,-0.1254542841427657,28.00879,83.53557,183.9302,0.6397452,-0.2025496,0.728784,15
15.24,-8.928777,1.12488,-34.60178,-0.228731986503748,0.0486006012078013,-0.1182877085474416,32.08799,81.85285,183.5104,0.6228822,-0.2280014,0.7313274,15
15.26,-8.821199,1.322218,-34.59396,-0.2538816918797896,-0.0010650142400968,-0.1143693304161237,35.50362,80.90842,183.1673,0.6112987,-0.2489911,0.7298847,15
15.28,-8.802163,1.118868,-34.59997,-0.2682587800740476,-0.0194466966116464,-0.1099816940510756,37.36934,80.47202,182.9611,0.6053711,-0.2602878,0.7282618,15
15.3,-8.695735,1.317874,-34.59305,-0.2788752678793412,-0.0361098425093317,-0.1062667083320754,40.74873,79.40955,182.4686,0.5929567,-0.2806877,0.7258381,15
15.32,-8.687898,1.115701,-34.60962,-0.2708334977400275,-0.0515181889978932,-0.1023981110211842,41.83077,80.63708,182.3114,0.5987896,-0.2843246,0.7167337,15
15.34,-8.583802,1.114547,-34.61363,-0.2581120745697413,-0.0349692633743193,-0.0968229512779315,44.66618,80.81664,181.1053,0.5967882,-0.2951118,0.7066719,15
15.36,-8.479254,1.315265,-34.6072,-0.2458780889496022,-0.0760348403203655,-0.0931377723659654,47.99187,79.69246,180.5879,0.5837445,-0.3152278,0.7027396,15
15.38,-8.430525,1.113038,-34.61429,-0.2206311540619504,-0.0573753581814018,-0.086569361669925,48.04218,79.61456,179.4927,0.5861414,-0.3101225,0.7005122,15
15.4,-8.3269,1.313721,-34.60848,-0.1924070403027988,-0.0966165942124877,-0.0816890009896544,51.32956,78.34035,178.8032,0.5727878,-0.3298107,0.6958925,15
15.42,-8.262686,1.10725,-34.61434,-0.150237548282218,-0.0765383329026331,-0.0743666316881928,53.28105,78.57546,177.639,0.5730213,-0.3353096,0.6858122,15
15.44,-8.065046,1.102292,-34.61243,-0.0918394447083014,-0.0815236960306066,-0.0674053641736769,59.66956,76.4398,173.9933,0.556425,-0.3622016,0.6644533,15
15.46,-7.963635,1.296223,-34.60666,-0.0314088486218718,-0.0866962729113689,-0.0604566298941922,62.87215,74.44366,172.5682,0.5419472,-0.3809854,0.6575463,15
15.48,-7.827289,1.109218,-34.60688,0.0322349288055466,-0.0852123636695021,-0.0535838155425256,62.63632,69.94709,167.8186,0.5321075,-0.371564,0.664459,15
15.5,-7.726717,1.298134,-34.59887,0.0971840837438708,-0.0841651647177391,-0.0465629446947151,65.71686,67.08772,165.47,0.5176302,-0.389879,0.6565866,15
15.52,-7.54073,1.144151,-34.61115,0.1761286945384542,-0.073224879084379,-0.0408709540221998,58.39982,69.69234,167.8635,0.5382972,-0.3454101,0.6829165,15
15.54,-7.439353,1.32625,-34.60208,0.2393010278482988,-0.0365769635218335,-0.0348776953588041,61.44412,67.16064,165.7972,0.5244499,-0.3635682,0.6757624,15
15.56,-7.339163,1.505827,-34.59249,0.3031170172713313,-0.0475359796975792,-0.0334085061782847,64.43369,64.10303,163.1981,0.510175,-0.381418,0.6680477,15
15.58,-7.205404,1.195406,-34.60778,0.3610965255305385,-0.0093720042195059,-0.0303706886901347,48.32766,74.85021,173.1375,0.5729368,-0.2913141,0.7083764,15
15.6,-7.116838,1.209842,-34.61851,0.4175884349156371,0.0260323610885263,-0.0278459704844609,43.37113,76.67941,173.855,0.591126,-0.2585136,0.7155017,15
15.62,-6.950983,1.239092,-34.63894,0.4651633415781863,0.0379413377943084,-0.0322416961792244,32.1036,80.1242,175.3033,0.6266761,-0.1861017,0.7275984,15
15.64,-6.83288,1.408628,-34.62753,0.5183738384987967,0.0506296650507915,-0.0385923041126767,35.62178,79.05502,174.7116,0.6161837,-0.2077224,0.7245879,15
15.66,-6.762474,1.2572,-34.64995,0.5705827790673097,0.0617236755369351,-0.0455645550213903,20.0617,82.99447,176.5389,0.6560978,-0.1106945,0.7337172,15
15.68,-6.643311,1.425485,-34.63823,0.6112834076395781,0.1141828003471889,-0.0450788465418883,23.59755,82.13333,176.2074,0.6478059,-0.1327997,0.7331671,15
15.7,-6.599466,1.268056,-34.65838,0.6418737205257963,0.1175692197144274,-0.0478071079460189,8.17869,85.77001,177.5224,0.6797676,-0.03756433,0.7296356,15
15.72,-6.548844,1.271877,-34.66583,0.6686660864842473,0.1196796577428087,-0.0509074579581563,2.41733,87.40224,177.9182,0.6909058,-0.00269879,0.7224088,15
15.74,-6.427954,1.438479,-34.65463,0.702748903932165,0.1658323173262995,-0.0481398045508898,5.987402,86.66239,177.8606,0.6858678,-0.02518924,0.7256109,15
15.76,-6.302385,1.285253,-34.67377,0.7293612106796779,0.2309231377447227,-0.0420696132941786,353.3268,89.60614,178.7024,0.7029651,0.04925955,0.7087494,15
15.78,-6.180036,1.448757,-34.66072,0.7472045534662524,0.2014019369667351,-0.0457840070065174,356.917,88.8621,178.8185,0.699562,0.02642376,0.7139913,15
15.8,-6.060255,1.608581,-34.64704,0.7680800291919925,0.2175071315809988,-0.0448901831866788,0.5073651,88.12712,178.888,0.6954474,0.003567318,0.7184981,15
15.82,-6.015874,1.283319,-34.67774,0.7740901066703187,0.180282866778733,-0.0494704187659156,353.7449,89.93395,179.7007,0.7055433,0.04044391,0.7065588,15
15.84,-5.895829,1.44602,-34.66254,0.7710992423354358,0.1636678614746617,-0.0514466903508319,357.2737,89.18694,179.8929,0.7018572,0.01759646,0.71192,15
15.86,-5.778377,1.60517,-34.64677,0.7619533757498999,0.1465496970311466,-0.0540992237366646,0.8030834,88.45327,180.0394,0.6974795,-0.00526202,0.7165706,15
15.88,-5.799415,1.254854,-34.68191,0.7460816468865351,0.1261450021356136,-0.057738740172593,357.4105,89.90939,181.0943,0.7064876,0.009243999,0.7073004,15
15.9,-5.754284,1.249935,-34.68522,0.7204290329672164,0.1043669745612963,-0.0600038004879008,359.4547,90.29034,181.3374,0.7088791,-0.004917338,0.7052177,15
15.92,-5.656497,1.240573,-34.68815,0.6898372675656486,0.0824059572145574,-0.0631250146652817,4.002357,90.68327,182.0384,0.7103277,-0.03718504,0.7027802,15
15.94,-5.535042,1.406908,-34.67456,0.6673092082491356,0.1089515270770848,-0.0594869778175999,7.641257,89.97807,182.2661,0.7043306,-0.06106514,0.706464,15
15.96,-5.527147,1.232332,-34.6842,0.6167860673856276,0.0593578453217009,-0.0624401477776999,8.23146,90.41504,182.8434,0.7063608,-0.06811183,0.7037717,15
15.98,-5.407116,1.401519,-34.67131,0.5487806114145386,-0.0157122371291513,-0.0683119859609444,11.8438,89.72466,183.0524,0.6994447,-0.09179117,0.7067097,15
16.0,-5.433995,1.217747,-34.68392,0.4982616857069972,-0.017071364475351,-0.0682482308703757,11.85669,90.47839,183.3196,0.7038523,-0.09315411,0.7022132,15
16.02,-5.368831,1.199946,-34.68785,0.441674554903667,-0.0460548145051074,-0.0691986731447595,14.72658,90.77964,183.6374,0.7028186,-0.112366,0.699033,15
16.04,-5.252285,1.376959,-34.6779,0.3883813517740846,-0.0456181775518637,-0.0685056509584649,18.28788,90.11113,183.8349,0.6946503,-0.1355796,0.7008167,15
16.06,-5.137398,1.550628,-34.66734,0.3312740465746719,-0.0457722409022299,-0.0686253022725456,21.85013,89.4412,183.9922,0.6857874,-0.1586495,0.7018903,15
16.08,-5.210093,1.175948,-34.68627,0.2891562196520406,0.0045213956001976,-0.0656458826858354,18.71685,89.49387,184.0175,0.6901321,-0.139766,0.7043523,15
16.1,-5.09556,1.358952,-34.67783,0.2080145982168915,-0.0537840321156189,-0.0678205116278807,22.26178,88.80928,184.1257,0.6811492,-0.1625428,0.7053851,15
16.12,-4.982286,1.538725,-34.66879,0.1469382492427443,-0.055595528627919,-0.0671316334882163,25.80659,88.11369,184.19,0.671493,-0.1851501,0.7057115,15
16.14,-5.033288,1.145581,-34.68647,0.0851297534588218,-0.0850535009528521,-0.0667238882590499,24.59311,86.53976,184.0266,0.6638496,-0.1785037,0.716118,15
16.16,-4.92192,1.336673,-34.67946,0.0143993924186975,-0.1398247935304268,-0.0678128258221706,28.0939,85.78384,183.9464,0.653751,-0.2004525,0.7159975,15
16.18,-4.81128,1.524706,-34.67185,-0.0379963084820728,-0.1349164532103863,-0.066666865423743,31.59209,84.99597,183.8093,0.6430233,-0.2221978,0.7151784,15
16.2,-4.701555,1.709727,-34.66367,-0.0773698308942997,-0.100349769357535,-0.064640041953254,35.08726,84.1664,183.6079,0.631677,-0.2437202,0.7136613,15
16.22,-4.811529,1.124949,-34.68212,-0.1367566792307736,-0.1511841133858853,-0.0655392940715025,32.07429,82.59205,183.5081,0.6276159,-0.2268744,0.7273135,15
16.24,-4.703077,1.322221,-34.67568,-0.1727385975311358,-0.1418985611584751,-0.0647629428784224,35.5108,81.68298,183.1637,0.6162124,-0.2478094,0.7257173,15
16.26,-4.650104,1.117227,-34.68877,-0.2001571143085852,-0.1021810987783134,-0.0634997428862114,39.61315,81.70606,182.651,0.609331,-0.2704673,0.7165802,15
16.28,-4.59907,1.115695,-34.69566,-0.2352116022245602,-0.1485610567912491,-0.0673026086096681,41.82749,81.87208,182.3161,0.6064748,-0.2819785,0.7102549,15
16.3,-4.493298,1.315912,-34.69183,-0.2616306590988495,-0.1628714632745017,-0.0705860934401982,45.17969,80.79009,181.7836,0.5937085,-0.3018296,0.7069529,15
16.32,-4.393139,1.113809,-34.7029,-0.2839395618766386,-0.1752283728660897,-0.074567188294397,46.35743,81.30471,180.3361,0.598004,-0.3003705,0.6981864,15
16.34,-4.28863,1.314492,-34.69855,-0.2876904909648807,-0.1292874163204049,-0.0757458529912407,49.67225,80.15077,179.7443,0.5849682,-0.3200971,0.693822,15
16.36,-4.214104,1.110084,-34.70555,-0.2803144830684981,-0.1408887995598151,-0.0786758061807217,50.64773,80.09562,178.6835,0.5853195,-0.3207307,0.6887384,15
16.38,-4.110854,1.309749,-34.70126,-0.2692662108849307,-0.1512389230930143,-0.0820200732174045,53.92049,78.77154,177.9106,0.5718726,-0.3400371,0.6835347,15
16.4,-4.013412,1.103851,-34.70674,-0.2464966165614929,-0.1036921841244281,-0.083777187535337,56.46716,78.57144,176.1581,0.5698156,-0.3472475,0.6714886,15
16.42,-3.91148,1.300165,-34.70227,-0.197564493573193,-0.1390353085282444,-0.0886226669433503,59.69584,76.92862,175.0607,0.555806,-0.3660868,0.6651603,15
16.44,-3.680568,1.109149,-34.70629,-0.1387415685044659,-0.1400767124116375,-0.0924130611169884,62.62708,70.96518,167.8439,0.5379269,-0.3683176,0.6598259,15
16.46,-3.579516,1.298064,-34.70026,-0.092001178771837,-0.1108120132118481,-0.0953758428320483,65.7144,68.13351,165.4871,0.5235475,-0.3864035,0.6519044,15
16.48,-3.453047,1.128839,-34.70341,-0.0441005361559135,-0.0829502740967596,-0.0981173631290834,60.94702,68.16148,166.722,0.5282782,-0.3613851,0.6761957,15
16.5,-3.352062,1.313258,-34.69489,0.0036330359142435,-0.0730589115167548,-0.1034473104585167,63.97057,65.29844,164.2926,0.5142423,-0.3792923,0.6684144,15
16.52,-3.134393,1.178123,-34.70413,0.0520398926905984,-0.0631679805618659,-0.1085891530265685,52.10075,72.10885,171.161,0.5545483,-0.3132423,0.7042488,15
16.54,-3.031555,1.356393,-34.69342,0.0878894561467552,-0.0053727387018719,-0.1106067442773994,55.18929,70.23454,169.7117,0.5417343,-0.3316608,0.6981178,15
16.56,-2.915743,1.211239,-34.71239,0.1326971599220241,-0.0163560600494258,-0.122315173544063,43.19001,76.16318,173.8937,0.588106,-0.2587428,0.7187538,15
16.58,-2.805251,1.384775,-34.70036,0.1722174835191965,-0.0520041511577954,-0.1368811941095558,46.5067,74.8069,172.9711,0.5762568,-0.2788182,0.7137764,15
16.6,-2.696544,1.555303,-34.68782,0.2075492783425281,-0.0180768446921392,-0.1476075922776747,49.80499,73.27878,171.8661,0.5638913,-0.2986338,0.7081497,15
16.62,-2.630635,1.249774,-34.74085,0.2453567756066838,-0.0073200383718726,-0.1610818514683041,26.29134,81.26524,175.9714,0.6398162,-0.1501991,0.7333516,15
16.64,-2.499352,1.263783,-34.75894,0.2735290882663743,0.0242687793334287,-0.1697544286060619,13.9102,84.79064,177.1559,0.6712939,-0.07279041,0.7308242,15
16.66,-2.380654,1.43187,-34.74752,0.2979700339163793,0.0534787186883006,-0.1782389917968512,17.42403,84.03383,176.955,0.6643835,-0.09491374,0.7314222,15
16.68,-2.264161,1.596489,-34.7355,0.3145765079572533,0.0571607538821103,-0.1869998164800934,20.93427,83.24825,176.7001,0.656827,-0.1169394,0.7313001,15
16.7,-2.228793,1.275789,-34.76912,0.320594421987594,0.0375185978332685,-0.1971394837877884,358.42,88.32922,178.1612,0.6964076,0.0210672,0.7173347,15
16.72,-2.10794,1.441691,-34.75785,0.3347426886753537,0.0641495908297705,-0.2019173664875451,1.980332,87.62883,178.17,0.6923323,-0.001413694,0.7211953,15
16.74,-1.989461,1.604005,-34.74597,0.3557275707656044,0.0682656775955003,-0.2085441322480683,5.539452,86.92681,178.1351,0.6875674,-0.02388692,0.7243291,15
16.76,-1.873581,1.762886,-34.73351,0.3734476646285449,0.0709918279946637,-0.2140955072028028,9.096851,86.2177,178.0559,0.6821185,-0.04632957,0.7267336,15
16.78,-1.776687,1.296108,-34.78822,0.3862439917164083,0.116947303268062,-0.2141762968351512,353.459,90.59898,179.4605,0.7094388,0.04346962,0.7024386,15
16.8,-1.653818,1.457203,-34.77442,0.393591474764175,0.1581366217715868,-0.2135154203534268,357.0393,89.88499,179.6578,0.7061034,0.02039423,0.7076313,15
16.82,-1.595423,1.262247,-34.79917,0.3654311457962589,0.0982281782144939,-0.2216294901841751,355.7312,91.16244,180.5405,0.7138629,0.0226999,0.6992788,15
16.84,-1.52135,1.254574,-34.80404,0.344588281886318,0.1087239860191465,-0.2229238968949873,357.4403,91.13088,181.0912,0.713989,0.008838819,0.6997359,15
16.86,-1.400502,1.418852,-34.79221,0.3078679245322323,0.0693157213491616,-0.2283100917109228,1.029987,90.43274,181.2866,0.7096276,-0.01429956,0.7044303,15
16.88,-1.282153,1.579546,-34.77979,0.2569541139541314,0.0055411235581412,-0.235474967536037,4.621089,89.74538,181.4385,0.7045462,-0.03741769,0.7084014,15
16.9,-1.316995,1.240486,-34.80727,0.223679235503617,0.0164449650559402,-0.2355538723425461,4.001609,91.49712,182.0293,0.7153041,-0.03703564,0.6977167,15
16.92,-1.194822,1.406677,-34.79588,0.1838959023118018,0.0016194521220074,-0.2356639127583646,7.654208,90.82643,182.2536,0.709541,-0.06081995,0.7012228,15
16.94,-1.075065,1.569204,-34.78389,0.1452032206628086,0.0143482381074029,-0.2335369604857735,11.30832,90.16383,182.4367,0.7030334,-0.08453449,0.7039844,15
16.96,-1.110229,1.217396,-34.81359,0.0842327100192633,-0.0244720100796091,-0.2333752235810386,11.90032,91.96556,183.3384,0.712855,-0.09283683,0.6930091,15
16.98,-1.078793,1.208843,-34.81714,0.0377797395525825,-0.0115788041399403,-0.230291325528178,13.43241,92.21584,183.5171,0.7128763,-0.1030079,0.6908066,15
17.0,-0.9600082,1.383524,-34.80955,-0.0324527848669843,-0.0509019022692859,-0.2290152221897159,17.0369,91.58052,183.7277,0.7051502,-0.1262894,0.6926832,15
17.02,-0.949908,1.183228,-34.82308,-0.0900647588372127,-0.0640893039049376,-0.2255057364610051,17.40304,91.88097,183.9068,0.7063476,-0.1293579,0.6907074,15
17.04,-0.8336631,1.364012,-34.81721,-0.1398208677644011,-0.0460585811581926,-0.2202423740311063,20.97693,91.24908,184.0814,0.6978505,-0.1522557,0.6918694,15
17.06,-0.7188157,1.541478,-34.81073,-0.1896243888980236,-0.0279034019909306,-0.2152635243471543,24.55134,90.61304,184.2172,0.6886537,-0.1749921,0.692329,15
17.08,-0.6055775,1.715725,-34.80367,-0.2670580952212774,-0.0929734776735448,-0.2122677650339373,28.12543,89.967,184.3116,0.6787672,-0.1975378,0.6920882,15
17.1,-0.742243,1.153166,-34.82744,-0.3156317359957644,-0.0751198991689198,-0.2057536681645277,23.06391,89.07272,184.0312,0.6817666,-0.166582,0.7029158,15
17.12,-0.6295781,1.342185,-34.82354,-0.3623607492301736,-0.056819193798553,-0.1996457881018347,26.5845,88.37546,184.0057,0.6721624,-0.1884716,0.7030244,15
17.14,-0.6240721,1.132855,-34.83214,-0.4274616778523518,-0.123866815979391,-0.1952442511462742,28.01468,86.76766,183.9274,0.6600387,-0.1986453,0.7104409,15
17.16,-0.5767319,1.128882,-34.83329,-0.4735709150561566,-0.1323897815540762,-0.1881473746967872,29.99936,85.81701,183.6811,0.6512042,-0.2105899,0.7127801,15
17.18,-0.4683188,1.324886,-34.83115,-0.5160718634594119,-0.138172025655128,-0.1817361884610866,33.42317,84.98879,183.4078,0.6403968,-0.2311699,0.7116648,15
17.2,-0.3602816,1.517995,-34.82843,-0.5693734131515773,-0.2008221299288346,-0.1773490421507997,36.84214,84.10537,183.061,0.6289987,-0.2515275,0.7098839,15
17.22,-0.4017324,1.11884,-34.84045,-0.6188933793864793,-0.2629335133687217,-0.1740762202941068,37.36367,83.75673,182.9795,0.6259654,-0.2548533,0.7106547,15
17.24,-0.2946641,1.317775,-34.8391,-0.6370264432370272,-0.2692344791020747,-0.1704254463074708,40.752,82.77922,182.5114,0.6139315,-0.2747349,0.7081634,15
17.26,-0.1877837,1.513883,-34.83718,-0.6552399637178157,-0.3017393527476354,-0.1680097292931766,44.13238,81.70976,181.9371,0.6013398,-0.2943577,0.7050192,15
17.28,-0.157061,1.114565,-34.86649,-0.6600458312526116,-0.2733598959270226,-0.1635582256048273,44.68166,84.11619,181.1026,0.6168575,-0.2881716,0.6891542,15
17.3,-0.1072319,1.113838,-34.87195,-0.6510105373563686,-0.2149269570877355,-0.1578631600960092,46.3371,83.86895,180.3229,0.6135572,-0.294412,0.6846526,15
17.32,-0.002997272,1.314568,-34.87267,-0.6447822799727957,-0.2436416041378211,-0.1541178295378076,49.63598,82.73892,179.7171,0.6006498,-0.3135152,0.680468,15
17.34,0.1011743,1.512617,-34.87284,-0.6318475874806,-0.2120286347883445,-0.1485057563373502,52.92467,81.46786,178.9586,0.5872228,-0.3323366,0.6756861,15
17.36,0.2511325,1.103798,-34.8926,-0.6131333387470035,-0.1808183930902736,-0.1432264739830779,56.48652,81.51392,176.1755,0.5867684,-0.3390637,0.6566241,15
17.38,0.3536779,1.300034,-34.89294,-0.566421294243882,-0.1758705114374588,-0.1400026798732465,59.73117,79.92582,175.1037,0.5727877,-0.3575315,0.6504027,15
17.4,0.4558969,1.49369,-34.89275,-0.5173049494715595,-0.1958700409163927,-0.137471889101401,62.95607,78.0324,173.718,0.5583211,-0.3756827,0.6436222,15
17.42,0.7169983,1.118002,-34.91203,-0.4630677930301684,-0.156685295343034,-0.1333983923742057,61.81887,72.21573,167.1683,0.5488222,-0.3559104,0.6550022,15
17.44,0.8325328,1.12878,-34.91484,-0.389213027581511,-0.1650283387850136,-0.1327587296072438,60.95729,70.86569,166.7187,0.5440781,-0.3527265,0.6634893,15
17.46,0.9341986,1.313136,-34.91118,-0.3313213024240852,-0.1176478609885176,-0.1305755812524074,63.99058,68.03348,164.287,0.5300314,-0.3702022,0.655845,15
17.48,1.034838,1.49497,-34.90701,-0.2718395070212576,-0.1174853502771376,-0.1309202190856933,66.95673,64.53255,161.1811,0.5155513,-0.3873639,0.6476557,15
17.5,1.164622,1.178112,-34.9281,-0.2140424754526698,-0.0655996540833014,-0.1296305261529795,52.10038,74.64241,171.1808,0.5699297,-0.3063273,0.6918735,15
17.52,1.267778,1.35638,-34.92173,-0.1589145232258201,-0.0604676441375901,-0.1335447765157447,55.1885,72.82343,169.7583,0.5572366,-0.3243335,0.6858416,15
17.54,1.369552,1.532045,-34.91485,-0.1175917851420906,-0.0099948521982014,-0.1350163003100704,58.24502,70.70579,168.0299,0.5440965,-0.3420691,0.6792505,15
17.56,1.540552,1.239802,-34.97593,-0.0777571236624782,-0.0052951044393015,-0.141305451783742,32.0303,82.46576,175.3393,0.6414524,-0.1815486,0.7148576,15
17.58,1.615307,1.250308,-34.99085,-0.0379876689443188,0.0453874065873581,-0.143527925316051,26.23913,84.24616,175.9886,0.6587107,-0.14539,0.7165752,15
17.6,1.733314,1.419426,-34.98464,-0.0116310472979294,0.0479866333289949,-0.1477774776271037,29.72992,83.38,175.5713,0.6497634,-0.1665923,0.7146313,15
17.62,1.855081,1.268277,-35.02029,0.0157439315116416,0.0487137653797203,-0.152648462155601,8.153581,88.88465,177.5373,0.6993487,-0.03573704,0.7109149,15
17.64,1.975195,1.435685,-35.01518,0.0439679807384786,0.0703552331244408,-0.1479066190392277,11.68979,88.19453,177.4143,0.6937347,-0.05749664,0.7126452,15
17.66,2.093083,1.599571,-35.0094,0.0625566634751547,0.091825736285551,-0.1379782981088917,15.22322,87.48698,177.2455,0.6874406,-0.07919263,0.7136687,15
17.68,2.134955,1.279267,-35.04129,0.0804411335452197,0.1121156766445213,-0.1272026357339788,354.4875,91.83047,178.3859,0.716938,0.04355779,0.6953346,15
17.7,2.205174,1.284933,-35.0476,0.0969760113336093,0.1283533865091702,-0.1159148250568451,353.3481,92.4005,178.7578,0.72007,0.04796379,0.6913877,15
17.72,2.32875,1.4481,-35.03922,0.1010321920109436,0.1439429326139793,-0.0995045966553727,356.9545,91.71931,178.9344,0.7171797,0.02517643,0.6963197,15
17.74,2.449792,1.295911,-35.06863,0.1043321552780736,0.1581712645276973,-0.0820455423547601,353.4639,93.24592,179.5044,0.7254918,0.04229035,0.6858522,15
17.76,2.573546,1.456795,-35.05933,0.1062078433811887,0.168222016290481,-0.0639215780451234,357.0518,92.5609,179.7475,0.7224513,0.01937135,0.6909397,15
17.78,2.694594,1.613936,-35.04939,0.0737649166578902,0.0988247456382299,-0.0499471854602475,0.6413485,91.89262,179.9473,0.718679,-0.003560863,0.6953194,15
17.8,2.812701,1.767514,-35.03885,0.0296236067772553,0.0955906601223095,-0.0278201629350194,4.231882,91.23577,180.1056,0.7141797,-0.02648293,0.6989875,15
17.82,2.719263,1.254756,-35.09306,-0.0151271905921605,0.0923061701656032,-0.0052564057026511,357.411,93.80721,181.1241,0.7301352,0.008272965,0.6828588,15
17.84,2.839728,1.419256,-35.08599,-0.0721177541835433,0.0914047199977423,0.0194880521811953,0.9730965,93.14169,181.3548,0.726079,-0.01442271,0.6874573,15
17.86,2.875763,1.240517,-35.10835,-0.1220594574472048,0.1165704641278402,0.0471989543393371,3.991393,94.58335,182.0467,0.7338315,-0.03673249,0.6782041,15
17.88,2.919881,1.237932,-35.11364,-0.1955641999226178,0.0918157824346548,0.0709726686611214,6.13196,94.74695,182.5659,0.7337353,-0.05266318,0.676959,15
17.9,3.041562,1.405371,-35.10904,-0.2684708773211524,0.0670962116197776,0.0945703967948574,9.757833,94.12044,182.8102,0.7277777,-0.0758072,0.6800838,15
17.92,3.058087,1.217684,-35.12236,-0.338886123321611,0.0624863040841918,0.1183366857595782,11.85527,94.92757,183.3431,0.730562,-0.09116685,0.674375,15
17.94,3.17734,1.390462,-35.11972,-0.4083910411228302,0.0596891147707447,0.1416654166909019,15.44708,94.32207,183.5695,0.723417,-0.1139654,0.6765142,15
17.96,3.158978,1.199933,-35.12877,-0.4981196408991022,0.0039885930338189,0.1601347967528266,14.72316,94.87727,183.6513,0.7273505,-0.1098929,0.6734706,15
17.98,3.276169,1.376878,-35.12707,-0.5636946979776412,0.0256150892642517,0.1837566900672627,18.28573,94.28123,183.8681,0.7196525,-0.1324448,0.675108,15
18.0,3.238431,1.183395,-35.13487,-0.6146178231134782,0.0741120080880603,0.2087396229693796,17.3664,94.41445,183.9104,0.7214832,-0.1272517,0.6749511,15
18.02,3.296844,1.16839,-35.14027,-0.6978724460145012,0.0405899492859492,0.2268449506351864,20.10884,93.37552,184.0766,0.7117388,-0.1451665,0.6795298,15
18.04,3.410576,1.353361,-35.1404,-0.7620489024247487,0.0647444099061956,0.2473231986313084,23.62818,92.75938,184.1827,0.7029662,-0.1670076,0.6802217,15
18.06,3.523236,1.53516,-35.13992,-0.8228711824673937,0.0890948112798593,0.2672823321803239,27.14733,92.13297,184.2494,0.6935127,-0.1886782,0.6802465,15
18.08,3.442407,1.145563,-35.14961,-0.9095637011481746,0.0287949802116569,0.2818454758162003,24.58585,90.9679,184.0363,0.6910162,-0.1737157,0.6899555,15
18.1,3.553813,1.336669,-35.15104,-0.9920753913215526,-0.0304510724918448,0.2952588345707214,28.07584,90.28519,183.9709,0.6813541,-0.1948144,0.6898265,15
18.12,3.664546,1.524722,-35.15187,-1.0465325602641613,-0.0379252274173321,0.309364593518934,31.56371,89.57423,183.8545,0.6710438,-0.2157184,0.6890327,15
18.14,3.634101,1.124938,-35.16022,-1.0951727265222595,-0.0426840536711733,0.3224120921580029,32.06416,87.35326,183.5203,0.6572803,-0.220036,0.7006499,15
18.16,3.688262,1.121965,-35.16515,-1.1365889572952113,-0.0449628014203069,0.3331225969606288,34.66716,86.76081,183.2106,0.6493238,-0.2348237,0.6992628,15
18.18,3.795531,1.320154,-35.1686,-1.1618506607802543,-0.0151530800712429,0.3431775216421373,38.05694,85.85981,182.7892,0.6378848,-0.254321,0.697378,15
18.2,3.802915,1.117272,-35.18007,-1.1801019052077344,0.0146890803298351,0.3520525513496162,39.58556,86.26507,182.6366,0.6374428,-0.2618504,0.6918062,15
18.22,3.909266,1.316875,-35.18412,-1.2129954002461272,-0.0425744842904766,0.3552448834325723,42.94975,85.28144,182.1306,0.6252568,-0.2809775,0.6890405,15
18.24,3.98054,1.114572,-35.20499,-1.2162291315134923,-0.0116235809191576,0.3590801955760403,44.66746,86.44352,181.1002,0.630765,-0.2829787,0.6765129,15
18.26,4.047983,1.113851,-35.21263,-1.211277663156739,0.0191827142449116,0.3616269311176516,46.32899,85.97672,180.3196,0.6260736,-0.2894963,0.6732645,15
18.28,4.152126,1.31459,-35.21728,-1.2059697909794689,-0.0384827542722446,0.358462139767016,49.6249,84.87641,179.7108,0.6132817,-0.3081568,0.6691609,15
18.3,4.256226,1.512647,-35.2214,-1.1851502214654763,-0.036654866286415,0.35711132707298,52.91089,83.63731,178.9523,0.5999619,-0.3265425,0.6644727,15
18.32,4.299407,1.107266,-35.23677,-1.1483064033110917,-0.0034316791761558,0.3552912844176585,53.267,84.37504,177.6505,0.6069852,-0.3197779,0.6560193,15
18.34,4.40239,1.305878,-35.241,-1.0930800291402758,-0.0252347746770253,0.3485953849590348,56.52643,83.01046,176.7724,0.5934393,-0.3380404,0.6505144,15
18.36,4.505206,1.501876,-35.24471,-1.0341458044728156,-0.0479302772941053,0.3415160245387563,59.77075,81.4172,175.6568,0.5793899,-0.356005,0.6444497,15
18.38,4.735408,1.109109,-35.27195,-0.978461026094934,0.0158846749606864,0.3368702295765562,62.63195,75.96239,167.8487,0.5661551,-0.3517324,0.6357446,15
18.4,4.822848,1.117898,-35.27898,-0.9126222088608552,0.0018192918090073,0.3245600576684264,61.82025,74.82921,167.2752,0.5632899,-0.3477251,0.6426703,15
18.42,4.924185,1.304442,-35.28003,-0.8436774677305585,-0.0134198068295823,0.3114839645080129,64.88737,72.12492,164.9702,0.5492375,-0.3649728,0.6350423,15
18.44,5.134172,1.161505,-35.30543,-0.7957809279281098,0.052036904975237,0.3004630751546759,55.80265,74.65277,168.7575,0.5697412,-0.3178324,0.671584,15
18.46,5.237464,1.341368,-35.30518,-0.73783416325736,0.0733784738836985,0.2777815128807868,58.86039,72.40961,166.8561,0.5564476,-0.3350016,0.6649476,15
18.48,5.336766,1.195242,-35.32257,-0.6824850435652849,0.0721565024004282,0.2502325224021104,48.35635,79.71633,173.1438,0.6024221,-0.2788804,0.6833447,15
18.5,5.441331,1.371711,-35.3202,-0.626877262798633,0.0699715961028309,0.2215463299678539,51.49001,78.26392,172.0834,0.5903652,-0.2968911,0.6781061,15
18.52,5.51525,1.226991,-35.35312,-0.5738984405303564,0.0917742466991321,0.1846867325289718,38.07415,82.67767,174.6374,0.635159,-0.2154241,0.6988971,15
18.54,5.634176,1.397171,-35.35149,-0.5219337376637332,0.1139085904019189,0.147341116471118,41.60162,81.53618,173.8541,0.6239769,-0.2358428,0.6945456,15
18.56,5.728349,1.257277,-35.37973,-0.477307972060349,0.0845540718832485,0.1010152323121618,20.10053,86.71188,176.5262,0.6795293,-0.1063405,0.7119852,15
18.58,5.847797,1.425715,-35.37686,-0.443939147456601,0.1228523304069872,0.0630814229403329,23.62235,85.9494,176.1926,0.6718494,-0.1275116,0.7111334,15
18.6,5.870956,1.268089,-35.38438,-0.4149353155200188,0.1345469144284978,0.0197807210826068,8.212022,88.82284,177.5077,0.6989568,-0.03595537,0.7112416,15
18.62,5.991972,1.435286,-35.38031,-0.3856757223134246,0.1230556172690838,-0.0336561979948113,11.77216,88.16007,177.3587,0.693509,-0.05770116,0.7127474,15
18.64,6.069903,1.279296,-35.37157,-0.3600435307390612,0.1581210549093642,-0.0831938450776057,354.5014,89.67911,178.3406,0.703746,0.04420719,0.7086836,15
18.66,6.141301,1.284959,-35.35901,-0.3431614777422211,0.1435734548323962,-0.1396959244688878,353.3536,89.43217,178.7298,0.7019114,0.0489756,0.7098157,15
18.68,6.264456,1.448168,-35.34544,-0.3289619318310446,0.1275134595410323,-0.1985905486543133,356.962,88.78431,178.882,0.6991016,0.02576363,0.7144644,15
18.7,6.385031,1.607642,-35.33135,-0.3068559542430136,0.1793026661030377,-0.2541121656361209,0.5708683,88.14753,178.9932,0.6955799,0.002532018,0.7183779,15
18.72,6.344815,1.295995,-35.33076,-0.3013576257408514,0.1764019147771899,-0.3083179085976075,353.4666,88.3726,179.4624,0.6956618,0.04412582,0.7160906,15
18.74,6.467553,1.45696,-35.31269,-0.3048103438567531,0.1473745907997887,-0.3649756600381018,357.0563,87.72262,179.6666,0.6926297,0.02053536,0.7208301,15
18.76,6.587562,1.614184,-35.29422,-0.3094127933078792,0.1640619747009442,-0.4194333759410522,0.6468688,87.08687,179.8298,0.6888986,-0.003068703,0.7248343,15
18.78,6.476319,1.254846,-35.30667,-0.3166107019908228,0.1789234086455953,-0.4769788272308597,357.4104,87.2656,181.0813,0.6899815,0.0098451,0.7234129,15
18.8,6.495107,1.249956,-35.30268,-0.3535955722368631,0.118092195655648,-0.5238649570203195,359.4455,87.39098,181.3307,0.6908115,-0.004523521,0.7229257,15
18.82,6.616958,1.414159,-35.28305,-0.3910478433920308,0.0558587148261254,-0.5746012076871114,3.098865,86.76515,181.5453,0.686288,-0.02890872,0.7267023,15
18.84,6.59307,1.237695,-35.28933,-0.3983542392229455,0.0888324154229134,-0.6193234948787074,6.159861,87.59345,182.5507,0.6900681,-0.05415429,0.7214065,15
18.86,6.714455,1.404815,-35.27026,-0.4364970774074104,0.0455818675811498,-0.6445953613000359,9.819344,86.99637,182.7827,0.6840966,-0.07871677,0.7239522,15
18.88,6.67091,1.22645,-35.28087,-0.4755419723309455,0.027866777339972,-0.6610166930391577,10.31219,87.61356,183.128,0.6874006,-0.08364934,0.7201884,15
18.9,6.790578,1.39704,-35.26358,-0.5018543281524963,0.0368194867171334,-0.6780037552519653,13.93725,87.02821,183.3313,0.6806007,-0.1078144,0.7219718,15
18.92,6.765856,1.199793,-35.28379,-0.5274824169751029,0.0449665948888312,-0.6968685794842138,14.74712,88.59639,183.6522,0.6893387,-0.1138776,0.7122919,15
18.94,6.883132,1.376512,-35.26938,-0.569296360334042,0.0247995671066682,-0.6928221068757878,18.33707,88.03218,183.872,0.6817201,-0.1376968,0.713292,15
18.96,6.853207,1.183306,-35.28346,-0.608831434286911,0.0067048291634284,-0.689757361223597,17.38515,88.32693,183.9117,0.6846038,-0.1318578,0.7122957,15
18.98,6.968693,1.364126,-35.27048,-0.6264452115412977,0.0416220023770375,-0.6859381934701769,20.94813,87.76216,184.0967,0.6764949,-0.1553102,0.7128211,15
19.0,7.082765,1.541636,-35.25704,-0.6422792028501967,0.0741095925980808,-0.6828968299391791,24.51161,87.19572,184.248,0.6677159,-0.1786003,0.7126322,15
19.02,6.956184,1.153247,-35.28892,-0.6789439271181952,0.0510628511449534,-0.6599127771078841,23.03404,85.84745,184.037,0.6617483,-0.1696162,0.7218612,15
19.04,7.067867,1.342337,-35.27868,-0.7025051646811351,0.0600609072041276,-0.6357234406985004,26.53148,85.21761,184.0223,0.6525916,-0.191907,0.7213645,15
19.06,7.178696,1.528335,-35.26796,-0.7216381382869062,0.069157975220467,-0.6111977151390722,30.02753,84.56634,183.9628,0.6428135,-0.2140066,0.7201725,15
19.08,7.085495,1.132859,-35.28953,-0.7681993844172428,-0.0076045256726859,-0.5754224365832199,28.00193,83.83202,183.9367,0.6416281,-0.2021897,0.7271436,15
19.1,7.195034,1.327391,-35.28079,-0.793838367533156,-0.026531786902521,-0.5351938945971009,31.46233,83.12481,183.7645,0.6315784,-0.2237296,0.7257277,15
19.12,7.212437,1.121842,-35.29019,-0.8191042247870861,-0.0715568782180501,-0.4885213541277444,34.68055,82.42329,183.2607,0.6222655,-0.2420161,0.7233872,15
19.14,7.320181,1.319869,-35.28408,-0.8388431988558369,-0.1149735220526226,-0.4394379869103817,38.09073,81.58555,182.8947,0.6111255,-0.2625668,0.720792,15
19.16,7.328015,1.117218,-35.29911,-0.8325918365122988,-0.0723997135581244,-0.3871267440785164,39.58205,82.37093,182.6643,0.6135119,-0.2691532,0.7131219,15
19.18,7.434597,1.316746,-35.29522,-0.8322275367756586,-0.08577168325081,-0.3304386512258173,42.95329,81.43804,182.1891,0.6016439,-0.2890359,0.7097269,15
19.2,7.541016,1.513469,-35.29082,-0.8254500747347839,-0.0969823756792776,-0.270741605279075,46.31695,80.40971,181.6063,0.5892381,-0.3086507,0.7056891,15
19.22,7.497306,1.114512,-35.3167,-0.8125191019401992,-0.1063250303330913,-0.2074209208405104,44.66597,83.3987,181.1315,0.6124929,-0.289779,0.693103,15
19.24,7.602765,1.315148,-35.3143,-0.7909650528459837,-0.1428595691667584,-0.1358679048879008,48.00544,82.43096,180.6475,0.6001772,-0.3093912,0.6886917,15
19.26,7.708138,1.513039,-35.31139,-0.7585546552385594,-0.1191103150865815,-0.0589169268089184,51.33744,81.35017,180.0392,0.5873358,-0.3287224,0.683669,15
19.28,7.761234,1.107154,-35.33833,-0.7150056070156385,-0.0656392715801736,0.0212331892877681,53.28353,82.7585,177.7114,0.5974577,-0.3245983,0.6646307,15
19.3,7.840877,1.103759,-35.3461,-0.6659647751768967,-0.0981913678234933,0.1118226154491175,56.45485,82.54472,176.2335,0.5925614,-0.3361859,0.6515916,15
19.32,7.941483,1.299949,-35.3464,-0.6168022582970134,-0.1578554635020527,0.2051396253340032,59.64574,81.10899,175.3049,0.5790712,-0.3544359,0.6453692,15
19.34,8.11596,1.110317,-35.37262,-0.5471726588721972,-0.1537877976549407,0.3112487922187235,62.05965,77.16216,168.7485,0.5713099,-0.3486412,0.6351207,15
19.36,8.19378,1.301712,-35.36752,-0.4739876252631982,-0.1499515879917129,0.4190159392932528,64.49732,75.89917,167.7387,0.5620648,-0.3628159,0.6280519,15
19.38,8.272304,1.491477,-35.36238,-0.3978246180715692,-0.1496418975709292,0.5279367214343056,66.96007,74.32384,166.4364,0.5522305,-0.3770503,0.6207014,15
19.4,8.399593,1.146548,-35.40839,-0.3400335456176724,-0.1383778240476433,0.648115395212578,57.89905,76.80193,168.5194,0.5787598,-0.3230661,0.652248,15
19.42,8.480993,1.332591,-35.40725,-0.2846002932975886,-0.1229388876068848,0.7684799950648991,60.34694,75.84392,167.4276,0.5715348,-0.3359307,0.6440421,15
19.44,8.561646,1.517025,-35.40611,-0.2280912373091983,-0.107660437745906,0.8895238338862601,62.78128,74.70858,166.1577,0.5640557,-0.3486089,0.6355266,15
19.46,8.719224,1.216473,-35.48503,-0.1829309393833629,-0.0900605419767734,1.0192564216510016,42.42981,87.2524,174.5191,0.6549808,-0.2308879,0.6620916,15
19.48,8.779771,1.234737,-35.51334,-0.1375865371533147,-0.0733333461846647,1.1498693567309175,37.00986,89.72787,175.3242,0.6775725,-0.1974825,0.6624447,15
19.5,8.859854,1.415626,-35.5155,-0.0923176139731589,-0.0120915973952795,1.2833997528887862,39.34421,90.05405,175.3481,0.6752576,-0.2106945,0.6553088,15
19.52,8.952016,1.266097,-35.59338,-0.0625002111877766,-0.0224960301286717,1.411293710188585,18.95743,97.24358,177.0749,0.7426552,-0.08993274,0.6486351,15
19.54,9.03149,1.446004,-35.59299,-0.0300521400243043,-0.0098532055663754,1.5473016910551571,21.23514,97.29818,177.3929,0.7404033,-0.1049136,0.6460431,15
19.56,9.066524,1.278384,-35.65092,-0.0012717084403175,0.0021185120222889,1.6838553195761925,6.930449,102.2476,177.8724,0.7776511,-0.02350282,0.6255105,15
19.58,9.14635,1.457827,-35.66031,0.0175009539772417,0.0109537150171744,1.8215148113963675,9.227344,102.3175,178.1219,0.7770854,-0.03771662,0.6240216,15
19.6,9.178928,1.284608,-35.72153,0.0315461091780706,0.0188089271517517,1.9595358239487848,357.4009,106.6395,178.3528,0.8014979,0.02507116,0.5973946,15
19.62,9.287495,1.293886,-35.79784,0.0542548344480744,0.0272074791428732,2.1032427297621483,352.3934,110.0234,178.7725,0.8170105,0.04678942,0.5726957,15
19.64,9.377295,1.467727,-35.82259,0.0666313942913774,0.0116386519003543,2.2443293644107616,355.0421,110.0582,179.0059,0.8184304,0.03189177,0.5729102,15
19.66,9.432935,1.300463,-35.88366,0.0787567209873676,0.0415252504117198,2.3842823885538387,352.1437,112.0826,179.2747,0.8272331,0.04350371,0.5576316,15
19.68,9.530854,1.4699,-35.91405,0.0909713885134984,0.0920681453636937,2.521731588642304,355.0574,112.1131,179.5415,0.8287143,0.02739265,0.5579941,15
19.7,9.627205,1.636736,-35.94404,0.075653567553785,0.0663043543072619,2.641817742317639,357.973,112.1569,179.8091,0.8296552,0.01125308,0.5579935,15
19.72,9.579604,1.272821,-35.96413,0.0531074067126677,0.0393257529062854,2.758926082791903,353.7946,113.5786,180.0056,0.8354375,0.02960476,0.5469143,15
19.74,9.635235,1.256192,-35.99579,0.0384685649586882,0.0303351832039691,2.870153681851055,357.2545,113.6808,181.1123,0.8369979,0.004979839,0.5465955,15
19.76,9.745477,1.422314,-36.03491,0.0168255436034412,0.0214798449574104,2.9773049261017226,0.664403,113.736,181.3788,0.8373007,-0.0132444,0.5465797,15
19.78,9.853684,1.585068,-36.07338,-0.0265513257796854,-0.0373515582285982,3.069382835206178,4.075583,113.8071,181.649,0.8368565,-0.03146188,0.5460772,15
19.8,9.77204,1.240969,-36.01448,-0.0425295086636696,-0.0204550635248728,3.1614958389108763,3.940402,111.6903,182.0094,0.8265685,-0.03380074,0.561512,15
19.82,9.888516,1.40763,-36.0522,-0.0622956696315708,-0.0294159680390818,3.243269203854452,7.540373,111.7757,182.2648,0.8252593,-0.05319576,0.5605677,15
19.84,10.00284,1.570625,-36.08929,-0.0876749485074925,-0.0370805125632092,3.3197450721723127,11.13914,111.8782,182.5284,0.8231318,-0.07253584,0.5590678,15
19.86,9.905219,1.217829,-35.97068,-0.0977367851880484,0.004227640782109,3.3940550682775426,11.87692,105.6539,183.2279,0.790463,-0.08481059,0.6030656,15
19.88,9.922591,1.209354,-35.94952,-0.1139372286190356,0.0425928577435548,3.4618716671847256,13.40819,104.2589,183.3751,0.7815515,-0.09472249,0.6121314,15
19.9,10.03972,1.384404,-35.97591,-0.1420948025431956,0.0271384342029704,3.50484540659178,16.99649,104.3487,183.4902,0.7780855,-0.1143754,0.6098011,15
19.92,10.15517,1.555917,-36.00198,-0.1742933016906789,0.0137753810215807,3.5423252068276847,20.58356,104.448,183.6138,0.7738568,-0.1339108,0.6068732,15
19.94,10.04558,1.176535,-35.87194,-0.2041639307581648,0.0003945258315506,3.5695866465639003,18.71044,95.71207,183.7953,0.7275864,-0.13324,0.6656992,15
19.96,10.16146,1.359976,-35.88593,-0.2458836683801419,-0.0380289630050557,3.584879342880936,22.2524,95.74681,183.7248,0.7231336,-0.1530213,0.6624672,15
19.98,10.27618,1.540062,-35.89981,-0.26912366119725,-0.0197073920130045,3.5989954520931846,25.79338,95.77766,183.655,0.7179908,-0.172652,0.6586033,15
20.0,10.38954,1.716869,-35.91359,-0.2951480935948065,-0.0011419622547216,3.607591073505705,29.33352,95.80537,183.5868,0.7121652,-0.1921227,0.654109,15
20.02,10.18403,1.14615,-35.79066,-0.3467794389680774,-0.0676406236000135,3.594017678473448,24.56123,86.20547,183.8324,0.6621067,-0.1775371,0.7178835,15
20.04,10.2973,1.337639,-35.78989,-0.3653207330175416,-0.0483670862805481,3.581816131648292,28.04168,86.16228,183.6016,0.6567963,-0.1976917,0.7134775,15
20.06,10.40993,1.525957,-35.78917,-0.3850493190400723,-0.0286868773972942,3.5646047554563864,31.52102,86.10185,183.3611,0.6508809,-0.217665,0.7084104,15
20.08,10.30144,1.125475,-35.70978,-0.4210843919648417,-0.0950514545460443,3.5299445304390584,32.02541,75.27465,183.3171,0.5803996,-0.2353409,0.7657238,15
20.1,10.32169,1.122234,-35.68368,-0.428046720636329,-0.0739807351097374,3.495035610363701,34.64234,73.00284,183.1088,0.5611663,-0.254642,0.7719105,15
20.12,10.38853,1.117478,-35.63308,-0.4351385224493092,-0.0526698760112629,3.455224738071455,39.56192,69.21252,182.5533,0.5280832,-0.2903868,0.7785975,15
20.14,10.49374,1.31715,-35.60678,-0.4347649894649579,-0.0585110466217564,3.406679061973283,42.9194,68.91504,182.013,0.5211914,-0.3108604,0.7709021,15
20.16,10.59883,1.513909,-35.58057,-0.4382196474950219,-0.0905386021757131,3.349690187757451,46.27351,68.55413,181.4155,0.5138474,-0.3310573,0.7625378,15
20.18,10.56433,1.114807,-35.541,-0.4270556620787786,-0.0619290963650511,3.2909443757119448,44.65855,64.78781,180.9831,0.4927947,-0.325046,0.782787,15
20.2,10.66607,1.315629,-35.50696,-0.4157165419874564,-0.033359992567179,3.2275100902502576,47.98403,64.42464,180.4001,0.4857991,-0.3457218,0.7737314,15
20.22,10.66444,1.113185,-35.4748,-0.4108491103556682,-0.093011114646835,3.1534675123774187,48.01837,61.32765,179.4311,0.4676066,-0.3476733,0.7847126,15
20.24,10.77734,1.107486,-35.40054,-0.3839953879189066,-0.0644973392258885,3.078981176250915,53.24115,57.91668,177.5349,0.4411811,-0.382656,0.7773714,15
20.26,10.87391,1.306209,-35.35962,-0.3465216464556808,-0.0924965060471956,3.010460358435254,56.48616,57.20438,176.5927,0.4338973,-0.4027429,0.7663643,15
20.28,10.97033,1.502205,-35.3188,-0.3097460117534385,-0.1211490829553741,2.936197188257573,59.72259,56.32181,175.4848,0.4262642,-0.4224995,0.7547251,15
20.3,11.06739,1.104691,-35.22143,-0.2657836757996938,-0.1154564468156885,2.8616036612292843,61.16779,49.55649,171.0856,0.3956127,-0.4325212,0.7626935,15
20.32,11.13035,1.10928,-35.17237,-0.219289371143649,-0.0792447879856125,2.78287362003554,62.58983,45.30017,167.7724,0.378256,-0.4416067,0.7628103,15
20.34,11.27448,1.129019,-35.06136,-0.1636638813245543,-0.0905755969374396,2.709683075966823,60.92367,40.81623,166.5404,0.3541818,-0.4366467,0.7815812,15
20.36,11.36545,1.313612,-35.01165,-0.1208861503532896,-0.0464233393358916,2.6346362765981484,63.92535,38.60826,163.9848,0.3473265,-0.4556631,0.7685091,15
20.38,11.45559,1.495569,-34.96245,-0.0776292104674249,-0.0042059530341552,2.553068366237709,66.87184,35.79789,160.8311,0.3401978,-0.4743131,0.754832,15
20.4,11.53327,1.178303,-34.8643,-0.0343446285826274,0.0327977187779163,2.4647402315966955,52.09718,42.42775,171.0264,0.3561233,-0.3826893,0.822544,15
20.42,11.58334,1.195668,-34.81918,0.0041865249324821,0.0513634799228489,2.376617519839545,48.31722,44.31876,173.0056,0.366629,-0.3573363,0.8340333,15
20.44,11.67267,1.372507,-34.76245,0.0423122548955221,0.0688172620229327,2.2839767109270896,51.41409,43.49606,171.8542,0.3616251,-0.3781654,0.8233618,15
20.46,11.7929,1.239415,-34.67212,0.0826882347265118,0.0378011991944908,2.1854953219543347,32.13351,47.55491,175.1471,0.3978118,-0.2366358,0.8738613,15
20.48,11.89363,1.409296,-34.6066,0.106341366373186,0.0518127333004998,2.0893119049261983,35.62609,47.22572,174.4532,0.3944681,-0.2615184,0.8653958,15
20.5,11.99271,1.575631,-34.54221,0.1318498258998892,0.0884540607113671,1.994339041277725,39.11515,46.8272,173.7017,0.3907501,-0.2861565,0.8561032,15
20.52,11.99268,1.263358,-34.51543,0.1550731191600987,0.0757604846433115,1.8983962342614689,14.00706,50.85661,177.085,0.4288407,-0.09924255,0.8947633,15
20.54,12.0865,1.271919,-34.42802,0.1750768317529365,0.1086941385169799,1.8117271207481176,2.475193,52.67453,177.8699,0.4438338,-0.01110857,0.8956561,15
20.56,12.18583,1.438482,-34.35527,0.1930923944171283,0.1372040804592047,1.7230009503013015,6.047911,52.72829,177.8179,0.4442759,-0.03881423,0.894134,15
20.58,12.21946,1.279113,-34.30691,0.204779854825063,0.1433446440015658,1.6363064618918353,354.5312,53.63969,178.3847,0.4500281,0.04892262,0.8916285,15
20.6,12.31722,1.44386,-34.23087,0.2070619877213917,0.1237481089625678,1.5446514580133774,358.1126,53.68994,178.4977,0.4512853,0.0206127,0.8921316,15
20.62,12.41298,1.293733,-34.12475,0.2143174433069017,0.1522290436922481,1.4627216893654449,352.8261,53.3769,179.2496,0.4478834,0.05883208,0.8918767,15
20.64,12.47756,1.296053,-34.06058,0.2080443811348886,0.15247959830225,1.3872526975776325,353.443,53.19166,179.5134,0.4467402,0.05303546,0.8928242,15
20.66,12.57123,1.457048,-33.97836,0.1978626978037803,0.1506384180962814,1.317321904955235,357.0099,53.22413,179.8122,0.4477561,0.02406001,0.8937737,15
20.68,12.663,1.614252,-33.8979,0.1882910953265497,0.1944397224985661,1.258360330899463,0.5756853,53.27508,180.1125,0.4483346,-0.004930555,0.8938513,15
20.7,12.61638,1.262296,-33.91756,0.1596070852636311,0.1624435768817186,1.1900239021680692,355.7158,52.79065,180.5512,0.4444074,0.03134417,0.8950318,15
20.72,12.70764,1.426251,-33.83701,0.1260571683073341,0.1282383419664514,1.130285483437528,359.2578,52.83554,180.8312,0.444934,0.00257354,0.8955106,15
20.74,12.74064,1.246106,-33.78734,0.1085451622237998,0.1680155691751795,1.0777401486641738,1.371956,52.48127,181.5697,0.4419218,-0.01679359,0.8968692,15
20.76,12.83289,1.411168,-33.70515,0.078933144797018,0.1601332500751951,1.0206918261848728,4.995752,52.55408,181.8535,0.4416015,-0.04622721,0.8960069,15
20.78,12.82349,1.237783,-33.69614,0.0354472891297832,0.1281018752643828,0.9662277704132132,6.141125,52.15583,182.5586,0.4377784,-0.05790105,0.8972099,15
20.8,12.91546,1.404918,-33.61332,-0.0136718418010364,0.0959002716374309,0.9242618970697114,9.78491,52.2524,182.8445,0.4367097,-0.0874381,0.8952119,15
20.82,12.91582,1.217632,-33.58419,-0.0585578516470333,0.0859652217932106,0.8623799241779624,11.86821,51.62233,183.3239,0.430192,-0.1055915,0.8963389,15
20.84,13.00603,1.390152,-33.50285,-0.108976757786654,0.0775413561627862,0.8139607224633547,15.479,51.73937,183.5785,0.4283569,-0.1346142,0.8929923,15
20.86,13.09488,1.559057,-33.42283,-0.1944125553926885,0.0152262671724477,0.7620396685646851,19.08818,51.87559,183.8458,0.4260948,-0.1634943,0.8887562,15
20.88,13.18221,1.724472,-33.34427,-0.2706388514375168,0.003914784025275,0.6899376388300027,22.69568,52.03333,184.129,0.4234085,-0.1922036,0.8836355,15
20.9,13.05829,1.183318,-33.42337,-0.3354797215896474,0.021956923676133,0.6242947992747849,17.39247,50.63502,183.8943,0.41783,-0.1509579,0.895241,15
20.92,13.14558,1.364005,-33.34373,-0.4297931857744528,-0.0145644756939584,0.5562636866261155,20.96355,50.76156,184.1071,0.415319,-0.1793612,0.8906264,15
20.94,13.12966,1.160961,-33.3337,-0.5268588366570959,-0.0491259171607794,0.503176133724585,21.55924,48.08067,184.0759,0.3938637,-0.1849317,0.8992854,15
20.96,13.15394,1.153292,-33.3023,-0.593638978406299,-0.0026985484101964,0.4419415530991921,23.03782,47.17297,184.0229,0.3854087,-0.1966573,0.90025,15
20.98,13.23762,1.342242,-33.22437,-0.6627143890884253,0.0415720492663607,0.3931204414049158,26.54708,47.23647,184.0398,0.3822806,-0.2239811,0.8944463,15
21.0,13.32074,1.527968,-33.14704,-0.7796205160232432,-0.0269680439776867,0.3241607556019477,30.05457,47.30347,184.0622,0.3787963,-0.2510827,0.8878068,15
21.02,13.24537,1.128948,-33.18404,-0.911292698375692,-0.122733428740038,0.2574386467833696,29.99434,42.29829,183.6637,0.3406148,-0.2523587,0.9034014,15
21.04,13.32474,1.324833,-33.10656,-0.9962890983583654,-0.1067568672346567,0.1865689384533286,33.4297,42.22879,183.4245,0.3368397,-0.2784889,0.8961446,15
21.06,13.40387,1.517675,-33.02938,-1.0969491052499962,-0.1469526131656202,0.1163399972267917,36.86384,42.13836,183.1699,0.3327617,-0.3043607,0.8880819,15
21.08,13.37914,1.118841,-33.03706,-1.196478181515713,-0.1856068763931995,0.0603731869535186,37.3506,39.95185,182.9881,0.3156815,-0.309276,0.892902,15
21.1,13.45666,1.317613,-32.95985,-1.2623183546249843,-0.1381968616624267,0.0070399838445194,40.74683,39.75476,182.5864,0.3112684,-0.3345062,0.88404,15
21.12,13.53407,1.513422,-32.88281,-1.333664693427921,-0.1467284286397993,-0.0542725000595152,44.14087,39.51353,182.1461,0.3065805,-0.3594327,0.8743979,15
21.14,13.57119,1.114555,-32.84979,-1.3951760213168485,-0.122665764178037,-0.1081353178090567,44.67054,39.6102,181.115,0.3099082,-0.3605798,0.8714759,15
21.16,13.61992,1.11381,-32.79976,-1.4527861426945172,-0.0987360819750926,-0.1511496152410951,46.32395,39.09114,180.3472,0.3064657,-0.3715966,0.8668118,15
21.18,13.69506,1.314379,-32.72444,-1.5228728978006325,-0.1631326808582837,-0.1941066550912702,49.62983,38.76045,179.827,0.3017939,-0.3954527,0.8560262,15
21.2,13.77018,1.512144,-32.64921,-1.5686273944382143,-0.1394095654570796,-0.2275276927975715,52.93248,38.35536,179.2366,0.296869,-0.4189692,0.8445237,15
21.22,13.80155,1.107227,-32.61368,-1.6097924438386555,-0.1161832040430968,-0.2507325769639381,53.25616,37.4467,177.6866,0.2954627,-0.4185992,0.8435504,15
21.24,13.87576,1.305671,-32.53918,-1.6348807136593608,-0.1195313619599735,-0.251395054690827,56.52549,36.87194,176.9162,0.2905303,-0.4415561,0.8312496,15
21.26,14.022,1.104448,-32.38972,-1.6589105209804722,-0.1170874179653444,-0.2493890688266873,61.19313,32.26767,171.2382,0.2758431,-0.4692437,0.8136515,15
21.28,14.09571,1.295684,-32.31679,-1.6785332199722691,-0.1144118865344196,-0.2392657258242194,64.36555,30.82205,169.5507,0.2707341,-0.4908571,0.7996437,15
21.3,14.17294,1.11785,-32.23624,-1.6941912212378454,-0.1148004976970759,-0.2212157991867909,61.82333,27.43084,167.2592,0.2575406,-0.4734152,0.8148349,15
21.32,14.24562,1.304333,-32.16275,-1.7135695559873805,-0.1047143400807434,-0.2043999297072014,64.89877,25.48229,165.018,0.2527518,-0.4946124,0.8006349,15
21.34,14.38879,1.161372,-32.01272,-1.7233507028627877,-0.0872136776501369,-0.175655870549745,55.82045,26.91328,168.7538,0.2492575,-0.4328967,0.8446133,15
21.36,14.46198,1.341205,-31.93739,-1.7373358440953668,-0.0447071547819723,-0.1498709519665091,58.88286,25.43207,166.9296,0.2450182,-0.4545451,0.8316653,15
21.38,14.53434,1.518332,-31.86298,-1.7488289397213248,-0.0489984261706758,-0.1228159092263858,61.91478,23.59989,164.7596,0.2405871,-0.4758291,0.818066,15
21.4,14.60576,1.69283,-31.7896,-1.75673159549233,-0.0555198560406769,-0.0883151139155966,64.90542,21.2975,162.1241,0.2359702,-0.4967326,0.8038272,15
21.42,14.69661,1.228409,-31.72075,-1.7597336321323378,0.0070549115731506,-0.0542520719746044,37.90253,35.38522,174.7224,0.3013768,-0.2958411,0.8955601,15
21.44,14.77524,1.400385,-31.63835,-1.761011939003562,0.0237724840442764,-0.0199328025262564,41.24175,35.04169,174.0968,0.2986843,-0.3208897,0.8858676,15
