t,pX,pY,pZ,aX,aY,aZ,reX,reY,reZ,rtX,rtY,rtZ,ID
3.04,-41.37303,1.090662,-38.83255,2.814230362221423,-0.1065074799315363,0.3392668156092888,14.47938,357.7468,165.8103,-0.003793492,-0.1274405,0.9845475,11
3.06,-41.57345,1.151309,-38.87822,2.8583246785633785,-0.117348275376016,0.3251466077575493,13.23184,0.7577444,165.2109,0.02134164,-0.1134071,0.9849601,11
3.08,-41.54008,1.355396,-38.86442,2.894435157972264,-0.1015137624844068,0.3123953711833085,13.5484,1.241715,164.2587,0.0268105,-0.1153654,0.9834316,11
3.1,-41.47754,1.159838,-38.78869,2.9224844780384727,-0.0606239214728921,0.3008934460050492,17.72519,4.064933,164.7224,0.05519801,-0.147944,0.9779501,11
3.12,-41.39932,1.16919,-38.72405,2.9518077347501928,-0.0702815537409747,0.2831015109006412,17.75884,9.226784,166.4892,0.0970144,-0.1434394,0.9765168,11
3.14,-41.37676,1.368038,-38.70424,2.9729849369935515,-0.0534112773929511,0.2663097449164899,18.3667,9.900398,166.0165,0.1039047,-0.1474477,0.9745108,11
3.16,-41.29239,1.182316,-38.64722,2.9857018431787195,-0.0115527124959122,0.2506141165301629,14.80119,16.12547,168.4851,0.151181,-0.1129363,0.9751019,11
3.18,-41.26131,1.378976,-38.62035,2.994880279297604,-0.0237243742080589,0.2312523151301242,15.76761,16.65684,167.9041,0.1569788,-0.1198456,0.9725536,11
3.2,-41.16468,1.198402,-38.57019,2.9962520384038296,-0.0352787476636801,0.2110819088833135,9.20282,23.22188,170.4332,0.2064704,-0.06157888,0.9716327,11
3.22,-41.10286,1.202115,-38.51901,2.999957018267904,-0.0447605626926992,0.1907948156394567,6.910779,26.45487,171.8412,0.2319963,-0.04227562,0.9682568,11
3.24,-41.04468,1.39262,-38.47802,2.994958341072925,-0.027724442661508,0.1711725715761085,8.736181,26.57202,170.8593,0.2343225,-0.05563061,0.9659278,11
3.26,-40.8502,1.231123,-38.40104,2.984630759199943,-0.0378043415423152,0.1497080439125788,0.2816045,35.39845,175.2445,0.3038546,0.01027386,0.9518114,11
3.28,-40.73847,1.252733,-38.36277,2.965239922057957,-0.0211442154783102,0.1286056598306455,358.1958,37.40121,176.0428,0.3198772,0.02597269,0.9466993,11
3.3,-40.64802,1.426196,-38.2972,2.9333268409726214,-0.0365203188510707,0.1078311360618906,1.308634,37.18015,175.008,0.3189433,0.003068783,0.9467043,11
3.32,-40.54298,1.284811,-38.2983,2.8906756843662995,-0.0526734039768304,0.0870432180353617,353.6171,42.08831,179.5119,0.3583058,0.05348586,0.9319331,11
3.34,-40.43892,1.27146,-38.32567,2.839687183174706,-0.0413891534786811,0.0662286871248136,354.8713,46.06007,180.1384,0.3908713,0.04070324,0.9193565,11
3.36,-40.37103,1.263188,-38.32247,2.783299247979085,-0.0605069272492054,0.04780268632941,356.6159,47.94249,180.7404,0.4062669,0.02435636,0.9132547,11
3.38,-40.31126,1.448244,-38.29553,2.7168390288560973,-0.0797919097451712,0.030442653067384,358.3434,48.34717,180.2619,0.4094888,0.01225278,0.9121979,11
3.4,-40.25472,1.634233,-38.27652,2.6429930751573334,-0.0711905066294177,0.0134842753335231,359.8963,48.84951,179.7229,0.4134945,0.001824181,0.9105031,11
3.42,-40.16899,1.252896,-38.3786,2.5581140175770853,-0.0918752791900557,-0.0017845770799782,4.524378,56.67694,181.9037,0.4736668,-0.0426167,0.8796629,11
3.44,-40.10902,1.441597,-38.36708,2.4650934428183247,-0.1140194903844477,-0.0136245946054121,6.087935,57.24187,181.3612,0.4777494,-0.05229199,0.8768098,11
3.46,-40.06537,1.239729,-38.40667,2.365910056461386,-0.1076782548331383,-0.0251322376598519,8.739037,61.17538,182.4605,0.5058524,-0.0764654,0.8589839,11
3.48,-39.99602,1.426517,-38.38971,2.2554422632514504,-0.132033684493752,-0.0346407007848528,10.69451,61.73753,182.0408,0.5093352,-0.08907517,0.8553255,11
3.5,-39.98718,1.220234,-38.4407,2.1398622483681526,-0.1275048947215724,-0.0437364658725378,11.88191,65.34741,182.7807,0.5346826,-0.100128,0.838347,11
3.52,-39.9282,1.2006,-38.47169,2.0129059036760006,-0.1546829796631338,-0.0480828973745923,14.5581,68.53006,182.9822,0.5555705,-0.1192092,0.8213605,11
3.54,-39.85579,1.391403,-38.46476,1.8821048886801528,-0.1525178884538421,-0.051735460232277,16.58928,69.00375,182.4542,0.5578334,-0.1308651,0.8170501,11
3.56,-39.84767,1.18372,-38.49353,1.749120358645146,-0.1227766006757205,-0.0549407230772072,17.23788,70.77815,183.2583,0.5688808,-0.1384026,0.8081733,11
3.58,-39.77488,1.376695,-38.49078,1.6015973513472843,-0.1534142705820605,-0.0553250185027733,19.27805,71.20354,182.6555,0.5706206,-0.1494053,0.8036473,11
3.6,-39.78618,1.167016,-38.51265,1.4432396429322258,-0.183226638397941,-0.0543061133569686,20.09654,71.84635,183.3192,0.5733663,-0.1579645,0.8000131,11
3.62,-39.77609,1.158509,-38.51976,1.2784863871954562,-0.2130368096206614,-0.0501154575694959,21.59127,72.00918,183.2759,0.5728788,-0.167969,0.797475,11
3.64,-39.73869,1.354517,-38.4959,1.113651637586826,-0.2124811986055343,-0.0461269245072104,22.76294,73.69326,183.7636,0.5823798,-0.1771398,0.7879698,11
3.66,-39.736,1.133304,-38.49496,0.9409650822379588,-0.2406826115223839,-0.0403191052900897,25.90079,74.66913,184.4996,0.5835916,-0.2012544,0.779622,11
3.68,-39.71223,1.128381,-38.48703,0.7654214573443401,-0.2669039065245296,-0.0345207273369156,27.9105,75.12893,184.3501,0.5839781,-0.2134802,0.7742979,11
3.7,-39.67063,1.326191,-38.46062,0.5915155559032517,-0.2623913444173757,-0.0295163828133739,29.187,77.04279,184.9224,0.5936926,-0.2228277,0.763175,11
3.72,-39.60778,1.115996,-38.44861,0.414899287765845,-0.2860222512259337,-0.0250678691442161,35.41996,77.58482,184.007,0.5881558,-0.2578192,0.7486923,11
3.74,-39.55901,1.11359,-38.43182,0.2410625397278263,-0.3073950809989167,-0.0217050434270271,37.75632,79.45213,183.9255,0.595861,-0.2694166,0.7343932,11
3.76,-39.51123,1.311448,-38.39783,0.0685842859058487,-0.3262043682383211,-0.0195942586763475,39.21905,81.77483,184.933,0.6051203,-0.28002,0.7209451,11
3.78,-39.46302,1.508463,-38.36462,-0.1008359553758957,-0.3138898243053444,-0.0194886861545144,40.65156,84.17757,186.0372,0.6140982,-0.2905181,0.7071933,11
3.8,-39.40876,1.109925,-38.38038,-0.2666642840682547,-0.2721813085936929,-0.0211570851474869,43.08055,83.70335,182.7386,0.6138943,-0.2882366,0.6985083,11
3.82,-39.37003,1.109106,-38.37336,-0.4191059774095187,-0.2889602494517996,-0.0213314915087403,44.81526,83.59055,182.0802,0.6108892,-0.2953293,0.6937382,11
3.84,-39.3157,1.306266,-38.33222,-0.5675558777964627,-0.2745327725807543,-0.022980435672137,46.42286,86.52387,183.6661,0.6203585,-0.3070141,0.6775809,11
3.86,-39.18595,1.103444,-38.3298,-0.6968822136282427,-0.2876521103283506,-0.0252135062093357,51.7181,84.78579,179.7965,0.6072732,-0.3210422,0.6640657,11
3.88,-39.09789,1.101368,-38.31909,-0.8226617133372409,-0.2696801017054436,-0.027982425020145,54.89582,84.74866,178.5101,0.6024796,-0.3327194,0.6515013,11
3.9,-39.04667,1.296653,-38.28429,-0.9442263295361562,-0.2223350656598618,-0.0311104408485807,56.38657,88.01647,180.3602,0.6112636,-0.3417259,0.6349372,11
3.92,-38.81679,1.111146,-38.28035,-1.0313735334055982,-0.2270795552430294,-0.0382733607385228,61.12185,79.83064,171.0744,0.581192,-0.345806,0.6330613,11
3.94,-38.72396,1.121503,-38.26678,-1.114252041987437,-0.2012796666019662,-0.0447553950070371,60.27067,79.34011,170.4653,0.5822926,-0.3392194,0.636759,11
3.96,-38.67635,1.313274,-38.23888,-1.1922219294959475,-0.1466640382772824,-0.0504016161111691,61.73308,82.6132,172.2368,0.5913855,-0.34615,0.6203894,11
3.98,-38.54554,1.150709,-38.24482,-1.2465618883347922,-0.1409130803145536,-0.0576217104792595,56.80357,79.64066,170.7457,0.5909373,-0.3186945,0.6488343,11
4.0,-38.49958,1.341244,-38.21883,-1.29605883860095,-0.1051534221671276,-0.0633296527754696,58.18568,82.66212,172.3814,0.6000687,-0.3259642,0.6333839,11
4.02,-38.38753,1.187244,-38.23005,-1.3239384943563577,-0.0888538225898074,-0.0724761068269206,50.35221,83.08762,173.5572,0.6171357,-0.2841611,0.6604257,11
4.04,-38.25072,1.222934,-38.22741,-1.345305333210412,-0.0433701501506039,-0.0800285336858444,41.25465,86.881,175.7572,0.6525477,-0.2317958,0.670108,11
4.06,-38.17746,1.241369,-38.22921,-1.3595898216250308,0.0296463290529997,-0.0857874271080314,35.85284,88.85224,176.4298,0.6725307,-0.1989597,0.6724421,11
4.08,-38.12662,1.428977,-38.20758,-1.3310114215234543,0.0423316241387614,-0.0836516452831341,37.15762,91.38732,177.7707,0.6825231,-0.2093089,0.6575328,11
4.1,-38.07715,1.616199,-38.18623,-1.297927231322591,0.0529592860482997,-0.0811882216135382,38.37408,94.01574,179.2305,0.6923054,-0.219464,0.6423903,11
4.12,-37.96261,1.279427,-38.21769,-1.2564715169333818,0.0657690332708807,-0.0866862902667477,11.64637,95.29639,178.3173,0.7361331,-0.05754778,0.6690313,11
4.14,-37.91183,1.467046,-38.20025,-1.214132931275809,0.0788498932415158,-0.0987849855731735,12.83788,97.2497,179.4449,0.7460428,-0.0702837,0.6564288,11
4.16,-37.86436,1.654802,-38.18183,-1.165147069525739,0.0901423680915134,-0.1125232069110095,13.89285,99.23535,180.6596,0.7556834,-0.08270679,0.6436489,11
4.18,-37.78342,1.294387,-38.19676,-1.1128078781537178,0.1012924358681361,-0.1303679042876799,355.923,100.5391,179.1698,0.7683883,0.02830385,0.6389537,11
4.2,-37.73207,1.298242,-38.19316,-1.053842513884601,0.1103925976547324,-0.15159735133291,351.9973,101.1779,179.319,0.7704511,0.04888143,0.6336411,11
4.22,-37.61026,1.312376,-38.18522,-0.9898323070386432,0.1190318015522774,-0.1724188124053256,349.7878,101.9883,179.8798,0.7739389,0.05682866,0.6269742,11
4.24,-37.56363,1.500034,-38.17205,-0.92291696244886,0.1538742816883554,-0.2005960059099569,350.7729,103.4585,181.0074,0.7829565,0.04293764,0.6167926,11
4.26,-37.49489,1.319274,-38.17661,-0.8526983809104456,0.1852065550641819,-0.2348831099487789,350.9225,103.4033,180.1825,0.7824104,0.04779756,0.617713,11
4.28,-37.45306,1.508152,-38.16665,-0.8069347437243826,0.1794374356051183,-0.2715559494200272,351.7883,104.8375,181.1964,0.7908683,0.03541237,0.607695,11
4.3,-37.43789,1.2923,-38.15713,-0.7707155878282324,0.1701087075010112,-0.3113046892854427,351.4959,104.1893,180.5204,0.7870535,0.04197695,0.6123961,11
4.32,-37.41394,1.28412,-38.15026,-0.7362244436824241,0.1342308181701019,-0.3568079574877725,353.1855,103.7626,181.0749,0.7856527,0.02931941,0.6157357,11
4.34,-37.37634,1.474794,-38.14389,-0.7050546693663193,0.144646148366743,-0.4044398057668354,353.9817,105.1459,181.9131,0.7934551,0.01866073,0.6061324,11
4.36,-37.3205,1.267516,-38.12088,-0.6869094973391565,0.1290214123922882,-0.4436490065269876,358.7462,104.2188,182.0787,0.7891298,-0.007596173,0.6138612,11
4.38,-37.29921,1.261218,-38.10668,-0.6748516693404785,0.1145245630500146,-0.4815852935879974,1.3323,104.1178,182.565,0.7882323,-0.02479669,0.614861,11
4.4,-37.26255,1.45278,-38.09719,-0.6600076549562042,0.0992454994212062,-0.525678776322902,2.098953,105.4076,183.4048,0.7946995,-0.03472239,0.6059997,11
4.42,-37.25443,1.251188,-38.0789,-0.658896520998705,0.0239895966179037,-0.567272011888659,5.544834,104.0464,183.3506,0.786131,-0.05276901,0.6154738,11
4.44,-37.23035,1.233909,-38.0481,-0.6670708941185168,0.002379031363776,-0.5935480355504295,9.167593,103.6934,183.8216,0.7817638,-0.07547866,0.6175446,11
4.46,-37.19582,1.42723,-38.03827,-0.6722281434242028,-0.0196322921557837,-0.6231817856187227,9.880795,105.0397,184.5999,0.7878762,-0.08408848,0.6084802,11
4.48,-37.20047,1.21332,-38.01701,-0.6906201942226922,-0.0427264797298813,-0.6429441270727692,12.0096,104.0865,184.1224,0.7813275,-0.09250508,0.6142626,11
4.5,-37.1668,1.407645,-38.00666,-0.7067477690019119,-0.065376801957993,-0.666516403203838,12.69239,105.3981,184.8788,0.7870213,-0.100574,0.6054848,11
4.52,-37.18048,1.184857,-37.966,-0.7293966509660619,-0.0882641290402165,-0.6770951381190429,15.98596,101.3009,184.6145,0.7616097,-0.1189231,0.6317099,11
4.54,-37.1468,1.380188,-37.95259,-0.757581745317875,-0.1088569500299118,-0.678994609048404,16.67902,102.6753,185.3937,0.7674658,-0.1268606,0.6227677,11
4.56,-37.10443,1.574625,-37.94117,-0.7829069497401049,-0.1283914622189954,-0.6822675636996554,17.49395,104.1416,186.2201,0.7733779,-0.1356346,0.6131508,11
4.58,-37.15204,1.158179,-37.91334,-0.8107103968466705,-0.1478875144512896,-0.6757018637259353,19.96461,100.1316,184.7423,0.7499241,-0.1424189,0.6371478,11
4.6,-37.18148,1.149121,-37.89495,-0.8349490822800263,-0.1661253583099176,-0.66952887064134,21.55462,99.19688,184.6496,0.7425565,-0.1514436,0.6419607,11
4.62,-37.1864,1.133615,-37.86406,-0.8601717958706425,-0.1840975842018407,-0.653607806804537,25.08277,97.21959,184.5581,0.7260348,-0.1725807,0.6513752,11
4.64,-37.15203,1.331901,-37.85632,-0.871102378934677,-0.1700018303374749,-0.6363231845673045,25.88902,98.58764,185.0234,0.7316877,-0.1783295,0.6424378,11
4.66,-37.17564,1.123795,-37.83499,-0.8717194272186095,-0.1562967633430544,-0.6221067512163501,29.09202,95.84084,184.1414,0.7118732,-0.1941647,0.6549929,11
4.68,-37.17045,1.120346,-37.8265,-0.8702993094786979,-0.1691921425725832,-0.6041072265352101,31.72888,95.12953,183.7998,0.703424,-0.207888,0.6553877,11
4.7,-37.13824,1.320055,-37.82426,-0.854659130954901,-0.1499767689221398,-0.5878183980521081,32.52539,96.32504,183.9998,0.7082748,-0.2116397,0.6472223,11
4.72,-37.13995,1.11521,-37.82142,-0.8379049124148024,-0.1878031523029114,-0.5747830402616261,36.71193,94.42801,183.023,0.6906694,-0.2322119,0.6505721,11
4.74,-37.10806,1.112858,-37.82338,-0.8110673622976883,-0.1643146382601875,-0.5649181385801674,40.31205,93.95818,181.8634,0.6824169,-0.2462224,0.6444935,11
4.76,-37.08944,1.112496,-37.82786,-0.7725162064968156,-0.1108292860127967,-0.5588023645241558,41.72203,93.89243,181.065,0.6805238,-0.2494413,0.6403235,11
4.78,-37.06285,1.314122,-37.83916,-0.7334323372304041,-0.1442984470922406,-0.5577101062406298,42.41488,94.65868,180.6319,0.6841052,-0.2489612,0.6333387,11
4.8,-37.03608,1.515582,-37.85072,-0.6820555413555294,-0.1774735126284929,-0.5639330994708658,43.13988,95.42754,180.2099,0.6875305,-0.2486187,0.626213,11
4.82,-36.94364,1.107182,-37.84106,-0.6258838847838275,-0.181760457913541,-0.5691858409071902,50.48092,92.63784,177.7692,0.659758,-0.2817131,0.6185837,11
4.84,-36.91737,1.308261,-37.85301,-0.5503223523313112,-0.1823654479385288,-0.5839487786515489,51.15611,93.25632,177.2435,0.6626151,-0.2806326,0.6117015,11
4.86,-36.78785,1.105762,-37.86058,-0.4648932820113511,-0.1819970547028596,-0.6072622819036422,56.8772,91.88501,174.7984,0.6462982,-0.3021358,0.5953079,11
4.88,-36.76615,1.305658,-37.86945,-0.3826564272579205,-0.1763966811303799,-0.6349270221069672,57.36415,92.54057,174.4273,0.6493205,-0.3005589,0.5888613,11
4.9,-36.74398,1.505374,-37.87878,-0.2971473872048848,-0.1406168047989436,-0.6664862699792531,57.93084,93.15387,174.035,0.6519067,-0.2993715,0.5822814,11
4.92,-36.51241,1.140543,-37.91584,-0.2076451371511911,-0.1551897479013632,-0.7048265531794495,58.29086,86.05779,168.3273,0.6290839,-0.293574,0.6013504,11
4.94,-36.48583,1.337875,-37.92292,-0.133491287728579,-0.1356768556926666,-0.7508792009913385,58.9245,86.7578,168.0827,0.6318809,-0.2934796,0.5943465,11
4.96,-36.45902,1.534758,-37.93044,-0.0598070478025665,-0.0894733214900161,-0.8008543718379579,59.63132,87.3705,167.8112,0.6340546,-0.2939012,0.5874162,11
4.98,-36.30409,1.19364,-37.95656,0.0193088463682062,-0.0457229842347016,-0.8565797427759909,49.55668,90.43265,172.3474,0.6626922,-0.2515716,0.6183026,11
5.0,-36.27872,1.38947,-37.96351,0.0826267104218656,-0.0232184403479882,-0.9140153147169414,50.21634,91.38306,172.3564,0.6662876,-0.2525536,0.6108711,11
5.02,-36.13931,1.246981,-38.00696,0.1431463209209091,-0.0256997313954261,-0.9725588609619412,35.32872,96.01035,175.3036,0.7158871,-0.1738354,0.6277422,11
5.04,-36.10456,1.439691,-38.01847,0.199889481530473,0.0196135689808725,-1.0324129154707655,36.29251,97.00378,175.31,0.7195745,-0.1770671,0.6195694,11
5.06,-36.07004,1.632093,-38.03026,0.2387762151495751,0.038752159795979,-1.0930075994394288,37.2577,98.00871,175.3371,0.7231485,-0.1802825,0.61131,11
5.08,-35.99941,1.278422,-38.04905,0.2778352672569841,0.0804194584790187,-1.156234143681521,17.30847,101.2966,176.8239,0.7668151,-0.07418805,0.623394,11
5.1,-35.96672,1.47111,-38.06321,0.3079902042240778,0.0704164446425122,-1.215871216183749,18.22466,102.29,176.8459,0.7713516,-0.07815497,0.6158056,11
5.12,-35.87844,1.293829,-38.07128,0.3404481987385894,0.0325481718643478,-1.2821484444205566,359.7217,105.1646,177.9572,0.7940722,0.01563265,0.6075573,11
5.14,-35.82405,1.297498,-38.07822,0.3664288076503688,0.0662850261037414,-1.347097219994872,355.8474,106.0021,178.1766,0.7976743,0.03450055,0.6017897,11
5.16,-35.78659,1.488335,-38.09489,0.3875456097931797,0.0489732054870707,-1.4094123969722894,356.9104,106.9806,178.2593,0.8031278,0.028242,0.5950031,11
5.18,-35.70994,1.306413,-38.09007,0.4118769378431919,0.0251791686305011,-1.4775972899904684,351.0339,106.9087,178.6517,0.8003218,0.05596384,0.5943393,11
5.2,-35.6636,1.494131,-38.10903,0.4238294906084334,0.0288300482530147,-1.5322446279395263,352.3553,107.8716,178.7825,0.8060972,0.047811,0.5879216,11
5.22,-35.56093,1.316153,-38.07658,0.4347964927912153,0.0283621386979249,-1.5805573943960691,351.4533,105.1805,179.4337,0.7918697,0.04918241,0.6061071,11
5.24,-35.50493,1.500276,-38.09351,0.4369820143131218,0.0492496111687589,-1.6323783066415043,353.0126,106.1283,179.6709,0.797715,0.0389102,0.599941,11
5.26,-35.44955,1.683567,-38.11086,0.4315914329934234,0.0155367180347839,-1.6721748302687427,354.5714,107.0788,179.9332,0.8033471,0.02861063,0.5936251,11
5.28,-35.44572,1.278212,-38.06267,0.4246278934069911,0.030872553560085,-1.7136432209684287,354.0424,104.6155,180.4348,0.7903519,0.02877505,0.6104335,11
5.3,-35.41864,1.269693,-38.05319,0.4105004752397079,-0.0076792625295778,-1.7387756899549194,355.8127,103.9694,181.0145,0.7874889,0.01552887,0.6151816,11
5.32,-35.3568,1.260474,-38.03114,0.4024353089286396,-0.0162437062669272,-1.7563866826361174,359.7862,103.4123,181.4813,0.7847909,-0.008989352,0.6196231,11
5.34,-35.28784,1.442679,-38.04915,0.3946095566218517,-0.0237245338185565,-1.767035147539735,1.764142,104.3903,181.6997,0.7897826,-0.02115257,0.6130146,11
5.36,-35.28428,1.251374,-38.02187,0.3900060674322567,-0.0351554755991993,-1.7807243882513797,4.535526,103.7114,182.4643,0.7851347,-0.04133229,0.6176865,11
5.38,-35.26969,1.245143,-38.0131,0.3851661516873701,0.0055058818557923,-1.7994348135486122,6.600314,103.5249,182.7396,0.7830734,-0.05436459,0.618801,11
5.4,-35.20208,1.429696,-38.03134,0.3682342343380114,-0.0054917609981565,-1.7892842716526234,8.555512,104.5207,182.9189,0.7871784,-0.06572564,0.6116739,11
5.42,-35.25315,1.219141,-37.99654,0.3439835434208609,-0.0453071559299965,-1.7687339025094726,11.80046,104.317,183.4108,0.7833025,-0.08641354,0.612375,11
5.44,-35.24751,1.2093,-37.99662,0.3280193616228652,-0.0303129763578418,-1.7531595421036874,13.1033,104.802,183.5146,0.7846208,-0.09372055,0.6086343,11
5.46,-35.18255,1.398174,-38.01497,0.3064628090515651,-0.0413379575824075,-1.7207430428866486,15.01608,105.807,183.6622,0.7878602,-0.1040402,0.6010132,11
5.48,-35.2482,1.190911,-37.99482,0.2898305807230565,-0.0538196943911534,-1.692124325503748,15.76715,105.1118,183.7869,0.7832586,-0.1093315,0.6055103,11
5.5,-35.18412,1.38191,-38.01313,0.2672519941950844,-0.0638002963634007,-1.649220738457459,17.67203,106.1147,183.9108,0.786142,-0.1192142,0.5977261,11
5.52,-35.24407,1.17414,-37.98522,0.24508259221773,-0.1031393891247627,-1.5993901106202548,18.51415,104.0912,183.9794,0.7743274,-0.1258974,0.6110623,11
5.54,-35.25272,1.157063,-37.96857,0.2357477172682278,-0.0816383616376624,-1.557952493129223,21.44542,102.5305,184.0132,0.7618847,-0.1431829,0.619495,11
5.56,-35.19031,1.352365,-37.98428,0.2186934712953689,-0.1176722816487386,-1.505773036462836,23.3126,103.5087,184.0495,0.7642684,-0.1521678,0.611496,11
5.58,-35.23129,1.141256,-37.95968,0.2067045919390917,-0.1546497499266921,-1.4577082017097922,24.7278,101.9863,184.0021,0.7538799,-0.1611923,0.6202505,11
5.6,-35.1685,1.338375,-37.97491,0.1979219281215742,-0.1605808314414683,-1.4015099742342496,26.61615,102.9508,184.007,0.7558545,-0.1699013,0.6120501,11
5.62,-35.22441,1.125096,-37.94592,0.20468618678618,-0.1633972243885882,-1.3438972346621485,30.63448,99.81364,183.6492,0.7320327,-0.1935359,0.6272748,11
5.64,-35.1592,1.324435,-37.96083,0.2250533551420712,-0.1330386986445221,-1.292882439293443,32.60572,100.7246,183.5548,0.7332191,-0.2019159,0.6186912,11
5.66,-35.09414,1.522674,-37.97625,0.2426598936371258,-0.1597728548414103,-1.2375925213809973,34.58097,101.6517,183.4963,0.7341253,-0.2102391,0.6098825,11
5.68,-35.12382,1.116673,-37.96764,0.2768918588096642,-0.1258318904994009,-1.1877185271283262,38.51698,103.323,182.7942,0.7352587,-0.222589,0.5917276,11
5.7,-35.05219,1.317154,-37.99053,0.323526345502179,-0.0622435803262923,-1.1415786118803952,40.75965,104.1459,182.583,0.7344067,-0.2306613,0.5822282,11
5.72,-35.05416,1.113851,-38.00624,0.3681396674854289,-0.085378977989416,-1.086111107391499,43.95175,107.4372,181.2701,0.7450492,-0.2297146,0.5520654,11
5.74,-34.9733,1.314749,-38.03654,0.4264411472621745,-0.0480681516183724,-1.0335573543006014,46.55146,108.2596,181.0824,0.7421756,-0.2385628,0.5412631,11
5.76,-34.89267,1.5138,-38.06748,0.4933430119203867,0.018967604984131,-0.983325356229269,49.15515,109.1102,180.9418,0.738856,-0.2472838,0.5301458,11
5.78,-34.88992,1.109607,-38.09049,0.5702459629236438,0.0283356742011057,-0.9287133253517448,50.22762,110.4379,178.8912,0.7460019,-0.2348985,0.5131192,11
5.8,-34.80603,1.309334,-38.13024,0.6560017558073206,0.0385184182607744,-0.8749722082360263,53.03521,111.1113,178.5349,0.7410863,-0.2430721,0.5013533,11
5.82,-34.76632,1.103855,-38.16403,0.7503082726954329,0.0456968608908766,-0.8220787015809501,56.14695,111.5548,176.3769,0.7375771,-0.241476,0.48369,11
5.84,-34.63972,1.105165,-38.25108,0.8632996703503144,0.0576858901764442,-0.7696128019355744,60.86161,109.3582,171.52,0.723251,-0.2400179,0.4665905,11
5.86,-34.55954,1.297447,-38.30018,0.9835034885619364,0.0443198737918248,-0.7154034161198028,63.68264,109.3061,170.3882,0.7160515,-0.2460861,0.4536849,11
5.88,-34.48924,1.119238,-38.36119,1.094619454527444,0.0887689888917974,-0.6625514064756093,61.46897,107.1361,167.6818,0.7201286,-0.2275533,0.463394,11
5.9,-34.4109,1.3072,-38.41372,1.2116139849342744,0.1304699548479037,-0.6109171211167697,64.23981,106.6881,166.1133,0.7128327,-0.2329606,0.4503568,11
5.92,-34.36205,1.146044,-38.46355,1.3367156832822618,0.0958732195033241,-0.5532400421581638,58.02835,108.3312,168.2886,0.7342387,-0.2101426,0.4691823,11
5.94,-34.25998,1.180381,-38.55342,1.4363855723156806,0.140457266543095,-0.4926113447938434,51.69842,112.9683,171.6086,0.7659171,-0.1852064,0.4689926,11
5.96,-34.1833,1.36092,-38.61119,1.539223504024327,0.1811404435129905,-0.4333432869200919,54.48647,113.2608,170.7924,0.7603133,-0.1913808,0.4567594,11
5.98,-34.10799,1.539208,-38.66897,1.6448211643043678,0.214409766533244,-0.3754304762215144,57.27625,113.5006,169.9416,0.7541919,-0.1974266,0.4442241,11
6.0,-34.09258,1.230909,-38.73539,1.7398107506416105,0.2294220179868292,-0.3097271483216444,37.47422,121.3059,174.9453,0.8316101,-0.1208795,0.4513261,11
6.02,-34.0717,1.241947,-38.7675,1.828710731159365,0.2175273770949863,-0.2416198552964976,31.66069,123.247,175.5375,0.8508801,-0.09659339,0.4475475,11
6.04,-33.98888,1.414671,-38.84024,1.9044683103438889,0.2505779217839498,-0.1699336472696089,34.83056,124.0652,175.3126,0.8477636,-0.1057803,0.4362875,11
6.06,-33.97279,1.266305,-38.89864,1.979741309374228,0.2323448214322239,-0.0931838572135195,13.50377,129.7186,177.2614,0.8999256,-0.02845209,0.4192328,11
6.08,-33.89243,1.437208,-38.97773,2.056695420547735,0.2079440281261644,-0.0175163812711547,16.71989,130.658,177.2604,0.9002575,-0.03917746,0.4096957,11
6.1,-33.89586,1.274105,-38.99199,2.119838711176077,0.210039669757718,0.0644885422366163,2.041867,133.7367,178.0032,0.9194412,0.009022688,0.3924374,11
6.12,-33.82369,1.280678,-39.07751,2.176279593699462,0.1844860857870997,0.1501832744739966,354.2391,136.445,178.4689,0.9271267,0.03103395,0.3711246,11
6.14,-33.74229,1.447109,-39.16555,2.22673619704112,0.2072444900113025,0.234432012882956,357.6411,137.3648,178.7116,0.9312393,0.0179543,0.3636532,11
6.16,-33.71026,1.291742,-39.19863,2.274077895231507,0.2068169203554221,0.322824318132878,352.17,137.8323,179.1288,0.9306641,0.031638,0.3593685,11
6.18,-33.62462,1.453972,-39.29057,2.310771204768026,0.1760590653866002,0.4145580717480985,355.7178,138.7293,179.4892,0.9351211,0.01733484,0.3523254,11
6.2,-33.61076,1.296145,-39.28377,2.3419661980537643,0.1940999690200836,0.5026589075312762,353.4457,137.8494,179.5605,0.9314971,0.02412915,0.3592087,11
6.22,-33.54696,1.269878,-39.30744,2.3634300360423666,0.1557563017007516,0.5962061309001161,354.0757,137.0054,180.0142,0.9291942,0.01882192,0.3659619,11
6.24,-33.46156,1.433387,-39.39601,2.3748327448454845,0.1660740258489524,0.6815651114012908,357.5839,137.9112,180.3781,0.9331149,0.004492096,0.3589447,11
6.26,-33.43976,1.254455,-39.37262,2.3693581551249125,0.1231404505382504,0.7714868268737929,357.4612,136.0881,181.1358,0.9272807,-0.0009076288,0.3735796,11
6.28,-33.35284,1.418603,-39.46124,2.3607342733192795,0.074710201859469,0.8599309768284922,1.032246,137.0142,181.4663,0.9303069,-0.01520541,0.3664483,11
6.3,-33.32952,1.245702,-39.41121,2.337377040394381,0.0583473489836625,0.9439934344734748,1.459013,134.8102,181.5819,0.9230142,-0.0176351,0.3843072,11
6.32,-33.24194,1.237928,-39.41882,2.315678922838472,0.0675333611599786,1.0217268945698947,6.182803,132.7382,182.535,0.9141114,-0.04184741,0.4012552,11
6.34,-33.18503,1.232449,-39.43155,2.2746850473229823,0.0509381149134816,1.0996044847275588,8.246307,131.8595,182.7928,0.9096981,-0.05150923,0.4082795,11
6.36,-33.09271,1.401614,-39.51438,2.2289884174086736,0.0323858746523337,1.1744333374015268,11.84795,132.8319,183.0542,0.9101557,-0.0655717,0.4003369,11
6.38,-33.00274,1.567029,-39.59658,2.1673733735513645,0.0135898636120509,1.2461597461931824,15.44358,133.8352,183.3827,0.9096482,-0.07956122,0.3919786,11
6.4,-33.02961,1.20886,-39.45028,2.1096395716160274,0.0219089268433327,1.310191308972537,13.45579,129.0138,183.4659,0.8944864,-0.07750943,0.4304413,11
6.42,-33.01192,1.199996,-39.42812,2.024730812607632,-0.0249731185285398,1.377660959421295,14.75606,127.4652,183.546,0.8871298,-0.08431976,0.4422495,11
6.44,-32.91595,1.376985,-39.50184,1.95415293271796,-0.0149335723980263,1.4331230544600313,18.32009,128.4478,183.7551,0.8862711,-0.0983165,0.4337766,11
6.46,-32.90011,1.176125,-39.40961,1.8715632754083915,-0.0320343347586719,1.489405722132875,18.74605,122.8112,183.8877,0.8631648,-0.107287,0.4767947,11
6.48,-32.80159,1.359229,-39.47646,1.7873562576192152,-0.0491569913418646,1.5409724176373816,22.2914,123.7602,183.967,0.8616565,-0.121004,0.4680526,11
6.5,-32.81873,1.161297,-39.40501,1.6995691125426284,-0.0650809531840802,1.5880418613036298,21.568,119.1879,183.8933,0.8435232,-0.1234242,0.502381,11
6.52,-32.75689,1.146066,-39.38983,1.6115960748047815,-0.0805027731787579,1.6299295178019957,24.58832,115.5951,183.8065,0.822541,-0.1408691,0.5263879,11
6.54,-32.6569,1.337538,-39.44762,1.5278139378817688,-0.0951950390358409,1.6663299905163154,28.06573,116.4244,183.6058,0.8202116,-0.1536122,0.5172853,11
6.56,-32.65225,1.133231,-39.39822,1.4555430688759827,-0.0772099604308934,1.6918408905498312,28.01628,112.3485,183.7429,0.8011991,-0.1609981,0.5463935,11
6.58,-32.55104,1.328055,-39.45043,1.3694859283246528,-0.116190975094324,1.715091043092169,31.4593,113.1314,183.4736,0.7983706,-0.1736469,0.5369607,11
6.6,-32.5552,1.125027,-39.39925,1.300401141490728,-0.0945734841333495,1.7256784285012028,32.07911,108.7205,183.453,0.7758544,-0.1844558,0.5665146,11
6.62,-32.46152,1.118855,-39.39898,1.217353821053361,-0.1300089142840187,1.7323388795262895,37.39711,105.7097,182.9495,0.7498034,-0.2129513,0.5783525,11
6.64,-32.35736,1.317592,-39.43916,1.1527787456131835,-0.1326205442933933,1.7264991870476534,40.78362,106.3889,182.5777,0.7456115,-0.2255775,0.5676898,11
6.66,-32.32704,1.115644,-39.42565,1.0909859566826818,-0.1338572574278704,1.7129284042126498,41.85968,104.7378,182.3245,0.7351277,-0.2330712,0.5759097,11
6.68,-32.223,1.31556,-39.46307,1.031662825054795,-0.1374373523305646,1.6915205224193643,45.22166,105.3864,181.9424,0.7302101,-0.2454325,0.5646009,11
6.7,-32.11935,1.512435,-39.50123,0.9752282130041996,-0.1404460572273246,1.6625077393591878,48.58563,106.0423,181.5932,0.7246122,-0.2575641,0.5527744,11
6.72,-32.08852,1.113055,-39.45341,0.9281591008959552,-0.1712653235057525,1.6272221239901086,48.07263,101.3537,179.4666,0.7076987,-0.2548219,0.5772718,11
6.74,-31.98482,1.313472,-39.48651,0.8935752447376211,-0.1422062294181585,1.5835994484730307,51.37797,101.8404,178.913,0.7021032,-0.2666228,0.5648764,11
6.76,-31.88146,1.510942,-39.52035,0.8637846283258961,-0.1705663731995279,1.5349393780113632,54.685,102.3102,178.3645,0.6958727,-0.2781819,0.5519776,11
6.78,-31.78033,1.103766,-39.50959,0.8335920659514038,-0.2000090655841296,1.479824042948464,56.52665,98.04137,176.152,0.6749932,-0.2880313,0.5652764,11
6.8,-31.67797,1.299713,-39.54079,0.8142538642842765,-0.1438662856579352,1.417070740776449,59.78006,98.18806,175.2579,0.6681926,-0.2989331,0.5516503,11
6.82,-31.57619,1.492822,-39.57264,0.7987571561325724,-0.1698710106592756,1.3526282919627055,63.03319,98.23968,174.2858,0.6608022,-0.3095728,0.5375419,11
6.84,-31.33178,1.118203,-39.57957,0.7883247882241462,-0.1374021951026763,1.282204781879008,61.79954,86.71355,167.1565,0.6271626,-0.3051586,0.5805469,11
6.86,-31.22493,1.129034,-39.5918,0.7698294566807231,-0.0776701375736777,1.2138451929217773,60.93605,85.11267,166.7003,0.6222547,-0.3034889,0.5909125,11
6.88,-31.12257,1.313121,-39.62069,0.7644179949177166,-0.0905407045275763,1.1466174692927629,63.99466,84.01627,164.4466,0.6156175,-0.3133076,0.5763808,11
6.9,-31.02143,1.494429,-39.65007,0.7579502938929235,-0.0505456358316713,1.0782900603097438,67.02795,82.47689,161.7649,0.6084517,-0.3228584,0.5613626,11
6.92,-30.90347,1.178359,-39.62876,0.760507960567641,-0.0557840174653789,1.007938065658525,52.04082,88.02272,171.2392,0.6466485,-0.2668974,0.6211339,11
6.94,-30.79905,1.35632,-39.65589,0.7628019897992058,-0.0348005174877401,0.9358455251651748,55.15409,87.92355,169.998,0.642018,-0.2783193,0.6075827,11
6.96,-30.69621,1.531432,-39.68353,0.7600548244487304,0.0068061752203671,0.867595124168469,58.26429,87.68713,168.64,0.6368457,-0.289506,0.5935283,11
6.98,-30.59511,1.70378,-39.71159,0.7467614862628436,-7.12562692141705e-05,0.8013091709015816,61.36935,87.27473,167.1242,0.6311396,-0.3004522,0.5789814,11
7.0,-30.45189,1.250886,-39.69471,0.7324028085332044,-0.0101664055328538,0.7349587240350495,26.08057,95.23911,176.0119,0.7244925,-0.1269575,0.6504706,11
7.02,-30.40304,1.257946,-39.69405,0.7255717045204575,0.0011808865635737,0.6734931365853916,19.9149,96.20351,176.569,0.7362482,-0.09347695,0.6536025,11
7.04,-30.28564,1.426841,-39.7221,0.7257847909347324,0.0351787015363927,0.6087925128965388,23.37534,97.02702,176.3735,0.7374592,-0.1109162,0.643582,11
7.06,-30.18114,1.272125,-39.70805,0.7164758323404143,0.0200874288454437,0.5510556506894302,2.316092,99.59221,177.9465,0.7637075,0.0006390298,0.6449977,11
7.08,-30.06022,1.438763,-39.73557,0.7152494215782514,0.0496675368562457,0.4946956023488251,5.857834,100.4911,178.0155,0.7682385,-0.01937599,0.6378878,11
7.1,-30.00834,1.279181,-39.71837,0.7038816900021132,0.0311281759527074,0.4478610448211002,354.421,101.054,178.4378,0.7705166,0.04144575,0.6354144,11
7.12,-29.9462,1.284955,-39.71306,0.7041727336695431,0.0587764943539378,0.3969837971876888,353.3291,100.8495,178.7991,0.7690524,0.04512893,0.6364468,11
7.14,-29.82148,1.44784,-39.73616,0.7001240438205674,0.0602734363096977,0.3580194113144967,356.928,101.7143,179.1104,0.7751414,0.022939,0.6311714,11
7.16,-29.70673,1.295904,-39.71841,0.6951258001355218,0.0600229700294897,0.3268558440725755,353.474,100.8119,179.538,0.7691778,0.03937821,0.6364823,11
7.18,-29.6603,1.28298,-39.71401,0.6800081810063427,0.0547467987515961,0.3003163577424645,353.7455,100.8156,179.7778,0.7693838,0.03626023,0.6364504,11
7.2,-29.53814,1.445381,-39.73493,0.6638420212721683,0.0486798397141735,0.2829101633822963,357.2616,101.6756,180.1423,0.775158,0.01412758,0.6313145,11
7.22,-29.4734,1.254614,-39.71585,0.6498555032599715,0.0384504358486005,0.265908953838136,357.4365,100.8846,181.1627,0.7708957,0.006424283,0.636488,11
7.24,-29.35192,1.418969,-39.73671,0.6386935226986918,0.0559594860968589,0.2482941024043894,0.9836723,101.7665,181.5171,0.7756938,-0.01568636,0.6309125,11
7.26,-29.32199,1.245697,-39.71705,0.6112059372753738,0.0237751405349453,0.2452336704331719,1.443373,101.4126,181.6207,0.7736585,-0.01892035,0.6333199,11
7.28,-29.19784,1.410333,-39.73843,0.5933153495301031,0.0414022290290616,0.2352779090089285,5.082981,102.3194,182.003,0.7775263,-0.04140585,0.6270427,11
7.3,-29.20693,1.237649,-39.7112,0.5751201353770514,0.0569618798256665,0.2350084568781305,6.187851,101.3824,182.6076,0.7716373,-0.05176306,0.6333627,11
7.32,-29.08327,1.404646,-39.73221,0.5362952249019504,0.0456004402265367,0.2340467981765535,9.823292,102.3181,182.9841,0.7743687,-0.07388534,0.626382,11
7.34,-29.06941,1.217326,-39.69276,0.4893983267598281,0.0341124089562476,0.2352715083117793,11.90374,101.0593,183.3695,0.7655223,-0.08846033,0.6343325,11
7.36,-28.94775,1.389703,-39.71263,0.4484331083076531,0.0498189273522331,0.2349414838758434,15.50658,102.0238,183.7198,0.7670104,-0.1098305,0.6264825,11
7.38,-28.97085,1.199595,-39.68512,0.3877684758820607,0.0128353911345341,0.2495104901768083,14.76542,101.2041,183.6799,0.7633365,-0.1061209,0.6323047,11
7.4,-28.85103,1.376143,-39.70437,0.3286281920649823,-0.0233012855542673,0.2737170770262693,18.33902,102.1822,184.0249,0.7642131,-0.1270038,0.6240302,11
7.42,-28.89419,1.183112,-39.67212,0.2726383517902295,-0.0372941374379704,0.2808940877027668,17.40997,100.4289,183.9335,0.7558217,-0.1228614,0.6361634,11
7.44,-28.77583,1.363728,-39.69,0.2300223189133738,-0.0216170375749292,0.2815682650576976,20.96251,101.4067,184.2373,0.7561854,-0.1432659,0.6275467,11
7.46,-28.78737,1.160679,-39.65106,0.1711006354828632,-0.0605948906143735,0.2949944611895967,21.58994,97.88744,184.1212,0.7358185,-0.1495698,0.6498383,11
7.48,-28.67062,1.347373,-39.66629,0.1266408188558334,-0.041870403745355,0.2918491606515179,25.12312,98.83104,184.2912,0.7354518,-0.1691442,0.6407346,11
7.5,-28.70313,1.145367,-39.63917,0.0646199394406568,-0.0786158642708488,0.3003868048214562,24.61567,96.35609,184.0759,0.7225776,-0.1679436,0.6567293,11
7.52,-28.5879,1.336077,-39.65282,0.0228663488902469,-0.0573415129636456,0.2952605857460622,28.12174,97.26678,184.1574,0.7217072,-0.1868623,0.6472656,11
7.54,-28.57035,1.128638,-39.61955,-0.0204629757612324,-0.0618508786632076,0.2894458209457857,30.0692,93.18731,183.7303,0.6954568,-0.2009948,0.6694281,11
7.56,-28.45726,1.324204,-39.63072,-0.060073550182504,-0.0642967885311791,0.2885540010384737,33.52143,94.00473,183.6255,0.6937395,-0.2187174,0.6593416,11
7.58,-28.44956,1.121731,-39.61284,-0.0951221547003036,-0.0652358540825073,0.2795814932794114,34.73161,91.74048,183.2752,0.6788294,-0.2273132,0.670399,11
7.6,-28.33787,1.319467,-39.62366,-0.1259135673652909,-0.0642616606037655,0.2746537720664204,38.14352,92.47348,183.043,0.6763206,-0.244052,0.6597494,11
7.62,-28.33892,1.117114,-39.61209,-0.1515834713060115,-0.0617225127712212,0.2611378016801096,39.62774,91.00629,182.6886,0.6653032,-0.2532488,0.6648685,11
7.64,-28.24099,1.114981,-39.61248,-0.1709209944358156,-0.0269060009087263,0.2438479696129558,43.27594,90.58209,181.7521,0.6565657,-0.2694809,0.6578618,11
7.66,-28.13141,1.315079,-39.62195,-0.1896312329639951,-0.0490598932539871,0.2316289204664379,46.62732,91.21308,181.4163,0.652739,-0.2849586,0.6459085,11
7.68,-28.02202,1.512168,-39.63219,-0.193069771278143,-0.0111929630715329,0.2140104561642992,49.98018,91.8555,181.115,0.6483114,-0.300172,0.6333704,11
7.7,-28.0081,1.112861,-39.61485,-0.1975180810434698,-0.0309805720722956,0.2003417926103115,48.08444,89.70361,179.5636,0.6451849,-0.2863716,0.6463314,11
7.72,-27.85044,1.107095,-39.61793,-0.1837052120352691,-0.0795142680461191,0.1897190555793377,53.31509,88.32345,177.6998,0.628966,-0.3092937,0.6347191,11
7.74,-27.74351,1.305317,-39.62761,-0.1559627313337488,-0.0410235387333262,0.1687273895937995,56.58883,88.66193,177.0571,0.6238154,-0.3231489,0.6211387,11
7.76,-27.60553,1.102171,-39.62902,-0.1249680856099249,-0.0040691030270462,0.1490499955265676,59.67963,86.19364,174.0735,0.6106405,-0.3322073,0.6149688,11
7.78,-27.50008,1.295713,-39.64115,-0.0835239226328132,-0.0506208876743875,0.1341306532211295,62.90376,86.0707,172.9497,0.6045321,-0.3448695,0.6004686,11
7.8,-27.39522,1.486474,-39.65396,-0.0416689156015657,-0.0349338802243553,0.1161836235095972,66.12479,85.77505,171.6675,0.5978959,-0.3572273,0.5854551,11
7.82,-27.25636,1.118051,-39.64275,0.0025195118076983,-0.0195775405355597,0.0997089023652666,61.80855,78.45551,167.2707,0.5833805,-0.3352533,0.624557,11
7.84,-27.15125,1.304283,-39.65549,0.0627169961477527,-0.05245751602597,0.0875874160875644,64.90588,77.42854,165.1598,0.577417,-0.347037,0.6095651,11
7.86,-27.04716,1.487758,-39.66888,0.1028312474358217,-0.0047849190118427,0.073762305992342,67.98129,75.96289,162.6241,0.5709586,-0.3585235,0.5940596,11
7.88,-26.83782,1.178287,-39.65302,0.1417641669984672,0.0669564264248159,0.0590768063172983,52.05172,80.56454,171.2423,0.6048517,-0.2893925,0.6618493,11
7.9,-26.73063,1.356185,-39.66598,0.1792989887273388,0.0677059382977613,0.0475224110148335,55.17241,80.42358,170.0019,0.6008574,-0.3024314,0.6482195,11
7.92,-26.54213,1.228405,-39.67943,0.2226361619649375,0.0447929332051341,0.0379195266829697,37.82438,86.31425,174.7365,0.6572507,-0.2064772,0.6791933,11
7.94,-26.44384,1.239394,-39.69051,0.2639941498482274,0.0917803814645228,0.0229383303909065,32.01189,88.20432,175.3547,0.6764357,-0.1707332,0.6819177,11
7.96,-26.32346,1.408932,-39.70683,0.3045533322655909,0.1353585681524099,0.00966516926551,35.51395,88.82516,174.9328,0.6754587,-0.1881785,0.6701884,11
7.98,-26.26497,1.256956,-39.70747,0.3324886177987083,0.1049619168367932,0.0023211595933352,20.03945,91.58664,176.5997,0.7091848,-0.1003158,0.6826118,11
8.0,-26.14219,1.424682,-39.72472,0.3606532061021652,0.0704909686854388,-0.0028438012203402,23.60561,92.37924,176.4354,0.71044,-0.1195623,0.6727189,11
8.02,-26.01972,1.271802,-39.71944,0.3819756393163507,0.122229207500756,-0.012295159263016,2.356991,95.74477,177.9693,0.7416238,-0.0006545028,0.6702667,11
8.04,-25.89621,1.438073,-39.73774,0.4090640820269731,0.126462188765758,-0.0179414429091036,5.92795,96.60326,178.0592,0.7461338,-0.02176327,0.6635701,11
8.06,-25.82523,1.279054,-39.72892,0.4286226146934657,0.1066135223742744,-0.0191083891297401,354.4455,97.72734,178.4525,0.7517628,0.04203065,0.6575132,11
8.08,-25.70101,1.443559,-39.74724,0.4469922429183914,0.131715900202008,-0.0237650603936234,358.0221,98.56282,178.6778,0.7576296,0.02000212,0.6523548,11
8.1,-25.63894,1.291243,-39.73354,0.4608554907508928,0.1529775297915785,-0.0257903725764947,352.2283,98.34296,179.1074,0.7545623,0.05018603,0.652674,11
8.12,-25.51286,1.452923,-39.75011,0.4607762449622044,0.1478893357922822,-0.0252540231105733,355.8277,99.15649,179.4443,0.7606643,0.02729237,0.6481061,11
8.14,-25.42238,1.282632,-39.7304,0.4656814168043324,0.165128307033782,-0.0268374952784702,353.7777,98.56541,179.7944,0.7567557,0.03676156,0.6514385,11
8.16,-25.29835,1.444595,-39.74569,0.4657210975285304,0.1791660441598642,-0.0263219697110734,357.3266,99.38287,180.174,0.7623863,0.01393357,0.6467001,11
8.18,-25.28924,1.261976,-39.73075,0.4440155220594954,0.1622990060282949,-0.0225536322833752,355.7603,98.92152,180.5996,0.7595564,0.02006832,0.649368,11
8.2,-25.16676,1.4257,-39.74684,0.4181976053163567,0.1471935179809174,-0.0180775324746349,359.304,99.75107,180.9628,0.7646382,-0.002510189,0.6443766,11
8.22,-25.09513,1.245911,-39.72595,0.3890843104916981,0.1316242878997127,-0.0119535697071384,1.417338,99.26272,181.6145,0.7616462,-0.01874354,0.647722,11
8.24,-24.97103,1.410798,-39.74237,0.3513121249350566,0.117248046334951,-0.0038424684771252,5.036184,100.1273,181.9881,0.7654131,-0.04148817,0.6418045,11
8.26,-24.95837,1.237636,-39.72229,0.3102390893047735,0.1030314523454556,0.0058433164920526,6.186706,99.59045,182.6119,0.7616374,-0.05220627,0.6453527,11
8.28,-24.83413,1.404619,-39.73893,0.2786552393149617,0.1362030532291298,0.0112196793710381,9.822778,100.485,182.9904,0.7642461,-0.07472117,0.6386917,11
8.3,-24.71232,1.567776,-39.75628,0.2135414198233425,0.0924606905862409,0.0259793786419271,13.45138,101.4151,183.432,0.7660323,-0.09714974,0.6313527,11
8.32,-24.79948,1.217291,-39.70604,0.1493364050899877,0.0732103108366721,0.0382716524152799,11.90584,99.61962,183.3743,0.7574874,-0.08926863,0.6439013,11
8.34,-24.74386,1.199583,-39.69011,0.0831823099546005,0.0552909152420562,0.0520274214816236,14.76988,99.2745,183.6759,0.7525805,-0.1074351,0.6450634,11
8.36,-24.62326,1.376068,-39.70524,0.0123797159887084,0.0355452984473687,0.0648262396272763,18.35281,100.2095,184.0146,0.7533524,-0.1287513,0.6370744,11
8.38,-24.64591,1.183074,-39.67974,-0.0594714357169978,0.0175323097698589,0.0788777652823915,17.41675,98.84152,183.9362,0.7469261,-0.1242138,0.6465699,11
8.4,-24.52689,1.363629,-39.6941,-0.1114407437271931,0.0520591595422149,0.0872473172576162,20.97794,99.77837,184.2403,0.7471662,-0.1450273,0.6382195,11
8.42,-24.51784,1.16063,-39.66041,-0.194922420564219,0.0046506423055673,0.1040093364063938,21.59833,96.63027,184.1302,0.7286212,-0.1509593,0.6578735,11
8.44,-24.40059,1.347266,-39.67272,-0.2623149507938453,-0.0151566897697303,0.1179052568379681,25.13976,97.53549,184.3069,0.7281103,-0.170923,0.6490107,11
8.46,-24.4124,1.145317,-39.64967,-0.3280823422103411,-0.0324421197404847,0.1327822488204004,24.62343,95.37346,184.0902,0.716886,-0.169234,0.66291,11
8.48,-24.29675,1.335963,-39.66087,-0.3906870935478364,-0.0487602093735485,0.1440680538715408,28.13789,96.24875,184.1844,0.7158552,-0.1885257,0.6536693,11
8.5,-24.32227,1.132672,-39.63575,-0.4505406991254483,-0.0627574748339614,0.1558080171311502,28.02838,93.38979,183.974,0.6998684,-0.1904759,0.6711785,11
8.52,-24.20874,1.326891,-39.64553,-0.4936520342452462,-0.0761433514570327,0.1656145620346496,31.49045,94.20671,183.9441,0.6983209,-0.2088631,0.6615903,11
8.54,-24.17045,1.121737,-39.61917,-0.5389200204956635,-0.1154638005493423,0.175969565553256,34.73338,90.55801,183.274,0.6718743,-0.2293183,0.6773631,11
8.56,-24.0585,1.31947,-39.62773,-0.5662715934599438,-0.0942805290811339,0.1793722853226595,38.15062,91.2476,183.0376,0.6692204,-0.2463844,0.6669234,11
8.58,-24.03921,1.117106,-39.61837,-0.5896672339948794,-0.0733763202136447,0.1821667546610763,39.62685,90.09156,182.6934,0.6599662,-0.2550692,0.6701693,11
8.6,-23.92858,1.316306,-39.6272,-0.6098995036524482,-0.0804259544460579,0.1830592531056547,43.00827,90.7088,182.3736,0.6564654,-0.27125,0.6590658,11
8.62,-23.92114,1.11497,-39.6192,-0.6250177387769713,-0.0856595334578726,0.1834218301971946,43.27133,89.91451,181.7601,0.6527138,-0.2709643,0.6617032,11
8.64,-23.81157,1.315061,-39.62728,-0.6185339233480152,-0.0329244270517425,0.1799493581641442,46.62307,90.50607,181.4273,0.6487245,-0.2866875,0.6499598,11
8.66,-23.72928,1.112894,-39.61592,-0.6052077771983306,-0.0373081967822269,0.1774428902129523,48.07347,88.45729,179.555,0.6381661,-0.2893957,0.6533168,11
8.68,-23.6208,1.313154,-39.6232,-0.5875934912123508,-0.0688383885221328,0.1748322119549161,51.38769,88.92737,179.0899,0.6336361,-0.3044081,0.6406949,11
8.7,-23.55132,1.107094,-39.61777,-0.5653093453220577,-0.100628133201912,0.1714343661738127,53.31267,87.35236,177.7027,0.6235631,-0.3120417,0.6400414,11
8.72,-23.34582,1.102183,-39.62129,-0.5060377542566017,-0.1012916607768277,0.1651338072201458,59.6813,84.6787,174.0591,0.6024951,-0.3370337,0.622936,11
8.74,-23.23995,1.295732,-39.63087,-0.4504138452066648,-0.0711651355029421,0.1567994569375734,62.91229,84.49126,172.908,0.5963027,-0.3500956,0.6085709,11
8.76,-23.13464,1.48649,-39.64112,-0.3916684426824108,-0.0427874530745032,0.1474424712675501,66.13927,84.11913,171.586,0.5895913,-0.3628485,0.593686,11
8.78,-22.97671,1.117997,-39.63026,-0.334877466611664,0.0403785843173581,0.1359087876307798,61.81486,77.24395,167.2746,0.5767196,-0.3394851,0.6306783,11
8.8,-22.88696,1.12886,-39.62842,-0.2671369915361774,0.0218521990688951,0.1287165646963375,60.95209,75.70743,166.7853,0.5714326,-0.3369441,0.6401617,11
8.82,-22.7814,1.312856,-39.63836,-0.1972382957842668,0.0014699569040722,0.1211549176121158,64.02345,74.60613,164.6206,0.5656778,-0.3491048,0.6254345,11
8.84,-22.57777,1.178195,-39.63101,-0.1198435440304037,0.016187151810315,0.1113500099369044,52.06993,79.37329,171.2338,0.5979245,-0.2929304,0.6680164,11
8.86,-22.47031,1.356071,-39.64149,-0.0423587155933034,0.0076287209243929,0.1010531952754414,55.19403,79.18732,169.9879,0.5938227,-0.3063237,0.6545442,11
8.88,-22.36432,1.531091,-39.65262,0.037810414969114,-0.0037327860144212,0.0905199077947331,58.31386,78.85555,168.6149,0.5892229,-0.3194589,0.6405323,11
8.9,-22.26234,1.228399,-39.65455,0.1041811665502443,0.052460851567498,0.0754845733075733,37.82202,85.38218,174.7638,0.6516587,-0.2086703,0.6845822,11
8.92,-22.10895,1.25041,-39.66719,0.157567337548822,0.0375495309951203,0.0626097495602131,26.13738,88.53429,176.0349,0.6851209,-0.1383034,0.6916683,11
8.94,-21.98798,1.419207,-39.68044,0.2000134833626967,0.0655038015221164,0.0496307549160199,29.64217,89.22016,175.7601,0.6851848,-0.1568671,0.6811007,11
8.96,-21.86921,1.584373,-39.69441,0.2404488352930958,0.0700152025765572,0.0395295783220701,33.15063,89.91115,175.5247,0.6845635,-0.1752821,0.6698617,11
8.98,-21.83293,1.268059,-39.68153,0.2787868635562107,0.0735430233769134,0.0299267967989358,8.110738,93.32352,177.5866,0.7263552,-0.03324635,0.6833507,11
9.0,-21.7098,1.434967,-39.69653,0.3130967200129895,0.0754722969153463,0.0222962250610212,11.66796,94.13858,177.6041,0.7296741,-0.05398915,0.6758818,11
9.02,-21.58904,1.598122,-39.71223,0.3450246072620238,0.0762454158891504,0.0155577071201209,15.22364,94.96609,177.6741,0.732249,-0.07467189,0.6677338,11
9.04,-21.47382,1.285328,-39.68781,0.3754095049750772,0.0766481754112488,0.0106142390439858,353.307,96.67764,178.7378,0.7453421,0.04701526,0.664031,11
9.06,-21.38069,1.291227,-39.68756,0.4021813243614511,0.0754035224479504,0.0071435413174834,352.2307,96.99231,179.1076,0.7468184,0.05071202,0.661523,11
9.08,-21.2543,1.45291,-39.70075,0.4184460416384334,0.0713620254370282,0.0047896662954576,355.8305,97.76627,179.4426,0.7527461,0.02758386,0.6572876,11
9.1,-21.13064,1.61067,-39.71471,0.430729197138413,0.0660947567912589,0.0040841391464887,359.4243,98.55842,179.8252,0.7578824,0.00443332,0.6523705,11
9.12,-21.14285,1.28266,-39.68427,0.4390981553934452,0.0544842647026429,0.003976464187148,353.7763,97.48503,179.7981,0.7505811,0.0371203,0.6585426,11
9.14,-21.0186,1.44462,-39.69669,0.4428342271730798,0.0425131541135721,0.0051868950531446,357.3249,98.26183,180.1792,0.7560236,0.01409163,0.6541262,11
9.16,-20.89703,1.602793,-39.70987,0.4333206039089758,0.0294525175530569,0.0062878115411777,0.8669516,99.06065,180.6078,0.7606912,-0.008945123,0.6490484,11
9.18,-20.90119,1.250363,-39.67379,0.4196858012510738,0.0161773130194681,0.0083966197949125,359.4102,97.68881,181.395,0.7529008,-0.005778594,0.6580015,11
9.2,-20.85702,1.245719,-39.66664,0.4181634651225421,0.0510030343980022,0.0071307227883092,1.432923,97.62107,181.6197,0.7522858,-0.01886922,0.6585671,11
9.22,-20.73183,1.41036,-39.67906,0.3847916059491556,0.011542419547253,0.0143179140945228,5.073043,98.44564,181.9967,0.755895,-0.04208148,0.6529642,11
9.24,-20.70105,1.231996,-39.64874,0.3470962133373394,-0.00330225598255,0.0211353591171805,8.260431,97.53206,182.8963,0.748632,-0.06641387,0.6585826,11
9.26,-20.57694,1.400614,-39.66078,0.3060265772475183,-0.0171369547865262,0.0290198460238855,11.88874,98.3968,183.2572,0.7506791,-0.08904319,0.6518937,11
9.28,-20.45511,1.565439,-39.67355,0.2773742371419936,0.0173045702911688,0.0326620688983885,15.51012,99.29784,183.6804,0.7519264,-0.1115719,0.6445193,11
9.3,-20.53907,1.208633,-39.63264,0.2148480462019031,-0.0266930053944422,0.044392432397327,13.44805,97.98055,183.5653,0.7466551,-0.1001067,0.6541068,11
9.32,-20.52884,1.19969,-39.62291,0.1498282435363003,-0.0696734917069245,0.0574722969228886,14.75495,97.57309,183.6684,0.7429427,-0.1084375,0.6561689,11
9.34,-20.4084,1.376307,-39.63441,0.1128233885676435,-0.0380775108067205,0.061939263893687,18.32441,98.46492,183.9966,0.7436221,-0.1299848,0.6484736,11
9.36,-20.41915,1.175652,-39.60098,0.0573713413640168,-0.0592294640088942,0.0710651699166264,18.7483,96.3223,184.0763,0.7307456,-0.134722,0.6620296,11
9.38,-20.30033,1.358189,-39.61052,-0.0108664261591657,-0.1056359956672027,0.0832432686516941,22.30555,97.21358,184.3458,0.7306437,-0.1557118,0.653771,11
9.4,-20.18283,1.537228,-39.62076,-0.0581615408791065,-0.0955959878400334,0.0902591909749466,25.8573,98.14764,184.6841,0.729796,-0.1765379,0.644854,11
9.42,-20.2821,1.152997,-39.58008,-0.1191921507933446,-0.1413439005239364,0.1031154106345928,23.07145,94.09068,184.0733,0.7118133,-0.1616686,0.6724349,11
9.44,-20.22672,1.138988,-39.56323,-0.1633101799577749,-0.1281042731060266,0.1096880784667622,26.3068,92.06067,183.9922,0.6948974,-0.1823038,0.681357,11
9.46,-20.11201,1.331466,-39.56949,-0.2063851996242265,-0.114677874698052,0.1165683310265697,29.79235,92.8605,184.0055,0.693567,-0.2015426,0.6721765,11
9.48,-20.12051,1.128674,-39.54942,-0.2503785218576921,-0.1290300541478658,0.1234949108918783,30.03959,90.31927,183.7372,0.678527,-0.2049711,0.6866737,11
9.5,-20.00751,1.324253,-39.55473,-0.3024084492936161,-0.1692929883796114,0.1318453952835403,33.48286,91.05582,183.6319,0.6766078,-0.2233522,0.6770449,11
9.52,-19.95037,1.118674,-39.53338,-0.330720366721813,-0.1495305896954235,0.1349238641812631,37.40001,88.13782,183.0316,0.6524825,-0.2477081,0.6862349,11
9.54,-19.87924,1.117146,-39.5349,-0.3612830926117989,-0.1859836729534948,0.1394159918634541,39.60762,88.32656,182.6785,0.6496419,-0.2582949,0.680264,11
9.56,-19.76892,1.316411,-39.54076,-0.3772065321859148,-0.1618133145127375,0.1384704389986861,42.97561,88.89131,182.3379,0.6460928,-0.2747472,0.6693892,11
9.58,-19.65881,1.512642,-39.54732,-0.3893324075375877,-0.1378059570950985,0.1370690778459886,46.34498,89.46018,182.0251,0.6419498,-0.2909444,0.6579077,11
9.6,-19.66315,1.114451,-39.53339,-0.3978567953847318,-0.141641265211861,0.1354581103529142,44.68631,88.44024,181.1466,0.642299,-0.2788835,0.6654809,11
9.62,-19.55378,1.314801,-39.53836,-0.4089457363747864,-0.1723164004866699,0.1343253694374322,48.03093,88.9864,180.8137,0.6380807,-0.294853,0.6535933,11
9.64,-19.44453,1.512171,-39.54402,-0.4000431625080691,-0.1428881806515504,0.1304175763165673,51.37661,89.5397,180.5081,0.6332846,-0.3105533,0.6411222,11
9.66,-19.33881,1.107099,-39.52813,-0.3745647808606553,-0.1709766869322182,0.1280043858256689,53.32517,86.04847,177.6999,0.6162157,-0.3157505,0.6470503,11
9.68,-19.23712,1.103747,-39.5286,-0.3410285623044782,-0.1395750167537767,0.122135389445745,56.50434,85.02499,176.188,0.6065264,-0.328932,0.6383201,11
9.7,-19.13078,1.2997,-39.53544,-0.3035300508885636,-0.1093395234443101,0.115504189204076,59.75623,85.06308,175.31,0.6006768,-0.3428039,0.6246474,11
9.72,-18.89471,1.109091,-39.52914,-0.2411939523443691,-0.1002204039081405,0.1092834963180884,62.64888,77.16263,167.8832,0.5726411,-0.3479107,0.62983,11
9.74,-18.7893,1.297629,-39.53702,-0.1906304236899876,-0.0609259818617088,0.1015757932233629,65.77482,76.06916,165.8006,0.5662872,-0.3604526,0.6149901,11
9.76,-18.68472,1.483417,-39.54552,-0.1381972437643495,-0.0231298311729663,0.0933320550860203,68.87823,74.50967,163.2643,0.5594504,-0.372686,0.5996327,11
9.78,-18.58113,1.666505,-39.55462,-0.0793758707647114,-0.0598791900323255,0.0880833060534937,71.94689,72.254,160.0424,0.5521362,-0.3846005,0.5837716,11
9.8,-18.41693,1.1617,-39.52972,-0.0269155424931917,-0.0164714628803982,0.0793994508032849,55.77092,75.62409,168.8101,0.5753288,-0.314908,0.6670097,11
9.82,-18.31005,1.341301,-39.53822,0.0284506500369727,0.0514731547681193,0.0685563716353163,58.85381,74.9698,167.1073,0.5704588,-0.3278897,0.6531992,11
9.84,-18.12738,1.211759,-39.53593,0.0940670214970478,0.0505492780000879,0.0581867298738725,43.07538,82.51322,173.9793,0.6270359,-0.2433886,0.6855945,11
9.86,-18.0243,1.227281,-39.54597,0.1417039125419539,0.0721193186420732,0.0453261853956998,37.98055,84.11272,174.6992,0.6438984,-0.2120626,0.691245,11
9.88,-17.90227,1.397144,-39.55642,0.1897041860130215,0.0927620827185966,0.0321659270511638,41.52412,84.50003,174.09,0.6413952,-0.2296385,0.6789412,11
9.9,-17.78239,1.563342,-39.5676,0.2375427491383144,0.1094047233390262,0.0189213201804276,45.0703,84.85689,173.4787,0.6382357,-0.2469827,0.6659504,11
9.92,-17.75598,1.256618,-39.56205,0.270746630919968,0.122717604512924,0.0082052277259547,20.10407,89.17023,176.5928,0.6945829,-0.1037069,0.6973233,11
9.94,-17.63152,1.423972,-39.57362,0.297406776089236,0.1576578390846402,-0.0022907290656437,23.70646,89.88003,176.4187,0.69551,-0.1237228,0.6878813,11
9.96,-17.53127,1.271706,-39.56324,0.3211788977331458,0.1900727572754875,-0.0123261492267241,2.388017,93.13709,177.9623,0.7261796,-0.001413233,0.6869593,11
9.98,-17.40684,1.437885,-39.57545,0.3378911326345135,0.1503703986901143,-0.015688237291588,5.969645,93.91607,178.0414,0.7303633,-0.0230614,0.680858,11
10.0,-17.35757,1.279034,-39.5625,0.3565320995295729,0.1570664068688882,-0.0197987879811814,354.457,94.89917,178.4446,0.7353094,0.04268207,0.6758691,11
10.02,-17.23263,1.443531,-39.57424,0.3724395266514866,0.1623865692963242,-0.0225741820254556,358.0373,95.65688,178.6576,0.7408438,0.0201781,0.671357,11
10.04,-17.09772,1.293669,-39.55764,0.3800845455793953,0.1171324044737874,-0.0196039047007303,352.836,95.55159,179.303,0.7388051,0.04648107,0.6709896,11
10.06,-16.97141,1.454902,-39.5672,0.3849349889332711,0.1396680060065273,-0.0207844122431914,356.4225,96.29015,179.6401,0.7444047,0.02316572,0.6669914,11
10.08,-16.94514,1.282829,-39.55241,0.3893745865194988,0.1829822583912193,-0.0227048287280258,353.7648,96.0131,179.7915,0.742054,0.03773636,0.668128,11
10.1,-16.82102,1.444926,-39.56143,0.3654280944973607,0.1507388075184328,-0.0191676763263073,357.3035,96.75262,180.1646,0.7473383,0.01455577,0.6640256,11
10.12,-16.75794,1.254598,-39.5458,0.3349875498717782,0.0930956587660934,-0.0111626719423725,357.4297,96.29642,181.1641,0.7447994,0.00739863,0.6668341,11
10.14,-16.63512,1.418878,-39.55563,0.3203128219763727,0.1060965080514773,-0.0083000147457914,0.9834732,97.05856,181.5167,0.7491258,-0.0156,0.66224,11
10.16,-16.60656,1.245704,-39.53891,0.2852142670037683,0.0699866630578404,-0.0006702860390559,1.434938,96.89915,181.6198,0.7481215,-0.01888207,0.6632933,11
10.18,-16.48122,1.410332,-39.54943,0.2465883435890221,0.0334102003001992,0.0082030481818575,5.076863,97.68595,181.9946,0.7515488,-0.04223543,0.65796,11
10.2,-16.35842,1.571104,-39.56069,0.2223252093943855,0.0695773535089531,0.011070473131105,8.712795,98.50209,182.4225,0.7541714,-0.06553973,0.6519311,11
10.22,-16.42905,1.231935,-39.52119,0.1755951046306003,0.0541948418997106,0.0210755664445372,8.265958,96.97693,182.8989,0.7454278,-0.06664385,0.662201,11
10.24,-16.36634,1.21736,-39.5037,0.1261298468540899,0.0404183686213134,0.0320439753928045,11.89797,96.6872,183.3654,0.7407773,-0.09067927,0.6630714,11
10.26,-16.24359,1.389707,-39.51356,0.0871864039660812,0.0762475820680716,0.0376869074758614,15.50613,97.53017,183.7051,0.741875,-0.1129638,0.6560608,11
10.28,-16.12286,1.558344,-39.52413,0.0167446359171974,0.0331792770936576,0.0497818459816912,19.10782,98.41162,184.1075,0.7421952,-0.1351239,0.6483712,11
10.3,-16.21373,1.190892,-39.4861,-0.0556323616340936,-0.0085545795872716,0.0629148506014374,16.0836,96.91879,183.7921,0.7376504,-0.1172422,0.6597345,11
10.32,-16.0936,1.369444,-39.49549,-0.0998922196587372,0.0257769477402188,0.0691593394135301,19.6551,97.78058,184.1231,0.7378783,-0.1388586,0.6520618,11
10.34,-15.97505,1.544432,-39.50558,-0.1538395478581724,0.0057742703451233,0.0801085916774146,23.22026,98.6853,184.5205,0.7373486,-0.1603269,0.6437282,11
10.36,-16.04243,1.16073,-39.45598,-0.2182637429904368,-0.0392414370223012,0.0933119122950234,21.58095,94.17067,184.1177,0.7143751,-0.1532417,0.673363,11
10.38,-16.01207,1.153073,-39.44698,-0.2627497509858829,-0.0261403329084644,0.1006624426079163,23.05765,93.28584,184.0627,0.7071083,-0.1623797,0.6774199,11
10.4,-15.89633,1.341882,-39.45366,-0.3062399540895832,-0.0127587716798115,0.1083086429789501,26.55785,94.08761,184.1691,0.7061424,-0.182327,0.6688956,11
10.42,-15.88047,1.132706,-39.42393,-0.3763209647606411,-0.0840848587145589,0.121730549418582,28.02712,90.57346,183.9639,0.6831824,-0.1941119,0.6881636,11
10.44,-15.76673,1.326952,-39.42836,-0.4122863074399883,-0.0703350905052988,0.128283447997993,31.4917,91.30634,183.9182,0.6813998,-0.213107,0.6790112,11
10.46,-15.65352,1.517987,-39.43347,-0.4469525322006891,-0.0820907974580617,0.1346609446854181,34.95555,92.06467,183.9246,0.6789621,-0.2318936,0.6692146,11
10.48,-15.68764,1.121734,-39.40426,-0.4777281234662813,-0.0913057053851758,0.1407728599888829,34.72282,88.29742,183.2818,0.6583869,-0.2330595,0.6905155,11
10.5,-15.65024,1.118732,-39.39875,-0.5006273865508257,-0.0986527529682911,0.1433194241826507,37.38004,87.44688,183.0125,0.648416,-0.248713,0.69016,11
10.52,-15.53913,1.317344,-39.40273,-0.5185577184189627,-0.1036311962152424,0.1453756226637681,40.77093,87.9987,182.6942,0.6450739,-0.2658119,0.6797974,11
10.54,-15.46957,1.114996,-39.39544,-0.5270134814710146,-0.1062506173235445,0.1451550414965847,43.27142,87.24629,181.7526,0.6371485,-0.2766793,0.6767045,11
10.56,-15.35976,1.315111,-39.39872,-0.5245592394734375,-0.0767640534758384,0.1439082155004261,46.62889,87.74948,181.402,0.6329534,-0.2930641,0.6653027,11
10.58,-15.25009,1.512226,-39.40267,-0.5171295164897258,-0.0473959814316267,0.142273118809725,49.98751,88.25431,181.0734,0.6281832,-0.3091805,0.6533045,11
10.6,-15.23725,1.112882,-39.3869,-0.5129040848089366,-0.1061452890579937,0.1424281680097161,48.06923,86.32079,179.5659,0.6258574,-0.2947243,0.6651387,11
10.62,-15.1798,1.10995,-39.38431,-0.4730827688681145,-0.1056536611116468,0.1405316219872698,50.66011,85.50465,178.7372,0.6169913,-0.3073747,0.6604581,11
10.64,-15.07261,1.309268,-39.38755,-0.4290109890459312,-0.1041661333468769,0.1378230561564137,53.93734,85.80764,178.175,0.6119527,-0.3224851,0.6478424,11
10.66,-14.88491,1.102177,-39.37764,-0.3810641563843941,-0.1050399852951787,0.1344525437767734,59.66505,82.16878,174.0803,0.5886851,-0.3450243,0.6361059,11
10.68,-14.77904,1.295746,-39.38231,-0.321711001194523,-0.1003317758677251,0.1303002227765635,62.89288,81.9094,172.9337,0.5824113,-0.3587937,0.6220085,11
10.7,-14.67368,1.486542,-39.38758,-0.2584004271331381,-0.0651795463672193,0.1246238950067031,66.1162,81.45758,171.6074,0.5756369,-0.3722517,0.6073846,11
10.72,-14.45979,1.128745,-39.37212,-0.192204135887803,-0.031417443086644,0.1183937017418026,60.96227,74.36449,166.8246,0.563754,-0.3417188,0.6469049,11
10.74,-14.35421,1.312708,-39.3786,-0.1254121274465431,-0.0140165737021603,0.1139616468858202,64.03931,73.21934,164.6953,0.5578057,-0.3544871,0.6324301,11
10.76,-14.24971,1.493924,-39.38569,-0.0591729780033527,-0.0193054740656404,0.1101736789970706,67.0914,71.63826,162.143,0.5513898,-0.3669571,0.6174335,11
10.78,-14.11186,1.178139,-39.36983,0.0077332867807407,-0.0261954645781124,0.1062861888774815,52.07299,78.31818,171.2727,0.591642,-0.2961977,0.673595,11
10.8,-14.00441,1.355963,-39.37704,0.0749536640440442,-0.0378373589788618,0.1024661995112738,55.20173,78.08559,170.0629,0.5872839,-0.3101422,0.6604251,11
10.82,-13.89839,1.530945,-39.38488,0.129311287384886,-0.0219103685642276,0.0935140624357826,58.32571,77.7067,168.724,0.5824391,-0.3238282,0.6467162,11
10.84,-13.72255,1.239793,-39.38726,0.1847970773402172,-0.0068697663315328,0.0844589993052249,31.98439,85.52107,175.3848,0.6602757,-0.1758335,0.6976801,11
10.86,-13.63609,1.250309,-39.39332,0.2273736920833338,0.0062824807321237,0.0749206985305672,26.19155,87.1514,176.0309,0.6766671,-0.1407999,0.6997911,11
10.88,-13.51501,1.419124,-39.40301,0.2702842216285765,0.0423364974416184,0.065560418699051,29.69565,87.75983,175.752,0.6763902,-0.1597469,0.6896651,11
10.9,-13.39607,1.584316,-39.41339,0.2988900655653315,0.0302741250421858,0.0589655399079118,33.20325,88.3702,175.5067,0.6754431,-0.1785433,0.678865,11
10.92,-13.38087,1.268057,-39.39713,0.3252340277741985,0.0166507582223515,0.0528967442790673,8.134494,91.56519,177.5769,0.71578,-0.0343366,0.6943962,11
10.94,-13.25747,1.434989,-39.408,0.3639325657319343,0.0243240837216645,0.0486303227768116,11.69191,92.30289,177.5812,0.7187524,-0.05540201,0.687448,11
10.96,-13.1364,1.598177,-39.41957,0.3948597782989691,0.0086544035611857,0.0467135003121521,15.24798,93.05118,177.633,0.7209988,-0.07640633,0.6798145,11
10.98,-13.04309,1.28532,-39.38979,0.4261123801725157,0.0380818741780379,0.0427351007589242,353.3121,94.61415,178.7268,0.7332623,0.04770131,0.6773491,11
11.0,-12.97145,1.291217,-39.38342,0.4532537379976058,0.0642306744092887,0.0399836037359744,352.236,94.67778,179.0971,0.7333033,0.05165813,0.6764772,11
11.02,-12.84476,1.452929,-39.39108,0.4694718622086273,0.0626276476017526,0.0409276247514451,355.8368,95.37836,179.4187,0.7388825,0.02819951,0.6728356,11
11.04,-12.75515,1.28272,-39.37004,0.4817968198043252,0.0603391758648025,0.0431848553288487,353.7762,94.94676,179.7889,0.7358079,0.03804919,0.6750086,11
11.06,-12.63057,1.444691,-39.37652,0.4746260367636867,0.0533046788399995,0.0438847022981319,357.3265,95.65071,180.1572,0.7409209,0.01464608,0.6711857,11
11.08,-12.50861,1.602879,-39.3838,0.4629298400166455,0.0461756473474735,0.0454999509161124,0.8709539,96.37605,180.5687,0.7452808,-0.00876572,0.6666889,11
11.1,-12.54684,1.254566,-39.3623,0.4607073758227495,0.0856041894021359,0.044461017782341,357.433,95.42348,181.1663,0.7396985,0.007543743,0.6724886,11
11.12,-12.43826,1.245726,-39.34852,0.4313539248865545,0.0507214618089889,0.0510945989017281,1.428541,95.53558,181.6097,0.7401787,-0.01877812,0.6721481,11
11.14,-12.31272,1.410356,-39.35606,0.4073994113883561,0.0677641579118362,0.0550595399418405,5.072875,96.28582,181.9731,0.7434631,-0.04233728,0.66709,11
11.16,-12.30214,1.237643,-39.33798,0.3794360821313693,0.0832262760825344,0.0600282466925756,6.174724,95.84638,182.604,0.7401583,-0.05292382,0.6698892,11
11.18,-12.17719,1.404614,-39.34572,0.3340119088459388,0.0722198436003371,0.0666582355052707,9.814439,96.6256,182.9709,0.7423245,-0.07616047,0.6640591,11
11.2,-12.05459,1.567762,-39.35419,0.2854215662308528,0.0625902498299942,0.0743032415821156,13.44773,97.43824,183.3934,0.7437012,-0.09931009,0.657531,11
11.22,-12.14471,1.208758,-39.29908,0.2171399000002485,-0.0005300603163842,0.0873088037031717,13.44084,94.88022,183.5331,0.7287222,-0.1016636,0.6740513,11
11.24,-12.02264,1.383212,-39.30505,0.164869203713009,-0.0148246858383311,0.0954986778019195,17.03858,95.69012,183.8522,0.7293969,-0.1240095,0.6670488,11
11.26,-11.9024,1.554006,-39.31173,0.1196015248605846,0.0006476991500244,0.1004006779962294,20.63044,96.53816,184.2324,0.7293153,-0.1462213,0.6593628,11
11.28,-11.98179,1.183131,-39.27901,0.0522059871343218,-0.036810132669709,0.1091786665889138,17.41177,94.72025,183.926,0.7232114,-0.1273787,0.6730047,11
11.3,-11.86215,1.363678,-39.28456,-0.0165142319749749,-0.0726817494715959,0.1189590492531227,20.97875,95.53861,184.2135,0.7230806,-0.1490433,0.6653942,11
11.32,-11.74394,1.540699,-39.29081,-0.0785140001414279,-0.0840081178594337,0.1256171433892028,24.54033,96.39748,184.5643,0.7222137,-0.1705505,0.6571147,11
11.34,-11.80177,1.153017,-39.24643,-0.1485856470834052,-0.121518924936716,0.1357329016812078,23.07442,91.88756,184.0693,0.6987557,-0.1639879,0.6859877,11
11.36,-11.76172,1.145451,-39.23906,-0.2180234268408307,-0.156949997884102,0.1469821034146115,24.59559,91.17762,184.0719,0.6922089,-0.1737546,0.6887189,11
11.38,-11.64639,1.336211,-39.24209,-0.2770110808889521,-0.1655767351152215,0.1528235162252444,28.09394,91.92837,184.1392,0.6908605,-0.1937903,0.6801839,11
11.4,-11.53179,1.523682,-39.2458,-0.3207824754184841,-0.1424293041242633,0.1566841784193737,31.58957,92.71001,184.2626,0.6888396,-0.2136298,0.6709944,11
11.42,-11.61008,1.12868,-39.21274,-0.3798388897978011,-0.1748527589483297,0.1626758803879457,30.0438,88.33577,183.7344,0.6665376,-0.2077441,0.6983053,11
11.44,-11.49696,1.32426,-39.21419,-0.4239100122441614,-0.1750913107304068,0.1646650030580909,33.49345,88.99474,183.6209,0.6643226,-0.2266277,0.6890702,11
11.46,-11.46167,1.118712,-39.19162,-0.4641926816304752,-0.1729945881512386,0.16649518007919,37.3874,85.87423,183.0236,0.638844,-0.2515873,0.698999,11
11.48,-11.35016,1.317276,-39.19225,-0.5127302362711668,-0.2281301623026012,0.1689251189611615,40.79237,86.39645,182.7144,0.635411,-0.2691854,0.6887449,11
11.5,-11.33798,1.115568,-39.18916,-0.5356652034400828,-0.1956110676461338,0.1663899905197237,41.84489,85.98203,182.3695,0.6313865,-0.2743208,0.6881202,11
11.52,-11.22785,1.315414,-39.19027,-0.555656027765261,-0.1894596243750222,0.1631632252389447,45.21309,86.45483,182.0167,0.6272457,-0.2911739,0.677186,11
11.54,-11.14211,1.113694,-39.17656,-0.5670127806592934,-0.2102098285787658,0.1609574015726247,46.36981,85.19973,180.3869,0.6212273,-0.291901,0.6775466,11
11.56,-11.0333,1.314021,-39.17656,-0.5673784195647347,-0.1707305754564224,0.1568892663182133,49.69825,85.61452,179.9841,0.6166642,-0.3082137,0.6656817,11
11.58,-10.92459,1.511405,-39.17718,-0.563283704496421,-0.1885737449247118,0.1536637844325126,53.02759,86.02108,179.591,0.611552,-0.3242496,0.6532319,11
11.6,-10.87128,1.107105,-39.16397,-0.554778488840669,-0.2065192320776535,0.1501064395489484,53.30335,83.72467,177.7137,0.602984,-0.3221038,0.6595163,11
11.62,-10.6656,1.102171,-39.15625,-0.5270491716770993,-0.1938222618666394,0.1449530661305038,59.67647,81.088,174.0705,0.5826603,-0.3484243,0.6415587,11
11.64,-10.55957,1.295727,-39.15895,-0.4744662482505658,-0.1753029041912938,0.1404779532851003,62.90988,80.78313,172.9121,0.5762939,-0.3625121,0.6275676,11
11.66,-10.45404,1.486506,-39.16225,-0.4177875734442018,-0.1569658311064862,0.1354142915791456,66.13802,80.27754,171.5652,0.5694323,-0.3762829,0.613047,11
11.68,-10.29673,1.117949,-39.14454,-0.3668442026936694,-0.1301356277834679,0.1298625233811874,61.81956,73.60942,167.2726,0.5564263,-0.3517944,0.6486241,11
11.7,-10.19125,1.304208,-39.14785,-0.3129622710110803,-0.1034125894887775,0.1238994270715894,64.91766,72.41085,165.139,0.5502236,-0.3649684,0.6341327,11
11.72,-10.0867,1.487729,-39.15175,-0.258289232519359,-0.1262445735438359,0.1196300798056446,67.99027,70.7478,162.5528,0.543559,-0.3778345,0.6191164,11
11.74,-9.858732,1.17812,-39.12619,-0.2080749138573433,-0.0911530521415504,0.1127418681403433,52.08763,75.94597,171.2235,0.5776745,-0.3027972,0.6855094,11
11.76,-9.760095,1.195395,-39.12238,-0.1559462880307595,-0.0567918134477214,0.105763317629667,48.31613,78.512,173.213,0.5951127,-0.2821654,0.6899428,11
11.78,-9.652163,1.371656,-39.12524,-0.1066360597492437,-0.0708426225263452,0.0982717757856042,51.45982,78.5463,172.3343,0.5914446,-0.2972047,0.6774519,11
11.8,-9.545719,1.54506,-39.12876,-0.059761028928062,-0.0146389669237744,0.0874823370473087,54.60255,78.49951,171.3926,0.5872928,-0.311999,0.6644154,11
11.82,-9.466264,1.239071,-39.13427,-0.0236987485424131,-0.0062255200965106,0.0773778157442288,32.08566,83.5916,175.3735,0.6483161,-0.1800089,0.7084727,11
11.84,-9.3446,1.408364,-39.13894,0.0153784827957843,-0.0224619743244583,0.0688824859142638,35.61043,84.06873,174.9655,0.6468645,-0.1988989,0.6974924,11
11.86,-9.238685,1.263778,-39.13614,0.0453927382475856,0.0269835656892806,0.0599968360700255,13.88105,88.09698,177.1873,0.6920959,-0.06988844,0.7112079,11
11.88,-9.116659,1.431659,-39.14192,0.0692685795438596,0.0517093780192297,0.0532780950925673,17.39549,88.77843,177.1071,0.6939917,-0.09057463,0.703491,11
11.9,-9.075095,1.271922,-39.13129,0.0916825267923645,0.0752777144359668,0.0474449917936601,2.395885,90.80429,177.9615,0.7120453,-0.002013239,0.7015971,11
11.92,-8.951307,1.438402,-39.13778,0.1010307511921806,0.0498658364691889,0.045191226725529,5.95095,91.51148,178.0371,0.7159215,-0.02395847,0.6960389,11
11.94,-8.819102,1.285223,-39.11909,0.1270636228973819,0.0708512529720039,0.0426300208619556,353.3194,92.75329,178.7428,0.7221764,0.04812504,0.689164,11
11.96,-8.72634,1.291172,-39.11375,0.1511043512420448,0.0900017318976799,0.0417346566253362,352.239,93.07763,179.1055,0.7237911,0.05220284,0.6866486,11
11.98,-8.599491,1.452854,-39.11726,0.1586548332176982,0.0579204821964672,0.0444497550912101,355.8411,93.74318,179.4333,0.7292113,0.02841252,0.6833083,11
12.0,-8.475292,1.610618,-39.1216,0.1679738050349153,0.0932845327934184,0.0430419735363498,359.4381,94.42688,179.8019,0.7338736,0.004599488,0.6792663,11
12.02,-8.474649,1.269952,-39.08334,0.1657269400571351,0.0997595818974161,0.0433950459652177,354.0847,92.84451,180.0012,0.7234752,0.03556057,0.6884198,11
12.04,-8.351685,1.43333,-39.08558,0.1605692786599126,0.1056838297191156,0.0449339222972069,357.6088,93.51735,180.3412,0.7283555,0.012126,0.6848753,11
12.06,-8.324104,1.254464,-39.0795,0.1570255630376079,0.1574978517266842,0.0434122098746616,357.4472,93.30959,181.1473,0.7271677,0.008009842,0.6860255,11
12.08,-8.200437,1.418566,-39.08288,0.128209717461041,0.1349978103461901,0.0462543361775162,1.021309,94.00125,181.48,0.7311926,-0.01552314,0.6819907,11
12.1,-8.079233,1.578937,-39.08705,0.0969810973402959,0.1115463781955497,0.0502781745979286,4.590549,94.71509,181.8566,0.7344693,-0.03903481,0.6772663,11
12.12,-8.114852,1.237827,-39.04335,0.066126084311856,0.1114031689574361,0.0555917093780191,6.157107,92.94592,182.5828,0.7229857,-0.05329437,0.6884059,11
12.14,-7.990265,1.405016,-39.04515,0.0358832270735125,0.137729279552506,0.0588585400587664,9.781909,93.68761,182.9264,0.7251095,-0.07685742,0.6828651,11
12.16,-7.867972,1.568417,-39.04775,0.0028724050032875,0.1626030302342557,0.0631548891683078,13.40091,94.46057,183.3226,0.7264716,-0.1003341,0.6766151,11
12.18,-7.936492,1.217526,-39.0189,-0.0449911011360437,0.1587869106725566,0.0679889739474246,11.87407,93.44132,183.3625,0.7217231,-0.09212507,0.6837947,11
12.2,-7.814142,1.390049,-39.02137,-0.0942285919325418,0.1563548128082871,0.0739029225667211,15.46397,94.21185,183.6949,0.7226232,-0.1149296,0.677284,11
12.22,-7.806731,1.191007,-38.99532,-0.1691345877006078,0.0996121377126777,0.0855223837704173,16.06238,93.5658,183.793,0.7180553,-0.1194988,0.6810467,11
12.24,-7.754426,1.18333,-38.98717,-0.2134218752529111,0.1213058408351319,0.0893263675382698,17.36925,93.22563,183.9284,0.7144188,-0.1282845,0.6824111,11
12.26,-7.635978,1.364122,-38.9893,-0.2578862321683519,0.1424735731994609,0.0939878708102455,20.89848,94.00983,184.216,0.7142463,-0.150053,0.6750521,11
12.28,-7.659381,1.168271,-38.96946,-0.3305451079074559,0.0808894528228298,0.1024883847679758,20.12321,92.06343,184.0975,0.7038661,-0.1465491,0.6876411,11
12.3,-7.542089,1.352964,-38.97075,-0.372856182390119,0.1006741369165959,0.106367882369402,23.6441,92.83305,184.3152,0.7031859,-0.1678341,0.6798962,11
12.32,-7.588269,1.153043,-38.95104,-0.435584238348227,0.0644816580741944,0.1138651994911406,23.05367,90.41274,184.0847,0.6898772,-0.1654804,0.6949606,11
12.34,-7.534019,1.139,-38.93222,-0.4961453966628165,0.0300602428886993,0.1227457071878639,26.29284,88.42809,184.0057,0.6729528,-0.1866487,0.7030721,11
12.36,-7.419562,1.331466,-38.93069,-0.528776415875549,0.0784234956046064,0.1254451556021303,29.77507,89.12385,184.0256,0.6712779,-0.2067601,0.6944826,11
12.38,-7.429083,1.128697,-38.91331,-0.5680414241011149,0.0712529280338574,0.1289735538445864,30.02625,86.65614,183.7392,0.6562528,-0.2099574,0.7080318,11
12.4,-7.316313,1.324288,-38.91133,-0.603169091493802,0.0662850057990289,0.1331048933063252,33.46848,87.28233,183.6275,0.6539867,-0.2291839,0.6989712,11
12.42,-7.330483,1.121785,-38.89688,-0.6472573164213886,0.0038671093263421,0.1379768288151286,34.69827,84.99924,183.271,0.6383125,-0.2381674,0.7092024,11
12.44,-7.240679,1.117152,-38.88738,-0.6586828200511543,0.0285302678180906,0.1381200318847293,39.60569,84.14442,182.6819,0.6243839,-0.2661647,0.7035255,11
12.46,-7.130215,1.316409,-38.88519,-0.6649941391328182,0.0529739325157997,0.1384106249074665,42.98375,84.59841,182.3351,0.6205567,-0.283685,0.6930943,11
12.48,-7.102253,1.114975,-38.87915,-0.6681337869925467,0.049838477793858,0.1362091868881378,43.25952,84.31558,181.7645,0.6196327,-0.2828231,0.6928288,11
12.5,-6.992854,1.315092,-38.87667,-0.6655796984026595,0.0483896449037155,0.1340399588288887,46.61011,84.75272,181.4186,0.6153419,-0.299903,0.6817105,11
12.52,-6.973775,1.113693,-38.86781,-0.6381810470298275,0.0476640009229842,0.133006346901122,46.35968,83.71248,180.3877,0.612403,-0.2952492,0.6855798,11
12.54,-6.843283,1.109966,-38.85667,-0.603452040691174,0.0197225036893073,0.1324359060763908,50.65503,82.44837,178.742,0.5991579,-0.3151995,0.6767036,11
12.56,-6.735962,1.309285,-38.85419,-0.5603514046138709,0.0512503073548845,0.1294193091568063,53.94145,82.67763,178.1731,0.5940262,-0.3310938,0.6642962,11
12.58,-6.631885,1.103715,-38.84385,-0.5090529845091625,0.0267030364370426,0.1275627291527179,56.49049,81.06577,176.2226,0.5840463,-0.340619,0.6590358,11
12.6,-6.525796,1.299661,-38.84277,-0.4537232790372119,0.0010644695249553,0.125232793989019,59.73908,81.01736,175.3672,0.5781205,-0.3555776,0.6456957,11
12.62,-6.41504,1.104445,-38.83056,-0.3859299946545216,0.0090786936201227,0.1224466684319018,61.20225,76.61967,171.2515,0.5624912,-0.3575828,0.6493545,11
12.64,-6.220248,1.117944,-38.81521,-0.3171107132975055,0.0246829824899018,0.1203048860068634,61.81769,71.53924,167.2758,0.5446119,-0.3586407,0.658588,11
12.66,-6.114933,1.304233,-38.8146,-0.2459698487827409,0.0399276058100288,0.1179624981416349,64.9118,70.30656,165.1411,0.5384908,-0.3722689,0.6441621,11
12.68,-5.991575,1.144216,-38.80018,-0.1718604199072542,0.0053616327078637,0.1173159549036393,58.39045,70.97514,167.8648,0.5459211,-0.341384,0.6768886,11
12.7,-5.885436,1.326023,-38.7999,-0.1036863672935575,0.050541545759137,0.1135428745687683,61.46679,69.99309,165.951,0.5404747,-0.3552098,0.6630064,11
12.72,-5.792832,1.178032,-38.78634,-0.0378128067222091,0.0482912384896887,0.1100620159174896,52.10396,74.24361,171.2283,0.5673844,-0.3076988,0.693973,11
12.74,-5.620839,1.211169,-38.78151,0.0362077187740707,0.023072869936671,0.1063146129076173,43.18212,78.19547,173.9413,0.600668,-0.2541899,0.7083452,11
12.76,-5.505796,1.384336,-38.78155,0.094015707111444,0.0669807108635397,0.0983511869247655,46.52526,78.33479,173.1853,0.597416,-0.2711759,0.6961904,11
12.78,-5.422599,1.239059,-38.78635,0.1442794446216775,0.0869094062744864,0.0893291647911409,32.09312,81.69653,175.331,0.6365699,-0.1833176,0.7190037,11
12.8,-5.30051,1.408319,-38.78795,0.1950011153038632,0.1053183522233361,0.0802723907528033,35.6256,82.11358,174.8746,0.635009,-0.2024821,0.7082086,11
12.82,-5.264714,1.257102,-38.78569,0.2327555980622341,0.0736923282274467,0.0723449863618874,20.06253,84.9048,176.5852,0.6681932,-0.1086601,0.7227333,11
12.84,-5.134443,1.268313,-38.77858,0.2769121743137904,0.087053379552454,0.0668168410287703,8.128985,87.54388,177.5656,0.6909813,-0.03651199,0.719079,11
12.86,-5.011677,1.435584,-38.7806,0.319075908122912,0.0990072594921332,0.061814584378208,11.65802,88.21155,177.5553,0.6937847,-0.05813858,0.712673,11
12.88,-4.955354,1.275663,-38.76944,0.3525509944779063,0.1083107167938873,0.0582461532917655,358.4104,89.94072,178.2068,0.7064328,0.02087087,0.7074713,11
12.9,-4.830992,1.441235,-38.77164,0.3834398054320836,0.1158041976097028,0.0557083141280925,1.972916,90.60929,178.3456,0.7108519,-0.001846269,0.7029829,11
12.92,-4.786489,1.285104,-38.75701,0.4108870144505209,0.1228593429015014,0.0536670683130653,353.3286,91.09077,178.7589,0.712113,0.04846561,0.6995664,11
12.94,-4.642052,1.293673,-38.74214,0.4331799514769295,0.1035986553821511,0.0549843927925222,352.8275,91.28828,179.3102,0.7133352,0.04802535,0.6980005,11
12.96,-4.515733,1.454948,-38.74099,0.4506025906768709,0.1290330055276182,0.054122225479241,356.4105,91.92261,179.6489,0.7184479,0.02397281,0.6948689,11
12.98,-4.489757,1.282881,-38.72823,0.451862213697982,0.1264653209179222,0.0537140630182229,353.7627,91.78478,179.7916,0.7169004,0.03916916,0.6950473,11
13.0,-4.365557,1.444994,-38.72706,0.448683065354806,0.1230711547451666,0.0542587939618872,357.3011,92.42094,180.1589,0.7217085,0.01529597,0.6917952,11
13.02,-4.355885,1.254479,-38.70802,0.4226856380221071,0.0686179012530526,0.0571269985436151,357.4414,91.36398,181.1346,0.7154142,0.008514557,0.6982738,11
13.04,-4.232033,1.418526,-38.7072,0.4056394982567686,0.061454989587817,0.0572411838628266,1.022313,92.0231,181.4569,0.7193144,-0.01534209,0.6945113,11
13.06,-4.110626,1.578839,-38.70721,0.3852975488790625,0.0538392200725418,0.0580363576120239,4.598122,92.70377,181.8214,0.7224787,-0.03917671,0.6900462,11
13.08,-4.139863,1.240374,-38.68342,0.3568491097264558,0.0461281363713685,0.0602174832060535,4.009718,92.20307,182.084,0.7195684,-0.0373495,0.693302,11
13.1,-4.014628,1.406309,-38.68277,0.3253250851632137,0.038450860705482,0.0632858305890282,7.651213,92.9015,182.4476,0.7220207,-0.06140295,0.6883187,11
13.12,-4.034842,1.226431,-38.65207,0.2670234004424717,-0.022565687465614,0.0712291240617188,10.309,91.46625,183.158,0.7112018,-0.08233847,0.6966877,11
13.14,-3.911467,1.39687,-38.65083,0.2291718879836757,-0.0096131037720651,0.0732770815702243,13.91808,92.19292,183.4748,0.7123243,-0.1056633,0.6906682,11
13.16,-3.790142,1.563587,-38.65038,0.1881740051408286,0.0020143980129507,0.0758822372885337,17.52179,92.95277,183.845,0.7127085,-0.1288723,0.6839407,11
13.18,-3.871521,1.199729,-38.62751,0.1155220125791916,-0.0667338089608024,0.0817682262300643,14.74588,92.1803,183.6773,0.7112519,-0.1118764,0.6904038,11
13.2,-3.750733,1.376293,-38.62656,0.0549563811847968,-0.0854937560862997,0.0845244952893331,18.31939,92.93225,184.0067,0.7114525,-0.1345982,0.6836191,11
13.22,-3.799471,1.175877,-38.59495,-0.0146138607523188,-0.130774697601353,0.090168146176377,18.7169,89.65298,184.0453,0.6910754,-0.1398089,0.703415,11
13.24,-3.681257,1.358598,-38.59102,-0.0682429406480501,-0.1196924343778873,0.0924620520375603,22.25773,90.39012,184.2746,0.690611,-0.1618862,0.6960703,11
13.26,-3.564254,1.537876,-38.5878,-0.1306664726034865,-0.1358240588767158,0.0952880039645602,25.79435,91.16289,184.5608,0.6894599,-0.1837969,0.688041,11
13.28,-3.643008,1.153066,-38.56528,-0.1926343905297896,-0.1500712666357572,0.0988687318260472,23.06539,87.86781,184.0639,0.674288,-0.1679893,0.7100765,11
13.3,-3.526953,1.341812,-38.56073,-0.2534187289405193,-0.1649051103285207,0.1014033916312824,26.58057,88.56504,184.1647,0.6730691,-0.1891576,0.7021046,11
13.32,-3.566801,1.132802,-38.5371,-0.3173850161960485,-0.2063043385437473,0.1065636395235412,28.01006,84.45506,183.9469,0.645541,-0.2015517,0.7236456,11
13.34,-3.453578,1.327101,-38.52982,-0.3556888217939249,-0.1891762328434011,0.1093550845732638,31.47206,85.07341,183.876,0.6435944,-0.2217283,0.7150236,11
13.36,-3.340803,1.518212,-38.52318,-0.394717448879094,-0.1979069929268332,0.1106914115240602,34.93312,85.71109,183.8482,0.6410387,-0.2416902,0.7057309,11
13.38,-3.375557,1.121761,-38.50398,-0.4307643260919607,-0.2048132328655047,0.1120911928499497,34.6997,82.49637,183.2829,0.6226434,-0.2421439,0.72299,11
13.4,-3.264067,1.319504,-38.49668,-0.4596332882648934,-0.2105901539613838,0.1105984407763562,38.11649,83.00339,183.0394,0.619615,-0.2610741,0.7133743,11
13.42,-3.242283,1.115573,-38.48977,-0.4842594207368104,-0.2431364414285094,0.1102687093452008,41.83395,82.00195,182.3731,0.607125,-0.2820714,0.7096621,11
13.44,-3.132451,1.31542,-38.48325,-0.4865921905732024,-0.2159632362153546,0.108244750809983,45.20432,82.40691,182.017,0.6029575,-0.2998194,0.698938,11
13.46,-3.022717,1.51226,-38.47732,-0.4891547928520097,-0.2155755014110346,0.1057244388130644,48.57548,82.80586,181.6738,0.5982445,-0.3172929,0.6875891,11
13.48,-3.005949,1.113668,-38.46519,-0.4874587194419971,-0.2139095475512285,0.1031388458734294,46.368,81.8476,180.4022,0.6011082,-0.299573,0.6954657,11
13.5,-2.897517,1.313977,-38.45858,-0.4750917249210312,-0.2117637561873966,0.1006556580914379,49.69746,82.20338,180.0089,0.5965113,-0.3167038,0.6838028,11
13.52,-2.755804,1.107117,-38.44074,-0.4445469323307057,-0.2374184896790213,0.1000915811241025,53.29214,80.28614,177.7189,0.5829375,-0.3312955,0.6773587,11
13.54,-2.635024,1.10375,-38.43174,-0.3974504246962344,-0.2042938685932695,0.098179610372477,56.46938,79.53303,176.2224,0.5752314,-0.3448676,0.6668587,11
13.56,-2.529042,1.299734,-38.42803,-0.3450174938494776,-0.1957291336503291,0.096670784161466,59.71825,79.43889,175.3504,0.5692772,-0.3601566,0.653621,11
13.58,-2.398512,1.104433,-38.4132,-0.2898698924282993,-0.1874651100749274,0.0946898733347971,61.19944,75.31936,171.2606,0.5550643,-0.3617415,0.6557348,11
13.6,-2.293378,1.295528,-38.4106,-0.2307372759225184,-0.1726577444154585,0.0932981290775671,64.37667,74.57481,169.6986,0.5486796,-0.3760836,0.6416323,11
13.62,-2.184757,1.117931,-38.39401,-0.1732093327412904,-0.1822452029899858,0.0925759477788998,61.81532,70.45027,167.2882,0.538294,-0.3622367,0.6637837,11
13.64,-1.995966,1.144145,-38.37457,-0.1142991256700551,-0.1358662207171141,0.0901136995552258,58.40155,69.45789,167.8555,0.5369199,-0.3461055,0.6839851,11
13.66,-1.890122,1.326014,-38.37145,-0.0561045715821675,-0.1088546437741548,0.0884728121655245,61.47163,68.43742,165.934,0.5314694,-0.3602479,0.6702071,11
13.68,-1.777771,1.178062,-38.35648,0.0008396368183876,-0.1055954988133989,0.0862562227167256,52.09918,72.94833,171.2311,0.559505,-0.3112682,0.7003659,11
13.7,-1.670637,1.356019,-38.35359,0.0569154270161851,-0.0536868571782466,0.0819089747423333,55.21553,72.58604,169.9849,0.5551209,-0.3263042,0.6875609,11
13.72,-1.587061,1.211149,-38.34852,0.1047918979599526,-0.0488435411219116,0.0766058065043351,43.19361,77.09943,173.9455,0.593837,-0.2568551,0.7140357,11
13.74,-1.429423,1.239066,-38.34889,0.1578165859167405,-0.0192055889200656,0.0696981322988818,32.10895,80.19022,175.326,0.6270515,-0.1861403,0.7272672,11
13.76,-1.307577,1.40839,-38.34717,0.2016945134162127,0.0303755231888627,0.0621317971387718,35.63593,80.57238,174.8636,0.6254315,-0.2056013,0.7166391,11
13.78,-1.250611,1.25711,-38.34547,0.2339893801178932,0.0311058507904392,0.0552849899566485,20.08335,83.60859,176.5853,0.6599581,-0.1103618,0.7302181,11
13.8,-1.127963,1.425149,-38.34421,0.2696196397175091,0.0764877323538109,0.0493394696479301,23.62374,84.17712,176.3969,0.6605367,-0.131208,0.721723,11
13.82,-1.098082,1.267968,-38.33646,0.2958117762284082,0.0735430646717396,0.0470277847386935,8.183524,86.44581,177.5674,0.6840427,-0.03748356,0.7256366,11
13.84,-0.9617178,1.275568,-38.32254,0.3319906233104129,0.1155214645676972,0.0449119752137177,358.4319,88.43847,178.1994,0.6971004,0.02076234,0.716671,11
13.86,-0.8370448,1.441039,-38.32145,0.3637109748209954,0.1774341509534119,0.0422439982503979,2.00552,89.07576,178.3296,0.7013807,-0.002250564,0.7124232,11
13.88,-0.7716846,1.285075,-38.30722,0.3816144487768818,0.1677573165937903,0.0428755682606256,353.331,89.79898,178.7602,0.7041833,0.04882251,0.7075499,11
13.9,-0.6458377,1.448227,-38.30491,0.4058370896791666,0.2035383139682301,0.0428179362838667,356.92,90.41245,179.0196,0.7092031,0.02500306,0.7044402,11
13.92,-0.6065235,1.293653,-38.29019,0.4107531996924916,0.1870354024263618,0.0465266592406452,352.8258,90.1932,179.3128,0.7066328,0.04840496,0.7047838,11
13.94,-0.4973819,1.28294,-38.27286,0.4233144264373665,0.2158828471936829,0.0491282115146383,353.7626,90.2746,179.7833,0.7076757,0.03971615,0.7044373,11
13.96,-0.3732883,1.445058,-38.26837,0.428192626020018,0.2648180304321679,0.0504361684097096,357.3024,90.8803,180.1416,0.7123404,0.0156359,0.7014384,11
13.98,-0.365486,1.262136,-38.25903,0.4076297022995921,0.238458976337153,0.0528773494210108,355.7317,90.68053,180.5849,0.7109247,0.02254672,0.7022632,11
14.0,-0.242551,1.425923,-38.25569,0.3857509350227871,0.2362012635870081,0.0548982219822988,359.2737,91.29788,180.929,0.7150682,-0.001366005,0.6989791,11
14.02,-0.2472854,1.25016,-38.24459,0.3554685559896106,0.2089456223461275,0.0596455096750778,359.4182,90.89432,181.3771,0.712586,-0.005001628,0.7014636,11
14.04,-0.1610604,1.24052,-38.22485,0.3382514149405327,0.2329960180481773,0.0625784031929033,3.993462,90.87518,182.0763,0.7114942,-0.03734581,0.7015945,11
14.06,-0.03642303,1.406633,-38.22128,0.2993307325418969,0.2064717581978606,0.0676267404081105,7.620689,91.54147,182.4303,0.7138268,-0.06150528,0.6968426,11
14.08,-0.0419611,1.232283,-38.20486,0.2571596480824941,0.1794130042356574,0.0735786965402969,8.215186,91.04664,182.8886,0.7102119,-0.068108,0.6998856,11
14.1,0.08136761,1.401214,-38.20169,0.2111521137799333,0.1730200735662345,0.0777851317469302,11.81555,91.7357,183.2327,0.7116182,-0.09177883,0.6944258,11
14.12,0.03949371,1.209029,-38.17223,0.1465816037263377,0.1415066961862332,0.0829836356064559,13.39414,90.33312,183.5377,0.701447,-0.1039242,0.7024567,11
14.14,0.160304,1.383752,-38.16772,0.1010841245549353,0.1616387546233746,0.0845805414421194,16.95804,91.04448,183.8563,0.7018484,-0.1269927,0.696122,11
14.16,0.2793882,1.554892,-38.16396,0.0348518030740544,0.1274902483392782,0.0892735530048067,20.51674,91.79147,184.2287,0.7015422,-0.1499273,0.6890929,11
14.18,0.1992649,1.183333,-38.14273,-0.0452781266502321,0.0672110937247864,0.0952043262649313,17.36724,90.23151,183.9324,0.6963443,-0.1305103,0.7008472,11
14.2,0.2188732,1.175926,-38.13343,-0.0965407740226352,0.0861347013054195,0.0987981074020174,18.692,89.56407,184.0689,0.690531,-0.1398695,0.7039891,11
14.22,0.2789574,1.160861,-38.11354,-0.1710988695080992,0.0503414026151852,0.103832806188846,21.5432,87.83965,184.1213,0.6761476,-0.1590374,0.7118233,11
14.24,0.3948917,1.347729,-38.10754,-0.2286857314127554,0.0428388345399869,0.106961031918332,25.04571,88.52512,184.2747,0.6750779,-0.1805845,0.7042692,11
14.26,0.3810962,1.145513,-38.09219,-0.2845185658661214,0.0372239502931393,0.1105813179903201,24.56925,86.63856,184.0773,0.6644233,-0.1785467,0.7156261,11
14.28,0.4954238,1.336343,-38.08582,-0.3564617418293637,-0.0251282351538481,0.1153395025466741,28.04843,87.2915,184.1436,0.6628481,-0.1994499,0.7076401,11
14.3,0.4687595,1.132776,-38.06971,-0.397453520718579,-0.0031397059468436,0.1179164921131032,27.99659,84.77353,183.9679,0.6475347,-0.2012028,0.7218923,11
14.32,0.5476035,1.124866,-38.04894,-0.4535081972242211,-0.0374701482143717,0.1209224311992622,32.04992,82.66473,183.5499,0.628038,-0.2268493,0.7270134,11
14.34,0.6592159,1.321846,-38.04114,-0.4860723014076419,-0.0403938868760742,0.1220947517437558,35.47184,83.17451,183.3486,0.6252847,-0.2462215,0.7180002,11
14.36,0.6847493,1.118746,-38.02724,-0.5141820633909986,-0.0417411543840925,0.1231305834822471,37.35837,81.70798,183.0195,0.6130807,-0.2584873,0.721809,11
14.38,0.7953171,1.317362,-38.02004,-0.5499069809007552,-0.1010892607252822,0.1235351245074465,40.74968,82.12489,182.6966,0.609436,-0.2769278,0.7120063,11
14.4,0.8078186,1.115588,-38.0175,-0.5594759971339157,-0.0735044200881626,0.1221318990906974,41.82399,81.81968,182.3675,0.6060306,-0.2823297,0.7106385,11
14.42,0.9195322,1.114455,-38.00248,-0.5767944846665829,-0.1031578301750303,0.1203019182627915,44.66238,81.52489,181.153,0.6010308,-0.2938525,0.7030794,11
14.44,1.027984,1.314843,-37.9945,-0.5723461907312611,-0.1018522398501502,0.1197973709491506,47.99849,81.89149,180.8048,0.5965178,-0.3114087,0.6918878,11
14.46,1.083084,1.11291,-37.98302,-0.5625699567563631,-0.0996562691108713,0.1192654645317565,48.04494,80.72919,179.5591,0.5927427,-0.3079032,0.6949246,11
14.48,1.190641,1.313232,-37.97606,-0.5483934725125865,-0.1568130398422004,0.1197593188857943,51.34726,80.97292,179.0695,0.5878267,-0.3247454,0.6831676,11
14.5,1.259266,1.107151,-37.96437,-0.515967498621375,-0.127230066210742,0.1192081769640296,53.27082,79.62274,177.7109,0.5790806,-0.3328727,0.6807671,11
14.52,1.463194,1.102209,-37.94363,-0.4671859579416204,-0.1536313999477708,0.1214660218233296,59.63422,77.01917,174.0861,0.55957,-0.3607013,0.6620389,11
14.54,1.5687,1.295848,-37.93894,-0.4197518137450884,-0.1214340094205961,0.1215024366584085,62.85969,76.59876,172.905,0.5531454,-0.3757219,0.6483588,11
14.56,1.710373,1.109018,-37.91974,-0.3713203605161145,-0.0613567144266755,0.1205267317207106,62.62975,70.94768,167.9549,0.5374634,-0.3689125,0.6602588,11
14.58,1.815202,1.29761,-37.9152,-0.31412994176352,-0.0790700767109338,0.1227771743549412,65.74992,69.7099,165.8985,0.5310251,-0.3831434,0.645898,11
14.6,1.928196,1.128703,-37.89552,-0.2610153590999544,-0.064229155839863,0.1239638084380931,60.96226,68.15742,166.7856,0.5280268,-0.3617901,0.6763539,11
14.62,2.006695,1.144079,-37.88441,-0.1956641389022766,-0.0709235220783151,0.1275650809011512,58.40976,68.46046,167.8732,0.5308781,-0.3492939,0.6886542,11
14.64,2.112233,1.325952,-37.87895,-0.1296866686512656,-0.0256749784061285,0.1290366021252351,61.47975,67.42702,165.9724,0.5254036,-0.3637451,0.674957,11
14.66,2.295014,1.195316,-37.85211,-0.0746607969655971,-0.0043398592003175,0.126636321834475,48.34192,73.97015,173.1506,0.567421,-0.2937028,0.7127439,11
14.68,2.391849,1.209763,-37.84938,-0.018196618921022,0.0152107720192866,0.1240015075249818,43.38918,75.5759,173.8709,0.5841427,-0.2612803,0.7211469,11
14.7,2.512596,1.381282,-37.84396,0.028342132135969,0.0346236922090783,0.1177786410921246,46.90785,75.59158,173.0321,0.580289,-0.2797624,0.7087517,11
14.72,2.567845,1.238875,-37.84518,0.0651055083036667,0.0294131565638531,0.110820125423281,32.12964,78.89124,175.3342,0.6187273,-0.1886655,0.7343003,11
14.74,2.702784,1.25734,-37.83811,0.1060893725607212,0.0691441754681433,0.1034899075357094,20.06854,81.89729,176.5711,0.6490057,-0.1122339,0.7399948,11
14.76,2.824479,1.425676,-37.8335,0.1372938227467335,0.0821383740599049,0.0970406049811956,23.58319,82.42998,176.3666,0.6495312,-0.1331982,0.7317297,11
14.78,2.876244,1.268035,-37.82488,0.1661587318895477,0.0935914324725406,0.0907560447719415,8.172393,84.92174,177.5663,0.674335,-0.03825707,0.7346758,11
14.8,2.999798,1.434988,-37.82066,0.2013946443731301,0.1481705823921033,0.0846523267473609,11.73109,85.52708,177.5536,0.6768672,-0.06059195,0.7286708,11
14.82,3.076711,1.27909,-37.79492,0.2273174343034486,0.1310945330967102,0.0820055035270606,354.4984,87.27095,178.4256,0.6887305,0.04419994,0.7232976,11
14.84,3.201488,1.443724,-37.78913,0.2638907558129132,0.1590624351124984,0.0792486904385469,358.0733,87.86523,178.6118,0.6935162,0.02051043,0.720143,11
14.86,3.323904,1.604552,-37.7842,0.2948681435753735,0.2067966362025114,0.0753832202250306,1.645044,88.47038,178.8349,0.697602,-0.003192622,0.7162696,11
14.88,3.377369,1.293673,-37.76218,0.3051467749956129,0.1805104672086843,0.071684115020413,352.8286,88.41228,179.3013,0.6955909,0.04907374,0.7156852,11
14.9,3.503386,1.454953,-37.7544,0.3073310272217902,0.1744009094796373,0.0665488247923349,356.414,88.98618,179.6279,0.700404,0.02459395,0.7130532,11
14.92,3.521238,1.270087,-37.72935,0.3033970275039824,0.1416452552163241,0.0617050802808423,354.0778,88.19268,179.9992,0.6949376,0.0371039,0.7172122,11
14.94,3.643581,1.433521,-37.72078,0.3077383864368372,0.1540094011683266,0.0556495418314852,357.5979,88.77174,180.3331,0.6993741,0.01294692,0.7144426,11
14.96,3.763538,1.593295,-37.71311,0.2963326699151427,0.1421901293210949,0.0483965195561033,1.112815,89.37028,180.7023,0.7031218,-0.01121366,0.710977,11
14.98,3.744642,1.250328,-37.7027,0.281033436498638,0.1295678544151363,0.0413595711439542,359.3944,88.92945,181.3807,0.7004548,-0.004668593,0.7135755,11
15.0,3.786487,1.245869,-37.69151,0.2591411804829022,0.117391816737124,0.0342706075360119,1.396966,88.94608,181.6131,0.7003297,-0.01855904,0.7135767,11
15.02,3.876549,1.237955,-37.67015,0.2275212845227007,0.0795326115990196,0.029056223162077,6.123111,88.93041,182.5992,0.6984318,-0.05397134,0.7133226,11
15.04,4.000069,1.405295,-37.66185,0.2113971074530625,0.0912454037234638,0.0230495471089904,9.72889,89.58002,182.9567,0.7001867,-0.07827141,0.7084433,11
15.06,3.996827,1.226591,-37.64468,0.1972215051363947,0.1271538514785766,0.0149240663713205,10.27767,89.08638,183.1809,0.6965864,-0.08320382,0.7113276,11
15.08,4.118937,1.397246,-37.63715,0.1502815880310133,0.0846746655245724,0.0082815528909589,13.8581,89.75578,183.5171,0.6974915,-0.1069418,0.7057177,11
15.1,4.081967,1.209043,-37.62394,0.1196004205047676,0.0928725566443509,-5.553724294760087e-05,13.3809,89.40889,183.5628,0.6957477,-0.1044844,0.7081114,11
15.12,4.09073,1.200021,-37.61494,0.0860243881805038,0.0997498062482392,-0.0081567748367312,14.697,89.10719,183.6759,0.6925326,-0.1134138,0.7092562,11
15.14,4.209757,1.376918,-37.60725,0.0485774682857576,0.0782744730495844,-0.0166167033538844,18.2284,89.79633,183.9999,0.692597,-0.1364603,0.7028951,11
15.16,4.195615,1.175886,-37.58236,0.0099727202295538,0.0582810463796739,-0.025148178146134,18.69102,87.95919,184.0864,0.6805837,-0.1412068,0.7136052,11
15.18,4.224524,1.168433,-37.57115,-0.0303474672917847,0.0367104234978543,-0.03358113052189,20.08432,87.08053,184.0963,0.6733599,-0.1505629,0.717622,11
15.2,4.340323,1.353288,-37.56203,-0.0433214170454256,0.0914524013792526,-0.0444648568157175,23.57726,87.75426,184.3066,0.6724827,-0.1726558,0.7104465,11
15.22,4.293816,1.153149,-37.54878,-0.0809705857258782,0.0635587639858161,-0.0515192364398329,23.02728,85.47263,184.0809,0.659328,-0.1701875,0.7240714,11
15.24,4.34705,1.138981,-37.52711,-0.1087266328554494,0.0673588092387694,-0.0603108840226598,26.29092,83.54272,184.0032,0.6423837,-0.192169,0.7311143,11
15.26,4.460209,1.331536,-37.51588,-0.1518855880742311,0.0146099645941678,-0.064156972229453,29.75764,84.14134,184.0137,0.6405088,-0.2131698,0.7230149,11
15.28,4.450004,1.128726,-37.50121,-0.1842313315892003,-0.0073900012219472,-0.0680478875916748,30.01195,81.78601,183.7375,0.6256054,-0.2162421,0.7352944,11
15.3,4.561799,1.324346,-37.48976,-0.2138340739337005,-0.0274240485444413,-0.0713461768723373,33.44957,82.3148,183.6164,0.6231393,-0.2364471,0.7266722,11
15.32,4.546898,1.12181,-37.47814,-0.2287955867326272,-0.0465367581306484,-0.0735868809542079,34.68032,80.15025,183.2699,0.6077753,-0.2455045,0.7356016,11
15.34,4.635685,1.117168,-37.4626,-0.2351901373498919,-0.0334282806638278,-0.0772234973285295,39.5902,79.33551,182.6816,0.5943511,-0.2746673,0.729134,11
15.36,4.745303,1.316443,-37.45131,-0.2502993778284961,-0.0771499845018316,-0.0796752530695101,42.9673,79.69085,182.325,0.5903755,-0.2932247,0.7190461,11
15.38,4.772768,1.114987,-37.44437,-0.2490060095624973,-0.0609272532624016,-0.0823255657878112,43.24879,79.48425,181.7652,0.5899014,-0.2924877,0.7183567,11
15.4,4.881321,1.315126,-37.4329,-0.257536307041156,-0.1018414254049174,-0.0840532871036705,46.59877,79.82076,181.407,0.5854978,-0.3106076,0.7075595,11
15.42,4.899731,1.113707,-37.42371,-0.247246126898083,-0.0829615991584418,-0.0841743443264544,46.34686,78.88695,180.3899,0.5830207,-0.3058785,0.7107914,11
15.44,5.029799,1.109962,-37.40283,-0.2279598405310234,-0.0922884381530203,-0.0795884122895245,50.6647,77.64414,178.7351,0.5702667,-0.3270759,0.7011759,11
15.46,5.136284,1.309299,-37.39155,-0.2049013412773439,-0.1008905526191797,-0.0741397217894039,53.95032,77.77107,178.1529,0.5650861,-0.3440229,0.6890345,11
15.48,5.239321,1.103725,-37.37368,-0.1690399171852137,-0.1071844542823336,-0.0638652517381377,56.48899,76.22829,176.2177,0.5557317,-0.3541864,0.6830885,11
15.5,5.344681,1.299696,-37.36376,-0.1294384896524012,-0.1134564336219002,-0.0527597516964508,59.73632,76.07411,175.3456,0.5498139,-0.370215,0.6699733,11
15.52,5.531272,1.108964,-37.33242,-0.0663321931861047,-0.1126983204319422,-0.0325243489442828,62.62777,68.93637,167.9879,0.5256882,-0.3755402,0.6697039,11
15.54,5.635792,1.297539,-37.32379,-0.015784730016048,-0.082207978707877,-0.0139607250204774,65.75181,67.68834,165.9521,0.5193626,-0.3902621,0.655337,11
15.56,5.739585,1.483407,-37.31572,0.0378564334149598,-0.1008759731486687,0.0104556489412663,68.8511,65.96066,163.4464,0.5126063,-0.4046579,0.6404331,11
15.58,5.886176,1.144022,-37.28359,0.0865123779071657,-0.0650739191854196,0.0336762833976598,58.42112,66.7868,167.858,0.5207918,-0.354362,0.6962431,11
15.6,5.973284,1.161396,-37.2692,0.1348651822624014,-0.0314037236107495,0.0576728603825618,55.81237,67.07658,168.819,0.5239286,-0.3406873,0.7078974,11
15.62,6.152011,1.195226,-37.24278,0.1787735133296535,-0.0178281207620575,0.0839828451788866,48.35157,72.22005,173.1863,0.5563604,-0.2983249,0.7213845,11
15.64,6.259445,1.371473,-37.2333,0.2317926288905356,-0.0004593973391736,0.1129385976930166,51.49974,72.10829,172.2794,0.5525499,-0.3147444,0.7093142,11
15.66,6.373044,1.227006,-37.23293,0.2848959508446449,0.0155146847634979,0.1429468797890916,38.04993,75.86063,174.6941,0.5924037,-0.2299461,0.7356004,11
15.68,6.494631,1.396924,-37.22432,0.3257811072928909,0.0734772624033303,0.1705917787735655,41.59133,76.04246,174.0705,0.589521,-0.2495345,0.7241642,11
15.7,6.546494,1.249929,-37.22753,0.354069380780416,0.0833375484890499,0.1989287044136114,26.28835,79.54509,176.0155,0.6286805,-0.1530157,0.742944,11
15.72,6.593844,1.257438,-37.22403,0.3793489844118138,0.0923600325764074,0.2282764835661703,20.07215,80.98431,176.5924,0.6430657,-0.1134601,0.7451622,11
15.74,6.71464,1.425937,-37.21662,0.4105798060947661,0.1441960642092703,0.2594756243254554,23.56874,81.49598,176.4096,0.643509,-0.134628,0.7370802,11
15.76,6.817443,1.27193,-37.20673,0.4354648275209343,0.2140977836502051,0.2912061711665075,2.424188,85.3916,177.9608,0.6781235,-0.003480882,0.7344284,11
15.78,6.940839,1.438463,-37.20049,0.4475055082309151,0.1882831527582169,0.3306736547509841,5.97601,85.9751,178.0295,0.6814675,-0.02641723,0.7297884,11
15.8,7.062016,1.601267,-37.19506,0.4656532319695776,0.2084292408107688,0.3711701007405388,9.525927,86.5673,178.1355,0.6841362,-0.04932134,0.7244324,11
15.82,7.142774,1.291257,-37.16788,0.4782114334207803,0.1809517286677777,0.4190017936756778,352.2395,87.57849,179.084,0.6900088,0.05436853,0.7205866,11
15.84,7.268736,1.453126,-37.15873,0.4835828984084962,0.1740252292502742,0.4649548892707722,355.8327,88.12386,179.3858,0.6948257,0.0298517,0.7182386,11
15.86,7.392169,1.61111,-37.15049,0.4835114910107474,0.1657211636638174,0.5127827731442469,359.4218,88.68616,179.7209,0.6989334,0.005310878,0.7151647,11
15.88,7.402134,1.282907,-37.14691,0.4773668233457866,0.1532437311118821,0.5622753146313917,353.7677,88.96638,179.7998,0.6995952,0.04000607,0.7124667,11
15.9,7.436574,1.270177,-37.14186,0.4510434891848325,0.1329323207018502,0.6073473089810424,354.0656,89.14182,180.0193,0.7008568,0.03675762,0.7114213,11
15.92,7.545342,1.254563,-37.13747,0.4189316741198106,0.1121526689217096,0.6538836270903001,357.4282,89.5221,181.1439,0.7040985,0.008906459,0.7096778,11
15.94,7.668534,1.418715,-37.13155,0.3962610352683615,0.1394902712142066,0.6989603103725557,0.9987493,90.09148,181.4706,0.707507,-0.01523853,0.7065363,11
15.96,7.695809,1.245715,-37.1229,0.3474652356712511,0.092103516690667,0.745443939889114,1.420138,90.40183,181.614,0.7093342,-0.01872467,0.7046228,11
15.98,7.821223,1.410319,-37.11768,0.2816065737056641,0.0194923363835978,0.790199041898437,5.067655,90.99487,181.9729,0.7118827,-0.04324996,0.7006949,11
16.0,7.809471,1.237641,-37.11001,0.231715302711039,0.0203255765894,0.8358261465849601,6.155106,90.92388,182.6006,0.710719,-0.05379775,0.7010595,11
16.02,7.887574,1.226317,-37.09543,0.1714930579280131,-0.0057197754900679,0.8807973995640506,10.30848,91.01644,183.1816,0.7084451,-0.0826579,0.6994835,11
16.04,8.011075,1.396591,-37.09179,0.1121504153541959,-0.0045261036385894,0.9248243693655755,13.92829,91.65821,183.5186,0.7090437,-0.106304,0.6940041,11
16.06,8.13253,1.56313,-37.08886,0.0481068359534078,-0.0043009027632754,0.969488017911976,17.54305,92.3332,183.9039,0.7089091,-0.1298339,0.6878137,11
16.08,8.051848,1.199715,-37.0776,-0.0024783965561467,0.0434755078018259,1.0131893266493863,14.7442,92.1258,183.6889,0.7109139,-0.1119718,0.6907501,11
16.1,8.1727,1.376179,-37.07566,-0.0961856138798435,-0.0145625433191083,1.0471754042977022,18.3262,92.79095,184.0256,0.7105786,-0.1348683,0.6845059,11
16.12,8.291915,1.549058,-37.07437,-0.169353918288829,-0.0180995707225924,1.0817085235148118,21.90305,93.49353,184.4146,0.7095239,-0.1576221,0.6775752,11
16.14,8.233805,1.168235,-37.05048,-0.2474536086976364,-0.0488572965808441,1.113043886634193,20.13402,91.02678,184.1012,0.6975978,-0.1475456,0.6939744,11
16.16,8.351477,1.352804,-37.04913,-0.3374067839694896,-0.1048910322216845,1.1416680742956853,23.67635,91.67428,184.3153,0.6962259,-0.1692593,0.6869394,11
16.18,8.468042,1.533961,-37.04837,-0.4087697177214782,-0.1028742508462311,1.1692254119826355,27.21511,92.35535,184.5806,0.6941679,-0.1908004,0.679234,11
16.2,8.583288,1.711785,-37.04818,-0.4673922983976109,-0.0721734983038152,1.19744813088501,30.74935,93.07832,184.9035,0.6914265,-0.2121442,0.6708673,11
16.22,8.428356,1.139146,-37.01624,-0.5531751097455782,-0.1259248610757306,1.2174839639942912,26.28567,86.17052,183.9644,0.6590513,-0.1889731,0.7161546,11
16.24,8.542681,1.331689,-37.01127,-0.613811688594798,-0.1207400272582551,1.2389035993901183,29.77679,86.72068,183.9322,0.6567349,-0.2094609,0.7082803,11
16.26,8.537989,1.124951,-36.97358,-0.663372304850615,-0.0848886888691318,1.2601955532571854,32.05979,81.82581,183.5165,0.6227475,-0.2278944,0.7315293,11
16.28,8.578019,1.121914,-36.95997,-0.7286249841733963,-0.1347099761092226,1.2759943364479076,34.66655,80.82295,183.2316,0.6121905,-0.2442054,0.7319885,11
16.3,8.688596,1.319835,-36.95098,-0.781827474867933,-0.152772854927087,1.2872742891147713,38.06346,81.2046,182.9249,0.6087114,-0.2632047,0.722926,11
16.32,8.737555,1.115644,-36.9288,-0.8316113910665424,-0.1685599958913268,1.3002459012388092,41.82434,79.38705,182.3454,0.5908642,-0.2868051,0.7233007,11
16.34,8.846853,1.315564,-36.91807,-0.8593654541941647,-0.1261732477933297,1.3146571484743523,45.19415,79.67759,181.9505,0.586341,-0.3050692,0.7129893,11
16.36,8.870131,1.114485,-36.90229,-0.8886588692295811,-0.1396247803537823,1.3268291686461042,44.65715,78.92248,181.1432,0.584947,-0.2991674,0.7165397,11
16.38,8.978046,1.314905,-36.88976,-0.9139589490948106,-0.1510960263932929,1.3404936333221569,47.99426,79.21818,180.776,0.5803052,-0.3172568,0.7055621,11
16.4,8.988791,1.112991,-36.87617,-0.9232806432859402,-0.1043260065871986,1.356080835389017,48.03194,76.80335,179.5261,0.5687115,-0.3165997,0.7147825,11
16.42,9.095591,1.313398,-36.8628,-0.920404633040725,-0.1452634928258302,1.3824518140059752,51.33175,76.95351,178.9885,0.5637794,-0.3341111,0.7032137,11
16.44,9.235435,1.103884,-36.81468,-0.9000274624281865,-0.1537441407192887,1.4114867951740069,56.45231,72.16649,176.1538,0.5314599,-0.3645932,0.702313,11
16.46,9.340182,1.300007,-36.7988,-0.8796828668321539,-0.1309608758137001,1.4392755706249494,59.69764,71.90046,175.182,0.5256864,-0.3811533,0.6892345,11
16.48,9.45517,1.104673,-36.75116,-0.8563444373581499,-0.1093387044874862,1.4669444214620402,61.16078,66.47393,171.1255,0.503378,-0.3877386,0.696348,11
16.5,9.561978,1.295736,-36.73445,-0.8280635266857177,-0.1084456196907151,1.498302616676198,64.3923,65.64467,169.3854,0.4981366,-0.4034108,0.6813706,11
16.52,9.770263,1.129074,-36.65407,-0.7973822535612802,-0.1072941143060238,1.529479492501963,60.91363,58.90379,166.5678,0.4725559,-0.3887856,0.7163143,11
16.54,9.873651,1.313616,-36.63645,-0.7768167185097841,-0.0515304144066203,1.5570135363118425,63.91919,57.2466,164.1011,0.4667883,-0.4039571,0.7025093,11
16.56,9.991936,1.161557,-36.58187,-0.7470493513390217,-0.065952410032797,1.5948276960830228,55.78884,59.48467,168.8013,0.4760017,-0.3614931,0.7410749,11
16.58,10.09494,1.341519,-36.55977,-0.7171906219481263,-0.1048188844300949,1.6306811674952657,58.83088,58.58992,167.078,0.4717165,-0.3776457,0.7278138,11
16.6,10.19678,1.518777,-36.5384,-0.6920512553558493,-0.0688646827849167,1.6636490450940258,61.85197,57.42719,165.1038,0.4670802,-0.3935069,0.7139921,11
16.62,10.28048,1.21171,-36.49017,-0.6585139081317093,-0.0530307630994,1.6979329003784152,43.13537,65.47086,173.957,0.5184988,-0.2822784,0.7707153,11
16.64,10.42538,1.239953,-36.44623,-0.6355017651412946,-0.0163133295913433,1.7296819219396309,32.01542,67.91843,175.4127,0.5456663,-0.2070582,0.7904698,11
16.66,10.53859,1.41074,-36.41793,-0.6135096108145104,0.0177027861835709,1.7608686751095002,35.39749,68.07608,174.9812,0.5437682,-0.2283354,0.7812361,11
16.68,10.64992,1.578267,-36.39081,-0.602155008763803,0.0262054508132543,1.7844507686129871,38.77907,68.10535,174.492,0.5408021,-0.2493639,0.7716972,11
16.7,10.67524,1.264246,-36.36613,-0.6002838428636672,0.0112213597713683,1.8020944767302456,13.90105,71.3517,177.0951,0.5812187,-0.08359618,0.8043118,11
16.72,10.7912,1.432859,-36.33646,-0.5912459185401304,0.041766640313129,1.8220069308539584,17.36987,71.42396,176.866,0.580155,-0.1067821,0.7999409,11
16.74,10.90549,1.597879,-36.30757,-0.5738353488995138,0.0493369165583443,1.844618890793538,20.8478,71.48013,176.6282,0.5785407,-0.1298915,0.794825,11
16.76,11.01763,1.7595,-36.27939,-0.5594976252070947,0.0558025757170645,1.867964233037653,24.3258,71.52141,176.3872,0.5763884,-0.1528758,0.788974,11
16.78,11.07479,1.285682,-36.20258,-0.5462675152172494,0.1061439903268295,1.8912357252354088,353.3034,73.69857,178.6292,0.5980865,0.05389494,0.7992117,11
16.8,11.19275,1.449633,-36.16596,-0.5378200859226479,0.1517750042277647,1.9145267210968129,356.8593,73.82345,178.7312,0.600079,0.02855739,0.7993948,11
16.82,11.30446,1.296194,-36.08864,-0.5475312381629627,0.1004035947567192,1.924583201616357,353.448,72.3641,179.445,0.5891578,0.04897866,0.8059803,11
16.84,11.35971,1.283407,-36.05077,-0.5556881508559559,0.1166234391283628,1.932827055413541,353.7381,71.91833,179.7228,0.5862235,0.04562846,0.8083029,11
16.86,11.47614,1.445318,-36.00574,-0.5764649293047954,0.081143664337635,1.9327186753579069,357.3112,72.22813,180.029,0.5892373,0.01880398,0.8076195,11
16.88,11.59034,1.603399,-35.96216,-0.6089306747371594,0.0209733715230865,1.926515580748016,0.8936951,72.47066,180.3161,0.5910656,-0.007921191,0.8065813,11
16.9,11.53605,1.254526,-35.94273,-0.6294991635677769,0.0315402570523032,1.922388519840898,357.4366,70.7636,181.1006,0.5790258,0.01267647,0.8149459,11
16.92,11.65061,1.418482,-35.89645,-0.6485526220261537,0.0188370898766465,1.9132093169406108,1.036704,71.08272,181.3761,0.5811364,-0.01434079,0.8136674,11
16.94,11.76297,1.578752,-35.85147,-0.6694766527501883,0.0334644978487412,1.9061138738154333,4.630923,71.41071,181.6674,0.5826015,-0.04128869,0.8116233,11
16.96,11.7326,1.237776,-35.80169,-0.7073745250045815,-0.0016311092562308,1.8881559703723705,6.1557,69.37287,182.5459,0.5671429,-0.05676375,0.8215688,11
16.98,11.75963,1.23245,-35.7738,-0.7352248001805941,0.0135093547330575,1.871927619953068,8.21099,68.75832,182.8068,0.5616019,-0.07286365,0.8239446,11
17.0,11.87227,1.401488,-35.72478,-0.7826858880369811,-0.0223842506183409,1.8417074474503536,11.83624,69.05509,183.0203,0.5613471,-0.09977363,0.8207187,11
17.02,11.85922,1.209236,-35.6845,-0.8195195435041871,-0.0344918412746094,1.808513356482135,13.40843,67.63771,183.4197,0.5496232,-0.1134411,0.8266919,11
17.04,11.96862,1.384151,-35.63475,-0.8526008859902605,-0.0175899600813494,1.7767257645305294,16.99767,67.79678,183.5826,0.5474933,-0.1398517,0.8230887,11
17.06,12.07645,1.555552,-35.58579,-0.8890408535164354,-0.0008310566353209,1.7477162276544664,20.57883,67.98042,183.7674,0.5448952,-0.1661012,0.8186406,11
17.08,12.18259,1.72351,-35.53774,-0.9482600690416632,-0.0646789833183391,1.7023398330760848,24.16063,68.18116,183.9691,0.54176,-0.1921942,0.8133897,11
17.1,12.01788,1.176037,-35.5604,-0.9802469004489855,-0.0484716096397949,1.6596220161773392,18.72117,64.55128,183.9782,0.5217919,-0.1557212,0.8367425,11
17.12,12.12251,1.35902,-35.50788,-1.014117221176095,-0.0320919385487555,1.62079723078614,22.27776,64.58632,184.0606,0.5180724,-0.1817749,0.832537,11
17.14,12.08989,1.153548,-35.48486,-1.0670167473651415,-0.0996788596052258,1.5698839889765337,23.00341,60.3424,183.9514,0.4862571,-0.189261,0.8501183,11
17.16,12.11416,1.146059,-35.46041,-1.1020534745672972,-0.1112627329839992,1.5133644158313118,24.50445,58.85962,183.9259,0.4735523,-0.2011698,0.8541927,11
17.18,12.21166,1.337612,-35.40671,-1.1374383990963297,-0.11994205205811,1.461938881787293,27.94295,58.55236,183.7455,0.467417,-0.2259962,0.8498738,11
17.2,12.30885,1.526077,-35.3531,-1.1855397839635518,-0.1845905311835807,1.40329562140188,31.39626,58.2168,183.5288,0.4608181,-0.2507037,0.8447662,11
17.22,12.21391,1.128939,-35.36305,-1.2340445640532147,-0.2481089778026576,1.350682070497939,30.03935,53.96163,183.6468,0.4306224,-0.2447703,0.8640192,11
17.24,12.30848,1.324853,-35.30363,-1.2473792780214952,-0.2580696816685898,1.2941210620269992,33.5177,53.64996,183.3477,0.4243995,-0.2698272,0.857923,11
17.26,12.40259,1.517674,-35.24424,-1.263398112229301,-0.293786826369924,1.2374291352672149,36.98951,53.31399,183.0193,0.4178604,-0.2946112,0.8510062,11
17.28,12.37019,1.117361,-35.23169,-1.260459890565922,-0.268550043925261,1.1814835215739432,39.60506,49.46056,182.6012,0.3865229,-0.3165638,0.8575733,11
17.3,12.39848,1.115736,-35.20991,-1.2446939045441496,-0.2132312378013575,1.129705931193529,41.81205,49.0924,182.3062,0.3814676,-0.3323317,0.8525544,11
17.32,12.48665,1.31587,-35.14816,-1.236288717709089,-0.2439009227595748,1.071356973510735,45.17113,48.60342,181.8079,0.3744098,-0.3559825,0.8438827,11
17.34,12.57466,1.513137,-35.08637,-1.216178077147609,-0.2137486798939396,1.016653319535993,48.5264,48.03848,181.2335,0.3670263,-0.379319,0.8344775,11
17.36,12.60072,1.113088,-35.04485,-1.1932916817690868,-0.1837267860140883,0.9672823441745956,48.04784,45.9345,179.4774,0.3581094,-0.3732157,0.8402374,11
17.38,12.6854,1.313682,-34.98088,-1.1514427650384582,-0.1827609158405499,0.926096707335634,51.35614,45.28859,178.8215,0.351081,-0.3963215,0.8300091,11
17.4,12.76995,1.511488,-34.91687,-1.1080164230039315,-0.2083072371488642,0.8882910755445277,54.658,44.52617,178.0492,0.3437575,-0.4190843,0.8190794,11
17.42,12.91097,1.10232,-34.78409,-1.0477075269515774,-0.174152904268404,0.8551079277037479,59.62525,40.58616,174.0085,0.3248812,-0.4499426,0.8036779,11
17.44,12.99939,1.104524,-34.70555,-0.973152467762052,-0.1931362028267004,0.8399784487364474,61.18365,37.32038,171.193,0.3116297,-0.4595959,0.8006546,11
17.46,13.07899,1.29588,-34.64019,-0.901847210280294,-0.152435446257611,0.823827748001059,64.34336,35.60184,169.4238,0.3043935,-0.4809594,0.7874997,11
17.48,13.15805,1.484632,-34.57512,-0.8270799494308645,-0.1617111944777791,0.8135760577834681,67.4729,33.40589,167.1777,0.2969134,-0.5019262,0.7737094,11
17.5,13.24887,1.128806,-34.47485,-0.7529639939175725,-0.114163980190386,0.8023973159801079,60.95057,29.94714,166.6777,0.278008,-0.4608085,0.8117638,11
17.52,13.32633,1.313176,-34.40668,-0.6789101067470109,-0.1142876630612428,0.7934910632759644,63.98218,27.65761,164.2595,0.2712531,-0.4818269,0.7984502,11
17.54,13.40297,1.494938,-34.33907,-0.6202225862816784,-0.0626821832385583,0.7790215800626488,66.95965,24.76575,161.2405,0.2642853,-0.5024557,0.7845047,11
17.56,13.53574,1.195383,-34.19464,-0.5531044897775774,-0.0553852919846122,0.7728307659498235,48.34855,34.52042,173.0811,0.2937961,-0.3740253,0.8623009,11
17.58,13.60824,1.209861,-34.13182,-0.4889697559158383,-7.26376752072655e-05,0.7654512804285014,43.40158,35.90363,173.8132,0.3049378,-0.335792,0.8764561,11
17.6,13.69338,1.381735,-34.04953,-0.4289849013481501,0.0080186775099962,0.7533688443150428,46.89248,35.07422,172.8467,0.2995742,-0.3614106,0.8656102,11
17.62,13.81291,1.250048,-33.95326,-0.3698369437197355,0.0139720063951415,0.7456906447417975,26.29066,40.03328,175.9332,0.3406959,-0.2017223,0.9116343,11
17.64,13.89895,1.418782,-33.86871,-0.3077951941421597,0.0422129077839668,0.7363415299331093,29.8199,39.68363,175.4952,0.3372552,-0.2289477,0.904829,11
17.66,13.98339,1.583939,-33.78548,-0.2569855723461964,0.0682817627848313,0.7233474318368112,33.34717,39.28884,175.0155,0.3334927,-0.2559598,0.8971515,11
17.68,14.00872,1.268017,-33.76024,-0.2098840695060189,0.0935354946971444,0.7140123315649536,8.231092,43.67654,177.5143,0.3723863,-0.05855438,0.9250472,11
17.7,14.04994,1.27183,-33.71711,-0.1670045302671234,0.1150299204104177,0.7082502022394506,2.473865,44.83798,177.9176,0.3815876,-0.01302363,0.9239021,11
17.72,14.13576,1.43834,-33.62955,-0.1229447816309319,0.1344457521420779,0.696414016050908,6.04486,44.69368,177.9001,0.3805133,-0.04180141,0.9230902,11
17.74,14.22455,1.285175,-33.53102,-0.0835429919374215,0.1526201011018179,0.688940674770433,353.3401,46.34427,178.6998,0.3921993,0.05785318,0.917975,11
17.76,14.3094,1.448617,-33.44048,-0.0493961660612223,0.1666896747353665,0.6856461388633717,356.9286,46.18844,178.8542,0.3918374,0.02857118,0.9195899,11
17.78,14.39244,1.608296,-33.3516,-0.0245631470654457,0.1058005913381613,0.6793817214450755,0.5164945,46.04264,178.9987,0.391091,-0.0007310542,0.9202996,11
17.8,14.47353,1.764375,-33.26456,-0.0050911184805229,0.1108044842745721,0.660951262179803,4.103703,45.90568,179.1344,0.3899613,-0.03002425,0.9201041,11
17.82,14.46103,1.282972,-33.2712,0.0077843495345581,0.1151545340425418,0.6461967855899076,353.7819,46.38806,179.7267,0.3931464,0.05079114,0.9178719,11
17.84,14.54277,1.445039,-33.17879,0.0105441320804757,0.1145657246476098,0.6212580441429187,357.3482,46.22601,179.9838,0.3924379,0.02133746,0.9194876,11
17.86,14.57319,1.254759,-33.14929,0.0154236574401873,0.1400607777508629,0.5997897331199682,357.4081,46.32638,181.1104,0.3934338,0.01698167,0.9190239,11
17.88,14.60823,1.249921,-33.10728,0.0028902176313327,0.1161697224831449,0.5680651286206588,359.4384,46.39332,181.3489,0.3939094,-0.0001324066,0.919061,11
17.9,14.69066,1.414007,-33.01424,-0.0163573855984497,0.0917082347866869,0.5395682660845722,3.09012,46.25744,181.6137,0.3922673,-0.03032267,0.9193485,11
17.92,14.72244,1.237661,-32.96916,-0.0258244725127512,0.0909554792141572,0.5086724006556413,6.155997,46.32302,182.5612,0.3915556,-0.05813279,0.9183164,11
17.94,14.80437,1.404671,-32.87629,-0.0414835078623205,0.0911080493540955,0.4808070687198076,9.814618,46.21985,182.8366,0.3889906,-0.08833453,0.9169326,11
17.96,14.79764,1.226456,-32.87259,-0.0760883318513014,0.039158409073104,0.4414218646368546,10.30261,45.96626,183.1309,0.3864799,-0.093252,0.9175174,11
17.98,14.87876,1.396938,-32.78149,-0.0957778616266691,0.0617358599078511,0.4048442277183945,13.92786,45.87546,183.3707,0.3834041,-0.1229869,0.9151295,11
18.0,14.85215,1.208963,-32.8044,-0.1087197877439183,0.1094555945312296,0.3740291073713924,13.41399,46.05947,183.5098,0.3850577,-0.1193318,0.9149743,11
18.02,14.89141,1.191154,-32.75308,-0.1489618139454225,0.0770175957913211,0.3236388096323042,16.06014,45.84646,183.7471,0.3812657,-0.1412015,0.9132882,11
18.04,14.97049,1.369923,-32.66511,-0.175918446501893,0.0998180771244342,0.2783518723149423,19.63571,45.77523,183.9738,0.3775521,-0.1702842,0.9095309,11
18.06,15.04848,1.545256,-32.57814,-0.2075956904684273,0.1224127263095128,0.2365685537774116,23.21045,45.71773,184.2012,0.373471,-0.1991916,0.9048849,11
18.08,14.99072,1.168396,-32.62728,-0.2618801189113009,0.0624365975430088,0.17793139166031,20.12807,43.81255,184.0445,0.3613988,-0.174993,0.9152514,11
18.1,15.06782,1.353277,-32.54123,-0.3205615521602922,0.0033644664578247,0.1239006710553796,23.66318,43.71212,184.1514,0.3572353,-0.2033707,0.9105724,11
18.12,15.1441,1.534874,-32.45588,-0.3528678087711072,-0.0069392776801521,0.0749065520546734,27.1974,43.61624,184.2545,0.3527333,-0.231546,0.9050263,11
18.14,15.10097,1.13919,-32.48453,-0.3878620737601501,-0.0144344200556124,0.0306331267110002,26.27623,40.36368,183.9587,0.3284012,-0.2248204,0.9161977,11
18.16,15.12704,1.13292,-32.45058,-0.4149506792512101,-0.020208053501195,-0.0155594839835835,27.99498,39.34717,183.9248,0.3186737,-0.2388124,0.9159183,11
18.18,15.20051,1.327378,-32.36689,-0.4320689519008684,0.0060388597109715,-0.0523453496061239,31.45937,39.13309,183.7749,0.3137716,-0.2659229,0.9094655,11
18.2,15.18871,1.124972,-32.37139,-0.4500420641749949,0.0324146531155549,-0.084002207467785,32.03741,37.28534,183.5198,0.299078,-0.2707849,0.9130192,11
18.22,15.26088,1.322146,-32.28868,-0.4810915900299255,-0.0277880225489283,-0.1261516525665351,35.45891,36.98468,183.2297,0.2938549,-0.2971983,0.9056869,11
18.24,15.30136,1.117222,-32.24355,-0.4842970876213677,-0.0003629288688004,-0.1531338416478309,39.58343,35.97949,182.6644,0.2830373,-0.3287174,0.8971189,11
18.26,15.34446,1.115677,-32.20111,-0.4868749107949397,0.0270562492854524,-0.1749077334858721,41.80197,36.00596,182.3352,0.2817558,-0.3451006,0.8905229,11
18.28,15.41574,1.315756,-32.12067,-0.4938181653716884,-0.0326635215779866,-0.1995686833044936,45.15788,35.54539,181.8681,0.2758473,-0.3701777,0.8810783,11
18.3,15.48686,1.512977,-32.04023,-0.4865308238448347,-0.0324797851575137,-0.2181618835725722,48.50978,35.01415,181.3305,0.269702,-0.3949264,0.870872,11
18.32,15.48846,1.113782,-32.04087,-0.4683354272063904,-0.0002764052535605,-0.2254025491011306,46.33786,35.26977,180.3632,0.2773273,-0.3758349,0.8765187,11
18.34,15.55817,1.314333,-31.96068,-0.4412354990525338,-0.0259990607572606,-0.2199344714538678,49.6576,34.74487,179.8436,0.2715296,-0.4003835,0.8659952,11
18.36,15.62774,1.512089,-31.88046,-0.4128619264011672,-0.051796264206904,-0.2096746944767589,52.97276,34.13091,179.2347,0.2655036,-0.4245848,0.854739,11
18.38,15.72326,1.103783,-31.77524,-0.3742851086965597,0.0081211639722382,-0.1917124713555389,56.46207,32.58976,176.2141,0.2620679,-0.4456131,0.8408104,11
18.4,15.78458,1.102259,-31.70627,-0.3292034434769189,-0.0161977726330165,-0.1641191874698013,59.61617,31.11704,174.0646,0.2572165,-0.4661897,0.8278764,11
18.42,15.85316,1.296079,-31.62868,-0.2831264231535551,-0.0417463322576825,-0.1325925222390345,62.83478,29.82419,172.7477,0.2510277,-0.4888154,0.814517,11
18.44,16.00156,1.117907,-31.45709,-0.244884927102182,0.0187812804407659,-0.1076211270412561,61.82225,23.3096,167.2196,0.2282411,-0.4807002,0.8235053,11
18.46,16.06851,1.304425,-31.37879,-0.194995957908294,0.0337394337946519,-0.0677777089472959,64.89474,21.10462,164.9078,0.2224719,-0.5025878,0.809525,11
18.48,16.15007,1.144016,-31.2846,-0.1465925201916103,0.0254708988886181,-0.0276175767148214,58.42685,22.50589,167.7974,0.2202329,-0.4578671,0.8410566,11
18.5,16.21655,1.326067,-31.20494,-0.0988770216286241,0.0154006288975999,0.0149260839905243,61.47958,20.57836,165.7303,0.2147968,-0.479958,0.8277878,11
18.52,16.28143,1.177892,-31.1344,-0.0424956087871866,0.0387365391305416,0.0611928265985044,52.14522,25.80403,171.1589,0.2329867,-0.4116806,0.8653917,11
18.54,16.3481,1.356023,-31.05317,0.0133279787114735,0.0609791211842943,0.1094897193945652,55.24857,24.55694,169.7822,0.2280174,-0.4344869,0.8535203,11
18.56,16.48065,1.227908,-30.93752,0.0675884775768915,0.0341537861093811,0.1536135418281801,37.96861,31.63565,174.6734,0.2720186,-0.3006757,0.9046978,11
18.58,16.5547,1.399252,-30.84837,0.1129635279317176,0.0751006885095018,0.1886265933903765,41.37566,31.05397,173.9771,0.2679675,-0.3267567,0.895164,11
18.6,16.6081,1.250122,-30.8167,0.1524320867236159,0.0919973026426469,0.2161756978153151,26.30445,35.0017,175.956,0.3003062,-0.2065396,0.9257033,11
18.62,16.68538,1.419042,-30.72505,0.192593116818625,0.0856496011106434,0.2450246732325771,29.81351,34.67228,175.5465,0.2972726,-0.2341874,0.9187729,11
18.64,16.7729,1.268089,-30.648,0.2248778949823333,0.1223719535000796,0.2712058704499474,8.225654,39.51971,177.5363,0.3385811,-0.06023283,0.9379563,11
18.66,16.82805,1.271838,-30.58888,0.249666899867972,0.1107661966079993,0.2898243051089437,2.485166,40.84434,177.9261,0.3491633,-0.01400591,0.9366362,11
