t,pX,pY,pZ,aX,aY,aZ,reX,reY,reZ,rtX,rtY,rtZ,ID
6.92,-44.30571,1.101702,-37.82838,2.835411636545815,-0.0671427922634566,2.2950189827732794,14.63761,356.3561,163.6092,-0.01306261,-0.1305208,0.9818047,18
6.94,-44.30647,1.301531,-37.82786,2.8868731176453943,-0.0925458994502481,2.31757827296842,14.65481,356.3618,163.6321,-0.01301731,-0.1306584,0.9818144,18
6.96,-44.30723,1.501359,-37.82734,2.9343235651458714,-0.0918729272701064,2.337388484714886,14.67211,356.3677,163.6552,-0.01297167,-0.1307968,0.9818243,18
6.98,-44.308,1.701187,-37.82683,2.9794954184248423,-0.1122441124468772,2.352122973583528,14.68937,356.3736,163.6782,-0.01292611,-0.1309349,0.9818342,18
7.0,-44.28088,1.155115,-37.78642,3.0212860449460903,-0.1074383278135883,2.3645999628587013,14.8757,3.869611,163.6939,0.05148779,-0.1233214,0.9803843,18
7.02,-44.26774,1.152346,-37.74053,3.0681265790851846,-0.1223690549811095,2.37451692857013,17.08131,4.825684,164.898,0.06077005,-0.1416219,0.9786445,18
7.04,-44.28387,1.347285,-37.71962,3.1117515069691413,-0.1130304716367665,2.38239055202612,17.67499,4.996283,165.4692,0.06213451,-0.1468073,0.978416,18
7.06,-44.15927,1.168399,-37.63239,3.1468095193380563,-0.1265814408399127,2.3814412123748605,17.88678,9.892206,166.9991,0.1021569,-0.1442417,0.9763194,18
7.08,-44.15804,1.365097,-37.61175,3.17876596683889,-0.1160166030882908,2.378531742958466,18.50948,9.916022,167.0754,0.1027917,-0.1496039,0.975478,18
7.1,-44.05901,1.179585,-37.5261,3.199393971958078,-0.128985233160894,2.3659950501115468,15.37198,14.92519,168.9078,0.140926,-0.1195507,0.9763433,18
7.12,-44.00225,1.185811,-37.47351,3.217299545782136,-0.1179955524109792,2.3517764492109103,13.1433,17.67044,169.9003,0.1619462,-0.09921779,0.9762841,18
7.14,-43.98028,1.373243,-37.40941,3.2345683903136644,-0.1296199597403476,2.3358837048822165,15.18208,17.65921,169.8544,0.1630975,-0.116571,0.9738598,18
7.16,-43.80126,1.210803,-37.29496,3.2487846308983155,-0.117759757186684,2.3184096756403223,3.771795,26.67238,173.0751,0.2320526,-0.01804006,0.9702728,18
7.18,-43.71592,1.216229,-37.21369,3.253411063558678,-0.128762155027839,2.293627302771412,2.647681,28.86156,174.3051,0.2499476,-0.009970035,0.9667096,18
7.2,-43.66427,1.385927,-37.10602,3.2550358339740493,-0.116539772823886,2.267762026352254,6.199218,28.87712,174.5067,0.2512001,-0.04037317,0.965242,18
7.22,-43.4306,1.265683,-36.9631,3.2487025869999844,-0.1314681092611853,2.235830742133025,356.9117,34.76241,178.3591,0.2982204,0.02999042,0.9540095,18
7.24,-43.35883,1.419561,-36.83481,3.2391525283390648,-0.1225963914497698,2.2026947671991337,1.180737,34.7555,178.773,0.2987426,-0.006634928,0.9542182,18
7.26,-43.28271,1.2643,-36.84443,3.216845648022259,-0.1396195816614239,2.15907923174498,354.6062,37.80224,180.1669,0.3236416,0.04404425,0.945008,18
7.28,-43.21013,1.421162,-36.72543,3.192027489164646,-0.1325104446769101,2.114605828093913,358.6514,37.77545,180.6221,0.323748,0.009377304,0.9460547,18
7.3,-43.17059,1.253914,-36.77007,3.164380078221387,-0.1031539633691557,2.069072460079764,357.5043,40.06604,181.2062,0.3426768,0.0168534,0.9391422,18
7.32,-43.10019,1.41756,-36.66839,3.1149136441422183,-0.12342297196619,2.008609167319864,1.117371,40.06194,181.5466,0.342357,-0.01378273,0.9394227,18
7.34,-43.02449,1.240169,-36.66048,3.0588129229906995,-0.1436524489972751,1.944733584159052,4.055714,43.31322,182.1403,0.3681334,-0.03976995,0.9289123,18
7.36,-42.94866,1.406029,-36.56211,3.0016760942307323,-0.1386993576001866,1.8809632676642432,7.70516,43.3509,182.5079,0.3670594,-0.07048831,0.927512,18
7.38,-42.92801,1.231837,-36.58213,2.927192120990439,-0.1598175988931909,1.806314986445421,8.275747,44.92336,182.9669,0.3792155,-0.07652561,0.9221312,18
7.4,-42.85051,1.400502,-36.48685,2.85249866306669,-0.1550256706426843,1.7322924434144502,11.89691,44.98943,183.344,0.3775824,-0.1068111,0.9197058,18
7.42,-42.85699,1.21713,-36.53054,2.764480919830324,-0.1783503590509892,1.6505931752580365,11.89538,46.46151,183.4707,0.3892485,-0.1070562,0.9147958,18
7.44,-42.77851,1.389509,-36.43843,2.676829032425716,-0.1746075479052273,1.5698942869797143,15.48536,46.55516,183.8662,0.3871857,-0.1368967,0.9115044,18
7.46,-42.76411,1.190518,-36.46355,2.574179151503865,-0.1979930051545504,1.4804468690796986,16.0773,48.49228,183.941,0.4019976,-0.141412,0.9042714,18
7.48,-42.68493,1.368951,-36.37553,2.472715953499309,-0.1935475449032145,1.392604855009658,19.62998,48.62522,184.3744,0.3994645,-0.1707188,0.8999987,18
7.5,-42.69683,1.175308,-36.40654,2.354652331888672,-0.2166304646457889,1.2951032661870947,18.72407,48.61758,184.2455,0.4004011,-0.1631926,0.9010648,18
7.52,-42.61772,1.357758,-36.32113,2.2388002963710134,-0.2111206958505206,1.200020164216161,22.24682,48.75421,184.6357,0.3975487,-0.1919587,0.8962267,18
7.54,-42.60839,1.152373,-36.3274,2.111676014553914,-0.2345261549572545,1.0997742432790796,23.08462,47.78043,184.2848,0.3896789,-0.197654,0.8982362,18
7.56,-42.52967,1.34078,-36.24481,1.9874708053407844,-0.228295239032994,1.0025180219402072,26.58322,47.90145,184.5729,0.3863795,-0.2257054,0.8924294,18
7.58,-42.53657,1.13842,-36.26022,1.8520661023919152,-0.2499703303570912,0.8994304938841609,26.31006,46.94781,184.2002,0.3799679,-0.2228259,0.8958935,18
7.6,-42.45801,1.330586,-36.18012,1.7205213385494451,-0.2414328734703397,0.8000233392909069,29.77863,47.03146,184.3781,0.376323,-0.2501697,0.8894326,18
7.62,-42.47056,1.128407,-36.20321,1.5786395687048105,-0.2606700722901655,0.695082197261196,30.05778,45.73758,183.8263,0.3671438,-0.251321,0.8927493,18
7.64,-42.40623,1.121661,-36.15225,1.441680652938837,-0.2492844815609046,0.5945855019605899,34.75051,44.8057,183.2913,0.355647,-0.286422,0.885245,18
7.66,-42.32426,1.319527,-36.07973,1.304035868757394,-0.265802667388626,0.4936810571471737,38.15566,44.63955,183.0118,0.3508464,-0.311692,0.8772295,18
7.68,-42.24247,1.514429,-36.00737,1.171911676041158,-0.2513183184682959,0.3977493063478929,41.55908,44.44281,182.705,0.3457362,-0.3366782,0.8684388,18
7.7,-42.23942,1.115492,-36.02852,1.035963355052596,-0.2642263969688938,0.3002839447345824,41.89389,45.24197,182.3843,0.3522701,-0.3374026,0.86474,18
7.72,-42.14643,1.114431,-35.96006,0.9086001767016328,-0.2745719650494034,0.2100284377447003,44.69626,45.62712,181.1464,0.355087,-0.3540582,0.8539701,18
7.74,-42.06428,1.314914,-35.8915,0.787581080503001,-0.2537835066775811,0.1255443531283653,48.03228,45.34114,180.7514,0.3495953,-0.3778487,0.8438662,18
7.76,-42.01449,1.112914,-35.85907,0.6731468169738379,-0.2039528028476297,0.0470780701779638,48.07751,45.07207,179.5319,0.351558,-0.3748154,0.842887,18
7.78,-41.93199,1.313362,-35.79256,0.5660640056086992,-0.2122602218819377,-0.0249253831656801,51.37547,44.64453,178.9718,0.3458626,-0.397896,0.8321275,18
7.8,-41.84955,1.511029,-35.72611,0.4646881024558125,-0.2177978603973611,-0.0914295941236282,54.66945,44.12722,178.3245,0.3398784,-0.4206361,0.8206739,18
7.82,-41.77175,1.103675,-35.67582,0.3706364371522213,-0.1929555163971132,-0.1513463430800747,56.54581,43.66282,176.1911,0.3419439,-0.4285742,0.8112341,18
7.84,-41.68963,1.299688,-35.61155,0.2983802063892131,-0.1919011856927693,-0.1940965318625407,59.79398,42.8638,175.2511,0.3357201,-0.4504539,0.798739,18
7.86,-41.60777,1.493021,-35.54748,0.233101512614672,-0.161601376300064,-0.2301227389949405,63.03278,41.85952,174.1078,0.3292213,-0.4719546,0.7855929,18
7.88,-41.41368,1.118132,-35.40779,0.1750737669502537,-0.1040050258883221,-0.2591572463863096,61.80742,35.06561,167.224,0.3113674,-0.4579376,0.7958772,18
7.9,-41.33162,1.304487,-35.34447,0.12922773031916,-0.0927626407131977,-0.2774859233431481,64.89257,33.03291,164.9506,0.3052044,-0.4785244,0.7821331,18
7.92,-41.14782,1.161864,-35.21099,0.1005772005031779,-0.0741181476516686,-0.2821265153292263,55.74779,35.25673,168.823,0.3098246,-0.4173847,0.8246756,18
7.94,-41.05938,1.178279,-35.14612,0.0797780823275182,-0.0281919846755763,-0.2787098478486554,52.03826,38.35315,171.3161,0.3257096,-0.3907921,0.8354372,18
7.96,-40.97722,1.3562,-35.08012,0.06722589449876,0.0131695191789803,-0.2670733221172989,55.15678,37.34696,170.0664,0.3207026,-0.4123734,0.8237318,18
7.98,-40.88181,1.211373,-35.02987,0.0658598010076341,-0.021101857016322,-0.2507644382306306,43.09922,42.76077,173.9757,0.3565797,-0.3237388,0.8578582,18
8.0,-40.79251,1.384518,-34.96,0.0754465589409809,-0.0628457162965969,-0.2241043393252644,46.44512,42.20661,173.1892,0.3521461,-0.3475551,0.8473999,18
8.02,-40.64236,1.250199,-34.89147,0.091964734744832,-0.0039113532143702,-0.1929252916660688,26.14434,48.10333,176.0266,0.4039203,-0.1926538,0.8857838,18
8.04,-40.54593,1.418777,-34.81865,0.1184694717405037,0.0107712182980632,-0.1618989791547527,29.67738,47.94235,175.6829,0.4012633,-0.2190519,0.8787314,18
8.06,-40.48601,1.263686,-34.79298,0.1549599337507317,-0.0018707160267228,-0.1267184445393239,13.82165,51.39384,177.181,0.4329971,-0.09780294,0.8929995,18
8.08,-40.38839,1.431423,-34.72087,0.185757705132648,0.0354830637258958,-0.0933407706782984,17.35841,51.35633,177.0415,0.4317217,-0.1248961,0.8889371,18
8.1,-40.34774,1.271955,-34.70235,0.2284251157914996,0.0661200317916343,-0.0523842832534429,2.308452,54.27157,177.9516,0.4562559,-0.009772319,0.8894412,18
8.12,-40.24852,1.438478,-34.63028,0.2590059248717944,0.0766812984836957,-0.0207158696959348,5.870847,54.27274,177.968,0.456248,-0.03748922,0.888202,18
8.14,-40.13339,1.285331,-34.55762,0.2940095891445233,0.1104736103819333,0.0144035425879636,353.3038,56.60063,178.7349,0.4726873,0.05664326,0.8792241,18
8.16,-40.03336,1.448691,-34.48382,0.3382828302893337,0.1383565047821675,0.0509035178281953,356.8889,56.58442,178.9244,0.4735486,0.02834979,0.8802993,18
8.18,-39.97863,1.293768,-34.45007,0.3623192507788468,0.1412666633594182,0.0757540382885473,352.8395,57.17259,179.2979,0.4772031,0.05775945,0.8765504,18
8.2,-39.87919,1.455153,-34.37431,0.3755458438550771,0.1424984791166651,0.0918952797685088,356.4252,57.14629,179.5788,0.4779437,0.02914898,0.8778289,18
8.22,-39.81409,1.26963,-34.33335,0.3931415505987727,0.1423996893976025,0.1024494365548029,354.0983,57.85089,180.0175,0.4830367,0.04498327,0.8740855,18
8.24,-39.71691,1.432975,-34.25973,0.3818055877620381,0.1325622392619545,0.095702723905223,357.6339,57.82859,180.3266,0.4834473,0.01669551,0.8751254,18
8.26,-39.68683,1.254373,-34.25154,0.3708197604528012,0.123665316360069,0.078984390735517,357.4723,58.12472,181.1386,0.4858108,0.01445319,0.8737295,18
8.28,-39.58803,1.418548,-34.17912,0.3590221155255939,0.1588058015964865,0.0719379213827071,1.054495,58.1212,181.4122,0.4855779,-0.01402887,0.8740584,18
8.3,-39.49115,1.579054,-34.10812,0.3276654393096985,0.1205874733102019,0.0427462503594826,4.636107,58.13479,181.6861,0.4848679,-0.04249087,0.8735284,18
8.32,-39.52851,1.240375,-34.1354,0.2896164028240031,0.1062189612448317,0.0208157312082146,4.046293,58.68857,182.0703,0.4891151,-0.03961603,0.8713178,18
8.34,-39.46653,1.232129,-34.08735,0.2533598476996301,0.0922221886663744,-0.0066131667358435,8.264302,58.76804,182.8753,0.4876559,-0.07504564,0.8696992,18
8.36,-39.36702,1.401083,-34.01601,0.2026322209678364,0.0757495099022088,-0.0352576882411126,11.88137,58.81787,183.1601,0.4857307,-0.1035945,0.8675309,18
8.38,-39.38279,1.217444,-34.02262,0.153066130149722,0.0604183389781478,-0.0689480752695343,11.89411,58.93077,183.3537,0.4864012,-0.1044858,0.8670879,18
8.4,-39.28426,1.390143,-33.95287,0.1124501279440917,0.0937901849577218,-0.0906481864571411,15.48501,58.99603,183.6293,0.4839468,-0.1326491,0.8641062,18
8.42,-39.27856,1.190876,-33.94228,0.0467481442677053,0.0478398375243472,-0.1335775879067284,16.08571,59.09583,183.7877,0.4840113,-0.1377879,0.8631965,18
8.44,-39.18176,1.369678,-33.87437,-0.012459467241606,0.0274702855491616,-0.1643901560281664,19.64721,59.18011,184.0623,0.4809867,-0.1655155,0.8592784,18
8.46,-39.19393,1.175717,-33.87606,-0.0692243744576028,0.0092625434728401,-0.1984961180236033,18.73376,58.15973,184.0701,0.4741944,-0.1591786,0.8645556,18
8.48,-39.09855,1.358577,-33.8094,-0.1310265275456137,-0.0085807210934805,-0.2289655861582935,22.26734,58.23253,184.2779,0.4707967,-0.1863988,0.8601015,18
8.5,-39.12947,1.160705,-33.82322,-0.18969895989453,-0.02424551030227,-0.2615624734884112,21.57597,56.58704,184.1226,0.4593822,-0.1814543,0.8676004,18
8.52,-39.03548,1.347652,-33.7573,-0.2439776901662211,-0.0413793301948247,-0.2853394279971044,25.08997,56.63106,184.2337,0.4556236,-0.2081888,0.8625504,18
8.54,-39.03751,1.138931,-33.74591,-0.3008259195350966,-0.0839053198012111,-0.3142237935896115,26.31634,54.19729,183.9935,0.436234,-0.2179826,0.8699378,18
8.56,-38.94566,1.331585,-33.6811,-0.3434626700748202,-0.0669816017869195,-0.3310628438567184,29.79384,54.17797,183.9525,0.431914,-0.2439189,0.8639027,18
8.58,-38.95456,1.128696,-33.67975,-0.3819796411323235,-0.0499968815559011,-0.3488345325047568,30.05533,52.29962,183.7133,0.4178833,-0.2464146,0.8701934,18
8.6,-38.86396,1.324488,-33.61606,-0.4206352239950153,-0.0612258911501783,-0.3636767845769233,33.49368,52.20135,183.5268,0.4131283,-0.2716007,0.8634287,18
8.62,-38.87484,1.121791,-33.61876,-0.453945501624708,-0.0701912115542932,-0.3784360520513523,34.73947,50.74953,183.2443,0.4011956,-0.2812049,0.8655978,18
8.64,-38.78502,1.319768,-33.55614,-0.4684918463220473,-0.0215368234141647,-0.3780116338242969,38.14288,50.55324,182.914,0.3959092,-0.3056286,0.8578952,18
8.66,-38.73607,1.11558,-33.52919,-0.4823457205729546,-0.0285181440190975,-0.3792073501977682,41.88016,50.28287,182.3506,0.3900751,-0.3316036,0.8484102,18
8.68,-38.64697,1.315582,-33.46774,-0.496159591965843,-0.0620497520342694,-0.3825914496014309,45.25008,49.98701,181.9215,0.3840986,-0.3551641,0.8392125,18
8.7,-38.62538,1.114479,-33.45384,-0.5046203917865464,-0.0949701802564175,-0.3846341278841203,44.69384,50.184,181.1242,0.3888278,-0.3481634,0.8391557,18
8.72,-38.52157,1.112953,-33.38254,-0.4915222084673827,-0.0992957597589714,-0.3684335606543616,48.07357,49.17505,179.515,0.3815663,-0.368778,0.8297489,18
8.74,-38.43427,1.313436,-33.32244,-0.4749357308590385,-0.0721290936063478,-0.3503201119593813,51.37057,48.73158,178.9339,0.3754519,-0.3913463,0.8192207,18
8.76,-38.34704,1.511137,-33.26238,-0.4535549802768761,-0.0457648176013626,-0.3305504325357433,54.66338,48.19535,178.2629,0.3690245,-0.4135809,0.8080084,18
8.78,-38.25627,1.103726,-33.20103,-0.422766582476501,0.0363967175413031,-0.3039589121615473,56.53153,47.16007,176.1735,0.3666244,-0.4220157,0.8004443,18
8.8,-38.17891,1.102239,-33.14835,-0.3784901268469207,0.0041639261296646,-0.2692167811809129,59.69934,45.66079,174.0035,0.3600634,-0.4405025,0.7881896,18
8.82,-38.0928,1.295976,-33.09042,-0.3304221512886558,-0.0293675607426096,-0.2333399122261545,62.9142,44.52102,172.7047,0.3532159,-0.4614292,0.7752792,18
8.84,-37.90658,1.11815,-32.95985,-0.2650298025164206,-0.0251675382275085,-0.1845914014527627,61.80024,37.94127,167.2175,0.3312698,-0.4515809,0.7878315,18
8.86,-37.82154,1.30458,-32.90106,-0.1964247381264776,-0.0447496337014759,-0.1346594428085663,64.87498,35.90135,164.9358,0.3247548,-0.4717706,0.7742972,18
8.88,-37.73722,1.488389,-32.84275,-0.1252641360582975,-0.0666296578546619,-0.0838902171139133,67.90491,33.27431,162.0699,0.3179826,-0.4915776,0.7601483,18
8.9,-37.62082,1.161974,-32.76064,-0.0686786317054579,-0.0092006608715814,-0.043908259180815,55.73277,37.69335,168.8025,0.3273716,-0.4123802,0.8179215,18
8.92,-37.46993,1.195778,-32.65855,-0.0101508871548903,-0.0232878186450423,-0.0059082692903622,48.24153,43.16191,173.2199,0.3575839,-0.3594978,0.8383324,18
8.94,-37.38419,1.372166,-32.59631,0.0347667202540362,0.0094489061410865,0.0220165280437614,51.37426,42.42515,172.2558,0.3526147,-0.3811458,0.8276061,18
8.96,-37.2996,1.545802,-32.5349,0.08559893511456,0.0211828200521827,0.0482644480955798,54.49697,41.54284,171.1506,0.3473732,-0.4024915,0.8162404,18
8.98,-37.19758,1.239262,-32.50121,0.1375424390023267,0.0317401547405345,0.0741142423839624,32.00293,48.21884,175.3572,0.4025233,-0.2355042,0.8721206,18
9.0,-37.09964,1.408677,-32.43172,0.1802344123687245,0.0407369263765773,0.0940195410235023,35.52277,47.94827,174.8706,0.399042,-0.2611416,0.8637583,18
9.02,-37.00334,1.574553,-32.3634,0.222873679150874,0.0487687662253237,0.1129091866985003,39.04056,47.62605,174.3389,0.3951785,-0.2865292,0.8545702,18
9.04,-36.90153,1.267967,-32.32223,0.2565402171353659,0.0532308038625555,0.1298003840991985,8.08806,54.43085,177.564,0.4574287,-0.05300424,0.8861931,18
9.06,-36.83268,1.271859,-32.27834,0.2880480383915049,0.0566764448858247,0.1447405246009734,2.330704,55.77267,177.9454,0.4678694,-0.009589276,0.8833819,18
9.08,-36.7312,1.438272,-32.20884,0.316205088248374,0.0592487355814852,0.1598302337432144,5.904244,55.77345,177.9564,0.4678418,-0.03718381,0.8821312,18
9.1,-36.63157,1.600982,-32.14062,0.3418735571512208,0.0603950625785476,0.1733553489617425,9.476819,55.77493,177.9675,0.4673595,-0.06473457,0.8800232,18
9.12,-36.60057,1.285299,-32.12392,0.3751036165934707,0.0616933581134113,0.1934199907771492,353.3097,57.88042,178.7286,0.4824759,0.05642029,0.8738937,18
9.14,-36.49872,1.448637,-32.05247,0.4049635851716866,0.0612443857461591,0.2118641784283159,356.8979,57.86469,178.9127,0.4833528,0.02827679,0.8749558,18
9.16,-36.39889,1.608193,-31.98243,0.415776702462832,0.0549994958945223,0.2187536143736492,0.4850981,57.86052,179.0954,0.4837545,0.0001137997,0.875158,18
9.18,-36.34286,1.282561,-31.9495,0.4224404347983697,0.0479753254020883,0.223204783077024,353.7895,58.71943,179.7572,0.4894701,0.04824986,0.8703335,18
9.2,-36.31421,1.269893,-31.92844,0.4310164188959113,0.0845788915268333,0.2306365134002654,354.0787,58.86972,179.9981,0.4907771,0.04499082,0.8697531,18
9.22,-36.21593,1.433504,-31.85742,0.4177716963653877,0.04625857565744,0.2209090069545891,357.5956,58.84861,180.2887,0.4912097,0.01703676,0.8707851,18
9.24,-36.15991,1.250291,-31.82728,0.4017897937776187,0.0337162103415245,0.2111503272030588,359.435,59.24895,181.3634,0.4943233,-0.00159529,0.8691828,18
9.26,-36.05964,1.414968,-31.75645,0.3825535629015393,0.0211830267833051,0.1990227649323044,3.03135,59.25504,181.6461,0.4938052,-0.0300885,0.8690516,18
9.28,-35.96129,1.575957,-31.68698,0.3693960418381392,0.0565750887193672,0.193754677586698,6.627365,59.27897,181.9303,0.4927978,-0.05854831,0.8680596,18
9.3,-35.99751,1.237682,-31.70868,0.330651231320556,0.0171554017478141,0.1718864270837539,6.195529,59.54304,182.587,0.4946317,-0.05808798,0.8671288,18
9.32,-35.98429,1.232233,-31.69614,0.2891992797290763,-0.0223983103052891,0.148121989532012,8.255908,59.49088,182.8572,0.4931483,-0.07481746,0.8666072,18
9.34,-35.88378,1.401303,-31.6267,0.2644612679495326,0.0093857990879479,0.136666915126784,11.86613,59.53746,183.1238,0.4912116,-0.1031533,0.8644649,18
9.36,-35.89098,1.208702,-31.62211,0.2200397012925838,-0.0117489240645511,0.1126665016645462,13.44887,59.72937,183.5428,0.4911526,-0.1167831,0.8626292,18
9.38,-35.79191,1.383343,-31.55396,0.1632032837844583,-0.0575136941166581,0.0805909837187046,17.0401,59.80283,183.8221,0.4884505,-0.1448031,0.8593038,18
9.4,-35.69427,1.554439,-31.48681,0.1216828153469808,-0.0498055702774316,0.0585468952436007,20.62988,59.89656,184.1123,0.485267,-0.1726722,0.8551311,18
9.42,-35.7786,1.183143,-31.53559,0.0654591050261368,-0.0963453941627328,0.0281390360681856,17.41609,59.19963,183.9084,0.4834722,-0.1482144,0.8615238,18
9.44,-35.73764,1.168209,-31.49911,0.0219681951127714,-0.0859447415332215,0.0055573087349456,20.15504,57.87007,184.0639,0.470624,-0.169931,0.8641266,18
9.46,-35.6417,1.353056,-31.43407,-0.0222070410858945,-0.0756513592252594,-0.0176760568631872,23.69006,57.92056,184.1991,0.4669949,-0.1968388,0.859391,18
9.48,-35.66465,1.152997,-31.44086,-0.073591460224601,-0.0940218941371178,-0.0447746827737898,23.08423,56.30294,184.0512,0.4557388,-0.1926471,0.8666704,18
9.5,-35.57021,1.341916,-31.3764,-0.1348867185339806,-0.1379860881007752,-0.0783688605810213,26.59824,56.32072,184.0935,0.4517485,-0.2190794,0.8613169,18
9.52,-35.56148,1.1327,-31.35754,-0.1763847524036208,-0.1236225993532713,-0.0995766047135338,28.0452,53.65837,183.9434,0.4301841,-0.2311597,0.8690143,18
9.54,-35.51427,1.128757,-31.32052,-0.225151867264735,-0.165114682228035,-0.1246490891178968,30.03792,52.67266,183.6977,0.4207691,-0.2459446,0.8688496,18
9.56,-35.42328,1.324618,-31.25802,-0.2578079655416401,-0.1459753880301983,-0.140847820355968,33.46404,52.56545,183.494,0.4159868,-0.270941,0.862146,18
9.58,-35.33261,1.517466,-31.19573,-0.287989786979085,-0.1267147185880396,-0.1559906310390957,36.88884,52.43845,183.2737,0.4108332,-0.2956877,0.8546721,18
9.6,-35.36128,1.118734,-31.20737,-0.314964989353689,-0.1352966994303271,-0.1713941439775275,37.41157,50.50774,182.9975,0.3963695,-0.3005273,0.8599383,18
9.62,-35.27134,1.317506,-31.14557,-0.3467838762681006,-0.1699887088654224,-0.1907876224458635,40.80532,50.26048,182.6057,0.3907563,-0.3245861,0.8516957,18
9.64,-35.18156,1.513331,-31.08387,-0.3597645612583928,-0.1443407948450084,-0.1983743522782113,44.19662,49.96717,182.1718,0.3847994,-0.3483508,0.8427027,18
9.66,-35.14214,1.114523,-31.0663,-0.3707769337691804,-0.1753175183597363,-0.2053858461175108,44.70867,50.40979,181.1069,0.3905108,-0.3479105,0.8383207,18
9.68,-35.09107,1.113787,-31.03184,-0.37158876852209,-0.1456495583598522,-0.2048888432475628,46.36944,49.91832,180.3265,0.3868753,-0.3580328,0.8338616,18
9.7,-35.00323,1.314363,-30.97215,-0.3681658339956133,-0.1162998727059639,-0.201962056565506,49.67418,49.52705,179.8004,0.3807945,-0.380752,0.823748,18
9.72,-34.8827,1.107158,-30.89015,-0.3431017679088852,-0.116240146430653,-0.1851855730918723,53.32512,48.26594,177.6542,0.373686,-0.4019502,0.8116313,18
9.74,-34.79591,1.305587,-30.83108,-0.3164709926097644,-0.0849599853191657,-0.1681972540429792,56.59356,47.62586,176.8727,0.3672067,-0.4238208,0.800023,18
9.76,-34.70929,1.501293,-30.77213,-0.286237079726769,-0.0547704413219327,-0.1495904736048143,59.85509,46.83568,175.9436,0.3604253,-0.4453332,0.7877557,18
9.78,-34.62296,1.694293,-30.71338,-0.2461089561205818,-0.107739375451212,-0.1243421400907243,63.10766,45.84184,174.813,0.3533476,-0.4664705,0.7748401,18
9.8,-34.47368,1.109178,-30.60972,-0.2038503796061559,-0.0732021177562814,-0.0981221240286096,62.66119,39.43885,167.8056,0.3385733,-0.4561003,0.7809052,18
9.82,-34.38791,1.297856,-30.55162,-0.1578097638369779,-0.0104770375954939,-0.0698499404424364,65.77235,37.41293,165.5566,0.3318391,-0.4763526,0.7671894,18
9.84,-34.21008,1.144487,-30.42629,-0.0944301760209911,-0.0201679809045602,-0.0296916596229595,58.35121,37.3249,167.8383,0.3267478,-0.4296605,0.8060418,18
9.86,-34.12101,1.161896,-30.36442,-0.045300955274854,0.0007182613747235,-0.000231545707495,55.7436,37.83176,168.804,0.3283474,-0.4121841,0.8174843,18
9.88,-34.03556,1.341672,-30.30385,0.0043457683923504,0.0214359218329454,0.0293942538227218,58.80523,36.32027,167.008,0.3225603,-0.4327753,0.8051711,18
9.9,-33.95113,1.518757,-30.24399,0.0542427001186638,0.0388606926938112,0.0589770801807687,61.83629,34.45911,164.8666,0.3165215,-0.4530211,0.7922288,18
9.92,-33.86074,1.211904,-30.19693,0.099427831995623,0.0585764689259181,0.0796351654067577,43.04297,44.93372,173.9835,0.3728068,-0.3198824,0.8511307,18
9.94,-33.7709,1.385814,-30.13215,0.1360817546694104,0.0993108324536488,0.0946255270928033,46.30903,44.39034,173.211,0.368281,-0.3428714,0.8410302,18
9.96,-33.63633,1.250332,-30.07479,0.1728462455102901,0.1374518854510119,0.10914714458867,26.14644,49.95891,176.0102,0.4182363,-0.190594,0.8791052,18
9.98,-33.53775,1.419118,-30.00585,0.2076401072493845,0.1036908225086238,0.1178628671032457,29.66165,49.79082,175.6512,0.4154553,-0.2165739,0.8721396,18
10.0,-33.49637,1.26383,-29.99075,0.2331375753285303,0.1150570031301104,0.1252235857564705,13.81677,53.08377,177.1731,0.4461271,-0.09663022,0.886517,18
10.02,-33.39698,1.431757,-29.92207,0.2570419312124361,0.1257500263444847,0.1313128728690733,17.3369,53.04445,177.0268,0.4447941,-0.1233573,0.8824968,18
10.04,-33.29353,1.275793,-29.85939,0.28065464028459,0.0882474473887009,0.1366372316898552,358.3577,56.70824,178.1845,0.4746116,0.02013333,0.8799362,18
10.06,-33.19227,1.44153,-29.78989,0.3011112384858179,0.1179820296419032,0.1445185957828791,1.918679,56.70842,178.2573,0.4750237,-0.007511193,0.8796825,18
10.08,-33.135,1.285234,-29.75295,0.3225618852637888,0.1691130887786557,0.1542434591886641,353.3146,57.91001,178.7417,0.4827096,0.05632294,0.8737688,18
10.1,-33.03336,1.448531,-29.68113,0.3301951051820184,0.1492197682929811,0.1546641154747208,356.9036,57.89309,178.9399,0.4835774,0.02811727,0.8748358,18
10.12,-32.9178,1.295999,-29.60615,0.3307734922610854,0.1005295430168817,0.1513559068697092,353.4714,58.51492,179.5134,0.4877265,0.05174979,0.8711272,18
10.14,-32.81686,1.45685,-29.53252,0.3374079943749497,0.120383153734893,0.1539212824821199,357.0509,58.49097,179.8029,0.4883514,0.02329285,0.872266,18
10.16,-32.80669,1.26984,-29.5258,0.3296411008951572,0.089841169153796,0.1457070735683192,354.0828,58.87686,180.0023,0.4908338,0.04494059,0.8697231,18
10.18,-32.70837,1.433396,-29.45462,0.318082409046561,0.0580900985298847,0.1355380817976539,357.6035,58.85549,180.2969,0.4912637,0.01694121,0.870756,18
10.2,-32.61198,1.593353,-29.38483,0.3085410625646414,0.0945636261510655,0.1284257703380387,1.123241,58.85223,180.5899,0.4912268,-0.01106646,0.8709614,18
10.22,-32.63571,1.250286,-29.41273,0.2867538450079068,0.0828243146128308,0.1151130510021469,359.434,59.26368,181.3645,0.494435,-0.001594081,0.869119,18
10.24,-32.56503,1.240572,-29.35948,0.2621604233584835,0.0714069462340726,0.1001870715395196,4.016162,59.48451,182.0733,0.4951629,-0.03938957,0.8679053,18
10.26,-32.46444,1.406876,-29.28837,0.2403677106777215,0.1089474476285889,0.089223775609736,7.639798,59.51532,182.3768,0.4939241,-0.06809382,0.8667035,18
10.28,-32.36572,1.569472,-29.21858,0.1925007920612369,0.0706991243953492,0.0617906076783931,11.2622,59.56601,182.6853,0.4921884,-0.09672147,0.8646296,18
10.3,-32.41907,1.226219,-29.24791,0.1419189360457973,0.032861035475092,0.0327913893670586,10.3563,59.45549,183.1657,0.4915022,-0.09198633,0.8657538,18
10.32,-32.31851,1.396617,-29.17807,0.1081080521018891,0.066905479411206,0.0153956635009184,13.98372,59.51391,183.4427,0.4892342,-0.1204275,0.8631086,18
10.34,-32.21963,1.563345,-29.10939,0.0636147969511164,0.0473385206308041,-0.0078604579421934,17.60974,59.59176,183.7286,0.4864744,-0.148739,0.8595951,18
10.36,-32.2779,1.190819,-29.14015,0.0084718731784128,0.0034132432658309,-0.0376950970314409,16.1034,59.7338,183.7762,0.4888081,-0.1376432,0.8604679,18
10.38,-32.25341,1.183198,-29.11951,-0.0321119070728235,0.0148327504935366,-0.0587467947197946,17.4067,59.22663,183.9059,0.4836869,-0.1481231,0.8614184,18
10.4,-32.15612,1.364044,-29.05381,-0.0737470525976795,0.0261418381127516,-0.080400721677309,20.95937,59.29786,184.1227,0.4804321,-0.1754673,0.8572597,18
10.42,-32.15366,1.16067,-29.03961,-0.1422244191807293,-0.0449712139120406,-0.1183583372561223,21.60019,57.13204,184.1081,0.4635008,-0.1813015,0.8653671,18
10.44,-32.05809,1.347513,-28.97448,-0.1837541438265235,-0.0342099530629416,-0.1391307894299687,25.14111,57.1702,184.2043,0.4596697,-0.2081138,0.860301,18
10.46,-31.96331,1.531059,-28.90988,-0.230441451906306,-0.0497274067214993,-0.1628513233908659,28.68095,57.21632,184.3061,0.4554008,-0.2347196,0.8544149,18
10.48,-32.02735,1.138998,-28.93978,-0.2754492473746097,-0.0624898598086142,-0.1853761581130677,26.3145,54.68947,183.9738,0.4400061,-0.2175755,0.8680463,18
10.5,-32.00972,1.132716,-28.92367,-0.3160339931707234,-0.0741270735871022,-0.2052674336483866,28.04112,53.72515,183.9432,0.4306959,-0.2310817,0.8687703,18
10.52,-31.91764,1.327142,-28.86025,-0.3537519711364658,-0.0830452081475603,-0.2233541563697896,31.50795,53.66459,183.8212,0.426106,-0.2566237,0.862421,18
10.54,-31.88947,1.121793,-28.83015,-0.3817644651328664,-0.0896890825578464,-0.2369306639349271,34.73941,51.16313,183.2481,0.4043078,-0.2808427,0.8641478,18
10.56,-31.79899,1.319737,-28.7679,-0.3995907708931057,-0.064127926899161,-0.2446414273013646,38.15355,50.96875,182.9211,0.3989833,-0.3053034,0.8564348,18
10.58,-31.70871,1.514696,-28.70579,-0.4137505078262542,-0.0384076526158778,-0.2503205214815001,41.56575,50.73846,182.562,0.393304,-0.3294847,0.8479596,18
10.6,-31.71779,1.115586,-28.7186,-0.436875052148221,-0.0995493903190612,-0.2633904127082109,41.87484,50.66025,182.3518,0.3928715,-0.3311239,0.8471371,18
10.62,-31.6881,1.114984,-28.69835,-0.4362337949899459,-0.1009794189872623,-0.2618128194834517,43.2625,50.60033,181.7505,0.3921264,-0.3393026,0.8427204,18
10.64,-31.59991,1.315253,-28.63763,-0.4313114823703379,-0.100309283212976,-0.257852239244956,46.59819,50.3091,181.3384,0.3861907,-0.3625558,0.8332578,18
10.66,-31.52828,1.112927,-28.58953,-0.4223730471219467,-0.1009463730213287,-0.2516948859310961,48.07385,49.48901,179.5338,0.3837771,-0.3683678,0.828728,18
10.68,-31.4407,1.313371,-28.52948,-0.4017722888736403,-0.1026320519261719,-0.2367456554283937,51.37844,49.05907,178.9705,0.3776548,-0.390989,0.8181769,18
10.7,-31.3532,1.511023,-28.46948,-0.3716511793897856,-0.0727988657805994,-0.2156990159272065,54.67895,48.53893,178.3198,0.3712166,-0.4132748,0.8069404,18
10.72,-31.21224,1.102175,-28.37778,-0.3374857562798246,-0.0436844469143838,-0.1923034207994893,59.69085,47.0705,174.0557,0.3695445,-0.4376912,0.783845,18
10.74,-31.12507,1.295852,-28.32133,-0.2869044545745547,-0.0378585825461076,-0.1576534132515932,62.91279,45.97491,172.8072,0.3626156,-0.4585665,0.770968,18
10.76,-31.03829,1.486874,-28.26513,-0.2335560032245851,-0.0565781987681522,-0.1211500161957523,66.11999,44.56968,171.2511,0.3553924,-0.4790604,0.7574646,18
10.78,-30.90539,1.118147,-28.17245,-0.1781851962980845,-0.0767682079746701,-0.083454105256854,61.80092,39.11676,167.2224,0.3393147,-0.4489475,0.7843999,18
10.8,-30.8192,1.304564,-28.11533,-0.1210649094550242,-0.1017141944351103,-0.0447614641481255,64.87702,37.0823,164.9467,0.3326713,-0.4690183,0.7709258,18
10.82,-30.73374,1.488361,-28.05868,-0.0693460031269035,-0.0883389365780847,-0.0105794185877567,67.90862,34.46171,162.0879,0.3257639,-0.4887086,0.7568394,18
10.84,-30.54215,1.178348,-27.92637,-0.0166884561043709,-0.0750224026973981,0.0243018733678366,52.04596,41.43383,171.2108,0.3483965,-0.3847986,0.8261499,18
10.86,-30.45994,1.195631,-27.87135,0.0329222999455471,-0.0568782504466493,0.0523336482757197,48.27494,43.95312,173.197,0.3634054,-0.3582831,0.8356867,18
10.88,-30.37323,1.372049,-27.81046,0.0824479612494957,-0.0147753190798387,0.0802379404182591,51.40636,43.20782,172.2222,0.3583416,-0.3798128,0.8249961,18
10.9,-30.28769,1.545713,-27.7504,0.1270315869450149,-0.0199826533483897,0.1010856451201824,54.52765,42.3153,171.1046,0.3530013,-0.4010419,0.813668,18
10.92,-30.20184,1.239234,-27.72684,0.1724553883199768,-0.0273891316318558,0.1222293428708916,32.02407,48.92121,175.3512,0.4078589,-0.2347333,0.8695801,18
10.94,-30.10302,1.408669,-27.65867,0.2182031055817028,-0.0126450406036759,0.1433487966209372,35.54252,48.64811,174.8603,0.4043182,-0.2602569,0.8612395,18
10.96,-30.00585,1.574567,-27.59165,0.259126288990811,-0.0220225849257845,0.1602866597390382,39.05888,48.32298,174.3241,0.4003905,-0.2855319,0.8520761,18
10.98,-29.92237,1.267958,-27.56142,0.2929784197778455,0.0123547997858457,0.1776360394514031,8.110828,55.01479,177.5594,0.4619381,-0.0529005,0.8838342,18
11.0,-29.87087,1.271848,-27.52954,0.3241195267497678,0.0440851889012859,0.1932474898025971,2.353691,56.33211,177.9425,0.4721781,-0.009630322,0.8810814,18
11.02,-29.76869,1.438268,-27.46109,0.3565401580190346,0.0521160417866879,0.2123565266343048,5.927114,56.33278,177.9519,0.4721418,-0.03714597,0.8798249,18
11.04,-29.65568,1.285278,-27.38788,0.3862308375381609,0.0586903710071611,0.2305892830910005,353.3139,58.37405,178.7258,0.486236,0.05632009,0.8718092,18
11.06,-29.55318,1.448621,-27.31735,0.4054704439659642,0.0644305266903489,0.2428393444763368,356.9024,58.3585,178.9081,0.4871184,0.02824113,0.8728658,18
11.08,-29.4527,1.608181,-27.24821,0.4209246210226927,0.0687677875723462,0.2538701985611857,0.4899439,58.35437,179.0891,0.4875219,0.0001423783,0.8730643,18
11.1,-29.42095,1.296019,-27.22993,0.4384225284376364,0.1166518925448088,0.2679611667670798,353.4715,58.90824,179.5075,0.4907111,0.05169105,0.8694494,18
11.12,-29.34403,1.269897,-27.17423,0.4347306840961495,0.0871080208246841,0.2659670921454067,354.0817,59.2285,179.9988,0.4934988,0.04488568,0.8682131,18
11.14,-29.24522,1.433453,-27.10371,0.4250206371348497,0.1032400359108303,0.2615724288070127,357.6026,59.20732,180.291,0.4939339,0.01693446,0.8692441,18
11.16,-29.21691,1.254478,-27.09364,0.4105995142686875,0.1174364457288547,0.2543567115185747,357.4571,59.37254,181.1277,0.4952944,0.01440358,0.8683863,18
11.18,-29.11655,1.418715,-27.02366,0.3878790731782957,0.1086095167766789,0.2417662283126072,1.035005,59.36903,181.3943,0.4950716,-0.01387128,0.8687202,18
11.2,-29.01815,1.579291,-26.95505,0.3621616879046399,0.1000232632912495,0.2274851557164821,4.612442,59.38218,181.6611,0.4943638,-0.04212739,0.8682027,18
11.22,-29.04913,1.237842,-26.96436,0.3230127878632629,0.040426253875858,0.2047812479755966,6.176066,59.23682,182.569,0.4923298,-0.05788234,0.8684525,18
11.24,-28.94839,1.405162,-26.8935,0.2907348978812418,0.0296242322973447,0.1890469883703036,9.805712,59.27584,182.8496,0.4907085,-0.08651283,0.8667709,18
11.26,-28.84946,1.568772,-26.82391,0.2601131546674735,0.0462946705005024,0.1742527779383849,13.43413,59.33363,183.1363,0.4885926,-0.1150482,0.8642151,18
11.28,-28.90721,1.217518,-26.85564,0.209508218959713,0.0112840206348285,0.1463143173304817,11.88689,59.35655,183.3385,0.4896381,-0.1042709,0.8652758,18
11.3,-28.80782,1.390204,-26.78693,0.1565084072709557,-0.0227475460855216,0.116803392794234,15.48181,59.41844,183.6001,0.4871652,-0.1323561,0.8623091,18
11.32,-28.70996,1.559313,-26.71929,0.1041974488764228,-0.0351841963182213,0.0877011584703075,19.07541,59.49888,183.8707,0.4842113,-0.1603027,0.8584907,18
11.34,-28.7589,1.183127,-26.74209,0.0427277696412211,-0.0732457500178517,0.0534213709826953,17.41803,59.06626,183.913,0.4824615,-0.1483009,0.8620859,18
11.36,-28.72592,1.175779,-26.71622,-0.019998573524246,-0.1095263996419235,0.0182940801268358,18.7352,58.5563,184.0471,0.4772141,-0.1589249,0.8628979,18
11.38,-28.62942,1.358617,-26.65062,-0.0775060772729681,-0.1206046690907985,-0.0135501628354783,22.27962,58.62113,184.232,0.4737717,-0.1860896,0.8584587,18
11.4,-28.53391,1.538105,-26.58569,-0.1238591192019105,-0.1013022231694506,-0.0382877351078456,25.82278,58.70043,184.4265,0.4698762,-0.2130678,0.8531981,18
11.42,-28.61925,1.153044,-26.63077,-0.1879772691665837,-0.1368021106796195,-0.0742267364894444,23.07421,56.22036,184.0439,0.4551374,-0.1925889,0.8670087,18
11.44,-28.52501,1.342019,-26.56651,-0.2429917489126642,-0.1420986880243901,-0.1048215224100639,26.57951,56.23489,184.0785,0.4511547,-0.2189391,0.8616755,18
11.46,-28.53311,1.132738,-26.55927,-0.296283768577231,-0.1447529156972992,-0.1344189852974491,28.03422,53.59389,183.9416,0.4297119,-0.2311152,0.8692741,18
11.48,-28.44122,1.327171,-26.49572,-0.3602227752706048,-0.2039198423842577,-0.1709630980182632,31.49858,53.53262,183.8183,0.4251315,-0.2566507,0.8629273,18
11.5,-28.45332,1.124856,-26.49634,-0.3986656529678809,-0.1765114118495993,-0.1924769215879456,32.0821,51.64214,183.5273,0.4107496,-0.2615026,0.8684046,18
11.52,-28.36274,1.322008,-26.43366,-0.4351636440005761,-0.1753171659829788,-0.2142406259424003,35.50422,51.49195,183.2574,0.405726,-0.2862789,0.8612581,18
11.54,-28.31215,1.117164,-26.39844,-0.4683695159869785,-0.2003035836710083,-0.2350792012334053,39.63406,50.47864,182.6668,0.3939044,-0.3159049,0.8541018,18
11.56,-28.22248,1.316563,-26.33706,-0.488362891680941,-0.1645808297279952,-0.2489984489548629,43.01487,50.20428,182.2515,0.3880952,-0.3396859,0.8453925,18
11.58,-28.13293,1.513039,-26.27578,-0.5118396739679545,-0.1853834016756525,-0.2661100698828123,46.39304,49.87801,181.7879,0.3819471,-0.3631623,0.8359441,18
11.6,-28.13086,1.114514,-26.27984,-0.5311822715629892,-0.2054249109379437,-0.2810133337671767,44.69373,50.41599,181.115,0.3905538,-0.3478209,0.8383549,18
11.62,-28.02695,1.112964,-26.20885,-0.5388361234701993,-0.1962636944165198,-0.2877424669888953,48.07263,49.39925,179.5125,0.3831984,-0.3684237,0.8290001,18
11.64,-27.93929,1.313451,-26.14911,-0.5247175931134462,-0.1844678997885128,-0.2802358028445,51.37236,48.9521,178.9266,0.37705,-0.3909757,0.8184786,18
11.66,-27.85169,1.511151,-26.08941,-0.5059003213234634,-0.1715134233871318,-0.2702355886597307,54.66777,48.41133,178.25,0.3705868,-0.4131929,0.8072726,18
11.68,-27.76147,1.10374,-26.02851,-0.4768359822796268,-0.1557630719956242,-0.2536097970114861,56.51709,47.37053,176.1798,0.3680911,-0.4215357,0.7998376,18
11.7,-27.67505,1.299814,-25.97005,-0.443659600963608,-0.1395610927742865,-0.2348683740399542,59.76402,46.54653,175.2101,0.3614136,-0.4429602,0.7875801,18
11.72,-27.58892,1.493204,-25.91178,-0.4058582203115746,-0.178030413892577,-0.2132504027054271,63.00102,45.51179,174.0318,0.354441,-0.4640123,0.7746798,18
11.74,-27.37892,1.118091,-25.76575,-0.3623759300494336,-0.1515901322858903,-0.1874168847448216,61.8106,38.05762,167.1961,0.332147,-0.4513329,0.7874003,18
11.76,-27.29014,1.128892,-25.70281,-0.3166267940278864,-0.1253029467712205,-0.1598997743816235,60.94979,36.8162,166.7496,0.3258601,-0.4465966,0.7938135,18
11.78,-27.20516,1.313059,-25.64342,-0.2673198204978879,-0.1486711893921708,-0.1302090006211957,64.00172,34.76926,164.4423,0.3194999,-0.466776,0.7804242,18
11.8,-27.12101,1.494593,-25.5846,-0.2230516529615465,-0.0920455437322302,-0.1044024716530551,67.00726,32.1587,161.5746,0.3128876,-0.4865786,0.7664181,18
11.82,-27.0193,1.17828,-25.5161,-0.178497212080591,-0.0826804180134882,-0.0807212714370941,52.05542,40.72028,171.2415,0.3431348,-0.3863178,0.8283254,18
11.84,-26.93381,1.356362,-25.45473,-0.1248415298362055,-0.0961359371519254,-0.0541181551003755,55.15895,39.65949,169.9242,0.3377639,-0.4074395,0.8167993,18
11.86,-26.77737,1.228405,-25.37428,-0.0846904936018151,-0.0401847769302474,-0.0370160037087536,37.83042,46.54319,174.7237,0.3870657,-0.2802762,0.8622189,18
11.88,-26.68272,1.399692,-25.30715,-0.0489092452885024,-0.0080274918128154,-0.0252996556033751,41.236,46.13213,174.0782,0.382943,-0.3046098,0.8528472,18
11.9,-26.62404,1.250387,-25.28865,-0.0119896075794674,0.0228106948613651,-0.0130325305470679,26.16798,49.95349,176.0012,0.4181975,-0.1907337,0.879074,18
11.92,-26.5257,1.41932,-25.22013,0.016201933733428,0.0037588092044947,-0.0084840928363516,29.67002,49.78251,175.6363,0.415415,-0.2165943,0.8721334,18
11.94,-26.4225,1.268244,-25.16569,0.0478279010131768,0.0299690083226369,0.0029697641426977,8.093498,54.48707,177.5559,0.4578665,-0.05298907,0.8859616,18
11.96,-26.35347,1.271929,-25.12174,0.078400248938991,0.0549734275538258,0.0139437101952082,2.354183,55.83252,177.9414,0.4683324,-0.009740704,0.883131,18
11.98,-26.25213,1.438454,-25.05259,0.1013523436915813,0.0309469753940453,0.0195617205970384,5.918175,55.83316,177.9502,0.4683024,-0.03724518,0.8818786,18
12.0,-26.15265,1.601295,-24.9847,0.1249797972421684,0.0737721364652657,0.0302800003062078,9.481187,55.83435,177.9592,0.4678197,-0.06470595,0.8797739,18
12.02,-26.08247,1.291377,-24.93462,0.1489783113140035,0.0935322053333737,0.0423970580999246,352.2262,57.70048,179.0632,0.4809106,0.06330748,0.8741076,18
12.04,-25.98125,1.453297,-24.86076,0.1704423634873491,0.11142606822052,0.0543249282141515,355.8271,57.67543,179.3038,0.481808,0.03482052,0.8754993,18
12.06,-25.92705,1.296067,-24.8268,0.1869412241100989,0.172005018605566,0.064751028219935,353.4602,58.01904,179.5268,0.4839553,0.05188207,0.8732222,18
12.08,-25.8273,1.457011,-24.75209,0.1824116672137874,0.1558160805798379,0.0599055865084441,357.0293,57.99391,179.8297,0.4845661,0.02339199,0.8743694,18
12.1,-25.72962,1.614164,-24.67894,0.174781720895341,0.1379972951033458,0.0540578252616863,0.5974475,57.98767,180.1305,0.4847035,-0.005112376,0.8746624,18
12.12,-25.7487,1.254346,-24.70362,0.162337142913858,0.1378241431793594,0.0460569520732767,357.4692,58.222,181.1311,0.4865513,0.01449243,0.8733172,18
12.14,-25.64946,1.418414,-24.63129,0.1509343681417672,0.165420768347302,0.0394353584461857,1.061015,58.21852,181.4016,0.4863205,-0.01403879,0.873646,18
12.16,-25.55215,1.5788,-24.56038,0.1366944841305071,0.1906243502703141,0.0314971480060584,4.651764,58.23204,181.6727,0.4856095,-0.04254758,0.8731118,18
12.18,-25.57322,1.240372,-24.57572,0.1100649810887937,0.191258662016739,0.0172899245995314,4.035247,58.79689,182.0663,0.4899431,-0.03951382,0.8708572,18
12.2,-25.47267,1.406412,-24.50312,0.0813800968950837,0.19219098828763,0.0024199972869594,7.684769,58.82733,182.3643,0.488699,-0.06847086,0.8696328,18
12.22,-25.44458,1.226286,-24.47682,0.0311934982808885,0.1400774935001136,-0.0253938857575501,10.34154,58.87803,183.1639,0.4871435,-0.09197091,0.8682277,18
12.24,-25.40141,1.217585,-24.44537,-0.0015253424210284,0.1622775927790313,-0.0422829104681272,11.87628,59.0564,183.3373,0.4873783,-0.1042536,0.8665622,18
12.26,-25.30252,1.390313,-24.37626,-0.036111548614484,0.1834359073540641,-0.0601040269601536,15.46602,59.11808,183.5981,0.4849184,-0.1323332,0.8635964,18
12.28,-25.32339,1.199695,-24.38638,-0.095681367104027,0.1244996547339408,-0.0942883934265061,14.75682,59.222,183.6623,0.4861995,-0.127251,0.8637885,18
12.3,-25.2256,1.376425,-24.31825,-0.133013474101173,0.1425068046493908,-0.1139637673031384,18.33229,59.29875,183.9317,0.4833376,-0.1551125,0.8601698,18
12.32,-25.264,1.183184,-24.33879,-0.190555123183266,0.1060889340502212,-0.1455527157468243,17.40197,58.73682,183.9214,0.4799848,-0.1483453,0.8634887,18
12.34,-25.22302,1.168213,-24.30261,-0.2480327558694752,0.0711485680547412,-0.1767073180716996,20.14558,57.46976,184.0813,0.4675861,-0.1701188,0.8657847,18
12.36,-25.12786,1.353008,-24.23645,-0.2840092087403452,0.1159092760501554,-0.1942901488847872,23.67974,57.5272,184.2351,0.4639919,-0.1971398,0.8610247,18
12.38,-25.15038,1.152997,-24.24425,-0.3316238802589031,0.1053315107065169,-0.2192867467741588,23.07482,55.95766,184.0702,0.4531035,-0.1928431,0.8680634,18
12.4,-25.05667,1.341859,-24.17875,-0.3774991976593078,0.0970392966478742,-0.2427341677584218,26.58836,55.9839,184.1327,0.4491518,-0.2193873,0.8626835,18
12.42,-25.09177,1.139038,-24.19566,-0.4374527743990515,0.0318154381112485,-0.2747459254733337,26.29401,54.29837,183.9795,0.437054,-0.2176961,0.8695801,18
12.44,-25.04219,1.128739,-24.15308,-0.4686377969561519,0.0516182729921091,-0.2887937988500284,30.03764,52.39611,183.7106,0.4186435,-0.246199,0.8698726,18
12.46,-24.95145,1.324535,-24.08965,-0.4968670699120507,0.0715630053579794,-0.3006477563760112,33.47468,52.29576,183.52,0.4138808,-0.2713519,0.8631226,18
12.48,-24.94626,1.121817,-24.08103,-0.5204962643563289,0.0642600921711735,-0.3121068840135028,34.71853,50.85793,183.2454,0.4020393,-0.2809541,0.8652662,18
12.5,-24.85632,1.319791,-24.0186,-0.5399888752393731,0.0589985980320376,-0.3209394545920974,38.12163,50.66141,182.9146,0.3967472,-0.3053616,0.8575745,18
12.52,-24.85342,1.117181,-24.01941,-0.541889387106655,0.0551404646744432,-0.3202534019777281,39.62333,50.32131,182.6604,0.3927643,-0.3159744,0.8546625,18
12.54,-24.7694,1.115034,-23.96671,-0.5422570463740488,0.024715779487476,-0.3190941929671869,43.2646,50.34488,181.7332,0.3902952,-0.3395807,0.8435649,18
12.56,-24.68091,1.31533,-23.90579,-0.5323848529867852,0.0547494500161512,-0.3113015227806905,46.61007,50.03711,181.2977,0.3843224,-0.3628805,0.8340794,18
12.58,-24.646,1.11374,-23.88268,-0.5227483125195023,0.0274288921179861,-0.30430584777057,46.37286,49.83465,180.3542,0.3861747,-0.3582704,0.8341725,18
12.6,-24.55841,1.314255,-23.82221,-0.5088171801144643,0.0002871208306335,-0.2947045244172255,49.68708,49.46464,179.8567,0.3801388,-0.3811283,0.823999,18
12.62,-24.5206,1.109985,-23.79746,-0.4797705524362667,0.0018429328367343,-0.2745494837846896,50.67458,48.86561,178.7121,0.3781921,-0.3853963,0.8208245,18
12.64,-24.37728,1.103745,-23.69998,-0.4373798856140412,0.0069517125610806,-0.245488879266241,56.51038,47.32941,176.1832,0.3678012,-0.4215768,0.8000023,18
12.66,-24.29093,1.299826,-23.64147,-0.3914096055477851,0.0122384126474231,-0.2143314514160965,59.75673,46.50588,175.2139,0.3611295,-0.443003,0.787746,18
12.68,-24.18108,1.10453,-23.56588,-0.3390198879923916,-0.0374118730836068,-0.1789285990234699,61.2172,42.92863,171.1815,0.3504343,-0.4482425,0.7842802,18
12.7,-24.0955,1.295746,-23.50803,-0.2842550517143567,3.713792043280595e-06,-0.1420201383316279,64.3816,41.42003,169.486,0.3436751,-0.4687992,0.7710029,18
12.72,-24.00468,1.118053,-23.44372,-0.2263771308554698,-0.0131018929136869,-0.1032546923981203,61.80437,38.16735,167.2499,0.3326936,-0.451198,0.7872306,18
12.74,-23.84765,1.144353,-23.33478,-0.156821739850923,-0.0492242387576385,-0.0568671949961925,58.37089,37.46317,167.8433,0.3276897,-0.4295257,0.8055738,18
12.76,-23.76254,1.326336,-23.27499,-0.1040746773091743,-0.0047221149872938,-0.0223330057120438,61.42551,35.71717,165.8259,0.3216173,-0.4498824,0.7927373,18
12.78,-23.66709,1.178278,-23.211,-0.0501135967351071,0.0185957417841062,0.0101547784747082,52.05695,40.83182,171.2304,0.343977,-0.3860851,0.8279644,18
12.8,-23.58129,1.356356,-23.14992,0.0050191832476431,0.0408858964135057,0.0432837478536565,55.16141,39.76097,169.9007,0.3385689,-0.4071846,0.8164427,18
12.82,-23.50288,1.211398,-23.11081,0.0573951227261995,0.0144001438976474,0.0703791772709405,43.12223,45.04841,173.9354,0.3737267,-0.3201388,0.850432,18
12.84,-23.36168,1.239199,-23.03667,0.1120626257414985,0.0366383434743166,0.0965971371594323,32.05199,48.39652,175.3188,0.4039209,-0.2355159,0.871331,18
12.86,-23.26283,1.408637,-22.9682,0.1676530311555071,0.0572577184043854,0.1230630870096796,35.5732,48.10497,174.7951,0.4003573,-0.2610399,0.8629739,18
12.88,-23.20648,1.257217,-22.94636,0.2063114206951919,0.0729930712943296,0.1403462168075515,20.02097,51.66552,176.5699,0.4336023,-0.143545,0.8837033,18
12.9,-23.1067,1.425375,-22.87756,0.2438830616399814,0.087407554947148,0.1567886380342389,23.55848,51.57172,176.3174,0.4315346,-0.1700362,0.8781561,18
12.92,-23.07535,1.268045,-22.86618,0.2756690600570497,0.0994801356489661,0.1719268077621238,8.13076,54.56805,177.5519,0.45849,-0.05322532,0.8856124,18
12.94,-22.95922,1.275628,-22.79163,0.3091166900856001,0.0880580801367328,0.1880299757602048,358.4001,56.81224,178.1864,0.475418,0.01980718,0.8795071,18
12.96,-22.85749,1.441201,-22.72196,0.339555846793969,0.1213169174425098,0.2052669050499256,1.975394,56.81249,178.2623,0.4758247,-0.007947942,0.8792406,18
12.98,-22.80047,1.285171,-22.68555,0.3647412828132723,0.1310154403216391,0.2194888181036192,353.3224,58.02126,178.7417,0.4835604,0.05624531,0.8733031,18
13.0,-22.69859,1.448423,-22.61383,0.3866826851202831,0.1387169082411321,0.2327835493471495,356.9154,58.00432,178.9407,0.4844288,0.02801875,0.8743681,18
13.02,-22.63021,1.296112,-22.5663,0.3918633782323812,0.0949877480321351,0.2346309142663822,353.4532,58.18517,179.5102,0.4852114,0.05197115,0.8725203,18
13.04,-22.53004,1.457127,-22.49235,0.3948041280469181,0.0921775867475893,0.2348059931677477,357.0199,58.16119,179.7988,0.4858345,0.02357812,0.8736624,18
13.06,-22.43196,1.614358,-22.41994,0.3938648602195047,0.0884668464274117,0.2327141149336546,0.5857704,58.1552,180.0854,0.4859839,-0.004829664,0.8739526,18
13.08,-22.4545,1.262131,-22.44489,0.3840229825423131,0.0808858342999276,0.2248912344160087,355.7463,58.72377,180.5759,0.4901427,0.02988188,0.8708373,18
13.1,-22.35607,1.426083,-22.37349,0.3707973087470462,0.0726815526781634,0.2147160749811689,359.2874,58.71122,180.8655,0.4902461,0.001717666,0.8715292,18
13.12,-22.33913,1.245817,-22.36151,0.3395091930708069,0.0133510345035577,0.1927979134334019,1.426628,58.80258,181.5878,0.4906879,-0.01764632,0.8711362,18
13.14,-22.23843,1.410637,-22.28888,0.3224485669624997,0.0291866840308171,0.1831215637310173,5.07105,58.81926,181.8822,0.4898703,-0.04659008,0.8705177,18
13.16,-22.13968,1.571692,-22.21766,0.302083507041297,0.0427629003046432,0.1713650491304017,8.714316,58.85501,182.1799,0.4885545,-0.07547823,0.8690137,18
13.18,-22.17984,1.232076,-22.24287,0.2560051030843722,-0.0208840890373538,0.142823726123189,8.257092,58.99546,182.8738,0.4893857,-0.07495749,0.8687328,18
13.2,-22.07969,1.400876,-22.17165,0.213302184877091,-0.0369554803283956,0.117439883055797,11.88766,59.04554,183.1601,0.4874495,-0.103588,0.86656,18
13.22,-22.11544,1.208842,-22.186,0.1618492523193557,-0.0794376510754545,0.0866263733781464,13.43047,58.77835,183.5271,0.4840061,-0.1168368,0.8666853,18
13.24,-22.01735,1.383522,-22.11665,0.1188869058277219,-0.0699177424312481,0.0608891297508624,17.01924,58.84799,183.7922,0.4813296,-0.144893,0.863353,18
13.26,-21.92067,1.554662,-22.0483,0.0666296289863597,-0.0867763085277222,0.0297876718038239,20.60662,58.93681,184.0675,0.4781798,-0.1727982,0.8591712,18
13.28,-21.98587,1.183179,-22.08781,0.0130308179344909,-0.1022175375164133,-0.0022570352368629,17.40543,58.43148,183.9171,0.4776848,-0.1484718,0.8647595,18
13.3,-21.88955,1.363952,-22.02035,-0.0425789454975982,-0.1186173022216096,-0.0349957565676044,20.96306,58.50679,184.1461,0.4744629,-0.1759964,0.8605633,18
13.32,-21.93289,1.160818,-22.03689,-0.1051180192222154,-0.1619395439546363,-0.0714554213804632,21.5726,55.55122,184.0937,0.4515705,-0.1818279,0.8717076,18
13.34,-21.83934,1.347759,-21.96978,-0.1478459533520517,-0.1489668048760453,-0.0950988685349996,25.09755,55.58364,184.1755,0.4478178,-0.2086606,0.8666319,18
13.36,-21.74654,1.531434,-21.90322,-0.1962231200236064,-0.1621509060103169,-0.1226152275381475,28.62139,55.6228,184.2622,0.4436425,-0.2352876,0.8607379,18
13.38,-21.80705,1.139043,-21.93665,-0.243516985618065,-0.1733170162249931,-0.1495922247809944,26.30376,53.37296,183.9753,0.4300141,-0.2183416,0.8730627,18
13.4,-21.71559,1.33169,-21.87077,-0.287172037302569,-0.1841069559842477,-0.1743962500150342,29.79027,53.34452,183.9148,0.4257041,-0.244381,0.8669998,18
13.42,-21.73395,1.124894,-21.87489,-0.3303000959679449,-0.221643569068744,-0.1987469026702668,32.07495,50.27126,183.5219,0.400353,-0.2625315,0.8732666,18
13.44,-21.64465,1.32204,-21.81008,-0.3523705908529768,-0.1998249163867977,-0.2100989807678637,35.50249,50.11762,183.2457,0.3953993,-0.2875005,0.8660553,18
13.46,-21.55559,1.516174,-21.74543,-0.3734222902548012,-0.204118699305923,-0.2236753375469051,38.92836,49.93568,182.9451,0.3900919,-0.3122041,0.8580681,18
13.48,-21.56073,1.117159,-21.75197,-0.3911879825864544,-0.206779742594719,-0.2357093841840147,39.63095,49.35419,182.6711,0.3854969,-0.3171049,0.8579385,18
13.5,-21.4723,1.316546,-21.68875,-0.4028928366812305,-0.2081686609839872,-0.2448369745558598,43.01345,49.08246,182.2598,0.3797778,-0.3410471,0.8491651,18
13.52,-21.39645,1.114505,-21.64294,-0.4086129249664871,-0.2366792627009279,-0.2505183056815543,44.68821,49.47542,181.1234,0.3836421,-0.349059,0.8415598,18
13.54,-21.32989,1.113784,-21.59706,-0.3980376238613243,-0.205395714043377,-0.2451259046481784,46.35059,49.04441,180.3396,0.3804911,-0.359177,0.8368646,18
13.56,-21.24308,1.314354,-21.53596,-0.3845833249762638,-0.2018388611850468,-0.2376371017987764,49.65403,48.6579,179.8197,0.3745014,-0.3820038,0.826709,18
13.58,-21.18906,1.11,-21.49966,-0.3675759734701573,-0.1973640702165151,-0.2282080249676128,50.66541,48.17227,178.7102,0.3732383,-0.3864437,0.8231264,18
13.6,-21.10285,1.309482,-21.43928,-0.3374619106646768,-0.1919360613105421,-0.2101819859273876,53.942,47.64523,178.0444,0.3670038,-0.4086948,0.8120585,18
13.62,-21.03069,1.103769,-21.39043,-0.306344219226804,-0.2133175011392761,-0.1916990034201258,56.49441,46.71526,176.1828,0.3635321,-0.4226179,0.8020234,18
13.64,-20.86705,1.104483,-21.27678,-0.2647268647443432,-0.1758546504567207,-0.1662326709502366,61.21245,42.41351,171.2111,0.3467943,-0.4494059,0.7859315,18
13.66,-20.78203,1.295685,-21.21791,-0.2155475650325495,-0.1597203150642998,-0.1356208581984308,64.38219,40.9178,169.53,0.3401116,-0.4700698,0.7725981,18
13.68,-20.67509,1.118042,-21.1426,-0.1650718504136716,-0.1680070239750546,-0.1042832615604303,61.80612,37.68962,167.2545,0.3293893,-0.452291,0.7886131,18
13.7,-20.59077,1.304486,-21.08313,-0.1165495367317372,-0.1203138802175016,-0.0744146604798756,64.8801,35.68528,165.0126,0.322975,-0.4725305,0.7750638,18
13.72,-20.50327,1.14429,-21.02239,-0.0673844049130436,-0.1211085102801651,-0.0447394134006149,58.38018,37.04089,167.8465,0.3247013,-0.4304965,0.8067428,18
13.74,-20.35354,1.178198,-20.91977,-0.0089679010696133,-0.0898497138408404,-0.0112223292536373,52.07224,40.45786,171.2294,0.3412652,-0.3869019,0.8290226,18
13.76,-20.2682,1.356261,-20.85799,0.0399522984888767,-0.0360556950614634,0.0156140051508013,55.17885,39.39163,169.9057,0.3359056,-0.4080677,0.8174697,18
13.78,-20.17455,1.211311,-20.80824,0.087589408002235,-0.0298086924914167,0.0376814020675371,43.1456,44.71842,173.939,0.371247,-0.3208616,0.8514376,18
13.8,-20.08269,1.384616,-20.74228,0.1347134842019275,0.0225623851646085,0.0596171199111585,46.47823,44.14061,173.1196,0.3665784,-0.3442798,0.8411039,18
13.82,-20.01731,1.239149,-20.72241,0.178716252839727,0.0275830396001266,0.0759337958391506,32.07018,48.10546,175.3236,0.4016843,-0.2360502,0.8723179,18
13.84,-19.89704,1.257596,-20.65687,0.2242030776501242,0.0776038781488602,0.0955873151602388,19.99118,51.42001,176.5674,0.431724,-0.1435228,0.884672,18
13.86,-19.79871,1.426245,-20.58862,0.261180016634714,0.1460396887773257,0.1130480366749719,23.48269,51.32602,176.3137,0.4296958,-0.1696879,0.8792061,18
13.88,-19.74879,1.268163,-20.5648,0.28682392625696,0.141567370700287,0.121771573506086,8.114274,54.35612,177.5517,0.4568534,-0.0531918,0.8864693,18
13.9,-19.64824,1.435291,-20.49555,0.3163068285734316,0.1822804516314526,0.1360971819664205,11.66661,54.34428,177.4829,0.4561771,-0.08041805,0.8837991,18
13.92,-19.61568,1.275652,-20.47867,0.3399956280644636,0.1754909537781841,0.1471245594043329,358.4084,56.62407,178.1859,0.4739744,0.01973302,0.8802869,18
13.94,-19.49126,1.285154,-20.39632,0.3707529133874936,0.2139639112395505,0.1656970882734452,353.3257,57.86778,178.7412,0.482391,0.05624767,0.8739511,18
13.96,-19.38961,1.44842,-20.32433,0.3956292705263418,0.2724098175092198,0.1822230449810287,356.9178,57.85081,178.9406,0.4832573,0.02800776,0.8750165,18
13.98,-19.33609,1.293707,-20.29095,0.4038435616870193,0.2569676381399399,0.1870057434107872,352.8323,58.34748,179.2959,0.4861618,0.05756789,0.8716089,18
14.0,-19.23507,1.45507,-20.21718,0.404607262271814,0.2619024790255133,0.1878985237224957,356.4204,58.32107,179.5778,0.4869168,0.02906882,0.8728822,18
14.02,-19.22776,1.282879,-20.21628,0.4008489349827515,0.240379468814728,0.1850034997826344,353.7656,58.70347,179.7706,0.4893485,0.04837804,0.870389,18
14.04,-19.15068,1.262089,-20.1667,0.3979105214954721,0.2638408229455706,0.1837415900393915,355.7513,58.97555,180.5703,0.492054,0.02981761,0.8697609,18
14.06,-19.05165,1.425978,-20.09577,0.3799107003825894,0.2375180006861889,0.1723425043855146,359.299,58.96325,180.8549,0.4921612,0.001653474,0.8704506,18
14.08,-19.03419,1.25015,-20.0886,0.3583998548376907,0.2097951842012272,0.1588063577954179,359.4392,59.2705,181.3606,0.4944865,-0.001617574,0.8690906,18
14.1,-18.93332,1.41461,-20.01751,0.33527639257712,0.2065682962354461,0.1465042092481772,3.054762,59.27664,181.6422,0.4939648,-0.03024896,0.8689553,18
14.12,-18.93456,1.237757,-20.01132,0.2969889470421498,0.1785919238980404,0.1244010811740707,6.169638,59.22517,182.5707,0.4922432,-0.05784167,0.8685048,18
14.14,-18.83362,1.404936,-19.94008,0.2683666630547372,0.2007494278266187,0.109646285020557,9.810478,59.26503,182.8573,0.4906181,-0.08658375,0.8668159,18
14.16,-18.73451,1.568383,-19.87013,0.2217459750007715,0.1703287515785247,0.0838529524034341,13.45001,59.32409,183.1502,0.4884955,-0.1152296,0.8642477,18
14.18,-18.79221,1.217492,-19.90277,0.1622701956124155,0.1140294964102886,0.0495924355465007,11.88576,59.37852,183.3439,0.4897999,-0.1042801,0.865184,18
14.2,-18.77553,1.208862,-19.88917,0.1212934146105184,0.1318267216211021,0.0281239994395989,13.42586,59.52037,183.5288,0.4896097,-0.1166079,0.8635368,18
14.22,-18.72407,1.190991,-19.84878,0.0589857829335325,0.0965698676661465,-0.0068201651653461,16.07567,59.47866,183.7692,0.4869231,-0.1374981,0.8615772,18
14.24,-18.62642,1.369791,-19.78193,0.0077438951810808,0.0877644864712575,-0.0341331471774264,19.64113,59.5574,184.0258,0.4838719,-0.1651381,0.8576796,18
14.26,-18.63915,1.175787,-19.78346,-0.0436881732113929,0.0804307326504158,-0.0616552840284674,18.72914,58.53918,184.0561,0.4770784,-0.1589245,0.8629797,18
14.28,-18.54282,1.358589,-19.71757,-0.1124475011715848,0.0176138484491448,-0.0999456167739252,22.27378,58.60758,184.2513,0.4736453,-0.1861333,0.858533,18
14.3,-18.57456,1.160798,-19.73138,-0.1571172180005366,0.0358389953499007,-0.122311779146901,21.56925,56.96177,184.109,0.4622455,-0.1811598,0.8660953,18
14.32,-18.52657,1.145443,-19.69067,-0.2194723121621347,-0.0014842026752136,-0.1557676861310826,24.60241,55.50155,184.0677,0.4479581,-0.2045732,0.8676392,18
14.34,-18.43314,1.336312,-19.62602,-0.2658495920946377,-0.0094094826104038,-0.1790222757248165,28.10677,55.50727,184.0806,0.443796,-0.2308374,0.8619529,18
14.36,-18.44049,1.132765,-19.62225,-0.3097583344822847,-0.0154786206778376,-0.2011250122691978,28.01693,53.61344,183.9493,0.4298655,-0.2310006,0.8692365,18
14.38,-18.34888,1.327189,-19.55868,-0.3637660619255203,-0.0788481163652702,-0.2300152062571858,31.47467,53.55635,183.8344,0.4253057,-0.2565127,0.8628998,18
14.4,-18.36086,1.124882,-19.55977,-0.392447954386623,-0.0563651726682734,-0.2429986790762339,32.06405,51.68219,183.5313,0.411067,-0.2613486,0.8683012,18
14.42,-18.28185,1.118791,-19.50146,-0.4301254540041179,-0.0907076939278239,-0.2632906103253272,37.37472,50.49361,182.9912,0.3963313,-0.3002452,0.8600706,18
14.44,-18.19194,1.317588,-19.43995,-0.4483495077058934,-0.0935676129865499,-0.2726040976420756,40.76181,50.24071,182.5901,0.3907171,-0.3242339,0.8518618,18
14.46,-18.15893,1.115627,-19.42603,-0.4620691729334369,-0.0951157144271901,-0.2797826864318615,41.84619,50.61914,182.3389,0.3926471,-0.3309182,0.8473414,18
14.48,-18.06949,1.31567,-19.36561,-0.4792523170045439,-0.1551519359819572,-0.290378634947336,45.20522,50.31234,181.8936,0.3866351,-0.3543213,0.8382159,18
14.5,-18.04852,1.114495,-19.35185,-0.478161246161322,-0.1278571349141854,-0.2884402055247235,44.67019,50.52409,181.1284,0.391339,-0.3475497,0.8380738,18
14.52,-17.94491,1.112966,-19.28153,-0.473246497690498,-0.1588717095012844,-0.284979918033966,48.04943,49.52107,179.5255,0.3840713,-0.3681144,0.8286873,18
14.54,-17.85726,1.313454,-19.22198,-0.4621162875821205,-0.1306205449787792,-0.2769744158846734,51.34577,49.07754,178.9442,0.3779257,-0.3906378,0.8181863,18
14.56,-17.78137,1.107182,-19.17137,-0.4436272607811153,-0.0736243934504316,-0.2645423916999756,53.28976,48.43438,177.6715,0.3748696,-0.4014597,0.8112401,18
14.58,-17.69465,1.30563,-19.11263,-0.4145049984692122,-0.1034494867535951,-0.2456594534347149,56.55095,47.80061,176.8974,0.3683984,-0.4232732,0.7996726,18
14.6,-17.59495,1.102261,-19.04541,-0.3783257666111563,-0.1009587020097868,-0.2221535788609649,59.64672,46.03732,174.0402,0.3625807,-0.4394745,0.7872959,18
14.62,-17.52527,1.104442,-18.99646,-0.3274456925957563,-0.1228608023568869,-0.1890590195478143,61.20044,43.20957,171.2651,0.3520478,-0.4477731,0.7836723,18
14.64,-17.44014,1.29564,-18.9384,-0.2720012472374806,-0.0870536935477752,-0.1531283311048992,64.36427,41.76411,169.6403,0.3453759,-0.4683599,0.770398,18
14.66,-17.26488,1.128819,-18.81698,-0.2223224412643842,-0.0717024769869401,-0.1218683918614331,60.95734,37.01317,166.7342,0.3272796,-0.446171,0.7931845,18
14.68,-17.18352,1.144203,-18.7607,-0.1712381300919832,-0.0572759779121339,-0.0900063981235184,58.39163,37.662,167.8698,0.3289752,-0.4293307,0.8049716,18
14.7,-17.09856,1.326145,-18.70071,-0.1231962876439001,-0.0376944466864805,-0.0614652113378006,61.45291,35.94718,165.8889,0.3229474,-0.4497429,0.7921081,18
14.72,-17.01765,1.178164,-18.64812,-0.076541630744745,-0.0420726637200618,-0.036226213708745,52.07766,41.00093,171.2258,0.3451982,-0.3859042,0.8273686,18
14.74,-16.86867,1.211233,-18.55926,-0.0279887957353957,0.002040328247326,-0.0100276529617469,43.16163,45.21791,173.9341,0.3749551,-0.3201563,0.8497531,18
14.76,-16.77602,1.384484,-18.49402,0.0166669553908351,0.0226328665988192,0.0083870765751625,46.50052,44.63666,173.11,0.3702253,-0.3435508,0.8394176,18
14.78,-16.69488,1.239107,-18.46262,0.0622373148253785,0.0413295998358207,0.0268699160069991,32.07335,48.56052,175.3204,0.4051497,-0.2354724,0.8707044,18
14.8,-16.59571,1.408466,-18.39421,0.1068225606143793,0.1030874567751421,0.0467412475148107,35.60199,48.27039,174.7996,0.4015709,-0.2610385,0.862327,18
14.82,-16.52189,1.263707,-18.36544,0.1436561902937221,0.0927522032326553,0.0590374323017406,13.8981,53.15237,177.1603,0.4466458,-0.09716573,0.8861569,18
14.84,-16.42212,1.431582,-18.29693,0.1836516392960716,0.1268578208189713,0.0773052319543512,17.42423,53.11107,177.0074,0.4452941,-0.1239045,0.882111,18
14.86,-16.32409,1.595862,-18.22961,0.2180682137347667,0.1801445220190755,0.0945583656057893,20.95014,53.05881,176.8484,0.4435201,-0.1505248,0.8772285,18
14.88,-16.28486,1.275751,-18.21177,0.2421150787296337,0.1609063384634268,0.1043467801982513,358.392,56.80474,178.1815,0.475358,0.01988894,0.8795375,18
14.9,-16.18341,1.441478,-18.14246,0.2646054074312751,0.1649073069212091,0.1151438379165639,1.954634,56.80495,178.2527,0.4757665,-0.007749935,0.8792742,18
14.92,-16.10287,1.291319,-18.08652,0.2870309683768386,0.1445174444055474,0.1262578248149677,352.2341,57.95975,179.0664,0.4828916,0.06317604,0.8730202,18
14.94,-16.00141,1.453236,-18.01298,0.3158763266419593,0.1693085720334436,0.1438938317051858,355.8348,57.93421,179.312,0.483788,0.03469897,0.87441,18
14.96,-15.90203,1.611318,-17.94094,0.3247257955408735,0.1647562275071581,0.1486591674620565,359.4347,57.92416,179.5553,0.4842045,0.006195653,0.8749326,18
14.98,-15.88956,1.282818,-17.93958,0.3293899838328826,0.1588720542525944,0.1513674651336272,353.7749,58.5287,179.7686,0.488022,0.04835356,0.8711385,18
15.0,-15.86083,1.270083,-17.91941,0.3243143174998293,0.1481077019464332,0.1468798301907998,354.0711,58.70704,179.9996,0.4895407,0.04507803,0.8704456,18
15.02,-15.76694,1.25455,-17.86336,0.3136992439993251,0.1120019041022298,0.139111523091667,357.4415,58.92727,181.1255,0.4919156,0.014607,0.8703013,18
15.04,-15.66723,1.4188,-17.79257,0.3130712337396886,0.1237685650630132,0.1397148481300392,1.017278,58.92363,181.3945,0.4916936,-0.01371357,0.8706381,18
15.06,-15.64428,1.245741,-17.77555,0.3119404264841912,0.1602500413374266,0.1413747953926138,1.433324,59.33717,181.5873,0.4947457,-0.01772248,0.8688376,18
15.08,-15.54265,1.410457,-17.70372,0.2868417370035814,0.1217610733086974,0.1274525328065361,5.087,59.35392,181.8815,0.4939218,-0.04667266,0.8682187,18
15.1,-15.55172,1.237673,-17.70825,0.2707933694597928,0.1326434343888945,0.1211380261417014,6.173959,59.4762,182.5765,0.4941399,-0.05788366,0.8674234,18
15.12,-15.53858,1.232193,-17.69614,0.2511928094608706,0.1414117009642666,0.1128070531243525,8.241488,59.44603,182.854,0.4928184,-0.0747004,0.8668061,18
15.14,-15.43771,1.401088,-17.62633,0.2223892180794526,0.1213630762274365,0.0991126111501481,11.86687,59.49278,183.1217,0.490876,-0.1031607,0.8646555,18
15.16,-15.4448,1.208719,-17.62296,0.1910323713725026,0.1022890108825788,0.083674800378783,13.44271,59.73999,183.5421,0.4912379,-0.1167309,0.8625881,18
15.18,-15.42008,1.199787,-17.6039,0.1566511579798697,0.0812709695010567,0.06616028165105,14.74662,59.71172,183.6525,0.4899056,-0.1269786,0.8617083,18
15.2,-15.32156,1.376527,-17.53685,0.1420270847787104,0.1320694490634622,0.061435193779614,18.322,59.78584,183.9129,0.4870247,-0.1547448,0.8581103,18
15.22,-15.36064,1.183191,-17.55643,0.1048115431217282,0.1032167428905021,0.0434331040218114,17.40319,59.20397,183.919,0.483503,-0.1481611,0.8615227,18
15.24,-15.31917,1.168121,-17.51994,0.074043018239541,0.1048514815499755,0.0290360829376106,20.16737,57.90283,184.0793,0.4708358,-0.1700713,0.8639847,18
15.26,-15.22318,1.352876,-17.45439,0.0267968276010326,0.0506056342068168,0.005201651521876,23.71229,57.95938,184.2306,0.4672065,-0.1971097,0.8592201,18
15.28,-15.24627,1.153013,-17.46199,-0.0141219367482805,0.0250467242324377,-0.0145732814254526,23.07793,56.37803,184.0674,0.4562861,-0.1926229,0.8663896,18
15.3,-15.15175,1.341825,-17.39707,-0.0543778943829014,0.0015116466812791,-0.0340592457272046,26.60221,56.40308,184.1271,0.4522985,-0.2191857,0.8610086,18
15.32,-15.18783,1.139078,-17.41386,-0.0852300378496819,-0.0226291104841008,-0.0466980687185996,26.28597,54.70178,183.9784,0.4401239,-0.2173711,0.8680484,18
15.34,-15.13842,1.128765,-17.37166,-0.1076535460486016,-0.0141480984765611,-0.0550250416214923,30.02672,52.78231,183.7111,0.4215854,-0.2458266,0.8684781,18
15.36,-15.04717,1.324546,-17.30879,-0.1384630830274462,-0.0621060331049772,-0.0689791611910715,33.46659,52.68173,183.5201,0.4167965,-0.2709519,0.8617411,18
15.38,-15.04254,1.121841,-17.30036,-0.1524868983158998,-0.0504447383632813,-0.0732672290612634,34.69912,51.22603,183.2468,0.4048393,-0.2804795,0.864015,18
15.4,-14.95217,1.319808,-17.23849,-0.1746179535116534,-0.0954414941496542,-0.0848606171265209,38.10311,51.02948,182.9158,0.3995228,-0.304848,0.8563429,18
15.42,-14.9498,1.117195,-17.23941,-0.1786234097397636,-0.0807260307129627,-0.0857354770282912,39.6065,50.67014,182.6623,0.395383,-0.315477,0.8535087,18
15.44,-14.86518,1.115033,-17.18689,-0.1799054716981176,-0.0925037837880994,-0.0860127229139546,43.26971,50.68092,181.7305,0.3927676,-0.3391849,0.8423986,18
15.46,-14.77633,1.315331,-17.1265,-0.1781620840526849,-0.1028234886312278,-0.0847801744734881,46.61528,50.37271,181.2944,0.3867658,-0.362443,0.8329296,18
15.48,-14.74152,1.113742,-17.10357,-0.170155301078571,-0.1122380077530431,-0.0786339133596765,46.37183,50.15979,180.3542,0.3885415,-0.3577983,0.8330768,18
15.5,-14.65358,1.314258,-17.04361,-0.1590543674558113,-0.1204689161379991,-0.0708178422037493,49.686,49.78942,179.8563,0.3824759,-0.3806164,0.8229214,18
15.52,-14.57187,1.10715,-16.98996,-0.1227102655984682,-0.1282834465344999,-0.0463448343661245,53.28427,49.2205,177.6997,0.3803358,-0.4001293,0.8087192,18
15.54,-14.48454,1.305554,-16.93194,-0.086317427285516,-0.1054114893502045,-0.0224003368324205,56.55113,48.60923,176.953,0.373827,-0.421938,0.7971575,18
15.56,-14.39737,1.501242,-16.87404,-0.0433615337521477,-0.1375971204490083,0.0057769175006567,59.8118,47.85478,176.0655,0.3670111,-0.4433918,0.7849404,18
15.58,-14.26454,1.104487,-16.78504,0.0026747349232503,-0.1108747350751198,0.0357532295236364,61.20614,43.78581,171.2079,0.3562008,-0.4463835,0.7817425,18
15.6,-14.18682,1.109048,-16.73186,0.0499131352338633,-0.0861427962901498,0.066150506258712,62.63665,40.42388,167.9225,0.3448303,-0.4540269,0.7783452,18
15.62,-14.02129,1.128776,-16.6183,0.0995968785939205,-0.0807543763516398,0.0982982275985007,60.95963,37.6238,166.7617,0.3313935,-0.4449055,0.7914807,18
15.64,-13.93555,1.312937,-16.55994,0.1612780824081701,-0.0680219904345779,0.1380678521908909,64.01498,35.58576,164.4647,0.3249556,-0.4650246,0.7781185,18
15.66,-13.82474,1.161645,-16.48521,0.2230607164111333,-0.0562166946565706,0.177832619073061,55.77958,38.62269,168.7981,0.3339802,-0.4108185,0.8150398,18
15.68,-13.73837,1.341379,-16.42559,0.271038771212605,0.0048005890249688,0.2077953552095994,58.84914,37.1117,167.0035,0.3281066,-0.4313764,0.8027252,18
15.7,-13.65825,1.195349,-16.37483,0.3199833107265082,0.0199992612337078,0.2346360409914594,48.3291,43.97909,173.1761,0.3636118,-0.3585741,0.8353787,18
15.72,-13.58748,1.209827,-16.33881,0.3686850486044613,0.0340254751343687,0.261114352728977,43.3614,45.63188,173.8721,0.3780261,-0.3207805,0.8476663,18
15.74,-13.48909,1.381381,-16.2712,0.4172223995982529,0.0928643853246465,0.2879222057015924,46.87957,44.9962,172.9755,0.3729309,-0.3453126,0.8367345,18
15.76,-13.36278,1.249915,-16.2189,0.4548838780247968,0.1687984794764958,0.3092632995482662,26.25005,50.65441,175.9962,0.4235276,-0.1905713,0.8763368,18
15.78,-13.26234,1.418343,-16.15061,0.4878900695062778,0.1502134640646176,0.3228638223646676,29.80047,50.48182,175.6291,0.4206565,-0.2167023,0.8692911,18
15.8,-13.16364,1.583147,-16.08349,0.5203069153599083,0.1766829991963141,0.3398862199213843,33.35033,50.27523,175.2347,0.4173775,-0.2426269,0.8614029,18
15.82,-13.11143,1.271846,-16.06115,0.5498258502345312,0.1551490986332141,0.3557278520571689,2.415564,55.92888,177.9348,0.4690787,-0.01016554,0.8827212,18
15.84,-13.00975,1.438316,-15.99216,0.576118897300506,0.1554646639704445,0.3740269089760017,5.985522,55.92927,177.9402,0.4690402,-0.03768924,0.8814501,18
15.86,-12.90992,1.601089,-15.92442,0.5980235086639694,0.1541798008182239,0.39049614185015,9.554547,55.93,177.9456,0.4685465,-0.06516902,0.8793243,18
15.88,-12.86226,1.285203,-15.89701,0.6150238107501369,0.1484330773737487,0.4046979866491369,353.3278,58.07534,178.7221,0.4839645,0.05627903,0.8730799,18
15.9,-12.8031,1.291183,-15.85664,0.6246231028609432,0.1415799214128073,0.4169580110524826,352.2448,58.39384,179.0829,0.4862081,0.0629262,0.8711861,18
15.92,-12.6814,1.296005,-15.77473,0.6291396281570831,0.1329399916859681,0.427207159325381,353.4572,58.67615,179.5304,0.4889555,0.05175099,0.8704307,18
15.94,-12.58082,1.456906,-15.70097,0.6309160100214197,0.1665381505024215,0.4368004593178427,357.029,58.65055,179.8387,0.4895703,0.02329122,0.8715774,18
15.96,-12.57,1.26997,-15.69516,0.6116414416165394,0.1226133946344869,0.4330677074018625,354.0774,59.06086,180.006,0.49223,0.04492446,0.8689309,18
15.98,-12.47161,1.433523,-15.62415,0.57886376444848,0.0534771229262177,0.4207641340976431,357.5961,59.03904,180.3065,0.4926588,0.01693582,0.8699658,18
16.0,-12.45973,1.254555,-15.62741,0.5538397085020241,0.0546151227627516,0.4159673226060849,357.4382,59.25404,181.125,0.4943954,0.01457851,0.8688945,18
16.02,-12.37206,1.245889,-15.56392,0.5248939726377257,0.0319858889084682,0.4115642041103329,1.407218,59.63363,181.5982,0.4969942,-0.01758759,0.867555,18
16.04,-12.27077,1.41077,-15.49257,0.4923197288341168,0.0361732753798403,0.4069575724020515,5.042704,59.65085,181.9043,0.4961748,-0.04641644,0.866949,18
16.06,-12.17143,1.571899,-15.42261,0.4545607135836356,0.0383905604150248,0.3994300483760757,8.677647,59.6878,182.2135,0.4948525,-0.07519368,0.8654646,18
16.08,-12.21245,1.232049,-15.44613,0.4223872917868387,0.0859203278120976,0.3964076564738197,8.249372,59.73998,182.8742,0.4950231,-0.07481069,0.8655381,18
16.1,-12.1112,1.40075,-15.376,0.3540223548933825,0.0323679061792979,0.370159747559569,11.88811,59.79053,183.1632,0.4930695,-0.1034264,0.8633729,18
16.12,-12.01171,1.56574,-15.3071,0.2977779018929491,0.0294052543458671,0.3526976235630303,15.52547,59.86089,183.46,0.4906166,-0.1319287,0.860333,18
16.14,-12.05668,1.199611,-15.32789,0.2354796856921039,-0.0009772791958946,0.3325116726435448,14.77098,60.02114,183.6655,0.4921966,-0.1271175,0.8603661,18
16.16,-11.95734,1.376128,-15.26061,0.1610754845352509,-0.0559510119203944,0.304317896098546,18.37045,60.09927,183.9394,0.4892881,-0.1550803,0.8567354,18
16.18,-11.85935,1.549112,-15.19425,0.0997896889082681,-0.055876559243831,0.2843082954811382,21.96847,60.19772,184.2248,0.4858953,-0.1828811,0.8522565,18
16.2,-11.76288,1.718676,-15.12892,0.0471997058665407,-0.0286414351032051,0.2702090683111182,25.56468,60.31862,184.5246,0.482022,-0.2104896,0.8469349,18
16.22,-11.8932,1.168256,-15.2027,-0.0330674083091999,-0.0832771883130218,0.2375447736120735,20.14716,58.30188,184.0687,0.4738778,-0.1696872,0.8623588,18
16.24,-11.79649,1.352983,-15.13799,-0.0940498393335862,-0.0813893889962552,0.2173502313137367,23.69596,58.35472,184.2102,0.4702218,-0.1966693,0.857614,18
16.26,-11.81226,1.145466,-15.13674,-0.1471319337794641,-0.0501104953444663,0.2015397202226521,24.60801,56.01438,184.0576,0.4518483,-0.2042665,0.8656113,18
16.28,-11.78709,1.139073,-15.11404,-0.221242055842519,-0.1035087633266059,0.1724766020318968,26.29451,55.03602,183.9765,0.4426478,-0.2172098,0.866746,18
16.3,-11.6938,1.331713,-15.05083,-0.28659585632824,-0.1262001427158315,0.1475239385759474,29.77976,55.00821,183.9173,0.4382546,-0.2430406,0.8607496,18
16.32,-11.67128,1.124876,-15.02356,-0.350374440097537,-0.1463142451026556,0.12379619087254,32.07288,52.12827,183.535,0.4144241,-0.2610618,0.8666796,18
16.34,-11.57998,1.32197,-14.96125,-0.3933580209513609,-0.108878628868273,0.113192897533495,35.50731,51.98226,183.2726,0.409365,-0.2858917,0.8595216,18
16.36,-11.5593,1.118803,-14.94327,-0.4375038195974856,-0.126701012134584,0.0991729212925682,37.36571,50.92266,182.9929,0.3995569,-0.2997544,0.8586045,18
16.38,-11.46885,1.317588,-14.88233,-0.4786551891033825,-0.142240493067259,0.0870162376059224,40.75648,50.67043,182.5928,0.393909,-0.3237195,0.850408,18
16.4,-11.45284,1.115639,-14.87977,-0.5041179261823516,-0.0995562195570968,0.0845835648697552,41.83267,51.00908,182.3403,0.3955444,-0.3303612,0.846039,18
16.42,-11.36296,1.315678,-14.81995,-0.5300435915644415,-0.1430050586157616,0.0816428707432226,45.19276,50.70196,181.8944,0.3894998,-0.353723,0.8369345,18
16.44,-11.28919,1.113753,-14.77084,-0.5412301447714634,-0.1546961880085405,0.0889001098880388,46.36089,50.378,180.3629,0.3901165,-0.3574347,0.8323817,18
16.46,-11.20084,1.314259,-14.71104,-0.5481805645136087,-0.134301712552999,0.0995431516336629,49.68298,50.00821,179.8656,0.38402,-0.3802857,0.8222141,18
16.48,-11.14753,1.110011,-14.67597,-0.5517258103574584,-0.1142549212376597,0.1122074660376606,50.65397,49.38591,178.7193,0.3819215,-0.3844225,0.8191814,18
16.5,-11.05997,1.309486,-14.61726,-0.543310904675006,-0.1226058055551033,0.1342167914705048,53.93593,48.8623,178.0578,0.3755697,-0.4065792,0.8081604,18
16.52,-10.88605,1.102219,-14.50051,-0.5314958126004213,-0.1299241103153337,0.1579511514855847,59.64431,46.31849,174.0678,0.3644086,-0.4389658,0.7864711,18
16.54,-10.79941,1.295964,-14.4432,-0.5155910227782239,-0.0788500375168476,0.1840989273139852,62.8646,45.20278,172.7958,0.3575215,-0.4598872,0.77358,18
16.56,-10.68064,1.109079,-14.36169,-0.4843428834868652,-0.1076876813611881,0.2261009062097707,62.6293,40.04017,167.9105,0.3422757,-0.4548167,0.7795013,18
16.58,-10.59505,1.297813,-14.30414,-0.4519780805017268,-0.1618498295862908,0.2685152284529386,65.73415,38.07495,165.7282,0.3355799,-0.475002,0.7658526,18
16.6,-10.51008,1.483938,-14.24699,-0.4246592622978211,-0.1307865523847836,0.3071045365556399,68.79848,35.51563,162.9544,0.3286169,-0.4948004,0.7515932,18
16.62,-10.40074,1.144218,-14.17024,-0.384275354289656,-0.1170224231734613,0.3565355667517447,58.39244,37.81452,167.8323,0.3301864,-0.4289035,0.8044496,18
16.64,-10.25161,1.178124,-14.06844,-0.3549536232587811,-0.0782976558080902,0.3975559326375448,52.09145,41.02008,171.2121,0.3453716,-0.3859291,0.8272326,18
16.66,-10.16566,1.356227,-14.00767,-0.3257302226491625,-0.0413274043569016,0.4376131216802625,55.1944,39.9481,169.8816,0.3399453,-0.4069943,0.8157176,18
16.68,-10.08078,1.531614,-13.94767,-0.2989513058654377,-0.0267211515842786,0.4711180349928423,58.27953,38.64783,168.3271,0.3342555,-0.4277358,0.8035698,18
16.7,-9.983841,1.228145,-13.90434,-0.2765136272889243,-0.0352504207019382,0.4981527824424352,37.89777,46.62899,174.7254,0.3876554,-0.2806694,0.8617464,18
16.72,-9.889449,1.399522,-13.83734,-0.2524670088635256,0.0025907015028005,0.5265589377352808,41.29604,46.22323,174.0891,0.3835433,-0.3049551,0.8523805,18
16.74,-9.79656,1.56762,-13.77142,-0.225576742995142,0.0173081524883338,0.5566772868060481,44.68947,45.74155,173.383,0.3790881,-0.3289606,0.8422524,18
16.76,-9.705322,1.732535,-13.70667,-0.1999589064256643,0.0315402959482531,0.5855933560257669,48.07899,45.16632,172.5888,0.3742916,-0.3526777,0.8313652,18
16.78,-9.623836,1.268136,-13.67955,-0.1804078105964982,0.0873099382751369,0.6150126394732156,8.158077,53.90624,177.5479,0.4533664,-0.05371755,0.8882264,18
16.8,-9.523812,1.435274,-13.60956,-0.1639056130609362,0.1389176360237834,0.64207512727539,11.71002,53.89409,177.4775,0.4526952,-0.08099092,0.8855431,18
16.82,-9.418588,1.279212,-13.53253,-0.1603894203508743,0.0944725075017906,0.656957547556253,354.4791,56.50946,178.3984,0.472204,0.04902607,0.8800624,18
16.84,-9.338774,1.284917,-13.46882,-0.1523222715457733,0.1181531639455055,0.6770964472257559,353.3463,56.61067,178.7686,0.4727948,0.05617677,0.8791946,18
16.86,-9.238948,1.44797,-13.39354,-0.1483177148936649,0.0948515418643934,0.6946400976501843,356.9508,56.5913,178.9975,0.4736306,0.02757149,0.8802785,18
16.88,-9.141107,1.607203,-13.31976,-0.1552448695451811,0.0447953903326203,0.7025954077442778,0.5543352,56.58634,179.2248,0.4739958,-0.001053025,0.8804882,18
16.9,-9.120044,1.29592,-13.2935,-0.1577588098883811,0.0632192246920711,0.71491456855813,353.4657,56.47778,179.5049,0.4721586,0.05224897,0.8796591,18
16.92,-9.021547,1.456728,-13.21637,-0.1626507567644272,0.0532120829156433,0.7229932173710285,357.0504,56.4542,179.7899,0.4727687,0.02354308,0.880809,18
16.94,-8.92511,1.613717,-13.14085,-0.1739103581100661,0.0667979196832157,0.7273287442989329,0.6342239,56.44848,180.073,0.4729132,-0.005177768,0.8810917,18
16.96,-8.933871,1.254718,-13.13423,-0.1984055918139151,0.031346490359814,0.7193476660654516,357.4209,56.05615,181.124,0.4699574,0.01525694,0.8823479,18
16.98,-8.894338,1.249879,-13.09657,-0.2128108686066069,0.0469255711405356,0.7189215986157531,359.4594,56.01326,181.3549,0.4695849,-0.001387069,0.8827956,18
17.0,-8.796655,1.413962,-13.01934,-0.2435709855377794,0.0134398977873631,0.7030267321445127,3.109143,56.01947,181.6322,0.46906,-0.03063544,0.882635,18
17.02,-8.766163,1.237662,-12.97362,-0.2690247794608613,0.0051574543231423,0.6929090581840733,6.172111,55.62591,182.5639,0.4647281,-0.05802812,0.8835338,18
17.04,-8.669423,1.404693,-12.89601,-0.2946932204340545,0.0238735783056145,0.6824147775167051,9.827573,55.66528,182.8467,0.4631495,-0.08727883,0.8817866,18
17.06,-8.57445,1.567965,-12.81982,-0.3231493960059329,0.041662659012658,0.6698259887691633,13.48175,55.72368,183.1357,0.4610975,-0.1164319,0.8791379,18
17.08,-8.481426,1.727627,-12.74519,-0.3754928453708798,-0.0188025701487515,0.6355968689982447,17.13477,55.80243,183.4339,0.4585746,-0.1454602,0.8755906,18
17.1,-8.602022,1.208734,-12.80905,-0.4089128417965585,-0.0042387786468133,0.6138168583301229,13.44785,54.97971,183.5213,0.4550091,-0.117901,0.8822356,18
17.12,-8.507907,1.38318,-12.73294,-0.4441244314021522,0.0100046611740378,0.590712606471449,17.06459,55.04824,183.7816,0.4524173,-0.1465813,0.8787862,18
17.14,-8.52212,1.183253,-12.72224,-0.5003355168168132,-0.0568216139149214,0.5500178020109934,17.40908,53.87136,183.8853,0.4429413,-0.1500229,0.8830647,18
17.16,-8.494617,1.175871,-12.69232,-0.5443825686665084,-0.0703908864047073,0.5141207565954042,18.73332,53.17852,184.0206,0.4362465,-0.1609413,0.8843278,18
17.18,-8.403802,1.358643,-12.61824,-0.5886458192062997,-0.0814105429106206,0.4782229577635617,22.29447,53.2346,184.1806,0.4329796,-0.1887599,0.879728,18
17.2,-8.313925,1.538034,-12.54492,-0.6488689649360763,-0.1475233285752533,0.4276859686562808,25.85441,53.30327,184.3489,0.4292949,-0.2163877,0.8742787,18
17.22,-8.404633,1.153193,-12.59429,-0.7090251603671721,-0.2124418574926825,0.3775449719466648,23.05587,50.29844,184.026,0.4097929,-0.1954163,0.8893796,18
17.24,-8.31706,1.342163,-12.52096,-0.7464995128566864,-0.2277026586156267,0.3395802586278187,26.56589,50.30521,184.0422,0.4060679,-0.2224333,0.8838589,18
17.26,-8.230109,1.527915,-12.44814,-0.7888192990043674,-0.2682155742132974,0.2968501963582786,30.07453,50.31353,184.0597,0.4019642,-0.2492322,0.8775112,18
17.28,-8.290673,1.128812,-12.4687,-0.8127851056935589,-0.248326877376738,0.265111108600276,30.03647,46.0569,183.6917,0.369949,-0.2505233,0.8916801,18
17.3,-8.273145,1.12493,-12.44735,-0.8239514359188157,-0.1985115370191721,0.2413982096404527,32.05331,44.9409,183.5217,0.359339,-0.2662907,0.8909841,18
17.32,-8.1904,1.322087,-12.37469,-0.8460687841470907,-0.2340394655116225,0.2052506222946175,35.47365,44.78695,183.2448,0.3547359,-0.2918322,0.8835728,18
17.34,-8.107875,1.516244,-12.30223,-0.8542672964883391,-0.2086404959459035,0.1770230306890801,38.89231,44.60468,182.9434,0.3498168,-0.3171054,0.8753733,18
17.36,-8.095692,1.115625,-12.28697,-0.8585931604282641,-0.1832261436311742,0.1515168039955954,41.85204,43.25971,182.3466,0.3374257,-0.3389929,0.8707852,18
17.38,-8.01447,1.315624,-12.21507,-0.8551014244471286,-0.1853429820997167,0.1276874398484238,45.22855,42.95765,181.9083,0.3319997,-0.3634001,0.8612324,18
17.4,-7.933338,1.51271,-12.14326,-0.8528606512264736,-0.2137425602071565,0.1011903840320338,48.60219,42.59702,181.4147,0.3262845,-0.3874822,0.8509285,18
17.42,-7.878842,1.11299,-12.08846,-0.8352668685472522,-0.1816044097559039,0.0866585775104145,48.06355,41.29875,179.5223,0.3236664,-0.3797343,0.8540384,18
17.44,-7.809899,1.110035,-12.02366,-0.8065857192215915,-0.2071726730071292,0.082582292269103,50.64141,40.68539,178.71,0.318731,-0.3974469,0.8458228,18
17.46,-7.732259,1.309546,-11.95275,-0.7716669582992493,-0.1727333264454018,0.0830205257554788,53.91393,40.15267,178.0368,0.3132237,-0.4204713,0.8343968,18
17.48,-7.654722,1.50632,-11.88193,-0.7303974851783369,-0.1939214203261773,0.0890534962426994,57.18085,39.50313,177.2494,0.3074593,-0.4431389,0.8222841,18
17.5,-7.572462,1.102254,-11.79738,-0.6804326095074572,-0.1554373537013534,0.101213983165171,59.63897,37.13619,174.0497,0.300364,-0.4564096,0.8131074,18
17.52,-7.495897,1.296038,-11.72729,-0.6259966027714439,-0.1698732587424577,0.116931555550606,62.85445,36.00104,172.7554,0.2944959,-0.4782433,0.799736,18
17.54,-7.419672,1.48717,-11.65751,-0.5813424431236243,-0.1249468626476782,0.1265576888663839,66.05406,34.54664,171.1441,0.2883893,-0.4996793,0.7857162,18
17.56,-7.256876,1.128829,-11.48692,-0.5232209362842017,-0.1271082679087067,0.1478299511011578,60.95411,27.40421,166.6857,0.2598935,-0.4657703,0.8177321,18
17.58,-7.18834,1.144182,-11.4183,-0.4682834718924227,-0.0741242755631545,0.1669968728190174,58.39797,28.05486,167.8286,0.2605709,-0.4481979,0.8295912,18
17.6,-7.114151,1.326213,-11.34552,-0.4115819340630341,-0.0683215586552538,0.1850624244055771,61.44959,26.30339,165.8055,0.2555633,-0.469536,0.8163073,18
17.62,-6.966322,1.19545,-11.20369,-0.3532897177768742,-0.0640732170878019,0.2042479971604351,48.32386,33.44388,173.1163,0.2855811,-0.3755402,0.8651629,18
17.64,-6.890931,1.3719,-11.12874,-0.2883278814733317,-0.029229198077106,0.2236571342477655,51.45734,32.64352,172.0702,0.2813708,-0.3981122,0.8540493,18
17.66,-6.816551,1.545578,-11.0548,-0.2339688295201721,0.004470310308914,0.2331752254914756,54.57926,31.68477,170.8705,0.2769417,-0.4203665,0.8422711,18
17.68,-6.730991,1.239099,-11.0016,-0.1792553663120663,0.0376131410397316,0.2429228138996513,32.11335,38.20117,175.3162,0.3248791,-0.2482928,0.9036253,18
17.7,-6.681363,1.250336,-10.96267,-0.1245862987199978,0.0671111573462179,0.2528172709352922,26.22644,39.78526,175.9825,0.3386603,-0.2015918,0.9125429,18
17.72,-6.596505,1.419356,-10.87826,-0.0791906291416271,0.0925578580699751,0.2544497863570192,29.72221,39.60781,175.6044,0.3364825,-0.2285722,0.9053851,18
17.74,-6.511296,1.268241,-10.80547,-0.0355022242645967,0.1175593124701261,0.2564298909922611,8.166939,44.07333,177.5433,0.3755764,-0.05796937,0.9238056,18
17.76,-6.424923,1.435527,-10.71982,0.0060341171479429,0.1391881149563145,0.258521460371907,11.70591,44.0606,177.4696,0.3751378,-0.08626788,0.9210839,18
17.78,-6.340089,1.599191,-10.6357,0.0480933221832232,0.0866490134733509,0.2556100561817915,15.24386,44.04296,177.3939,0.3743415,-0.1144761,0.9174843,18
17.8,-6.256948,1.759374,-10.55326,0.085686932486565,0.1013819026389094,0.2529633959989183,18.78077,44.02007,177.3158,0.3731886,-0.1425671,0.9130113,18
17.82,-6.243203,1.285373,-10.53911,0.1198962656128945,0.114735589435345,0.2512278915518369,353.3166,47.15014,178.6991,0.3986381,0.05795483,0.9151842,18
17.84,-6.156242,1.448964,-10.45088,0.1498147793660366,0.1253579812861803,0.241162561774973,356.8903,47.13646,178.8593,0.3994263,0.02884807,0.9163098,18
17.86,-6.077627,1.296036,-10.36872,0.1781834518986139,0.1588121248444555,0.2324125841786964,353.4561,47.58248,179.495,0.4025137,0.05399954,0.9136225,18
17.88,-6.046934,1.283278,-10.33492,0.192559951598836,0.1412991789182213,0.2086247011071154,353.7399,47.73547,179.7461,0.4039115,0.05082758,0.9131646,18
17.9,-5.963383,1.445822,-10.24578,0.2024646530055676,0.1225526218524648,0.1844576417112653,357.2614,47.71326,180.029,0.4043395,0.02175249,0.9142968,18
17.92,-5.916,1.254801,-10.20347,0.2166561821527625,0.1217138166983914,0.157860888375163,357.4064,47.94792,181.1273,0.4064012,0.01668221,0.9133616,18
17.94,-5.832298,1.419288,-10.11535,0.2264643088534846,0.1209835654322595,0.1305143465250667,0.9595352,47.94399,181.402,0.4061519,-0.01262112,0.9136854,18
17.96,-5.815322,1.245833,-10.09298,0.2210478379945062,0.070277845431361,0.0898795866184621,1.41173,48.21029,181.5846,0.4081869,-0.01689089,0.9127107,18
17.98,-5.729599,1.41062,-10.00306,0.2270249102020057,0.095208185352846,0.0589682336613309,5.05877,48.22684,181.8777,0.4074315,-0.04696309,0.9120224,18
18.0,-5.740399,1.237746,-10.00786,0.2372343139236288,0.1438084204763036,0.0332166393128505,6.15649,48.19368,182.5701,0.4064892,-0.05815099,0.9118021,18
18.02,-5.69257,1.226426,-9.943936,0.2210024453055718,0.1154929585474707,-0.0151494475814017,10.31241,47.84024,183.1424,0.4014175,-0.09319416,0.9110695,18
18.04,-5.607915,1.396919,-9.855884,0.211264257037846,0.1384817369798535,-0.0589676643545433,13.93228,47.89456,183.401,0.3994329,-0.1227499,0.9082342,18
18.06,-5.524659,1.563758,-9.769286,0.1978771308609103,0.1608124858742764,-0.1031972348558668,17.55082,47.96697,183.6678,0.3970486,-0.1521742,0.9044894,18
18.08,-5.589612,1.199719,-9.8197,0.1596658517375542,0.1034720972951558,-0.1677871917670382,14.76149,47.83967,183.6445,0.3981611,-0.1301562,0.9077377,18
18.1,-5.506545,1.376398,-9.733761,0.1186184699576763,0.0467721776744079,-0.2320549060027814,18.34835,47.91144,183.8963,0.3956519,-0.1592446,0.9038491,18
18.12,-5.424593,1.54957,-9.648976,0.0941351502379134,0.0352408970192144,-0.2868217535613471,21.93383,48.00182,184.1587,0.392754,-0.1881679,0.8990724,18
18.14,-5.477277,1.168326,-9.678024,0.0680277843042719,0.026223648892346,-0.3405286583466378,20.13827,45.84901,184.0571,0.377578,-0.1745022,0.9086753,18
18.16,-5.453719,1.160929,-9.64826,0.0417136204207197,0.0177785509559388,-0.3958384598864831,21.5555,44.98925,184.0854,0.3694506,-0.1860591,0.909591,18
18.18,-5.37391,1.347871,-9.565315,0.0243673223985614,0.0400325186428274,-0.4426250027612342,25.07943,45.0186,184.1595,0.366176,-0.2140056,0.9042029,18
18.2,-5.403919,1.145579,-9.584607,0.0064617334101703,0.062455336310089,-0.4874131857771453,24.57998,43.42387,184.0446,0.3542585,-0.2103909,0.9099777,18
18.22,-5.32583,1.336532,-9.502551,-0.0335259259497173,-3.339740269558966e-06,-0.5481331182215691,28.07336,43.41899,184.0337,0.350703,-0.2378295,0.903929,18
18.24,-5.325552,1.128793,-9.482584,-0.0465548502299391,0.0226234604611657,-0.5881763785727456,30.02069,40.4564,183.7081,0.3259251,-0.2536972,0.9087295,18
18.26,-5.294997,1.124925,-9.445723,-0.058327199252403,0.0454968121595578,-0.6251098174049373,32.04487,39.45721,183.5293,0.3162977,-0.2696802,0.9071762,18
18.28,-5.219784,1.322068,-9.365428,-0.0811351861333368,-0.0179839664722755,-0.6710887480507237,35.46265,39.30762,183.2601,0.3120703,-0.2958081,0.8995557,18
18.3,-5.14477,1.516216,-9.285347,-0.0878544136529008,-0.0219437191865531,-0.7069761758854662,38.87878,39.13054,182.9672,0.3075653,-0.3216642,0.891134,18
18.32,-5.167397,1.117192,-9.307791,-0.0815975475322685,0.0062851261708562,-0.7313688563014389,39.59512,38.2412,182.6715,0.3006538,-0.3271096,0.8913317,18
18.34,-5.092781,1.316586,-9.228851,-0.0740990542791857,-0.0219554364633634,-0.7552552893765051,42.97454,37.96671,182.2556,0.2958089,-0.3522635,0.8820668,18
18.36,-5.01827,1.513058,-9.150024,-0.0635632455012854,-0.0493088308547741,-0.7751386979915171,46.35133,37.64033,181.7916,0.290706,-0.3771015,0.8720313,18
18.38,-4.988599,1.113762,-9.124034,-0.0398372408334484,0.0096091140236675,-0.782584477635162,46.36914,37.61954,180.3629,0.2952067,-0.3736056,0.8705463,18
18.4,-4.953921,1.112982,-9.08755,-0.0183936394487586,-0.0186748016608776,-0.7918419279661639,48.03993,37.09632,179.5257,0.2921503,-0.3847051,0.8654152,18
18.42,-4.88102,1.313478,-9.010566,0.0060840958747344,-0.0466952162951461,-0.796911152478569,51.33746,36.64875,178.9389,0.2871651,-0.4085607,0.8543121,18
18.44,-4.762426,1.103776,-8.885742,0.0372039378132338,0.0112411062348816,-0.7953774774091871,56.47395,35.06268,176.2027,0.2801824,-0.4421039,0.8348951,18
18.46,-4.690475,1.299884,-8.810201,0.0912924020280054,0.0142955847267053,-0.779567827597849,59.72075,34.24078,175.2349,0.2748588,-0.4648014,0.8220031,18
18.48,-4.60133,1.104468,-8.715269,0.1469325918608001,-0.0077707435794539,-0.7611676490020385,61.19259,30.78732,171.2358,0.2653195,-0.4718327,0.8171452,18
18.5,-4.529918,1.295722,-8.640608,0.2038065394211659,-0.0312710716248241,-0.739362130643248,64.35839,29.28844,169.5509,0.2600113,-0.4936425,0.8032287,18
18.52,-4.452429,1.11791,-8.559642,0.2770214111938825,-0.0159664560119203,-0.7086976481470347,61.81718,26.35349,167.269,0.2498287,-0.475378,0.817266,18
18.54,-4.382026,1.304306,-8.48413,0.3502851242356487,-0.0012021756718348,-0.6751791766825411,64.8957,24.55535,165.1301,0.2457816,-0.4966317,0.8028833,18
18.56,-4.232708,1.161706,-8.341744,0.4259366193137576,-0.0358416445587599,-0.6401122808724552,55.76513,26.82629,168.8222,0.2483697,-0.4327729,0.845145,18
18.58,-4.160602,1.341672,-8.266127,0.4881109161409209,0.0076568114261893,-0.6172275196379192,58.80312,25.79658,167.1819,0.2466726,-0.4538417,0.8316784,18
18.6,-4.084923,1.195681,-8.206605,0.5518810512212354,0.0294956115255034,-0.597590659949672,48.31596,32.37525,172.9858,0.2779342,-0.3767323,0.8676264,18
18.62,-4.009148,1.372428,-8.132018,0.6222831194663141,0.0295104575275231,-0.5764958798548846,51.42636,31.3827,171.7863,0.2729625,-0.3991736,0.8567694,18
18.64,-3.869623,1.24092,-8.042321,0.6813067593202948,0.0734182636707866,-0.5635318700901327,31.92488,37.62021,175.1541,0.3207285,-0.2469814,0.9055318,18
18.66,-3.802741,1.252415,-7.994831,0.7342042060409699,0.0690153864327475,-0.5569036865122136,26.02089,39.45127,175.8083,0.3363824,-0.1997497,0.9137628,18
18.68,-3.719989,1.423781,-7.917513,0.7860040018200738,0.0621757302798121,-0.5489659929427592,29.31529,38.88892,175.215,0.3317389,-0.2249583,0.9079645,18
18.7,-3.63868,1.591729,-7.840526,0.8343827124150011,0.1214479459080024,-0.5370192438132462,32.63078,38.21513,174.5652,0.3263922,-0.2502544,0.901475,18
18.72,-3.607496,1.269577,-7.839731,0.8747432409904055,0.1321502860734854,-0.5299942494805906,8.020429,44.31698,177.5009,0.3775694,-0.05654919,0.9230818,18
18.74,-3.525378,1.438501,-7.757563,0.9165280723824436,0.1197558703326548,-0.522746396939774,11.41812,43.97279,177.3675,0.37455,-0.08366058,0.9215744,18
18.76,-3.444911,1.60402,-7.67645,0.9548105779576624,0.1524728231244496,-0.5138754113832086,14.82183,43.61749,177.2179,0.3712048,-0.1107742,0.9192391,18
18.78,-3.344361,1.28573,-7.631146,0.9886326978752398,0.1819307367627591,-0.5057564328662986,353.2778,49.17674,178.7075,0.4147528,0.05799351,0.907974,18
18.8,-3.285419,1.291309,-7.589139,1.0096014222773648,0.1392066130654094,-0.5081699753056401,352.2354,49.93876,179.078,0.4206577,0.06476546,0.9046539,18
18.82,-3.198242,1.453328,-7.500216,1.0264455127495076,0.0929087177133373,-0.5106938647876859,355.8299,49.59355,179.3168,0.4189188,0.03552699,0.9072748,18
18.84,-3.108168,1.282925,-7.466871,1.0487964726475991,0.1348099609787265,-0.5036611638305678,353.769,51.5391,179.7823,0.4340163,0.0497682,0.8992622,18
18.86,-3.021364,1.445037,-7.380027,1.0542734735204318,0.0990713214665743,-0.5115612661766186,357.3225,51.19613,180.0813,0.4319522,0.02076379,0.9015936,18
18.88,-2.998799,1.262151,-7.394753,1.0486903970331571,0.0849292609441301,-0.5257319134241045,355.7322,52.37786,180.5708,0.4411874,0.03121491,0.8966284,18
18.9,-2.911065,1.426039,-7.310939,1.0471157831037337,0.0965975465048396,-0.533034143275883,359.2823,52.04693,180.8427,0.4387602,0.002401264,0.8985524,18
18.92,-2.839042,1.246015,-7.289696,1.0413102059991812,0.1059602678712084,-0.541895512879445,1.383292,53.79514,181.598,0.4521699,-0.01707238,0.8917413,18
18.94,-2.748094,1.411054,-7.206955,1.0225510486748086,0.0922131229968122,-0.5570267000130156,5.008794,53.49268,181.885,0.4489089,-0.04641123,0.8923576,18
18.96,-2.732031,1.237745,-7.212118,1.000143211720628,0.0788757887779531,-0.5734941174572245,6.148773,54.17757,182.5729,0.4535287,-0.05794582,0.8893449,18
18.98,-2.639928,1.404901,-7.130493,0.983360771010814,0.1132368621211522,-0.5820080428931824,9.79393,53.89779,182.8471,0.4495116,-0.08728868,0.8888444,18
19.0,-2.549761,1.56836,-7.050087,0.9617376067180692,0.1441821550513595,-0.5927111234525346,13.43928,53.63255,183.1065,0.4450368,-0.1165335,0.8874324,18
19.02,-2.614622,1.208858,-7.124267,0.9184733409176892,0.1222549387146486,-0.6129701234530542,13.42508,54.61148,183.5265,0.4521824,-0.1178329,0.8837124,18
19.04,-2.523288,1.383457,-7.046697,0.8782633585964867,0.128756510745066,-0.6305816304347209,17.02719,54.35917,183.7722,0.4471684,-0.146494,0.8815259,18
19.06,-2.43351,1.554539,-6.970004,0.8352466200810992,0.1345143398403684,-0.6494679304582176,20.62923,54.11818,184.0063,0.4417106,-0.1750002,0.8784581,18
19.08,-2.491543,1.183205,-7.033676,0.7663087292945772,0.0588212172442699,-0.6843031358519849,17.39894,54.63635,183.9237,0.4487852,-0.1498346,0.8801118,18
19.1,-2.401212,1.363898,-6.958941,0.7055868729424523,0.0359031666442342,-0.7070569090591271,20.96939,54.3919,184.1411,0.4432629,-0.177987,0.877032,18
19.12,-2.396486,1.160769,-6.964114,0.6377446589617584,-0.0132734275714412,-0.7336820680913156,21.57102,53.22459,184.1328,0.433719,-0.1830656,0.8807158,18
19.14,-2.307184,1.347541,-6.891771,0.5692266357765049,-0.0604604657784041,-0.7606845808211911,25.1143,52.94997,184.2354,0.4276548,-0.2105595,0.8767024,18
19.16,-2.319104,1.145441,-6.905672,0.5197425014838444,-0.0261178291161075,-0.7713916760595562,24.59431,52.05678,184.0952,0.4216365,-0.2065776,0.8807387,18
19.18,-2.230971,1.336228,-6.83479,0.4582112074592285,-0.0470354051684025,-0.785501425012762,28.10916,51.75143,184.1162,0.4152361,-0.233562,0.876052,18
19.2,-2.14356,1.523869,-6.764132,0.3978305375587018,-0.0653050427832211,-0.7988935767350781,31.62221,51.43641,184.1148,0.4084451,-0.2603073,0.8705384,18
19.22,-2.206076,1.128746,-6.819355,0.3398970729823575,-0.0821889768362506,-0.8053485371940099,30.02099,49.76999,183.7301,0.3985782,-0.2480526,0.8792836,18
19.24,-2.119043,1.324497,-6.751641,0.2827060043572024,-0.1251833819877888,-0.8125229806520758,33.47261,49.3535,183.5348,0.3915525,-0.2738762,0.8734804,18
19.26,-2.032478,1.517247,-6.683944,0.2393891311281782,-0.1072688356216728,-0.8094311994008561,36.92189,48.90459,183.2998,0.3841718,-0.2994413,0.8668777,18
19.28,-2.030487,1.117119,-6.701218,0.2057608771134405,-0.059329869023698,-0.7983757621324115,39.61071,48.52582,182.7031,0.3792244,-0.3179303,0.860789,18
19.3,-1.995232,1.115638,-6.685778,0.1628400097808327,-0.0972911263430347,-0.794663156006019,41.81834,48.83923,182.3478,0.3794532,-0.3328047,0.8534248,18
19.32,-1.908304,1.315715,-6.623259,0.1156261921749015,-0.1627243469637844,-0.7941330291212638,45.17778,48.20572,181.8815,0.3712397,-0.35677,0.845249,18
19.34,-1.836498,1.113745,-6.585948,0.0902707252624067,-0.1688141863303588,-0.7754454737009631,46.35098,48.78261,180.3742,0.378469,-0.3596607,0.8377788,18
19.36,-1.750464,1.314292,-6.524398,0.0689636980979391,-0.1731060213676631,-0.7546743778306778,49.67199,48.08561,179.8562,0.3702196,-0.3831174,0.8285639,18
19.38,-1.664644,1.512072,-6.462683,0.0514765692950942,-0.1789956646438103,-0.7320767674128775,52.98726,47.2869,179.2325,0.3616571,-0.406239,0.8186415,18
19.4,-1.616809,1.107182,-6.444009,0.04724926148692,-0.185492388559493,-0.6993638801904085,53.27565,47.78142,177.6969,0.3701722,-0.4025765,0.8134582,18
19.42,-1.531315,1.305645,-6.384438,0.0503535441290484,-0.1879734325233974,-0.6601113813825739,56.5477,46.82375,176.9068,0.3615381,-0.4250858,0.8028141,18
19.44,-1.446125,1.501431,-6.324775,0.0573308683111953,-0.1899143618247805,-0.6188180164664244,59.80968,45.68426,175.9316,0.3526042,-0.4472289,0.7915011,18
19.46,-1.229356,1.109017,-6.2002,0.0752915845030191,-0.1838241172206503,-0.576020630874065,62.63594,39.93533,167.9087,0.3415642,-0.4550977,0.7797801,18
19.48,-1.145349,1.117793,-6.147271,0.0957408696356914,-0.1776583616959269,-0.532181361538808,61.83107,38.79351,167.3245,0.3366785,-0.4501987,0.78545,18
19.5,-1.06179,1.304208,-6.08813,0.115832116318599,-0.1163386241253666,-0.4905367259159091,64.91457,36.51094,165.1183,0.3280979,-0.4711377,0.7728043,18
19.52,-0.8644806,1.161357,-5.974907,0.1413673392763437,-0.1281136310949383,-0.4484494274659149,55.82018,38.93832,168.8042,0.3361757,-0.4104857,0.8139634,18
19.54,-0.7794835,1.341072,-5.91446,0.1776028954695871,-0.1071304563354284,-0.4044812005747007,58.89565,37.10377,166.9933,0.3280645,-0.4317043,0.8025248,18
19.56,-0.676553,1.195119,-5.862633,0.2160624886393439,-0.0869157222406595,-0.3601296236694461,48.36627,44.51923,173.1988,0.3674405,-0.3579607,0.8335665,18
19.58,-0.5911888,1.371413,-5.800536,0.2434312108242237,-0.0663005891968,-0.3313364500631121,51.51395,43.46886,172.2297,0.3600978,-0.3801371,0.8237929,18
19.6,-0.4921164,1.226866,-5.776099,0.2728235083917766,-0.0466362216749551,-0.302740896504341,38.07928,48.09596,174.6995,0.3985713,-0.2797774,0.856176,18
19.62,-0.3492764,1.250029,-5.715101,0.307015165630876,-0.0264844843710127,-0.2755707489927337,26.27529,51.85305,176.0167,0.432622,-0.1894946,0.8718339,18
19.64,-0.2506098,1.418788,-5.647293,0.3388797990579392,-0.0305790693006638,-0.2518928249467662,29.7944,51.37563,175.6553,0.4273789,-0.2156327,0.8660299,18
19.66,-0.1847125,1.263368,-5.631664,0.3621196189568211,0.0087376422676959,-0.2312653917008753,13.9864,55.08578,177.1593,0.4615073,-0.09654311,0.878403,18
19.68,-0.08379617,1.430939,-5.564142,0.3865238401142201,0.069231952235529,-0.2080100101376005,17.54356,54.73286,176.99,0.4577033,-0.1234535,0.8755537,18
19.7,0.01511779,1.594905,-5.497529,0.4008000928876841,0.0570054145046567,-0.1949182272585838,21.09861,54.36125,176.7936,0.4534571,-0.1502361,0.8718532,18
19.72,0.04649517,1.275617,-5.508574,0.4146342592292043,0.0424436909993557,-0.1834500506579471,358.4576,59.00871,178.1781,0.4921966,0.01954206,0.8702348,18
19.74,0.1788591,1.285081,-5.439866,0.4380909012774628,0.0515765901544903,-0.1636239752748601,353.3399,60.5508,178.7339,0.5027207,0.05572292,0.8624249,18
19.76,0.2818284,1.448409,-5.370803,0.4606304612502934,0.058925037477806,-0.145898356910634,356.933,60.23017,178.9103,0.5013161,0.02791755,0.8647982,18
19.78,0.3825403,1.607983,-5.302799,0.471219222526467,0.0149857907261747,-0.1390947824069874,0.5259652,59.92135,179.0664,0.4994161,9.238208e-05,0.8663118,18
19.8,0.4254469,1.295948,-5.302767,0.4778844430288,0.0396084664146451,-0.1294680791884121,353.4582,61.33278,179.504,0.5089904,0.05128151,0.8588685,18
19.82,0.5279231,1.456842,-5.232104,0.4808755056910202,0.0357061848672453,-0.1236951245371645,357.0404,61.00599,179.7699,0.5073686,0.02326926,0.8613401,18
19.84,0.628027,1.613958,-5.162605,0.4816921543481592,0.0315919391479838,-0.1219050758863816,0.623055,60.69654,180.015,0.5052469,-0.004758059,0.862958,18
19.86,0.6461459,1.254747,-5.189127,0.479243324925228,0.0737959614348502,-0.1164694470579492,357.4066,62.28125,181.1384,0.5171748,0.01423149,0.8555231,18
19.88,0.6947224,1.249906,-5.163414,0.4733332323382846,0.1120842954938425,-0.115646072887303,359.4449,62.56332,181.3574,0.5192521,-0.002010484,0.8545254,18
19.9,0.7986157,1.414022,-5.095782,0.4515158850721348,0.1026100722005827,-0.1203285580404474,3.094851,62.26558,181.6194,0.5164565,-0.03041613,0.8557711,18
19.92,0.9002572,1.574384,-5.029181,0.4283054784355097,0.0935282878942236,-0.1281682319278965,6.745767,61.98329,181.8634,0.5131332,-0.05878657,0.856137,18
19.94,0.9048291,1.231978,-5.04239,0.3924453586076943,0.0834406810181736,-0.1386595540184184,8.253753,63.10659,182.8725,0.5202336,-0.07438859,0.8506213,18
19.96,1.008679,1.400596,-4.976559,0.3451181012991356,0.0490161958797671,-0.1582489749536689,11.90578,62.85101,183.1413,0.5159575,-0.102679,0.8498806,18
19.98,1.110512,1.56552,-4.911592,0.3071965439078038,0.0655575991634434,-0.1683934630461121,15.55787,62.6095,183.3973,0.5111543,-0.1308556,0.8482659,18
20.0,1.21014,1.726897,-4.847624,0.267303372231686,0.0815116843777899,-0.1819368435121069,19.21,62.38056,183.6418,0.5058287,-0.1588893,0.8457798,18
20.02,1.091424,1.199667,-4.933116,0.1984984958025625,0.0167054918510549,-0.2136166205132196,14.76504,63.50495,183.6598,0.5181332,-0.125871,0.8450099,18
20.04,1.193413,1.3762,-4.871028,0.1519474993970816,0.0308571324291609,-0.2255079120695722,18.36927,63.27454,183.9087,0.5128792,-0.1534753,0.8428369,18
20.06,1.293845,1.549239,-4.809517,0.1050417061852478,0.0449310036369566,-0.2395624464207866,21.97334,63.05588,184.1477,0.5071153,-0.1809177,0.8398207,18
20.08,1.232244,1.168318,-4.850316,0.0345868830658601,-0.0234655434991976,-0.269585183674536,20.13726,62.04747,184.0651,0.5018227,-0.167723,0.8464209,18
20.1,1.247985,1.160918,-4.841385,-0.0132089953658046,-0.009973955134194,-0.2808212259823687,21.55436,61.35062,184.0965,0.4951056,-0.1786345,0.8477718,18
20.12,1.301016,1.145558,-4.809179,-0.0597736921316135,0.0037498195276828,-0.29327623416166,24.58593,59.99173,184.0573,0.4816413,-0.2015695,0.8494419,18
20.14,1.398532,1.336459,-4.752218,-0.110410610987135,-0.0105721812046586,-0.3055429250226436,28.09412,59.68382,184.0393,0.4750089,-0.2274161,0.8451974,18
20.16,1.495313,1.524221,-4.695373,-0.1663335164555942,-0.050324406198718,-0.3228254426804736,31.60043,59.36378,183.9982,0.4679325,-0.2530343,0.8401573,18
20.18,1.447382,1.128782,-4.719799,-0.2047496242328631,-0.0303715178487744,-0.3279934828711341,30.03186,57.06415,183.7047,0.453742,-0.2424148,0.8521075,18
20.2,1.54265,1.324603,-4.664289,-0.2401359857933632,-0.0099967374524025,-0.3333860095024485,33.48057,56.64941,183.4849,0.4464402,-0.2672468,0.8467327,18
20.22,1.532883,1.121893,-4.670742,-0.2888322490653394,-0.0759177737879056,-0.3500022001906297,34.67342,55.57378,183.2411,0.4373721,-0.2761046,0.8480873,18
20.24,1.614928,1.117228,-4.631339,-0.3115273930266402,-0.0543259316225344,-0.3482713641144578,39.58356,55.16439,182.6585,0.4285904,-0.3101456,0.8374029,18
20.26,1.708683,1.316714,-4.578582,-0.3335275936689335,-0.0889033414194823,-0.3501838861776354,42.95525,54.56606,182.2035,0.4202206,-0.3335478,0.8301129,18
20.28,1.802189,1.513339,-4.525678,-0.3510157451525691,-0.1222513173649934,-0.3516309526432801,46.322,53.89361,181.6705,0.4114842,-0.3566493,0.8220927,18
20.3,1.807804,1.114552,-4.535429,-0.3597179581240244,-0.1257956531806431,-0.3456509203168175,44.66342,55.07418,181.1129,0.424356,-0.3410597,0.8218755,18
20.32,1.845005,1.113819,-4.517513,-0.3555567318006633,-0.0972065749410082,-0.3311426040368768,46.32413,54.74911,180.3396,0.4217063,-0.3505391,0.8169743,18
20.34,1.96198,1.110067,-4.457219,-0.336763274169075,-0.1262560204338153,-0.3113621156510931,50.62385,53.91825,178.7122,0.4140864,-0.3764552,0.8035278,18
20.36,2.053296,1.309639,-4.406605,-0.3113433563946183,-0.0953632319830683,-0.2868285675504349,53.89745,53.06232,178.0053,0.4051776,-0.3984756,0.7938949,18
20.38,2.144379,1.506518,-4.355844,-0.2815556226740838,-0.0652022636589361,-0.261197206755878,57.16255,52.0582,177.1471,0.3959339,-0.4201548,0.7836003,18
20.4,2.25611,1.102255,-4.300398,-0.2476294346358208,-0.0391069162315609,-0.2347338859806365,59.61861,50.8154,174.0675,0.3950235,-0.4291662,0.771673,18
20.42,2.331092,1.10443,-4.259972,-0.1945943741928955,-0.0357984523183488,-0.1977990241049592,61.18952,48.1186,171.2731,0.3852702,-0.4366993,0.7679418,18
20.44,2.420053,1.295711,-4.209535,-0.1379844413758103,-0.0322838647944915,-0.1599491637619939,64.3504,46.32898,169.5933,0.3759877,-0.4573648,0.7559804,18
20.46,2.608861,1.12868,-4.110147,-0.064249050457808,-0.0772878253276103,-0.1156448686551597,60.96871,42.0191,166.7269,0.3616258,-0.4346973,0.7780675,18
20.48,2.69796,1.31293,-4.058392,-0.00912112795826,-0.0611351795376161,-0.0823591718958879,64.01734,39.61251,164.3469,0.352559,-0.4549201,0.7659166,18
20.5,2.786071,1.494584,-4.006922,0.047472731949992,-0.0181520780292922,-0.0481670834694594,67.00998,36.58991,161.3503,0.3432122,-0.4747698,0.7531514,18
20.52,2.898303,1.178025,-3.955053,0.1189958490141126,-0.0189820908992261,-0.013077785733299,52.11493,45.84342,171.1893,0.379928,-0.376516,0.8118322,18
20.54,3.056405,1.211089,-3.884253,0.1753443293724159,0.0266667821548408,0.0139380003684357,43.22136,50.22287,173.9274,0.4116601,-0.3121211,0.8323753,18
20.56,3.152345,1.384513,-3.826212,0.2318981286475304,0.0697410559442998,0.039936540570821,46.5455,49.33134,173.0806,0.4043364,-0.3352689,0.8233449,18
20.58,3.23889,1.238999,-3.807447,0.2814423295310604,0.0895387789204817,0.0572521896114442,32.15981,53.51514,175.3105,0.4423585,-0.229413,0.8521652,18
20.6,3.34165,1.408508,-3.746507,0.3246919430843497,0.0856062757329841,0.0679794916391893,35.67698,52.91803,174.7659,0.4362167,-0.2545952,0.8450921,18
20.62,3.469448,1.263592,-3.708452,0.3667917440818535,0.1270374456632284,0.0833267547778244,13.97826,58.37931,177.1488,0.4865713,-0.0941524,0.8647786,18
20.64,3.550234,1.268313,-3.66851,0.4020816333440377,0.1436439379800788,0.0948764407572714,8.187738,59.69769,177.5376,0.4976596,-0.05123878,0.8641653,18
20.66,3.654542,1.435757,-3.607808,0.4352419173538646,0.1592680061264704,0.1043498771357399,11.71625,59.38886,177.4414,0.494644,-0.07763796,0.862799,18
20.68,3.756815,1.599639,-3.547896,0.4704456288029532,0.219139776455989,0.1190588261003032,15.24318,59.06958,177.3241,0.4911584,-0.1039554,0.8606085,18
20.7,3.797238,1.279251,-3.545634,0.4949859274330231,0.2087638138454491,0.1241536785895433,354.501,62.80287,178.397,0.5198075,0.0482193,0.8528214,18
20.72,3.903076,1.4442,-3.483739,0.5169488144096097,0.1959089990664276,0.1274096755484561,358.0668,62.50492,178.499,0.5185027,0.02121475,0.8548092,18
20.74,4.029232,1.293741,-3.42887,0.5456818744945787,0.249697945608143,0.1399248150692529,352.8216,63.74916,179.2673,0.5266752,0.05653162,0.8477345,18
20.76,4.135257,1.455219,-3.363569,0.5577007270879953,0.252775361316589,0.1412745277104101,356.4105,63.43601,179.506,0.5253614,0.02890669,0.8502918,18
20.78,4.163708,1.2831,-3.358091,0.5579119108734071,0.2311003840244563,0.1342235296351566,353.7617,64.06337,179.7528,0.5295018,0.04727133,0.8465595,18
20.8,4.267701,1.445363,-3.293314,0.5546492720538276,0.2078550741993572,0.1247150570003344,357.3082,63.75196,180.0256,0.5279412,0.01982774,0.8489563,18
20.82,4.332597,1.254779,-3.277788,0.5412291427307707,0.2036134062861344,0.1123812102233011,357.4036,64.5004,181.1241,0.5336428,0.01392689,0.8453498,18
20.84,4.436412,1.419218,-3.215092,0.5247001355610561,0.1990903299350944,0.0974948081621846,0.9648771,64.20716,181.3806,0.5313082,-0.01353456,0.8470513,18
20.86,4.53802,1.580068,-3.153325,0.4945859894890949,0.1446145995522323,0.0725637418116836,4.526394,63.92932,181.6196,0.5284569,-0.04097501,0.8479239,18
20.88,4.637238,1.737485,-3.092607,0.4631962115164221,0.1413890093747115,0.0532868460752697,8.087979,63.66484,181.8427,0.5250919,-0.0683676,0.8479677,18
20.9,4.582345,1.237816,-3.142162,0.4372858553065992,0.1637959246807465,0.0381536887846604,6.135997,65.03291,182.5715,0.5356236,-0.05716426,0.8424622,18
20.92,4.688116,1.405047,-3.07962,0.395606758513412,0.134912876153165,0.013524659176954,9.77328,64.78268,182.8475,0.5318001,-0.08517027,0.8422138,18
20.94,4.700218,1.217717,-3.076073,0.3515132238515319,0.1064510952806159,-0.013344685724422,11.84836,65.24441,183.3445,0.5334529,-0.1025411,0.8390124,18
20.96,4.73678,1.209075,-3.056456,0.3188440714422758,0.1504171852933867,-0.0309445841494494,13.38828,65.3839,183.5293,0.5331644,-0.1145758,0.8373918,18
20.98,4.840261,1.383887,-2.997715,0.2828276618915395,0.1904589792500533,-0.0509036880552797,16.96185,65.16221,183.7809,0.5282152,-0.1417733,0.8355823,18
21.0,4.942092,1.55523,-2.93956,0.2111925433539687,0.1247145693436127,-0.0906484674732648,20.53527,64.9528,184.023,0.5227498,-0.1688235,0.832951,18
21.02,4.853974,1.176041,-2.983476,0.1241415466494826,0.0324547194579944,-0.1391516115341109,18.70338,62.91167,184.0074,0.5097443,-0.1565327,0.8441555,18
21.04,4.954437,1.359002,-2.925854,0.0685735402485951,0.0428664280474711,-0.167423748256641,22.24454,62.66982,184.1355,0.5039948,-0.183071,0.8411733,18
21.06,5.053726,1.538668,-2.868583,-0.0042173865596881,-0.0026949669840945,-0.2047491684057461,25.78513,62.4303,184.2507,0.4977638,-0.2094254,0.8373821,18
21.08,4.989771,1.15325,-2.90671,-0.076612785065862,-0.0465081338804551,-0.2429392869321683,23.0489,60.78011,184.0199,0.4893359,-0.1896149,0.8482358,18
21.1,5.088417,1.342259,-2.850501,-0.1248575662830069,-0.0090887567914028,-0.2669658390733971,26.56124,60.49017,184.0101,0.4829857,-0.2154811,0.8443093,18
21.12,5.186226,1.528095,-2.794461,-0.1842100224595388,-0.0283819525016073,-0.2949099012980184,30.07205,60.19024,183.9798,0.4761834,-0.2411344,0.8395856,18
21.14,5.157993,1.128812,-2.810308,-0.2340998421382683,-0.0146419201888392,-0.3184349873874456,30.02013,57.6332,183.7067,0.4579792,-0.2418558,0.8498673,18
21.16,5.200331,1.124963,-2.78703,-0.2812456759963617,-0.0007635148440222,-0.3412727608564038,32.03571,56.72804,183.5242,0.4489453,-0.2567359,0.8494148,18
21.18,5.295446,1.322156,-2.733217,-0.343138963754622,-0.0740659190421816,-0.3729477931511912,35.45523,56.27879,183.228,0.4414825,-0.2810484,0.8436419,18
21.2,5.39019,1.516399,-2.679332,-0.3804412133970867,-0.059999448860041,-0.3915942734531401,38.87163,55.78642,182.8839,0.4336256,-0.3051007,0.8371099,18
21.22,5.370537,1.117209,-2.700893,-0.4137636659735961,-0.0459322592741495,-0.4087316494123307,39.58379,55.77831,182.6697,0.43304,-0.3094491,0.8351079,18
21.24,5.464907,1.316656,-2.648776,-0.4377442271650744,-0.0606486674369536,-0.4189288972924656,42.96226,55.20237,182.2271,0.4247438,-0.3328367,0.8277789,18
21.26,5.531615,1.114527,-2.627003,-0.4614407651512757,-0.0715929863405739,-0.4256058407321039,44.66791,56.0347,181.1241,0.4311895,-0.3397161,0.8182933,18
21.28,5.624966,1.315118,-2.575704,-0.480884551505937,-0.0805189032612227,-0.4290774310521958,48.01048,55.4167,180.6616,0.4226683,-0.3626148,0.8098312,18
21.3,5.660531,1.112997,-2.563026,-0.4963224044288763,-0.0908393210825597,-0.4296215360794922,48.02707,55.16105,179.5294,0.4244001,-0.3589669,0.8088654,18
21.32,5.753217,1.313546,-2.513139,-0.5010567309455005,-0.1032534594695571,-0.4159510592716878,51.32428,54.40819,178.913,0.4157038,-0.3812335,0.7997438,18
21.34,5.911691,1.104886,-2.437384,-0.4849874828727913,-0.1122333844466344,-0.3840071922036593,56.44247,53.39378,176.2166,0.4095951,-0.4091686,0.7797542,18
21.36,6.003027,1.30107,-2.388662,-0.468865622114474,-0.0897711257707383,-0.3502947347300448,59.68703,52.26139,175.2151,0.4003322,-0.4304346,0.7689058,18
21.38,6.093968,1.494618,-2.339896,-0.4490495365653371,-0.1209093238566822,-0.308915440972582,62.91812,50.88179,173.9641,0.3907414,-0.451335,0.757424,18
21.4,6.184384,1.685551,-2.291155,-0.4262349595622485,-0.1531260716308315,-0.2648288909183817,66.13092,49.15598,172.365,0.3808311,-0.4718553,0.7453175,18
21.42,6.341665,1.128072,-2.218194,-0.4037770379562764,-0.0999529040285202,-0.2190715442613902,61.82775,44.27604,167.2012,0.3743311,-0.4368747,0.7681623,18
21.44,6.431931,1.314598,-2.168949,-0.3672979785426358,-0.0918129216979042,-0.1536159996692447,64.90154,41.89021,164.8475,0.3650921,-0.456973,0.7559247,18
21.46,6.618838,1.177158,-2.078869,-0.3305350726689684,-0.1068235212729961,-0.08623134928131,55.81347,44.27427,168.7621,0.373852,-0.3988442,0.7973661,18
21.48,6.699482,1.195324,-2.039489,-0.3070384363977068,-0.0701365794491732,-0.0242514064897223,52.1361,47.2787,171.2205,0.3899438,-0.3738141,0.8069957,18
21.5,6.789832,1.3734,-1.98679,-0.2829883323296385,-0.0348703314365925,0.0386005895932615,55.24397,45.92813,169.8927,0.3819469,-0.3947823,0.7967023,18
21.52,6.976001,1.251381,-1.926141,-0.2602016298444318,-0.0728367502657982,0.0992851016641099,37.98026,53.26469,174.693,0.436879,-0.2709451,0.8375912,18
21.54,7.076695,1.422676,-1.869271,-0.2389781870832668,-0.0396529420505961,0.162031782650992,41.39175,52.54716,174.0075,0.4300911,-0.2948192,0.8295031,18
21.56,7.175616,1.5907,-1.813056,-0.2268283871232697,0.0130509833390899,0.2233965219492432,44.79495,51.73158,173.223,0.422914,-0.3184173,0.8206592,18
21.58,7.244145,1.287658,-1.818046,-0.219251312996682,-0.0058463357189179,0.2818119346707518,20.17363,58.34266,176.5572,0.4842663,-0.1384419,0.8567178,18
21.6,7.299985,1.295783,-1.799356,-0.2172371695206625,-0.0021078109241189,0.340471057994729,13.99847,60.01389,177.1578,0.4988424,-0.09318027,0.8577358,18
21.62,7.405845,1.463581,-1.741248,-0.2165510357731035,0.001527182957908,0.3995104320886117,17.53424,59.69027,176.9919,0.4951435,-0.1192485,0.8549531,18
21.64,7.521083,1.313976,-1.703725,-0.2214221557520497,0.0039538000913513,0.4636598506685008,358.4684,63.89339,178.1769,0.5288355,0.01975659,0.8484702,18
21.66,7.62881,1.479723,-1.64563,-0.2254444718328863,0.0302577758915594,0.5308189233955278,2.034204,63.61567,178.2294,0.5271592,-0.006940637,0.8494409,18
21.68,7.734365,1.641809,-1.588328,-0.2325496121299202,0.0540740740833441,0.5972610463214656,5.599208,63.34036,178.2646,0.5249715,-0.03362342,0.849583,18
21.7,7.78809,1.336661,-1.58144,-0.2516283443892253,0.0063944163402988,0.653996818858619,352.2416,65.57114,179.0385,0.5397596,0.06140712,0.8390549,18
21.72,7.896815,1.49878,-1.520787,-0.2737457770919611,0.0034790432210331,0.7082886873944106,355.8358,65.27279,179.2428,0.5387359,0.03415529,0.8416653,18
21.74,8.003151,1.657117,-1.461068,-0.2989615130573466,0.000163259672376,0.7621536463410136,359.4301,64.98831,179.4278,0.5371794,0.006877373,0.8434387,18
21.76,8.049311,1.323839,-1.463125,-0.3375563080594246,-0.0090613752411449,0.8072409505496658,354.0977,66.58473,179.9988,0.548183,0.04304055,0.8347723,18
21.78,8.100374,1.317611,-1.445988,-0.3797785452174769,-0.0177720356275713,0.8507450680908267,355.7523,66.76943,180.5343,0.5500184,0.02837988,0.834317,18
21.8,8.207947,1.481165,-1.387413,-0.4145922390083441,0.0207428742015042,0.900805712107705,359.3373,66.48298,180.7783,0.54818,0.001113742,0.8363129,18
21.82,8.21016,1.309716,-1.400571,-0.4685801649854284,-0.0143235377223842,0.9310166702486302,359.4132,67.1995,181.3458,0.5533926,-0.002233874,0.8328221,18
21.84,8.318777,1.47411,-1.342378,-0.5193001567161926,0.0029976668423899,0.9671982284828012,3.040226,66.92945,181.599,0.550867,-0.02981962,0.8340548,18
21.86,8.354245,1.303009,-1.335247,-0.5728529746764697,0.0191610057633758,1.00186938911022,6.147349,67.79206,182.5689,0.5557477,-0.05697947,0.8293189,18
21.88,8.388721,1.299409,-1.318909,-0.6456570352938571,-0.0407980104123726,1.017004929562944,8.20716,67.84147,182.8474,0.5549676,-0.07319243,0.8284199,18
21.9,8.497139,1.468388,-1.263138,-0.7202207837018251,-0.1006751052035206,1.030866690359692,11.82762,67.60989,183.0948,0.5508927,-0.1005262,0.8277609,18
21.92,8.514102,1.282296,-1.259109,-0.7846363608963463,-0.117289915428119,1.047659914383399,13.41131,68.29373,183.5391,0.5542263,-0.1138066,0.8235722,18
21.94,8.62119,1.456842,-1.205112,-0.8570955130365943,-0.1576293225270245,1.056051569530174,17.01219,68.08871,183.8022,0.5493059,-0.1408631,0.8217862,18
21.96,8.726581,1.627865,-1.151643,-0.9172324017683156,-0.1432684727070338,1.0716482745715443,20.6129,67.89713,184.0571,0.5438401,-0.1677711,0.81918,18
21.98,8.830082,1.790104,-1.098809,-0.9684246673683908,-0.1014066275276555,1.0919045316110605,24.21331,67.71812,184.3049,0.5378347,-0.1945011,0.8157575,18
22.0,8.706365,1.247628,-1.167604,-1.039667005508557,-0.139903968980818,1.0894967476669248,18.71963,67.59437,184.0507,0.5437298,-0.1544635,0.8226332,18
22.02,8.712677,1.239427,-1.164224,-1.1162233734526172,-0.2048210595191148,1.081170090431232,20.10785,66.97236,184.0635,0.5377598,-0.1647678,0.8241103,18
22.04,8.816435,1.424309,-1.114723,-1.1702291140323955,-0.2137341531985565,1.0810794763093885,23.63529,66.74382,184.182,0.5318135,-0.1905613,0.8209831,18
22.06,8.799581,1.212546,-1.122598,-1.2226271491528866,-0.2194820175623774,1.0809344954494449,24.57813,65.03063,184.06,0.5185211,-0.1979719,0.8274616,18
22.08,8.9017,1.40344,-1.074384,-1.2736232060972563,-0.2252604844724603,1.0803034331208143,28.08364,64.75269,184.047,0.5119182,-0.2231277,0.8233897,18
22.1,9.003089,1.591194,-1.026243,-1.3148508494498368,-0.2324097052768941,1.0751736716996607,31.58757,64.46404,184.0133,0.5048375,-0.2480617,0.8185447,18
22.12,8.930152,1.187167,-1.05742,-1.3603478745949835,-0.2646761761272924,1.0616175620247197,32.04204,61.04932,183.5184,0.4806538,-0.2526153,0.831867,18
22.14,9.02949,1.384342,-1.010873,-1.402501031601154,-0.2947965501864008,1.0486678377805565,35.47309,60.61034,183.2168,0.4730485,-0.2763981,0.8263035,18
22.16,9.128467,1.578544,-0.964237,-1.426671055485326,-0.2952474132053124,1.0400858283553915,38.90104,60.12807,182.8676,0.4650181,-0.2999233,0.819992,18
22.18,9.105587,1.174995,-0.9833514,-1.4384849784538851,-0.2629535381867421,1.0371319988591254,39.58125,58.23368,182.627,0.4509515,-0.3062143,0.8255901,18
22.2,9.202718,1.374532,-0.9362218,-1.4456752348296236,-0.2301426871416146,1.0351362968781823,42.95946,57.64105,182.1389,0.4425209,-0.3291324,0.8184367,18
22.22,9.29962,1.571186,-0.8889486,-1.454140646305102,-0.2841736092515302,1.025522504682277,46.33251,56.97164,181.5711,0.4337024,-0.3517527,0.8105609,18
22.24,9.32535,1.165018,-0.8672966,-1.4409436421672377,-0.2494218379864542,1.027667124713204,46.33771,52.73002,180.2295,0.4075652,-0.3533348,0.82407,18
22.26,9.375968,1.161995,-0.8248535,-1.4224626293029707,-0.2143286330063308,1.0308546046904326,48.01433,51.17846,179.4577,0.3962853,-0.365073,0.8230525,18
22.28,9.465801,1.362689,-0.7700709,-1.3944615269368992,-0.2076179096495866,1.0392850120221908,51.30172,50.37714,178.7602,0.3878712,-0.3875499,0.8136907,18
22.3,9.555459,1.560644,-0.7151316,-1.361456161094779,-0.1990901507057892,1.048365080985561,54.58105,49.44478,177.9295,0.3791352,-0.4096952,0.8036434,18
22.32,9.601039,1.14589,-0.6448547,-1.315047307245373,-0.1321425769649758,1.063598320869219,56.43246,46.02505,176.0899,0.3591233,-0.4231696,0.8042681,18
22.34,9.745274,1.142824,-0.517516,-1.250062328878915,-0.1475242413450041,1.0961659987147798,61.16256,39.99575,171.0605,0.330781,-0.4536861,0.7929806,18
22.36,9.828903,1.334416,-0.457918,-1.190700267372952,-0.1277268289367173,1.1248726438615244,64.30075,37.98796,169.1044,0.3220853,-0.4747357,0.7804977,18
22.38,9.913807,1.151409,-0.3643769,-1.1281663941398292,-0.1072315086165634,1.1528796303851814,61.78498,33.53152,167.0382,0.3014431,-0.4605224,0.7996874,18
22.4,9.994801,1.338292,-0.3018397,-1.0626892010464528,-0.0892996755703222,1.179869734815833,64.80907,30.99103,164.4952,0.2931609,-0.4812682,0.7868482,18
22.42,10.07499,1.522612,-0.2396414,-0.9918022565838898,-0.1472540485633044,1.2073372398770092,67.77162,27.77905,161.2805,0.2846479,-0.5016226,0.773382,18
22.44,10.22016,1.201658,-0.06357682,-0.9284312935595584,-0.0978490715436133,1.230104839916959,52.1113,33.19163,171.0216,0.2887513,-0.3995713,0.8484841,18
22.46,10.2869,1.216553,0.005577594,-0.8634258326194078,-0.0497536896753285,1.251163481431815,48.34249,35.19481,173.0155,0.299083,-0.3727781,0.8604775,18
22.48,10.36374,1.393398,0.07701093,-0.8014306097104908,-0.0235464503334617,1.26744176310669,51.44018,34.0407,171.8558,0.2925129,-0.3951931,0.8502699,18
22.5,10.43939,1.567546,0.1476786,-0.7398644526664764,0.0039099450776405,1.277125997062228,54.52001,32.69402,170.5034,0.2857187,-0.417294,0.8394029,18
