t,pX,pY,pZ,aX,aY,aZ,reX,reY,reZ,rtX,rtY,rtZ,ID
2.08,-45.41338,1.091625,-39.9353,2.876928779979464,-0.0769422345434879,2.227015910336199,11.72911,356.8663,166.9802,-0.01544512,-0.1045643,0.9882996,6
2.1,-45.49027,1.154478,-40.00608,2.9207443331509646,-0.0861074342159413,2.2995768069170115,14.91163,357.652,163.5358,-0.001530113,-0.1313064,0.9815034,6
2.12,-45.49001,1.353737,-39.99819,2.968630885655479,-0.092135222717235,2.366272589859092,15.20206,357.3477,163.4837,-0.003708698,-0.1341626,0.9811124,6
2.14,-45.45706,1.156327,-39.93739,3.0152420861815683,-0.0742597811753662,2.4267086323211045,17.88607,0.4832397,165.3277,0.02398126,-0.1536466,0.9796646,6
2.16,-45.38545,1.167461,-39.87447,3.053763863544906,-0.0800956391472285,2.475121595262209,17.88181,4.584836,166.7014,0.05722922,-0.1496714,0.9796993,6
2.18,-45.3442,1.172179,-39.82637,3.091757280533637,-0.0623791090704631,2.517379525795387,17.05301,7.128008,167.6337,0.07705732,-0.1404979,0.9803002,6
2.2,-45.33652,1.365296,-39.78295,3.118291340278841,-0.0687558103613806,2.547187089361567,18.42035,6.80026,167.5087,0.07557862,-0.1524574,0.9784892,6
2.22,-45.25148,1.185788,-39.7304,3.1357051921722947,-0.0745117247306589,2.5649193534503176,12.841,12.92744,169.7377,0.1213573,-0.1006633,0.9823285,6
2.24,-45.13817,1.200996,-39.63099,3.152181640502464,-0.0572320858016034,2.579650309984004,7.014871,19.06549,171.859,0.1691667,-0.04844741,0.9811417,6
2.26,-45.06509,1.20754,-39.55895,3.16834437499408,-0.0622508677483312,2.5850675581622715,3.983572,22.02957,172.961,0.1926811,-0.02232968,0.9787272,6
2.28,-45.03012,1.382576,-39.45853,3.176286441616514,-0.0673347585189052,2.5840629836899813,7.186571,21.74906,173.044,0.1916751,-0.05001225,0.9775897,6
2.3,-44.90358,1.224496,-39.41253,3.183996677231711,-0.0500139413715138,2.5793199968270315,0.9585721,27.0147,175.4873,0.2337012,0.001068144,0.9714754,6
2.32,-44.71121,1.262781,-39.2641,3.174863745092118,-0.0579331992024949,2.559552903041711,357.1355,31.57607,178.3652,0.2716235,0.02792984,0.9619734,6
2.34,-44.6183,1.27336,-39.19782,3.160401839735361,-0.0686291277902141,2.5321982166878634,354.6049,33.85066,180.1314,0.2908541,0.0446916,0.9556087,6
2.36,-44.55587,1.424255,-39.05934,3.138173817104417,-0.0800960243370938,2.4960030143577745,358.9888,33.52769,180.7657,0.2884665,0.006521728,0.9574262,6
2.38,-44.4932,1.261647,-39.13725,3.1168347528724656,-0.0679929994143845,2.454676701829324,355.7801,37.54926,180.7039,0.3218364,0.03288182,0.9460594,6
2.4,-44.43268,1.425241,-39.03159,3.0958478983332,-0.0342132383143452,2.4081721104792733,359.3296,37.2458,181.0925,0.3193709,0.002499167,0.9475638,6
2.42,-44.35554,1.245574,-39.07675,3.049769950161464,-0.0508779968518789,2.3519447375992195,1.456191,40.90078,181.6776,0.3491563,-0.01701958,0.9368642,6
2.44,-44.28664,1.410268,-38.97397,3.0054791407263863,-0.0432181438305978,2.291624151000254,5.096309,40.63518,182.0398,0.3460832,-0.04786054,0.9369816,6
2.46,-44.21936,1.571229,-38.87301,2.9438589889910816,-0.0614959479673798,2.2226670799647508,8.736959,40.39106,182.3876,0.342658,-0.07864366,0.9361383,6
2.48,-44.21255,1.231809,-38.95336,2.8796176982143384,-0.0537178306924892,2.150057880438313,8.27655,43.11935,182.9815,0.3646419,-0.07662721,0.9279866,6
2.5,-44.18632,1.226094,-38.94112,2.791787682774189,-0.0733588146366868,2.0691510907301787,10.34258,43.98745,183.2798,0.3704363,-0.09421363,0.9240387,6
2.52,-44.12315,1.20842,-38.91455,2.692880989706224,-0.0945338292826413,1.9851118447153533,13.4281,46.53035,183.7018,0.3886046,-0.1200217,0.913402,6
2.54,-44.07712,1.199333,-38.88704,2.5888261142015203,-0.0879618938766511,1.8997736478459784,14.73653,47.57834,183.8388,0.3958866,-0.1306829,0.9087036,6
2.56,-44.00145,1.375949,-38.79676,2.470769170014802,-0.1106235601003835,1.8069842238436031,18.27358,47.41626,184.2698,0.3912846,-0.1600784,0.9057396,6
2.58,-43.99131,1.182701,-38.83876,2.3491246629027565,-0.1050861797204263,1.7136014009810516,17.37848,49.15141,184.146,0.4058829,-0.1521711,0.9006591,6
2.6,-43.96662,1.175208,-38.83374,2.213204084836927,-0.1288724455257625,1.6125987798737107,18.70736,49.68777,184.3089,0.4087234,-0.1629678,0.8973246,6
2.62,-43.90801,1.160047,-38.80696,2.067413851901589,-0.152237611682585,1.5061963700724794,21.55404,49.98825,184.4008,0.40826,-0.185288,0.8927423,6
2.64,-43.82964,1.346496,-38.72485,1.919862014479128,-0.1466858765547612,1.4006105250802054,25.03461,49.85647,184.7842,0.4029026,-0.2135449,0.8883228,6
2.66,-43.82318,1.144602,-38.74857,1.7618579328031174,-0.1714802106997705,1.2908118364734715,24.59058,50.08215,184.3866,0.4058727,-0.2086198,0.8880247,6
2.68,-43.79377,1.138126,-38.73008,1.5985393019679537,-0.1949627044374376,1.1785569550743862,26.2914,49.89061,184.325,0.4026271,-0.2215621,0.8859409,6
2.7,-43.71496,1.330096,-38.65209,1.4352233047485754,-0.1887505291650845,1.0682157998852242,29.73826,49.74397,184.6144,0.3968067,-0.2489875,0.8805043,6
2.72,-43.70724,1.124239,-38.68574,1.2704165096773092,-0.2114132627142825,0.9583139778926116,32.10106,48.80097,183.7548,0.3885463,-0.2646608,0.8784525,6
2.74,-43.62475,1.320906,-38.6145,1.1279398605275048,-0.2333563658195683,0.8685591748851555,35.52178,48.49234,183.707,0.3818842,-0.290641,0.8719291,6
2.76,-43.58855,1.11852,-38.61242,1.0027193453291965,-0.2284584847407694,0.8000112207179431,37.43417,48.6877,183.0715,0.3824361,-0.3027223,0.8661402,6
2.78,-43.50267,1.31719,-38.54708,0.8822960862699878,-0.1976946541029932,0.7408581577817346,40.82087,48.19664,182.7395,0.3749505,-0.3274051,0.8586958,6
2.8,-43.47569,1.115544,-38.55937,0.7375176569707227,-0.2170184966528678,0.6545664300937908,41.87764,49.19687,182.362,0.3819879,-0.3328822,0.8520889,6
2.82,-43.44563,1.114976,-38.54314,0.5897597018491112,-0.2338599345659356,0.5616998318977178,43.26877,49.35432,181.7471,0.3829413,-0.3408903,0.8469121,6
2.84,-43.3594,1.315299,-38.48132,0.4389918109537669,-0.2204148061296193,0.4692168625842345,46.59871,48.76649,181.3123,0.375021,-0.3645738,0.8383443,6
2.86,-43.29689,1.112947,-38.44772,0.3012509255002547,-0.2348815283301088,0.3809032111162782,48.08337,48.0569,179.5153,0.3734369,-0.3705209,0.8334012,6
2.88,-43.24153,1.109979,-38.40972,0.1698367226864672,-0.2471347650472715,0.294348298343416,50.69148,47.56337,178.6885,0.3688954,-0.3875342,0.8249736,6
2.9,-43.15658,1.309527,-38.34943,0.0370508121707917,-0.2290352311646988,0.2086644466915261,53.95641,46.7257,177.9839,0.3606713,-0.4101759,0.8148218,6
2.92,-43.10621,1.103768,-38.31535,-0.0694826598514462,-0.2364789935306559,0.1329958030138849,56.53379,45.93092,176.1405,0.3581364,-0.4242244,0.8042611,6
2.94,-42.96345,1.104549,-38.21662,-0.1693048273908646,-0.2400431884709962,0.0603291557095557,61.23113,42.04324,171.1609,0.3444306,-0.4501774,0.78686,6
2.96,-42.87974,1.295779,-38.15746,-0.2700092442060624,-0.2136259910973457,-0.0108036477478696,64.39282,40.22581,169.432,0.3358331,-0.4714056,0.7743707,6
2.98,-42.77911,1.098611,-37.97086,-0.3548840095238672,-0.2100538636961421,-0.0768599024310088,64.82,42.02558,172.3617,0.3353761,-0.4790573,0.7735419,6
3.0,-42.59887,1.133068,-37.42225,-0.4398180046367681,-0.176798896194822,-0.1406362992026446,60.18869,36.5174,166.433,0.325422,-0.4408273,0.7973314,6
3.02,-42.51912,1.319598,-37.3709,-0.5096964993394097,-0.1655008409752515,-0.1998240086646392,62.93937,33.52327,163.8385,0.3137965,-0.4603277,0.7874066,6
3.04,-42.35122,1.180452,-37.27314,-0.5635498321312946,-0.1473479642084201,-0.252977018140359,51.75832,40.27064,170.9882,0.3409545,-0.3841996,0.8303131,6
3.06,-42.34509,1.19956,-37.18283,-0.6088517221146779,-0.1251933653961673,-0.3031736277499401,47.34937,46.79311,175.4592,0.3779875,-0.3538311,0.8335618,6
3.08,-42.29336,1.381836,-37.12426,-0.6510520121037633,-0.0745335239408613,-0.3487521124973334,49.57435,49.1266,176.3912,0.3892201,-0.3692353,0.8198141,6
3.1,-42.16214,1.229543,-37.10704,-0.6893265482952309,0.0029838964762229,-0.3891955974512093,37.59949,50.85938,175.1468,0.4184528,-0.2735668,0.848307,6
3.12,-42.02462,1.251092,-37.04771,-0.6945900178175126,0.0204716832331971,-0.4163672869216874,25.98927,55.53445,176.2934,0.4601472,-0.1841816,0.8583488,6
3.14,-41.92061,1.420665,-36.99104,-0.6942146924494814,0.0358648894298887,-0.4384341518035244,29.36039,57.45925,176.4686,0.4716119,-0.2077939,0.8441157,6
3.16,-41.86267,1.263392,-36.97524,-0.6922697963607867,0.1052637297993637,-0.4628138547652538,13.77575,61.02359,177.4583,0.506219,-0.09211522,0.853746,6
3.18,-41.752,1.430629,-36.92055,-0.6830615388703496,0.1180835574988674,-0.4909641809343688,17.28162,62.77982,177.7706,0.5173448,-0.1182091,0.8422714,6
3.2,-41.71632,1.270645,-36.9107,-0.669902659875584,0.1312541093056186,-0.5203024220114782,2.378469,65.52293,178.2309,0.5412313,-0.009098787,0.8404762,6
3.22,-41.66639,1.275479,-36.90126,-0.6375057714146601,0.117800045852442,-0.5469801637433775,358.3695,66.57906,178.1641,0.5485535,0.02068439,0.8358411,6
3.24,-41.56006,1.438949,-36.83073,-0.608406348908157,0.1564921769444781,-0.5753268656323263,1.926176,67.8411,179.1652,0.5580508,-0.009882497,0.8296047,6
3.26,-41.44748,1.29131,-36.8043,-0.5817205829586438,0.1655661015271139,-0.6110747559553467,352.2121,69.72584,179.1307,0.5698563,0.06004625,0.8188988,6
3.28,-41.38875,1.291671,-36.75959,-0.5558047092467833,0.1999068501936424,-0.6515882956017434,352.9434,69.64555,179.7069,0.5698265,0.05197814,0.8194535,6
3.3,-41.27479,1.450764,-36.69701,-0.5299934819218892,0.1763471939995821,-0.7010070367334018,356.5944,70.34469,180.4966,0.5758833,0.02179436,0.8169803,6
3.32,-41.27638,1.282119,-36.71436,-0.5158835643624933,0.1741478967140557,-0.7519467440679479,353.7973,70.57325,179.8825,0.5767755,0.04475411,0.8151087,6
3.34,-41.20163,1.261827,-36.68407,-0.518538295283892,0.1922589471394879,-0.8187669872001928,355.774,71.07858,180.6278,0.5810215,0.02681942,0.8130343,6
3.36,-41.14465,1.254275,-36.66473,-0.5258934854002977,0.1791900014099641,-0.8882509450191893,357.4747,71.46552,181.1649,0.5840154,0.01195117,0.81138,6
3.38,-41.02813,1.418252,-36.62193,-0.5374986938937623,0.1428143872351808,-0.9731489553798998,1.056775,72.22503,181.513,0.5891982,-0.01523087,0.8078284,6
3.4,-40.91359,1.578478,-36.58086,-0.5471657539749897,0.1554363462614647,-1.0412257630606678,4.633149,73.00793,181.9093,0.5937685,-0.04238934,0.8034481,6
3.42,-40.97748,1.237733,-36.57349,-0.565798516737261,0.1151747878669048,-1.1191786365890604,6.189999,71.67675,182.6058,0.5835004,-0.05705198,0.8099991,6
3.44,-40.86052,1.404873,-36.52992,-0.5889833652049941,0.0985230599870913,-1.1833663015006266,9.815617,72.48907,182.9693,0.5870797,-0.08423738,0.804585,6
3.46,-40.87715,1.226307,-36.51995,-0.6109768015560579,0.0840640324167161,-1.2561390533617782,10.34528,72.07777,183.1873,0.5836841,-0.08916976,0.8064885,6
3.48,-40.79625,1.404452,-36.47825,-0.6436127724633138,0.0140511557149952,-1.3381785385781413,12.88013,73.34383,183.9581,0.5900026,-0.1104038,0.7988452,6
3.5,-40.86432,1.214838,-36.47105,-0.6655656636404474,0.0194805658176262,-1.4020323657084726,12.08851,73.06297,184.3569,0.5883114,-0.1070494,0.8008682,6
3.52,-40.85356,1.19658,-36.43107,-0.6935030062039829,-0.0053013235934722,-1.4590628183253769,14.40703,73.11572,184.7747,0.5862243,-0.1252515,0.7993352,6
3.54,-40.80573,1.384212,-36.37992,-0.7181494711359848,0.0008109995177635,-1.5119766382624844,16.07887,74.46774,186.0769,0.5923789,-0.142949,0.791725,6
3.56,-40.82319,1.179892,-36.37347,-0.7370843980382542,0.034891779640322,-1.5606533448823203,16.9717,72.45396,185.1205,0.5786149,-0.1450298,0.8009502,6
3.58,-40.77361,1.369239,-36.32243,-0.7705934202711209,-0.0169293545861785,-1.6146699370041837,18.73136,73.64738,186.35,0.5832426,-0.16282,0.794003,6
3.6,-40.80223,1.162922,-36.32235,-0.8001670383982216,-0.0408215446903996,-1.6547077860203432,19.85884,70.80109,185.1914,0.5636609,-0.1662532,0.8066127,6
3.62,-40.80702,1.154305,-36.31094,-0.8229391528455423,-0.0637214214570599,-1.6846032484392897,21.33024,69.67606,185.1617,0.5539811,-0.1770237,0.8105345,6
3.64,-40.76033,1.346665,-36.25925,-0.8403569268902222,-0.0543021485474724,-1.7084419858252806,23.10989,70.61018,186.3273,0.5563329,-0.1944676,0.804717,6
3.66,-40.7779,1.131262,-36.24443,-0.861982434957933,-0.1016139707062746,-1.7338961748764197,26.42873,66.36487,185.116,0.5237452,-0.2149079,0.8195436,6
3.68,-40.76582,1.126575,-36.22075,-0.8733974079800699,-0.1184559391121393,-1.745612613796152,28.39538,65.01512,184.9446,0.5115887,-0.229121,0.8224864,6
3.7,-40.72102,1.32234,-36.16921,-0.8730922058436184,-0.1036907405191783,-1.748907476120804,30.25796,65.85338,185.9841,0.5125757,-0.2461595,0.8165755,6
3.72,-40.68973,1.115485,-36.12951,-0.8750063312938741,-0.1458654659300411,-1.7531104106917672,35.88628,61.9379,184.2544,0.4794037,-0.2821452,0.8210647,6
3.74,-40.49374,1.105292,-35.95258,-0.8586571652522137,-0.156611522574542,-1.7395861445015963,43.91506,64.91436,186.553,0.4788935,-0.3434424,0.7927752,6
3.76,-40.32761,1.279242,-35.76215,-0.8391820061429431,-0.1942764309557288,-1.724267560958512,50.3396,69.88035,192.0007,0.4790569,-0.4009163,0.7633141,6
3.78,-40.24561,1.456715,-35.64868,-0.8053043556708532,-0.1723088281132061,-1.6961347825179205,54.05824,72.44373,196.1512,0.4696496,-0.4369245,0.7492177,6
3.8,-40.37108,1.10731,-35.7919,-0.7646215972180279,-0.1511877131461976,-1.664324358471509,42.72058,65.18029,183.6824,0.4915081,-0.3228398,0.7905676,6
3.82,-40.35913,1.108381,-35.80344,-0.7106280008280974,-0.1596246785731806,-1.6161951663404412,43.58376,63.38478,181.9169,0.4824638,-0.3239934,0.7932275,6
3.84,-40.35279,1.306185,-35.77147,-0.6414941811069008,-0.1371236003671298,-1.5568136333841585,44.08668,64.85539,183.0394,0.4884602,-0.3298557,0.7874297,6
3.86,-40.23875,1.104139,-35.71581,-0.5611844296863318,-0.1722482901633513,-1.4907920509289436,50.69028,62.05101,179.3685,0.4678227,-0.3642567,0.7732262,6
3.88,-40.1714,1.102818,-35.67891,-0.4716428441742373,-0.1485087683813607,-1.41633989097852,53.89748,61.46561,178.0418,0.4621331,-0.3817055,0.7621529,6
3.9,-40.16074,1.300461,-35.65119,-0.3722163641190716,-0.0960857971864685,-1.3340173374781754,54.49231,63.04827,179.1411,0.4677575,-0.386755,0.7560269,6
3.92,-39.96038,1.114538,-35.56228,-0.2524745758340101,-0.1245257116804886,-1.241284050443011,60.2127,55.28422,170.6544,0.4362242,-0.410181,0.7448506,6
3.94,-39.8926,1.125345,-35.52284,-0.1235972500660791,-0.0950689998756685,-1.1405241709142375,59.37745,54.32309,170.1421,0.4329713,-0.4049654,0.7506435,6
3.96,-39.88108,1.321418,-35.49672,0.0001870843925324,-0.0388587788250081,-1.0413453235606367,60.04874,55.97765,171.2603,0.4388103,-0.4096005,0.7444317,6
3.98,-39.75734,1.155518,-35.44932,0.1308344740886164,-0.0562693512072035,-0.9344973195140698,55.939,53.88039,170.4778,0.4334641,-0.3834504,0.7669993,6
4.0,-39.74528,1.35097,-35.42424,0.2612991976026926,-0.0181605037148012,-0.8429454601591235,56.60823,55.37923,171.4531,0.4392741,-0.3881968,0.7610274,6
4.02,-39.63243,1.19277,-35.38676,0.3847827918215856,-0.0024218055160245,-0.8216108869530743,49.53003,57.08835,173.2785,0.4547169,-0.3419118,0.7845553,6
4.04,-39.51282,1.228579,-35.34227,0.5108824471897586,0.0111848364731293,-0.8007318110386219,40.53605,60.90941,175.4143,0.4870398,-0.2793565,0.8009836,6
4.06,-39.44591,1.246231,-35.3224,0.6254677949307057,0.0679330697487726,-0.7875223287540223,35.30438,62.57414,175.9574,0.5037059,-0.2415242,0.8082772,6
4.08,-39.42069,1.438115,-35.29515,0.7409899328098044,0.0771085778763979,-0.7825417535977257,36.24652,63.64909,176.6246,0.5087259,-0.2494249,0.8023336,6
4.1,-39.39536,1.629669,-35.2682,0.8619821325437496,0.0838203133846151,-0.7803325595201338,37.18042,64.74925,177.3204,0.5136712,-0.2573051,0.7962883,6
4.12,-39.25162,1.284353,-35.26281,0.975938526755466,0.089685800133176,-0.7726121252836737,11.18016,69.3546,177.7684,0.5677006,-0.06906546,0.8172242,6
4.14,-39.22311,1.47618,-35.24146,1.0775009814017675,0.0935381956525689,-0.7673821816725015,12.0818,70.13115,178.2332,0.5725834,-0.07731861,0.8129212,6
4.16,-39.19453,1.667703,-35.22041,1.1747576405342768,0.0958309897235226,-0.7649692627678375,12.97964,70.91689,178.7108,0.5773942,-0.08557411,0.8085281,6
4.18,-39.08847,1.297275,-35.20813,1.2652254114690091,0.0973061444634399,-0.7584448704656905,355.7973,74.17442,178.4437,0.6021716,0.03743176,0.7974091,6
4.2,-39.03482,1.300611,-35.19436,1.3497090668590674,0.0970688913263613,-0.7543623437093334,351.9561,75.13701,178.5429,0.607452,0.06332289,0.7911529,6
4.22,-38.91049,1.313391,-35.16016,1.4313860152506992,0.0967857944272941,-0.7428749659595226,349.919,76.22003,179.019,0.6141725,0.07439079,0.7842199,6
4.24,-38.86319,1.500631,-35.14775,1.5153044722020086,0.1186947581106421,-0.7267583754312987,351.2274,76.86503,179.2292,0.6193548,0.06407817,0.7813486,6
4.26,-38.77928,1.316193,-35.12774,1.5922722774919675,0.1370514024558303,-0.7151575354500981,351.4689,77.28407,179.3587,0.6223882,0.06157872,0.7791469,6
4.28,-38.72207,1.500321,-35.11628,1.6379002286365498,0.1238095787874566,-0.7029189749292621,353.0479,77.94109,179.515,0.6275586,0.04979568,0.7761935,6
4.3,-38.70031,1.286243,-35.10426,1.672227797315747,0.1097648388480116,-0.6927677776279237,352.3691,78.15659,179.8509,0.6289169,0.0524744,0.7746187,6
4.32,-38.66761,1.277079,-35.09615,1.695634864178925,0.0710365008514481,-0.6837320476700635,354.1708,78.16306,180.4234,0.6297518,0.03714371,0.775122,6
4.34,-38.59868,1.458571,-35.08284,1.7276175990029277,0.0799550574415453,-0.6665367473290198,356.1259,78.82571,180.5822,0.6346657,0.02289108,0.7720309,6
4.36,-38.54137,1.259632,-35.05838,1.7401156032293723,0.0666079826998037,-0.6479137848043353,359.8888,79.07723,181.4654,0.6365554,-0.007392082,0.7711245,6
4.38,-38.51139,1.253781,-35.04696,1.7404202904656456,0.0543988659000599,-0.6265724108040089,2.474868,79.23794,181.9352,0.6371586,-0.02739854,0.7702454,6
4.4,-38.43905,1.435805,-35.03283,1.7321040490756516,0.0423615975815654,-0.6055815467261887,4.555065,79.92347,182.1225,0.6410943,-0.04234097,0.7662095,6
4.42,-38.4452,1.244265,-35.02163,1.6979352092904971,-0.0229039218601569,-0.5821776712158382,6.722,79.55708,182.745,0.637459,-0.06034209,0.7678798,6
4.44,-38.40642,1.228078,-35.00095,1.6709547910887306,-0.0400919585107676,-0.5541877343009531,10.35506,79.72823,183.2175,0.6361576,-0.08716076,0.7657577,6
4.46,-38.33587,1.413858,-34.98782,1.6319790294348593,-0.0555247036413625,-0.5267821199531184,12.40199,80.43147,183.3756,0.6391818,-0.1013538,0.7608758,6
4.48,-38.34943,1.208624,-34.97918,1.5853599751822005,-0.0736222427784873,-0.4986500800215729,13.22323,80.29704,183.5217,0.6374763,-0.1076484,0.7612148,6
4.5,-38.28013,1.396781,-34.96676,1.5331888614403075,-0.0912599552647561,-0.4684147689404589,15.24882,81.00348,183.6671,0.6401716,-0.1214321,0.756035,6
4.52,-38.31066,1.182213,-34.94545,1.478309273538608,-0.1102666841786527,-0.4338637824311906,17.18937,78.12876,183.9581,0.6187376,-0.1374835,0.7705138,6
4.54,-38.24376,1.373786,-34.93087,1.4226190400378282,-0.1270521012126468,-0.3968729240078321,19.18347,78.83385,184.0727,0.6211128,-0.1508921,0.7650245,6
4.56,-38.17709,1.564219,-34.91675,1.3710875119564072,-0.1434477373782063,-0.3625849743676586,21.17657,79.55163,184.215,0.623273,-0.1642538,0.7592798,6
4.58,-38.22272,1.156857,-34.90603,1.3146034240844369,-0.1587320037260289,-0.3267140297631794,21.54086,76.65747,184.0208,0.6037298,-0.1678789,0.7742375,6
4.6,-38.21212,1.148376,-34.89756,1.2629757056300948,-0.1735051575691121,-0.2899662736055139,23.07561,75.91345,184.0471,0.596693,-0.1788873,0.776405,6
4.62,-38.17154,1.134163,-34.87316,1.205688092516974,-0.1877397698081779,-0.2395255404973975,26.51701,74.15211,183.9928,0.5800747,-0.2033107,0.7809153,6
4.64,-38.10823,1.332141,-34.85757,1.1631288528693997,-0.1709000113606026,-0.1834365686647112,28.45609,74.79894,183.9513,0.5816564,-0.2154345,0.7747402,6
4.66,-38.09116,1.125107,-34.83973,1.1277267261347417,-0.1552348376473419,-0.1284112743020822,30.73246,72.73665,183.6378,0.5647154,-0.2314146,0.7810327,6
4.68,-38.04952,1.12183,-34.82418,1.0890982367866524,-0.164224173988173,-0.0740468418565614,33.57127,72.17862,183.3407,0.5569053,-0.249712,0.7782982,6
4.7,-37.9769,1.321447,-34.8067,1.0647852875019908,-0.1421837910806643,-0.0157884886082735,35.82072,72.73586,183.1531,0.5572058,-0.26306,0.7709308,6
4.72,-37.95127,1.116872,-34.79463,1.033549791022561,-0.176410978048362,0.0420300739446917,38.89717,71.75761,182.757,0.5459816,-0.2830008,0.7684991,6
4.74,-37.85678,1.114728,-34.76837,1.0135435856618829,-0.1505304401944618,0.0992161857597473,42.83318,71.66277,181.8031,0.5402545,-0.3045785,0.7580317,6
4.76,-37.79086,1.114274,-34.74871,0.9799713429435676,-0.0944027190842572,0.1342346382046306,44.46542,71.74622,181.1822,0.5392346,-0.3121786,0.7523212,6
4.78,-37.69228,1.314869,-34.72361,0.9232198599711872,-0.1201093830402019,0.1432611770664227,47.5796,72.19207,180.8827,0.5365554,-0.3300883,0.7411824,6
4.8,-37.59362,1.512891,-34.69906,0.8683450372518937,-0.1431181622162352,0.1370048695396075,50.6948,72.64056,180.6021,0.5334575,-0.3477405,0.7294736,6
4.82,-37.50731,1.107031,-34.66663,0.8377128332547699,-0.1437212293761787,0.150827274909755,53.26768,70.59708,177.7399,0.5236374,-0.3556128,0.7242997,6
4.84,-37.40509,1.305333,-34.64326,0.829913891738653,-0.1411289938819265,0.1677433168851694,56.4822,70.75618,177.1284,0.5195584,-0.3729078,0.7112035,6
4.86,-37.27053,1.102192,-34.60644,0.8347701840497628,-0.1384154023343081,0.1810180544103117,59.64772,68.51092,174.115,0.5087922,-0.3854558,0.7017528,6
4.88,-37.16876,1.295868,-34.58556,0.8365741285789978,-0.1301331288471075,0.1869448224155023,62.8214,68.22062,173.0335,0.5039394,-0.401631,0.6875625,6
4.9,-37.06733,1.48688,-34.56532,0.8417875773939221,-0.0926949262033127,0.1877312677076554,65.99134,67.74523,171.7778,0.4986667,-0.4174742,0.6728137,6
4.92,-36.8586,1.128923,-34.50455,0.8541366563908541,-0.105384025895692,0.1861901501464666,60.9395,60.81678,166.8434,0.4834864,-0.3844715,0.7090365,6
4.94,-36.75531,1.312962,-34.48571,0.8575177512107812,-0.0841600510139089,0.1736545684900869,64.00144,59.60075,164.733,0.4788096,-0.3997928,0.6943925,6
4.96,-36.65292,1.494293,-34.46763,0.8622492594843889,-0.0372555507694791,0.1525831846526237,67.03728,57.94577,162.1952,0.4737391,-0.4147836,0.6791865,6
4.98,-36.52126,1.178354,-34.4235,0.8757529116771297,0.0055730399993633,0.1248997264153164,52.02975,64.82664,171.3075,0.5083887,-0.3327006,0.7386705,6
5.0,-36.41601,1.356294,-34.40479,0.876574054899387,0.0290959141599964,0.0953869127695705,55.14336,64.51962,170.1135,0.5051091,-0.3491836,0.7255232,6
5.02,-36.26948,1.227554,-34.38218,0.877679889926033,0.026701624788169,0.06516638729041,37.91422,70.75356,174.7402,0.5591269,-0.2394758,0.7616969,6
5.04,-36.14937,1.397475,-34.36249,0.8739696274091635,0.0719272322718193,0.0227490167698256,41.44832,71.03599,174.1602,0.5573343,-0.2599728,0.7498068,6
5.06,-36.03116,1.563777,-34.34388,0.8603144078038154,0.0913385722921724,-0.0174282442458615,44.98359,71.28417,173.5703,0.5549826,-0.2802062,0.7371734,6
5.08,-35.98669,1.257501,-34.33356,0.8481643698416983,0.1325067409080068,-0.0649282600955336,19.91527,75.86259,176.6125,0.6092228,-0.1184349,0.7733853,6
5.1,-35.86637,1.425835,-34.31561,0.8302663610231065,0.122035462569436,-0.1104690423290994,23.42494,76.45053,176.4418,0.6105306,-0.1405869,0.7649567,6
5.12,-35.74742,1.271971,-34.28167,0.823248575292479,0.0828730068607009,-0.1579347157953661,2.312923,79.95397,177.9663,0.6425223,-0.004064176,0.7657958,6
5.14,-35.65215,1.275544,-34.25994,0.8069428056521133,0.1157589243502228,-0.21034257137243,358.375,80.91775,178.2272,0.6485923,0.02082544,0.7608467,6
5.16,-35.5287,1.440918,-34.24176,0.7901002333309135,0.0974173957941678,-0.2601301266556932,1.950889,81.56725,178.3834,0.6532264,-0.003675584,0.7568399,6
5.18,-35.46553,1.285166,-34.21669,0.7798271623344855,0.0715324876288799,-0.3194812530876314,353.3121,82.1501,178.7713,0.6554192,0.0510027,0.7529339,6
5.2,-35.34105,1.448271,-34.19755,0.7523521324214109,0.0746779344122801,-0.3717536239568906,356.9019,82.77515,179.0374,0.660714,0.02583245,0.7501041,6
5.22,-35.26705,1.296114,-34.15512,0.7232409700202087,0.0735503361584518,-0.4206227687240478,353.4592,81.7259,179.524,0.6530016,0.04585748,0.7551937,6
5.24,-35.14332,1.457038,-34.1329,0.6859757983287853,0.0935635220572803,-0.4806280907867917,357.0215,82.34411,179.8642,0.6580765,0.02034274,0.7525017,6
5.26,-35.02204,1.614118,-34.11196,0.6378645000487735,0.0590297947268095,-0.5341244221447043,0.5789691,82.98199,180.2423,0.6624844,-0.005185149,0.7490559,6
5.28,-35.06065,1.262055,-34.09906,0.5875483153748879,0.0736273968342511,-0.5971308452884116,355.754,82.38151,180.5986,0.6582527,0.02443884,0.7518671,6
5.3,-35.01786,1.254348,-34.08691,0.523365144059464,0.0351465165931708,-0.6488904818460091,357.4728,82.2479,181.1454,0.6576635,0.01003824,0.7529229,6
5.32,-34.91528,1.245752,-34.04868,0.4626723274905258,0.0262494800876918,-0.6959719387067258,1.444693,82.25971,181.6067,0.6575177,-0.01871633,0.7532031,6
5.34,-34.79186,1.410486,-34.0267,0.3999277554890712,0.0184369672258971,-0.7413988363365194,5.083152,82.923,181.9589,0.6608006,-0.04453382,0.7490561,6
5.36,-34.78633,1.237695,-34.00476,0.3376923863210326,0.0077804271287109,-0.7955245453094859,6.189537,82.27374,182.5998,0.6558092,-0.05555199,0.7526541,6
5.38,-34.75094,1.232192,-33.98536,0.2767351621005991,0.0477903212649004,-0.8594650838522178,8.25323,81.98965,182.8689,0.6527256,-0.07067551,0.753758,6
5.4,-34.62919,1.401111,-33.96365,0.1979193921740893,0.0362893030305805,-0.898501476069419,11.86334,82.68696,183.1894,0.6546212,-0.09584057,0.7483541,6
5.42,-34.62461,1.208693,-33.9235,0.1072754260070292,-0.0027289270905481,-0.9307281733250584,13.45126,81.40584,183.5398,0.6445981,-0.1087456,0.7548838,6
5.44,-34.57598,1.199757,-33.90199,0.0294420735684051,0.0113956202299744,-0.9722308061697396,14.7525,81.25217,183.6467,0.6423043,-0.1179371,0.7549728,6
5.46,-34.47983,1.380751,-33.88011,-0.0556084800306804,-0.0006990573131644,-0.9951483931883188,17.44581,84.89709,184.5169,0.6621933,-0.1381069,0.7328161,6
5.48,-34.48935,1.184949,-33.88382,-0.1376766874225006,-0.0134271703300645,-1.0270993095820558,17.19168,84.27381,183.6138,0.6595438,-0.1316955,0.7360116,6
5.5,-34.38992,1.366931,-33.84693,-0.2217911988165672,-0.0248573563812227,-1.0424610462126234,19.8827,89.42136,185.2579,0.6866071,-0.1543453,0.704832,6
5.52,-34.42519,1.167795,-33.82938,-0.3068808565544985,-0.0648826680500252,-1.0508752822678664,19.7678,87.07664,184.7643,0.6728571,-0.1525317,0.7184519,6
5.54,-34.37751,1.152163,-33.792,-0.3718569578197019,-0.0456559533168719,-1.0684587033740982,22.8168,87.58665,184.6469,0.6720394,-0.170166,0.7125469,6
5.56,-34.25961,1.340047,-33.77761,-0.4438994107800011,-0.0833158300698251,-1.0730629602018622,25.9989,92.85738,185.6159,0.6975064,-0.1894399,0.6787703,6
5.58,-34.27324,1.140131,-33.77948,-0.5087950411197597,-0.1217790356136808,-1.0855205880320309,26.31207,90.18293,183.5024,0.6844139,-0.1816829,0.692053,6
5.6,-34.15618,1.329037,-33.74189,-0.5644036727996302,-0.130320838908803,-1.0832040471260589,29.48131,95.64471,185.2698,0.7080647,-0.2036081,0.657315,6
5.62,-34.19432,1.121456,-33.66542,-0.6032948143409924,-0.1360702065925731,-1.0758077515284974,31.97416,88.88328,184.8462,0.6641865,-0.2249223,0.6938902,6
5.64,-34.07504,1.314403,-33.63237,-0.6283042675993231,-0.1094495857926289,-1.0774827294203568,35.2107,94.06047,186.3092,0.6850399,-0.2442279,0.6608818,6
5.66,-33.95584,1.503588,-33.60458,-0.6551040295286645,-0.1394709302457492,-1.0710872172249388,38.30313,99.6216,188.2133,0.7046239,-0.2628425,0.6259807,6
5.68,-33.97638,1.117117,-33.61142,-0.6650316410791088,-0.10949235420425,-1.0731301508158282,39.71231,93.15551,182.6734,0.6774954,-0.2493442,0.6520832,6
5.7,-33.85194,1.311348,-33.57934,-0.6619051845156907,-0.0504939023316486,-1.0830684450450263,43.11563,98.17992,184.4834,0.6929227,-0.2679353,0.6194588,6
5.72,-33.84304,1.112135,-33.54814,-0.6603660657266452,-0.0775092890216594,-1.0722442432644943,44.63593,94.09246,182.1912,0.672006,-0.2716608,0.6355633,6
5.74,-33.72512,1.308944,-33.52898,-0.6430472904453386,-0.044595454862687,-1.069074490538222,47.8213,99.27499,183.6149,0.6879441,-0.2843279,0.6014878,6
5.76,-33.60713,1.502369,-33.51608,-0.6203350115075863,0.0174519459367885,-1.075346487526608,50.90954,104.8715,185.511,0.7022977,-0.2961312,0.5662103,6
5.78,-33.57796,1.109074,-33.50724,-0.5925823544600304,0.0226174985000413,-1.0754799863133462,50.73349,97.05385,179.1679,0.6790683,-0.278799,0.5960684,6
5.8,-33.45705,1.304282,-33.49485,-0.5619094802051761,0.0283728349988539,-1.0854948481650988,54.04895,102.1336,180.8539,0.6907979,-0.2906887,0.5624171,6
5.82,-33.3939,1.102772,-33.49962,-0.5289469486579224,0.0312095093573233,-1.104904522427745,56.54743,96.42097,176.7705,0.6652786,-0.2970325,0.5767065,6
5.84,-33.20716,1.103579,-33.49664,-0.4775858165424584,0.0388009326629893,-1.1279890964477373,61.2779,91.61461,171.848,0.6405938,-0.3104995,0.5722698,6
5.86,-33.09488,1.291537,-33.49845,-0.4221277833034143,0.0211486969082887,-1.1526136759815966,64.47356,97.07458,173.2103,0.6536723,-0.3150385,0.5354113,6
5.88,-32.98096,1.117335,-33.50225,-0.3731370946857075,0.0611049005811979,-1.1887000613192198,61.84277,89.24865,167.9469,0.6376849,-0.3004397,0.5693004,6
5.9,-32.86572,1.299955,-33.50985,-0.3266194800458977,0.0989066049092571,-1.233283961171188,65.23023,93.82473,168.8504,0.6480063,-0.3066946,0.5344346,6
5.92,-32.78196,1.143724,-33.50813,-0.2757211720540846,0.0621593004243813,-1.2663974030122391,58.42196,88.87448,168.341,0.6433239,-0.2845897,0.585288,6
5.94,-32.61397,1.177678,-33.50358,-0.2442840274829629,0.1034218606895455,-1.314504834829087,52.08942,91.4408,171.6453,0.6638597,-0.2588724,0.6026985,6
5.96,-32.50004,1.352788,-33.53091,-0.2181025792410893,0.1425509004924419,-1.3708434304248265,55.44094,95.18603,171.8671,0.6742281,-0.2665588,0.5711321,6
5.98,-32.39115,1.525111,-33.56044,-0.1977187567354725,0.1764811823270232,-1.4344170533496534,58.7108,99.77126,172.7502,0.6851979,-0.2730847,0.5367557,6
6.0,-32.31665,1.227871,-33.53611,-0.1710707558417485,0.1890580944442766,-1.479459160358756,37.84986,99.22331,174.994,0.7289879,-0.178488,0.6015657,6
6.02,-32.26582,1.238895,-33.52546,-0.1501632044926659,0.1773173382727153,-1.5164049440290626,32.0332,99.58442,175.5686,0.7404001,-0.1496072,0.6118913,6
6.04,-32.14933,1.407598,-33.58304,-0.1414704605752192,0.2084686906438161,-1.5638982567527,35.56585,103.4646,175.6049,0.7543159,-0.1603462,0.5801166,6
6.06,-32.05698,1.263092,-33.53447,-0.1331012795680499,0.1919337064772121,-1.5972893000260795,13.87568,104.3289,177.3175,0.7855114,-0.05572218,0.6065057,6
6.08,-31.93562,1.429142,-33.57617,-0.134114061600123,0.1732469767819685,-1.6411184393649068,17.38688,108.5767,178.1806,0.8039361,-0.07547192,0.5749789,6
6.1,-31.90739,1.271904,-33.54783,-0.130885218727268,0.1745279420286917,-1.6688199508067516,2.308275,108.3288,177.9795,0.8106177,0.00249986,0.5849637,6
6.12,-31.76725,1.278975,-33.546,-0.1358730324715251,0.1518909429489993,-1.689436712083067,354.4172,110.0281,178.524,0.8178928,0.03846062,0.573162,6
6.14,-31.64324,1.441532,-33.58872,-0.1502322542303886,0.1742558167864713,-1.722924657679486,357.9047,114.0869,179.8322,0.8389277,0.01117508,0.5439338,6
6.16,-31.57244,1.290676,-33.56532,-0.1606818151773867,0.1735888249016734,-1.7430361451274743,352.1645,113.5116,179.5708,0.8342414,0.04058129,0.5471374,6
6.18,-31.45449,1.451253,-33.62772,-0.1833076525755177,0.1464857127629328,-1.7554348147488792,355.672,117.6172,180.6548,0.8549299,0.01467063,0.517336,6
6.2,-31.42289,1.29602,-33.58616,-0.2082379482893004,0.1644989565773204,-1.7791159824087748,353.4044,115.3522,179.7667,0.843575,0.03247684,0.5339175,6
6.22,-31.33766,1.269665,-33.56769,-0.2393853274475561,0.1299549291020423,-1.7845834354932837,354.0594,115.8406,180.1643,0.8462107,0.02630756,0.5303212,6
6.24,-31.22436,1.431739,-33.63039,-0.27499960075377,0.1404386474624553,-1.803890381607646,357.4899,120.0143,181.3243,0.8659489,0.0009416112,0.4995193,6
6.26,-31.20662,1.254094,-33.59499,-0.321371831923257,0.1012796027744332,-1.8073011907068304,357.4313,119.0779,181.3819,0.8618317,0.0009701266,0.5065558,6
6.28,-31.0942,1.41633,-33.6638,-0.3796747141818017,0.0607765039494158,-1.8219838922722584,0.9821177,123.0912,182.4831,0.8788697,-0.02313185,0.4764929,6
6.3,-31.08991,1.245176,-33.59961,-0.426113091600365,0.0449040591092723,-1.81349156274232,1.451962,120.8045,181.7979,0.8692392,-0.01989832,0.4939805,6
6.32,-31.00594,1.237301,-33.5785,-0.4717473997485069,0.054416726338302,-1.8151596250368487,6.173801,120.9427,182.7908,0.8679429,-0.04769115,0.4931386,6
6.34,-30.95242,1.231751,-33.58275,-0.5204486647922386,0.0382116121375616,-1.793910139722832,8.233163,122.2434,183.0893,0.8721364,-0.05819984,0.4832243,6
6.36,-30.84641,1.399891,-33.65632,-0.5800507806291688,0.0225959681345548,-1.7845599822627696,11.70238,126.6932,184.1246,0.8868588,-0.07769646,0.4492445,6
6.38,-30.74598,1.564321,-33.73137,-0.6346609061191804,0.0043009420014434,-1.7528393624566485,15.07079,131.3143,185.4942,0.8995983,-0.09728236,0.4138933,6
6.4,-30.80972,1.20837,-33.57936,-0.6863222113130893,0.0129241182825203,-1.7327689899139518,13.40105,126.7294,183.7806,0.8855644,-0.0815642,0.4484456,6
6.42,-30.79725,1.199435,-33.54425,-0.7492360021211093,-0.0311132462477638,-1.6875536425653967,14.70791,125.4284,183.867,0.8789391,-0.08838395,0.4582376,6
6.44,-30.69785,1.375543,-33.62483,-0.8038033900420629,-0.0209075169084119,-1.6573902684324642,18.18343,129.9649,184.6249,0.891369,-0.1028735,0.4230201,6
6.46,-30.69613,1.175224,-33.5042,-0.8535285498796021,-0.0377910386986263,-1.6015079506175454,18.70335,125.9453,184.3126,0.87555,-0.1068583,0.4535053,6
6.48,-30.59541,1.357041,-33.58012,-0.9072691332469324,-0.053658271738322,-1.5588313420086486,22.16567,130.5183,185.0564,0.886856,-0.1196872,0.4180107,6
6.5,-30.61842,1.160142,-33.4851,-0.9514643297511792,-0.0697573861614721,-1.4915735202812748,21.53491,126.416,184.4028,0.8730504,-0.1178337,0.4488961,6
6.52,-30.55753,1.144693,-33.44974,-0.9991455767451396,-0.0842135604482325,-1.440260479496935,24.57287,125.5968,184.3803,0.8646806,-0.130415,0.4535595,6
6.54,-30.45479,1.334179,-33.51787,-1.025904643571272,-0.0989269888727428,-1.3684607852499555,27.97782,130.2952,185.0854,0.8751085,-0.1405579,0.4171474,6
6.56,-30.44603,1.131378,-33.44106,-1.0473006192625185,-0.0814198018604952,-1.313385773465483,28.0267,127.5069,184.4785,0.8653584,-0.1410059,0.437232,6
6.58,-30.34179,1.323709,-33.50832,-1.0741975876572334,-0.1194811388908301,-1.2427825855053287,31.43487,132.3002,185.248,0.8744727,-0.1497248,0.4001579,6
6.6,-30.34062,1.122722,-33.42408,-1.0868265281641358,-0.0987911241155092,-1.1834408643543446,32.14307,127.9676,184.3425,0.8583266,-0.1540571,0.4306056,6
6.62,-30.23949,1.115924,-33.40679,-1.1054942955690894,-0.1336843226872216,-1.1108826493666708,37.6384,127.3668,184.1047,0.842774,-0.1733042,0.4297173,6
6.64,-30.12943,1.31138,-33.47293,-1.1020685894919175,-0.1365509311641758,-1.046589304840894,41.19341,131.9013,184.9658,0.8478102,-0.1802593,0.3950332,6
6.66,-30.10664,1.113221,-33.43141,-1.1027270679611445,-0.1372590280161208,-0.9992939382396742,42.02023,130.4662,183.4009,0.8428215,-0.1752869,0.400565,6
6.68,-30.00533,1.310642,-33.50252,-1.1081800044598022,-0.1391307854945537,-0.9678499954444986,45.46565,134.89,184.1241,0.8458855,-0.1787772,0.3663856,6
6.7,-29.90751,1.504325,-33.5771,-1.094821545541432,-0.1428246609072238,-0.9131309741420052,48.84981,139.6725,185.2745,0.8472369,-0.1817111,0.3313822,6
6.72,-29.88172,1.11076,-33.45203,-1.0798923687288378,-0.1734086121635713,-0.8689428337403129,48.24958,131.2376,180.6101,0.8303561,-0.1731473,0.3787265,6
6.74,-29.78673,1.309052,-33.52664,-1.0537800918815017,-0.1448604642020019,-0.8413535379746433,51.6239,135.571,181.1492,0.8317157,-0.1729709,0.3443794,6
6.76,-29.69465,1.503699,-33.6042,-1.026588645152605,-0.172982902488093,-0.8190646131941053,54.95871,140.3206,182.1879,0.8313777,-0.1725079,0.3093303,6
6.78,-29.63386,1.102975,-33.5831,-1.0055815261654537,-0.2014719022161657,-0.8102737049770541,56.54937,132.8539,176.6424,0.8123979,-0.1657115,0.3393314,6
6.8,-29.55554,1.29762,-33.66847,-0.9780254221826904,-0.1461180315635358,-0.8137459705359964,59.83671,136.7951,176.6806,0.8108387,-0.1602101,0.3055364,6
6.82,-29.48063,1.48893,-33.75595,-0.9451836222974052,-0.1719093566697758,-0.8130509632853897,63.11918,141.1845,177.2319,0.8076448,-0.1544519,0.2711357,6
6.84,-29.30408,1.117536,-33.7996,-0.9117535468512932,-0.1399299287726739,-0.8225879815217736,61.86424,126.6037,167.5975,0.7867886,-0.1468146,0.3335306,6
6.86,-29.20567,1.127486,-33.8395,-0.8962973513174037,-0.0807913239927195,-0.8426341280553356,61.11765,126.0848,167.5134,0.7880548,-0.145646,0.3387679,6
6.88,-29.14533,1.310482,-33.9373,-0.8671018892241169,-0.093301744680706,-0.8585906685980156,64.28891,128.8008,166.1893,0.7856933,-0.1364161,0.3055027,6
6.9,-29.08945,1.490334,-34.03559,-0.8473666815514407,-0.0536295872593664,-0.8841805214153657,67.48667,131.7075,165.1133,0.7818208,-0.1270147,0.2716239,6
6.92,-28.98559,1.177866,-33.99871,-0.8220889267628508,-0.0582966524810227,-0.9101223560328808,52.08228,131.5696,171.513,0.8305011,-0.118942,0.3378877,6
6.94,-28.93375,1.354973,-34.10322,-0.7982473801295926,-0.0374467424471865,-0.9376837880755852,55.26017,134.9528,170.8949,0.8298997,-0.1121319,0.304306,6
6.96,-28.88697,1.528971,-34.20755,-0.7933794627267816,0.0039895194257181,-0.9768382055161888,58.45356,138.5674,170.581,0.8276939,-0.1051184,0.2701687,6
6.98,-28.84533,1.700066,-34.31121,-0.7895908008794592,-0.0021563056936297,-0.9999217197499376,61.65016,142.5078,170.658,0.8238913,-0.09791096,0.235545,6
7.0,-28.68795,1.250497,-34.21038,-0.7972307119293993,-0.0106543116335722,-1.0294633532393966,26.10308,142.4315,176.2105,0.9241813,-0.04218406,0.3064471,6
7.02,-28.63532,1.257123,-34.20173,-0.7938480998246877,0.0007990839058676,-1.0530865410864123,19.96297,142.4762,176.8815,0.9337031,-0.03035372,0.3121851,6
7.04,-28.58445,1.425159,-34.3194,-0.7940571492847419,0.0348408771771434,-1.088947544948109,23.42392,146.5921,177.1969,0.9390084,-0.03538827,0.2766028,6
7.06,-28.47473,1.271548,-34.27169,-0.7945685205246971,0.0204575476391617,-1.105436534223962,2.341677,146.6924,178.1533,0.957824,0.009580035,0.2861753,6
7.08,-28.42634,1.437361,-34.39471,-0.8053385489838489,0.0501424079298751,-1.1392969145509086,5.873268,150.7171,178.6187,0.9663422,-0.001302008,0.2518212,6
7.1,-28.35885,1.278625,-34.34493,-0.8158734497041138,0.0325015479558144,-1.1542820329942378,354.4396,149.3988,178.626,0.9631968,0.02435002,0.2641144,6
7.12,-28.30139,1.284612,-34.34733,-0.827631789158839,0.0601658017027204,-1.1838089185783138,353.3359,148.2249,178.9151,0.9599813,0.02500094,0.2738047,6
7.14,-28.25184,1.447062,-34.47294,-0.8364403367754418,0.0616536820155933,-1.198973984770788,356.902,152.1529,179.5196,0.9702273,0.01057263,0.2406473,6
7.16,-28.13224,1.295626,-34.43121,-0.8612852541626892,0.0619211212380995,-1.2180453267993665,353.4678,149.1415,179.6649,0.9623457,0.01797211,0.2657754,6
7.18,-28.09249,1.282738,-34.42922,-0.8808531912533599,0.0565502323216809,-1.2204419882244697,353.7421,149.2203,179.8938,0.9626914,0.0153779,0.2650383,6
7.2,-28.0459,1.444758,-34.55283,-0.9160531918359768,0.0505751183625412,-1.2238100314822755,357.2186,153.1359,180.5515,0.9723756,0.0009579185,0.232107,6
7.22,-27.9642,1.254396,-34.4797,-0.9346199385734928,0.0400914142239947,-1.2169272138458371,357.4201,151.3678,181.3018,0.9687015,-0.005438712,0.2469453,6
7.24,-27.92001,1.418361,-34.60261,-0.9642400784858371,0.0572849111293687,-1.2234227434673146,0.9204611,155.3175,181.9814,0.9766847,-0.01860682,0.2138309,6
7.26,-27.86922,1.245443,-34.541,-0.994917484890109,0.0250271918680065,-1.2022559120497514,1.422291,154.3036,181.7792,0.9747273,-0.01789584,0.2225126,6
7.28,-27.82746,1.409635,-34.66731,-1.0270873426525895,0.0423205133474985,-1.1970200680769922,5.008348,158.2965,182.5136,0.9807634,-0.02974443,0.1889844,6
7.3,-27.78579,1.237178,-34.56425,-1.0745502197227077,0.0577460798618882,-1.1911955827158396,6.176553,155.6787,182.8097,0.9755697,-0.0352775,0.2115753,6
7.32,-27.74461,1.403416,-34.69014,-1.0967169229721527,0.0461148725949599,-1.155228413468893,9.76886,159.7316,183.5952,0.9798709,-0.04574158,0.1778588,6
7.34,-27.67104,1.21673,-34.56059,-1.115408030518107,0.0343533223394186,-1.1120485854918254,11.89321,157.0754,183.6185,0.9736462,-0.05135328,0.2007608,6
7.36,-27.62877,1.388164,-34.68369,-1.1399063172971102,0.049701388156853,-1.080722347499668,15.45013,161.2023,184.4258,0.9760451,-0.05968441,0.1668245,6
7.38,-27.59772,1.198893,-34.5698,-1.1634278641976563,0.0125679526830937,-1.0168846159252078,14.7332,159.3183,184.0142,0.974233,-0.05717156,0.1823303,6
7.4,-27.55591,1.374409,-34.69027,-1.1996739199854352,-0.0236684364326899,-0.9541893972314616,18.23136,163.6093,184.9052,0.9754258,-0.06438368,0.1473297,6
7.42,-27.52691,1.182315,-34.55333,-1.204525158393126,-0.0380116036734573,-0.8912392995375109,17.35575,159.8284,184.3346,0.9715806,-0.06321022,0.1786115,6
7.44,-27.48299,1.361853,-34.67075,-1.2077366737194364,-0.022801317853327,-0.8472993478610231,20.80138,164.3009,185.2542,0.9721995,-0.06928983,0.1423843,6
7.46,-27.4228,1.159782,-34.52336,-1.2085546838471166,-0.062030467353087,-0.7735914225282148,21.58415,159.2166,184.4866,0.9641384,-0.07156871,0.1842601,6
7.48,-27.37685,1.345219,-34.63984,-1.205671346684158,-0.0437756698287886,-0.7318790274166203,25.05247,163.782,185.2409,0.9640272,-0.07474637,0.1473717,6
7.5,-27.34702,1.144439,-34.52104,-1.199911449163889,-0.0806617118024885,-0.6600029874425388,24.66164,159.6681,184.4113,0.9594309,-0.07467313,0.1803901,6
7.52,-27.30117,1.333604,-34.63802,-1.1863393872175472,-0.0598072807568713,-0.6173657674098489,28.18192,164.1274,185.071,0.9581935,-0.07607844,0.1444537,6
7.54,-27.2253,1.127639,-34.52175,-1.1587041428250435,-0.0645772484732312,-0.5653238362035689,30.1926,158.8695,184.0824,0.9468184,-0.08152893,0.1860341,6
7.56,-27.17771,1.321412,-34.63864,-1.1414301809913865,-0.0671139307822398,-0.5198184904091372,33.75723,163.0788,184.5802,0.9440454,-0.08050609,0.1521545,6
7.58,-27.13535,1.120834,-34.55561,-1.1094877788699686,-0.0682338006504374,-0.4747494141125745,34.85634,159.4925,183.6171,0.9367052,-0.08291851,0.1790533,6
7.6,-27.09155,1.31691,-34.67244,-1.0880476622712418,-0.0671867704762602,-0.4368292131832794,38.39937,163.4332,183.973,0.9323222,-0.07974474,0.1472547,6
7.62,-27.05957,1.116352,-34.58042,-1.0504638907587598,-0.0647326669276991,-0.3990293883693043,39.72233,159.6071,183.015,0.9237623,-0.08447342,0.1752331,6
7.64,-26.99276,1.114337,-34.59015,-1.0224405118931634,-0.0300127669536922,-0.381810889249258,43.34493,158.9196,182.0565,0.9122705,-0.08393896,0.1764821,6
7.66,-26.95105,1.313258,-34.70253,-0.9899011837170746,-0.0516520676627452,-0.3483774536726534,46.767,162.6571,182.2621,0.9060192,-0.07773672,0.1461034,6
7.68,-26.91323,1.508674,-34.81594,-0.955896299790666,-0.0139059147207811,-0.339107498121951,50.16465,166.6344,182.7817,0.8980837,-0.07115197,0.115587,6
7.7,-26.85564,1.112075,-34.69309,-0.921483427321228,-0.0333304644573086,-0.3172800857976288,48.11293,160.8702,179.9594,0.9004737,-0.06741611,0.1515902,6
7.72,-26.77252,1.106465,-34.75967,-0.8889522467331803,-0.0809961982208632,-0.302213213033867,53.34531,159.5427,178.0557,0.8806099,-0.06478111,0.1511621,6
7.74,-26.73989,1.303646,-34.87079,-0.8565417669644657,-0.0425512092616571,-0.3222549593558108,56.66461,163.1373,178.0506,0.8717546,-0.05476451,0.1210558,6
7.76,-26.66911,1.101541,-34.91805,-0.8342450604234637,-0.0054656684117397,-0.3479540532515015,59.71935,159.2369,174.4753,0.856383,-0.0485029,0.1324966,6
7.78,-26.64664,1.294069,-35.02998,-0.8056147033843586,-0.0511956582867995,-0.3647277763119776,63.00131,162.511,174.1138,0.8456905,-0.03606214,0.1029377,6
7.8,-26.62819,1.483541,-35.14171,-0.7753911664675566,-0.0356018143507206,-0.3907038830602687,66.27193,166.0547,174.0649,0.8335036,-0.02323844,0.0734274,6
7.82,-26.52683,1.117477,-35.13776,-0.7540780057397347,-0.0202450924706507,-0.4197662584582895,61.87117,153.1388,167.6081,0.8423018,-0.02866108,0.1440964,6
7.84,-26.51479,1.302876,-35.25089,-0.7237855990004949,-0.0527519333603383,-0.4440304747142694,65.05225,155.4498,166.1895,0.8316383,-0.01443279,0.1147903,6
7.86,-26.50664,1.4852,-35.36285,-0.7180592830793273,-0.005257899091117,-0.475960051452641,68.25108,157.8451,164.9027,0.8195068,-0.0001338087,0.08534812,6
7.88,-26.34936,1.177905,-35.38103,-0.7260129927849968,0.0663085345082671,-0.5149402587252006,52.08865,156.0242,171.4199,0.8832205,-0.02519683,0.1539621,6
7.9,-26.34613,1.355104,-35.49734,-0.7215232973848456,0.0672739569499979,-0.5304646395470858,55.26572,158.97,170.6455,0.8750616,-0.01333027,0.1239539,6
7.92,-26.23624,1.228063,-35.55696,-0.7136214597996084,0.0448171306848481,-0.5362867680192185,37.85385,162.1611,174.8814,0.9358078,-0.008512486,0.1322082,6
7.94,-26.20338,1.239084,-35.61729,-0.7214456605521007,0.0916776929832254,-0.5613532261213274,32.03626,164.5419,175.502,0.9531651,0.0002935715,0.1184374,6
7.96,-26.20603,1.408048,-35.7462,-0.7373883561923016,0.135164516508526,-0.583729725907217,35.55518,168.0692,175.4444,0.9476053,0.005935771,0.08681728,6
7.98,-26.13711,1.256724,-35.71814,-0.7351745400077294,0.1050016630158656,-0.5701478765743797,20.0565,168.584,176.7143,0.9799331,0.01077929,0.09293159,6
8.0,-26.14327,1.423973,-35.84909,-0.7398925323666368,0.0708991242068728,-0.5539574351430252,23.62262,172.1885,176.8545,0.9765684,0.01286572,0.06104309,6
8.02,-26.02839,1.271601,-35.84238,-0.7685165692420539,0.1224521901074109,-0.5638169633573744,2.366269,173.2866,178.0701,0.9979505,0.01559904,0.05818401,6
8.04,-26.03804,1.437442,-35.97393,-0.7745939896625744,0.1267049998258471,-0.5590663943541765,5.919457,176.8579,178.4299,0.9982165,0.01226195,0.0266705,6
8.06,-25.95977,1.278847,-35.95871,-0.7800824816871246,0.107005427955468,-0.5390985957467533,354.4461,176.5869,178.5656,0.9982865,0.01393978,0.03034949,6
8.08,-25.97313,1.442947,-36.09048,-0.8037650629664084,0.1320486584921134,-0.5390959758388689,357.9935,180.0918,179.0693,0.9998136,0.008106876,-0.0006591383,6
8.1,-25.88401,1.29107,-36.06363,-0.8366390882330177,0.153319347839747,-0.532684996077232,352.221,177.6819,179.209,0.9974595,0.008257329,0.02064854,6
8.12,-25.89849,1.452425,-36.19674,-0.8494384709696687,0.1482171841110952,-0.5065516083238597,355.785,181.1499,179.8138,0.9992727,0.001254573,-0.009967647,6
8.14,-25.77113,1.282517,-36.15672,-0.8730371046765808,0.165360007730979,-0.4933169456228512,353.7664,178.375,179.8909,0.9984193,0.001721919,0.01421074,6
8.16,-25.78609,1.44418,-36.28748,-0.9059891077580936,0.1793142164870919,-0.4733377121198296,357.2777,181.8491,180.5304,0.9995753,-0.005010289,-0.01624118,6
8.18,-25.70717,1.261836,-36.20983,-0.9205375394716504,0.1623710183694495,-0.4274709364073947,355.7447,179.7915,180.7043,0.9992906,-0.006073978,0.001590504,6
8.2,-25.72407,1.425239,-36.33867,-0.930841668970876,0.1471745063424608,-0.3784695942400233,359.2497,183.2809,181.3358,0.9994987,-0.01183887,-0.02870063,6
8.22,-25.60512,1.245744,-36.28622,-0.9507957409057384,0.1315135112880726,-0.3258214473579768,1.400595,181.2318,181.7245,0.9997565,-0.01491503,-0.01056294,6
8.24,-25.62295,1.410271,-36.4164,-0.9577018404249108,0.117023936431101,-0.264751763290719,4.97885,184.778,182.3763,0.9980109,-0.01888805,-0.04073612,6
8.26,-25.54308,1.237439,-36.34578,-0.9740855030629888,0.102685143357046,-0.2007920646367136,6.167818,183.1941,182.7332,0.9979159,-0.02230664,-0.02653977,6
8.28,-25.56276,1.404016,-36.47566,-1.000631482618135,0.135602661579457,-0.1594724432399195,9.760614,186.7903,183.4055,0.9943363,-0.02451814,-0.05645806,6
8.3,-25.58655,1.566681,-36.60156,-1.0025608083319946,0.0917920355996693,-0.065134606543622,13.30295,190.472,184.316,0.9888211,-0.02668289,-0.08623605,6
8.32,-25.43921,1.217066,-36.38561,-0.999686558599775,0.0724369638846152,0.0206157606118875,11.88838,184.9467,183.5026,0.9933692,-0.02590145,-0.03974023,6
8.34,-25.35924,1.19936,-36.35706,-1.0051349663760307,0.0544474165289649,0.1081676168826302,14.75512,184.025,183.794,0.990716,-0.028302,-0.03055964,6
8.36,-25.37406,1.375298,-36.48389,-0.9960454126462328,0.0346060334471955,0.1992878365573354,18.29967,187.6944,184.4281,0.9847279,-0.02739375,-0.06006354,6
8.38,-25.28958,1.182783,-36.37495,-0.9951596070468384,0.0165519745004674,0.2902630994177455,17.39969,184.9016,184.0801,0.9871947,-0.02869238,-0.03686272,6
8.4,-25.30302,1.362704,-36.50019,-1.000596452273348,0.0507994295143859,0.3474788346977258,20.92042,188.5899,184.7085,0.9803506,-0.02669687,-0.06614716,6
8.42,-25.17985,1.160241,-36.38349,-0.9830115575759856,0.0034618933621409,0.4559495658371313,21.58264,184.2503,184.308,0.9812075,-0.02995755,-0.0293687,6
8.44,-25.18948,1.346101,-36.50728,-0.955479952045386,-0.0164104692310566,0.5473397234136446,25.08911,187.9402,184.8501,0.9735492,-0.02617897,-0.05835411,6
8.46,-25.10815,1.144814,-36.41062,-0.9352637179719592,-0.0337004271531789,0.6351389210947422,24.60615,184.9512,184.3102,0.9757782,-0.0275096,-0.03416646,6
8.48,-25.11694,1.334547,-36.53299,-0.9073686743270954,-0.0500665741904983,0.7127331893736848,28.08581,188.6449,184.8186,0.9672689,-0.02239297,-0.06288126,6
8.5,-25.0337,1.132254,-36.42066,-0.8870407206293986,-0.064029805350851,0.7854535996214302,28.02171,184.0122,184.1476,0.969327,-0.02661932,-0.02518643,6
8.52,-25.04233,1.325609,-36.54147,-0.8515871989779691,-0.077451235100907,0.848770046628796,31.46868,187.6416,184.4868,0.9603615,-0.0195379,-0.05349874,6
8.54,-24.9264,1.121377,-36.4501,-0.8173035801535109,-0.116573896910208,0.9197385995092198,34.73183,182.4111,183.4219,0.9539689,-0.02221295,-0.01116196,6
8.56,-24.93484,1.318272,-36.56993,-0.7952418325738306,-0.0955061929382104,0.951001210921718,38.15133,185.9377,183.5437,0.9438915,-0.01226417,-0.03883376,6
8.58,-24.86687,1.116762,-36.5006,-0.7813537504475603,-0.0746088809054665,0.9770886637560938,39.62783,183.3921,182.843,0.940346,-0.01329872,-0.01943169,6
8.6,-24.8777,1.315146,-36.61899,-0.7526961842340492,-0.0816589286001254,1.0076112171536602,43.01599,186.8758,182.8982,0.9289512,-0.001506746,-0.04651827,6
8.62,-24.81032,1.114688,-36.53448,-0.7316409919072862,-0.0867546202652388,1.0316966037048747,43.27392,183.6778,181.8923,0.929129,-0.003510848,-0.02373894,6
8.64,-24.8212,1.314038,-36.65166,-0.7163296640868859,-0.0343014282869889,1.0195759613151285,46.63304,187.1435,181.9282,0.9168338,0.009233348,-0.0505555,6
8.66,-24.72407,1.112632,-36.59926,-0.6884665648129644,-0.0386892330012112,1.016249565854336,48.07689,182.6561,179.689,0.9129982,0.01191899,-0.02227194,6
8.68,-24.735,1.312176,-36.7153,-0.6623113824757589,-0.0700485687063431,1.014557276693944,51.40383,186.0341,179.6165,0.8997323,0.02583817,-0.04887529,6
8.7,-24.67587,1.106835,-36.69168,-0.6434545858880583,-0.1015097984386818,1.0070169127204185,53.31586,182.2309,177.8546,0.8932118,0.02546052,-0.02579238,6
8.72,-24.63328,1.101938,-36.80744,-0.6224757212968557,-0.1021218061842875,0.9641128176278482,59.6871,179.2475,174.2286,0.8664337,0.04040288,-0.01936338,6
8.74,-24.65247,1.29482,-36.9196,-0.6162839510633082,-0.072060202965142,0.9091519491823564,62.95049,182.1199,173.6012,0.850852,0.0572351,-0.04488809,6
8.76,-24.67485,1.484513,-37.03033,-0.6173899625782417,-0.0437295200396241,0.8500020287648224,66.22383,185.2662,173.2987,0.8338239,0.07395694,-0.07030857,6
8.78,-24.58572,1.117651,-37.04813,-0.6311308620822413,0.0390705018243567,0.7786759295644332,61.84678,174.0484,167.5051,0.8545141,0.06670781,-0.01157668,6
8.8,-24.55843,1.128548,-37.09113,-0.6240289908443128,0.0207500461351563,0.7249991415543668,60.98259,171.7087,166.9821,0.8580701,0.06098083,0.004524607,6
8.82,-24.5876,1.31188,-37.20094,-0.6229453727737697,0.0006798342310417,0.6691883143266235,64.126,173.6906,165.3742,0.8430164,0.0787323,-0.02121023,6
8.84,-24.49685,1.177881,-37.26488,-0.6213512050760084,0.0154771583095372,0.6056755575683193,52.09993,175.3272,171.3859,0.8964742,0.04956329,0.003568253,6
8.86,-24.53144,1.355137,-37.37549,-0.6174321372697493,0.0071171314730442,0.5486830593465104,55.27357,178.0711,170.5688,0.8834241,0.06503829,-0.02326741,6
8.88,-24.56904,1.529268,-37.48288,-0.6189447913906636,-0.003948212611337,0.4895167118151162,58.46615,180.9689,169.9704,0.868908,0.08039086,-0.05003788,6
8.9,-24.46414,1.228095,-37.44051,-0.647523660985216,0.0521264500519609,0.4160913904137588,37.84929,182.2959,174.8916,0.9445271,0.04863778,-0.03338241,6
8.92,-24.42342,1.250196,-37.4951,-0.6504024257320857,0.0374103970074798,0.3749808604572804,26.15618,184.5103,176.1332,0.9724537,0.04173569,-0.04593492,6
8.94,-24.46691,1.418538,-37.61618,-0.6744991178113393,0.0653871503367243,0.3250462442087096,29.66904,187.9053,176.1458,0.9632311,0.05006822,-0.07518588,6
8.96,-24.51357,1.583089,-37.73291,-0.6818200726367061,0.0699846597450042,0.2893445269781454,33.17588,191.4272,176.4068,0.9522616,0.05830508,-0.1042716,6
8.98,-24.38477,1.267843,-37.62325,-0.6941639469441645,0.0736256643366117,0.2556717853464469,8.12159,190.7773,177.6966,0.9927468,0.02660952,-0.09507379,6
9.0,-24.43361,1.434318,-37.74433,-0.6983209628742193,0.0756211015159661,0.2239152938777948,11.66621,194.2065,177.9885,0.9868142,0.02989355,-0.1247691,6
9.02,-24.48549,1.596923,-37.86073,-0.7067727660785366,0.0764749386700973,0.1947721674006812,15.18608,197.7018,178.5035,0.9790792,0.03311975,-0.1542067,6
9.04,-24.31856,1.285127,-37.78385,-0.7114006860378681,0.0769340053934468,0.1663088290622729,353.3011,195.184,178.8458,0.9895684,0.002247749,-0.131302,6
9.06,-24.30062,1.291071,-37.82715,-0.7200274002226945,0.075762752260138,0.1411757577882912,352.2245,195.5824,179.1976,0.9885291,-0.002269586,-0.1347777,6
9.08,-24.35408,1.452444,-37.94943,-0.7211236457695946,0.0717697881436223,0.1240755289190476,355.7923,198.8869,179.7816,0.985793,-0.004144805,-0.1638947,6
9.1,-24.41049,1.60985,-38.06643,-0.7254107292466516,0.0665640865626146,0.1109805600846414,359.3195,202.2156,180.5684,0.9812317,-0.006011035,-0.1926786,6
9.12,-24.24496,1.282541,-37.91611,-0.7197406282560008,0.0549837196452823,0.1064467948863328,353.7644,197.1004,179.8986,0.9874294,-0.00721263,-0.148408,6
9.14,-24.2992,1.444206,-38.03535,-0.7172201192090655,0.0430415342788292,0.1064198710060164,357.2758,200.406,180.5357,0.9838781,-0.008810339,-0.177194,6
9.16,-24.35626,1.602062,-38.14936,-0.7153001919222248,0.0299852341028375,0.1108967590146585,0.7436342,203.7436,181.3732,0.9785357,-0.0103913,-0.2056278,6
9.18,-24.14781,1.250224,-37.96058,-0.7170382292325574,0.0167031578369595,0.1194609209705781,359.3952,197.911,181.4908,0.9877016,-0.01367243,-0.1557199,6
9.2,-24.10901,1.245589,-37.95654,-0.7355891854132652,0.0514197047058081,0.1031371829428886,1.419453,197.1459,181.7043,0.9886692,-0.01285859,-0.1488588,6
9.22,-24.16126,1.409899,-38.07752,-0.7168590011441052,0.0119976416542722,0.1344784815501389,5.025194,200.5231,182.3275,0.9830148,-0.01215766,-0.1770577,6
9.24,-24.02074,1.231847,-37.96664,-0.7005470715502398,-0.0028550966463986,0.1628367237135934,8.24709,197.3689,182.9837,0.9859245,-0.01481597,-0.1486996,6
9.26,-24.07055,1.400067,-38.08744,-0.6876186562072881,-0.0167129978277239,0.1941242482399152,11.84194,200.8113,183.5971,0.9784094,-0.01208222,-0.1763797,6
9.28,-24.12321,1.564365,-38.20372,-0.6918560102682356,0.0175687557902426,0.2004155261398139,15.39236,204.3424,184.4421,0.969083,-0.009329088,-0.2037041,6
9.3,-23.94408,1.208423,-37.98312,-0.6597320651495506,-0.0263901842214059,0.2570136485449126,13.4325,199.5115,183.6804,0.9789076,-0.01162314,-0.1644972,6
9.32,-23.89639,1.199509,-37.94512,-0.6293882514992113,-0.0693363012488718,0.3162885611874895,14.74351,198.0327,183.7634,0.9796125,-0.01206483,-0.1511766,6
9.34,-23.94132,1.375626,-38.06386,-0.6256019225522005,-0.0379377904668978,0.3290493084215899,18.28115,201.5228,184.3542,0.9703649,-0.007206358,-0.1782869,6
9.36,-23.795,1.175446,-37.90991,-0.5950060494297893,-0.0591097815095202,0.3705647820705993,18.73834,196.8504,184.174,0.9762332,-0.01170719,-0.1386027,6
9.38,-23.83401,1.35742,-38.02893,-0.5549603732459638,-0.1054618416155882,0.4300916076829164,22.26798,200.3549,184.7137,0.966326,-0.005622108,-0.1654086,6
9.4,-23.87602,1.535619,-38.14501,-0.5330639643018165,-0.0955302879519415,0.4549014116216234,25.75822,203.9896,185.5063,0.9546827,0.0004673004,-0.1918886,6
9.42,-23.70421,1.15273,-37.9042,-0.4866863339631035,-0.1412065768258332,0.5123707536443458,23.06359,196.1967,184.1923,0.9704239,-0.00733779,-0.1306976,6
9.44,-23.63008,1.138729,-37.86237,-0.4641875475339319,-0.1280726680894413,0.5329927221804276,26.30213,193.6001,184.1023,0.9672682,-0.007685985,-0.1071395,6
9.46,-23.66064,1.330524,-37.98009,-0.4462224714717759,-0.114784811662451,0.5525820537578348,29.77683,197.0458,184.4077,0.956513,0.001297932,-0.1333519,6
9.48,-23.57168,1.128386,-37.87396,-0.4149161757936821,-0.1291265493484999,0.5788515953321935,30.03697,193.0108,183.8554,0.960068,-0.002938226,-0.1007041,6
9.5,-23.60122,1.323235,-37.99056,-0.3772619306432974,-0.1692277429915647,0.6197061608001704,33.47652,196.412,184.0562,0.9486867,0.007537745,-0.1265115,6
9.52,-23.49091,1.118365,-37.89973,-0.3581641796346142,-0.1495438292261154,0.6233001415574719,37.3997,192.0511,183.1617,0.9425478,0.007655602,-0.0905969,6
9.54,-23.47497,1.116866,-37.92153,-0.3226836638503063,-0.1858543974616943,0.6513590339687125,39.60865,192.9423,182.8011,0.9355149,0.01532356,-0.09777681,6
9.56,-23.50621,1.315401,-38.03533,-0.3106617297894116,-0.1617698896676836,0.6447275364385971,42.98542,196.2241,182.7955,0.9221412,0.02921522,-0.1224108,6
9.58,-23.5406,1.510466,-38.14788,-0.3040033752046458,-0.1378732649966492,0.6349483977594943,46.35558,199.6989,183.0692,0.9072165,0.04304632,-0.146812,6
9.6,-23.42184,1.114118,-37.99008,-0.2874738064853788,-0.1416976284438443,0.6293139568168344,44.6892,195.0493,181.3059,0.9174572,0.03933218,-0.1168171,6
9.62,-23.45445,1.313699,-38.10238,-0.2664254809217978,-0.1722277511305852,0.6341575137024948,48.04052,198.3691,181.3668,0.9024021,0.05421334,-0.1409894,6
9.64,-23.49018,1.509868,-38.2135,-0.261860269974675,-0.1428666724756037,0.6051865891971095,51.38235,201.9282,181.7425,0.8858464,0.06899132,-0.1649009,6
9.66,-23.36408,1.106789,-38.11103,-0.2477148508639337,-0.1708336131445433,0.5841889920073671,53.32969,194.0663,177.8801,0.8857546,0.07134657,-0.1176417,6
9.68,-23.35808,1.103456,-38.1582,-0.2547135501627537,-0.1395029590054561,0.5350495452243216,56.50949,192.7464,176.3731,0.8733066,0.08022478,-0.1126172,6
9.7,-23.39719,1.298707,-38.26497,-0.2669713376205718,-0.1093637155265676,0.4832421326155609,59.78691,195.6849,175.9917,0.8559417,0.09799878,-0.1354895,6
9.72,-23.35302,1.108822,-38.33911,-0.2723541825869739,-0.1002287620826216,0.4236858266137515,62.66817,185.4326,168.0756,0.8460152,0.1131335,-0.09421506,6
9.74,-23.39939,1.296721,-38.442,-0.2916129157132814,-0.0609964326246613,0.3622229301813311,65.85412,187.3166,166.5531,0.8278318,0.1325147,-0.1166981,6
9.76,-23.4482,1.481521,-38.54241,-0.315238439030888,-0.0232782715738311,0.3000720997356394,69.05912,189.2312,165.1048,0.8083225,0.1516669,-0.1389692,6
9.78,-23.49926,1.663323,-38.64005,-0.3202603424205374,-0.0597655526834401,0.2538762300059201,72.28011,191.2089,163.7575,0.7875208,0.1705585,-0.1609937,6
9.8,-23.3674,1.161342,-38.59969,-0.3457586329691962,-0.0164031196954227,0.1943004289078249,55.80661,186.2483,169.0026,0.8759208,0.1099442,-0.09271865,6
9.82,-23.42435,1.340289,-38.69912,-0.3825383677673728,0.0513819264562541,0.1261206420541976,58.95557,188.4662,167.7859,0.8593805,0.1284782,-0.1161021,6
9.84,-23.35337,1.211452,-38.72379,-0.3961239147858002,0.0505839130455471,0.0776424461478004,43.10201,192.521,174.1219,0.9212744,0.08740916,-0.1200141,6
9.86,-23.35764,1.226956,-38.76902,-0.4206581777494915,0.0721809820899713,0.0334207147228093,38.00934,193.9284,174.8346,0.935784,0.08173505,-0.1290892,6
9.88,-23.42426,1.396265,-38.87994,-0.4486306526097956,0.0928800603930058,-0.0097507214956236,41.57798,196.9989,174.5801,0.9211121,0.09611611,-0.1546194,6
9.9,-23.49298,1.561705,-38.98621,-0.4785024810262359,0.1096343604089592,-0.0503147599097406,45.1515,200.2297,174.5809,0.904818,0.1103189,-0.1798497,6
9.92,-23.34995,1.25642,-38.8704,-0.4960737998371343,0.1229839639872476,-0.079328317461961,20.12136,199.1226,176.687,0.9697009,0.05707169,-0.1684596,6
9.94,-23.42031,1.423338,-38.98139,-0.5281374862172044,0.1578876359363977,-0.1149245881112737,23.72582,202.3816,176.7812,0.9585356,0.06684393,-0.1955204,6
9.96,-23.30464,1.271577,-38.93632,-0.5616077735657679,0.1902572022191256,-0.1455285916869542,2.399208,202.0861,178.0238,0.9810534,0.02093165,-0.1918303,6
9.98,-23.37528,1.437392,-39.04727,-0.5565712533517431,0.1507341588525395,-0.1444648542452755,5.969091,205.325,178.319,0.9740826,0.02570465,-0.2196322,6
10.0,-23.28444,1.278896,-39.00312,-0.5634034736954607,0.1574546217040794,-0.1609157357697581,354.4614,203.7662,178.5154,0.977474,0.002714958,-0.205045,6
10.02,-23.35525,1.443047,-39.11438,-0.5709778716264187,0.1628192170156933,-0.1736280746792271,358.0209,206.9486,178.9507,0.9723259,0.004879452,-0.2328106,6
10.04,-23.24827,1.293558,-39.1041,-0.5486562579687515,0.1177316509204218,-0.1594890699735183,352.8279,204.0869,179.3718,0.9761318,-0.007699819,-0.2079062,6
10.06,-23.31857,1.454516,-39.2168,-0.5579141557745273,0.1402494193448921,-0.1694898496060259,356.3866,207.239,179.929,0.9714023,-0.006822137,-0.235337,6
10.08,-23.2222,1.282734,-39.1515,-0.577093975526934,0.1834896476795489,-0.1850431222376602,353.7552,205.0394,179.8735,0.974785,-0.01073124,-0.2163948,6
10.1,-23.29154,1.444554,-39.26188,-0.5574059501852675,0.1512842080036563,-0.1562013494253396,357.2617,208.1902,180.4769,0.9695835,-0.009853611,-0.2435573,6
10.12,-23.16743,1.254488,-39.18268,-0.5181164567013834,0.0937281797566273,-0.1086425184422879,357.4174,205.6333,181.2457,0.9747254,-0.0155962,-0.2220016,6
10.14,-23.23622,1.418476,-39.29164,-0.5102185858177779,0.1066659623412817,-0.0958843234337338,0.9399235,208.8167,181.83,0.9684236,-0.01342541,-0.2486639,6
10.16,-23.14478,1.245558,-39.22796,-0.4762911108315637,0.0705667838340531,-0.0519270990419693,1.419766,207.2712,181.717,0.971675,-0.01163915,-0.235521,6
10.18,-23.21579,1.409851,-39.33839,-0.4408681156479583,0.0339929066290836,-0.0038540010411276,5.0262,210.4918,182.3429,0.9639126,-0.008178025,-0.2617895,6
10.2,-23.28861,1.570215,-39.44369,-0.4425238640326525,0.0700089040883386,0.0051146651002103,8.591181,213.7729,183.1765,0.954431,-0.004698326,-0.287562,6
10.22,-23.08301,1.231767,-39.25265,-0.405747809785308,0.0545919992910627,0.0507488910014144,8.250937,208.2924,182.9991,0.9672917,-0.007733738,-0.241855,6
10.24,-23.00573,1.217215,-39.22017,-0.3690479778946232,0.0407649529656422,0.0990939959287935,11.88672,207.0461,183.4483,0.9673406,-0.004894154,-0.2294454,6
10.26,-23.07157,1.389133,-39.33092,-0.3602483592120329,0.0764087494983521,0.1175266004685182,15.4649,210.3563,184.0299,0.9569882,0.001580533,-0.2547147,6
10.28,-23.13944,1.557166,-39.43734,-0.3132523714921951,0.033347193314178,0.183932355835604,19.00282,213.7659,184.8399,0.9449556,0.008047787,-0.2795086,6
10.3,-22.93648,1.190683,-39.22228,-0.2658484928976086,-0.0083761358434115,0.2525519924994777,16.07074,208.7107,183.8987,0.9598891,0.002007367,-0.2407524,6
10.32,-22.99966,1.368713,-39.33139,-0.2517473097924276,0.0257350639973042,0.2748918675491953,19.60954,212.0576,184.4981,0.9482005,0.009817917,-0.2654545,6
10.34,-23.06497,1.542952,-39.43678,-0.2087160335066031,0.0056799112518761,0.3240303256554586,23.10715,215.5225,185.3351,0.9348721,0.0176061,-0.2896694,6
10.36,-22.82211,1.160484,-39.19812,-0.1547205505773963,-0.0393221531464551,0.3896634626413249,21.5727,207.1957,184.2295,0.9557703,0.008736458,-0.2240824,6
10.38,-22.78596,1.152826,-39.18055,-0.1302047332046552,-0.026369436744033,0.4150023371912645,23.05092,206.1358,184.1717,0.9554731,0.01040731,-0.2143159,6
10.4,-22.8415,1.341009,-39.2892,-0.1081662041090405,-0.0131876534314927,0.4405160310506986,26.53436,209.4473,184.5557,0.9429244,0.02086681,-0.2383571,6
10.42,-22.70058,1.132444,-39.16619,-0.0513471252851323,-0.0843580434002448,0.5115093513992743,28.02385,204.3915,184.074,0.9495674,0.01740801,-0.1964253,6
10.44,-22.75214,1.326012,-39.27503,-0.0277418766962997,-0.0707437060955842,0.528760878665107,31.48193,207.655,184.3143,0.936383,0.02961302,-0.2199578,6
10.46,-22.80634,1.515991,-39.38174,0.002199820500234,-0.0825344236881892,0.5514789063216909,34.92104,211.0639,184.8035,0.9216475,0.04175993,-0.2430988,6
10.48,-22.64436,1.121383,-39.21057,0.0274937119681983,-0.0917791234294359,0.5709153922318286,34.72182,204.3881,183.4256,0.9343768,0.03511458,-0.1927933,6
10.5,-22.61558,1.118512,-39.19613,0.0496478554236841,-0.0991590665351123,0.5831836096303515,37.37916,202.933,183.1059,0.9297476,0.0385193,-0.1797319,6
10.52,-22.66712,1.316464,-39.30276,0.0669232308766907,-0.1041544905206859,0.5916153120239489,40.77831,206.0453,183.0755,0.9150183,0.05397014,-0.2020337,6
10.54,-22.56992,1.114764,-39.21631,0.0798245929717809,-0.1068033326464764,0.5917518890739437,43.27382,203.201,181.8616,0.9116362,0.05934342,-0.1810255,6
10.56,-22.61995,1.314229,-39.32202,0.0807907409857882,-0.0774412143386999,0.5735994638942801,46.64003,206.3068,181.8341,0.895543,0.07575947,-0.2027729,6
10.58,-22.67272,1.510283,-39.42612,0.0771023792883731,-0.0482290808752088,0.551839543756083,50.00113,209.6187,182.0881,0.8780207,0.09204166,-0.224171,6
10.6,-22.54312,1.112595,-39.28814,0.0929151658783045,-0.1067291986768243,0.5572583272106684,48.07328,203.8057,179.7125,0.8934348,0.08625329,-0.1893675,6
10.62,-22.52573,1.109788,-39.2885,0.0885291041995941,-0.1062494360517898,0.5220793175906708,50.66019,201.8215,178.8286,0.886645,0.09004804,-0.1753676,6
10.64,-22.57636,1.308536,-39.3909,0.0792389647344804,-0.1047446342866344,0.4838046528883808,53.95194,204.7533,178.6001,0.8692326,0.107854,-0.1964156,6
10.66,-22.52735,1.102012,-39.40936,0.066245012283832,-0.105545283369246,0.4439502239846051,59.66713,198.0402,174.196,0.8516991,0.1212708,-0.1607039,6
10.68,-22.58151,1.295033,-39.5083,0.0440421332294924,-0.1008383019914964,0.3866297566437415,62.92284,200.5161,173.4773,0.8327103,0.140546,-0.1808739,6
10.7,-22.63794,1.484911,-39.60511,0.0109809336200914,-0.0657778585399541,0.3184158124623497,66.18968,203.2031,173.0164,0.8124406,0.1595867,-0.2007426,6
10.72,-22.54085,1.128591,-39.59918,-0.0256922468333087,-0.0321287259796388,0.249412359290079,60.97675,189.1637,166.9164,0.8487681,0.1381279,-0.1260083,6
10.74,-22.60113,1.312073,-39.6945,-0.0553585110040075,-0.01472544358972,0.1872275085948542,64.10609,190.7258,165.187,0.8304127,0.1579661,-0.1466672,6
10.76,-22.66325,1.492496,-39.7868,-0.0785470074664154,-0.0199195058571696,0.1325471579212847,67.25489,192.2417,163.4559,0.8108005,0.1775482,-0.1670807,6
10.78,-22.57365,1.177925,-39.76889,-0.1037428203087023,-0.0266332706374165,0.0783050138325176,52.09435,194.3266,171.3726,0.8847767,0.1216512,-0.144486,6
10.8,-22.6406,1.355251,-39.86224,-0.1295451478287232,-0.0379932929331925,0.0258501387048637,55.26271,196.7174,170.5078,0.867955,0.1397141,-0.1663147,6
10.82,-22.70913,1.529476,-39.95194,-0.1562613682800258,-0.0220079987727088,-0.0210792007168452,58.44913,199.2257,169.8195,0.8498318,0.1575523,-0.1878696,6
10.84,-22.59846,1.239611,-39.91696,-0.1843580291739579,-0.0068732326975871,-0.0680413815151119,32.00239,201.5695,175.468,0.9414997,0.08887622,-0.1904363,6
10.86,-22.59948,1.25014,-39.94385,-0.2061722125911802,0.006336918186149,-0.1038213035964421,26.20781,202.9701,176.1067,0.9523744,0.07753807,-0.2013623,6
10.88,-22.67719,1.418555,-40.04526,-0.2370656920019538,0.0424002402807814,-0.1471032719988958,29.72009,206.0306,176.0744,0.9391937,0.08997794,-0.2261097,6
10.9,-22.75633,1.583183,-40.14198,-0.2429499897406826,0.0304683641405679,-0.16526977083039,33.22976,209.2027,176.2648,0.9244584,0.1022648,-0.2504562,6
10.92,-22.59314,1.267904,-40.02578,-0.2473481922679705,0.0170415749739306,-0.1810247241098377,8.146008,207.4083,177.6496,0.9685295,0.036699,-0.2376756,6
10.94,-22.67345,1.434464,-40.12791,-0.2550757562865056,0.0247518510272365,-0.2091553572759066,11.69599,210.5138,177.876,0.959073,0.04459562,-0.2635549,6
10.96,-22.7551,1.597141,-40.22512,-0.2495344043214866,0.0091757699468247,-0.2247241334568341,15.22753,213.677,178.3044,0.948015,0.05241321,-0.2889663,6
10.98,-22.5675,1.285196,-40.13921,-0.2694438144515598,0.038581499269045,-0.26041771766387,353.31,209.8853,178.7894,0.9646437,-0.004854321,-0.2568026,6
11.0,-22.54379,1.291123,-40.15994,-0.287174461873799,0.0647110674228915,-0.2919669031363776,352.2327,209.05,179.1508,0.9659147,-0.00982962,-0.2497336,6
11.02,-22.62278,1.452576,-40.26667,-0.280161042941943,0.0631304993432385,-0.3026396043300012,355.8094,212.05,179.6715,0.9605238,-0.007340042,-0.2757704,6
11.04,-22.49828,1.282664,-40.21582,-0.2710908532273834,0.0608756956504193,-0.3105167601209295,353.769,208.8503,179.8465,0.96706,-0.01224384,-0.2486762,6
11.06,-22.57442,1.444389,-40.32173,-0.2631742146189642,0.053837929737905,-0.3071354237006147,357.2921,211.8541,180.4154,0.9613137,-0.009968871,-0.2744173,6
11.08,-22.65202,1.602273,-40.42239,-0.2532622933868214,0.0467003756626806,-0.3003196681673072,0.779446,214.8866,181.1671,0.9539635,-0.007677317,-0.2996729,6
11.1,-22.4659,1.254454,-40.2592,-0.2651034983525808,0.0860242271226419,-0.3145640740470723,357.4209,210.1734,181.2483,0.9651676,-0.0163724,-0.2604353,6
11.12,-22.41337,1.245627,-40.26675,-0.2277362590586675,0.0511664686740383,-0.2799096954167455,1.41772,209.516,181.6747,0.9668793,-0.01097965,-0.2545152,6
11.14,-22.4887,1.409958,-40.37416,-0.2166652299112024,0.0681487701594686,-0.2709310354148133,5.034153,212.5844,182.2501,0.9589746,-0.006509962,-0.2793837,6
11.16,-22.38766,1.237498,-40.29514,-0.2034651314890356,0.0835297195907913,-0.2588664545992358,6.161123,210.6706,182.6898,0.9630694,-0.00839374,-0.262796,6
11.18,-22.46262,1.404117,-40.40188,-0.1742763296848086,0.0724974388641466,-0.2247110253498672,9.769384,213.7841,183.2921,0.9536963,-0.00265383,-0.2870541,6
11.2,-22.53907,1.566806,-40.50382,-0.1429065179463844,0.0628325791457354,-0.1887860213702596,13.33836,216.9733,184.1021,0.9426945,0.003087565,-0.3107945,6
11.22,-22.25526,1.208647,-40.25741,-0.077956269637704,-0.0002120511311142,-0.1156490114956634,13.43242,208.8324,183.5941,0.9623064,-0.001061389,-0.243582,6
11.24,-22.32298,1.382697,-40.36575,-0.0390698555822197,-0.0145430441104816,-0.0694239149711748,17.00607,211.9931,184.1265,0.9515626,0.006492971,-0.2672566,6
11.26,-22.39253,1.552885,-40.47008,-0.0200524170023199,0.0008217529631741,-0.0437002429465831,20.54428,215.2534,184.8794,0.9392228,0.01403126,-0.290456,6
11.28,-22.19412,1.182947,-40.26587,0.024253492457861,-0.036626456306641,0.0152356015230381,17.40212,210.1065,184.0151,0.9553614,0.005825885,-0.2514527,6
11.3,-22.25923,1.362994,-40.37282,0.0708270247396893,-0.0724685054173206,0.0743859974307001,20.94338,213.2932,184.5472,0.9434568,0.01464864,-0.2745664,6
11.32,-22.3263,1.539268,-40.47635,0.1049998098080404,-0.0838366196130929,0.1222343650772934,24.44948,216.5956,185.3081,0.9299917,0.02344114,-0.297199,6
11.34,-22.08772,1.152782,-40.24651,0.1575443263956191,-0.1213119810841345,0.1909320455249599,23.06775,208.4951,184.1738,0.9508314,0.01459414,-0.2339248,6
11.36,-22.05919,1.145206,-40.23671,0.2123569301574295,-0.1566650193291361,0.2577675214769028,24.58985,207.9093,184.1794,0.9494702,0.0167417,-0.2279308,6
11.38,-22.11709,1.335345,-40.34329,0.2444117227297466,-0.1653350061165079,0.3037214943727768,28.07493,211.0592,184.5177,0.9365532,0.0280493,-0.2503277,6
11.4,-22.17727,1.521868,-40.44742,0.2624520710250118,-0.1423173146271981,0.3276390945851188,31.53606,214.341,185.0911,0.922133,0.03930662,-0.2722958,6
11.42,-21.98515,1.128411,-40.23867,0.2998884277389271,-0.1746949463366857,0.3810613163047067,30.04155,206.1303,183.8449,0.942266,0.02699237,-0.2097425,6
11.44,-22.04022,1.323319,-40.34487,0.3207282041780073,-0.1749731011367465,0.4150383253705678,33.48911,209.2095,184.013,0.9286324,0.04015584,-0.2315487,6
11.46,-21.91404,1.118495,-40.23219,0.340293344872566,-0.1728941361014656,0.4444566398462237,37.38676,203.5182,183.1154,0.9288007,0.04008443,-0.1844453,6
11.48,-21.96648,1.316421,-40.33838,0.3748985766692945,-0.2278185271699273,0.4975486752062412,40.79976,206.4834,183.0845,0.9141813,0.05525902,-0.2054835,6
11.5,-21.88855,1.115354,-40.24536,0.3775641984570503,-0.1954054024765315,0.5056566853219886,41.84529,203.9072,182.4679,0.9151899,0.05426769,-0.185894,6
11.52,-21.9405,1.314586,-40.35007,0.3829044060928859,-0.1892952270386581,0.5196944877315532,45.22252,206.848,182.4129,0.899594,0.07033263,-0.2063889,6
11.54,-21.84747,1.113496,-40.27688,0.3970666327096253,-0.2099855014915741,0.5411034156032075,46.37136,203.1298,180.4864,0.9008988,0.07510757,-0.1826472,6
11.56,-21.89762,1.313229,-40.38099,0.3883726627986319,-0.1706113276664226,0.5290283028949112,49.70978,206.0364,180.3974,0.8843776,0.09161506,-0.2029743,6
11.58,-21.95034,1.509629,-40.4836,0.3896816263620222,-0.1884041802526527,0.5286864417527832,53.04573,209.1514,180.5832,0.8665202,0.1079706,-0.2229707,6
11.6,-21.84255,1.106867,-40.37738,0.3902892839296084,-0.2062133733364398,0.5240818816394208,53.30648,202.6853,177.8532,0.8744754,0.1046272,-0.1839858,6
11.62,-21.85064,1.101972,-40.4614,0.3757040818342978,-0.1935391216165773,0.4957443811275182,59.68058,199.2164,174.2082,0.8499598,0.1261541,-0.1693814,6
11.64,-21.9063,1.294963,-40.55925,0.3584374982370266,-0.1750561901709476,0.4508554479166937,62.94294,201.5481,173.4913,0.8309739,0.1450015,-0.188296,6
11.66,-21.96406,1.484826,-40.65501,0.3393931477711454,-0.1567319726264055,0.4019096609907482,66.21555,204.0726,173.0117,0.8107646,0.1636209,-0.2069088,6
11.68,-21.8966,1.11769,-40.64619,0.3176544884683161,-0.1299424241398603,0.3505886276881451,61.84383,192.8232,167.441,0.8411114,0.1502852,-0.1510785,6
11.7,-21.95819,1.30337,-40.73979,0.2946650964394433,-0.1032354433618297,0.2960023341072837,65.00136,194.3063,165.7993,0.8221333,0.1698316,-0.1701136,6
11.72,-22.02149,1.486004,-40.83065,0.2877667144253344,-0.1258842089808218,0.2561760756390967,68.17565,195.7451,164.1543,0.8019616,0.1891144,-0.1888794,6
11.74,-21.92923,1.177891,-40.84205,0.2693340918940916,-0.0908101719083529,0.2053690591864283,52.11074,195.1697,171.3291,0.8835788,0.1251299,-0.1511545,6
11.76,-21.93017,1.195189,-40.88131,0.2505716916677811,-0.0564267608088188,0.1513226362688771,48.33453,197.3616,173.303,0.896754,0.1143645,-0.1611048,6
11.78,-21.9984,1.370986,-40.97367,0.2475994549809423,-0.0703105701206479,0.1148774589127388,51.50691,199.8612,172.7276,0.8806394,0.1310471,-0.1821568,6
11.8,-22.06803,1.543691,-41.0624,0.2228346478320348,-0.0141399318689286,0.0590009720636173,54.69171,202.4946,172.3478,0.8632705,0.1475293,-0.2029256,6
11.82,-21.95484,1.238912,-40.98671,0.218661243341379,-0.0056693037952694,0.0276604616562243,32.10305,201.9144,175.4441,0.9406592,0.09001606,-0.1933109,6
11.84,-22.03203,1.407806,-41.08869,0.2312300896035193,-0.0217247042239472,0.0069856057640258,35.64099,204.7558,175.2825,0.9264027,0.1038167,-0.2162034,6
11.86,-21.92915,1.263688,-41.04143,0.2199581020392451,0.0277072357433232,-0.035012580348134,13.89424,204.8151,177.2269,0.9685611,0.04943989,-0.2160826,6
11.88,-22.00588,1.431254,-41.14397,0.2195007559048662,0.0523842341684672,-0.0648003498161351,17.40758,207.7691,177.3319,0.9584963,0.05864449,-0.2405584,6
11.9,-21.91423,1.271814,-41.09165,0.2230955377131334,0.0759257922648823,-0.0959386689592793,2.406401,206.9921,178.0122,0.9719403,0.02176297,-0.2336462,6
11.92,-21.99151,1.437968,-41.19591,0.251578681287337,0.0505989256833051,-0.1016942390908193,5.95197,209.9313,178.2779,0.9644675,0.02790429,-0.2586162,6
11.94,-21.8889,1.28513,-41.17931,0.2648826558881079,0.071530154985563,-0.1278908130600413,353.3179,207.9643,178.7892,0.9688163,-0.003844809,-0.2405979,6
11.96,-21.88206,1.291069,-41.21608,0.2835292190024536,0.0906500919364267,-0.1553779684003426,352.2354,208.0481,179.1642,0.9680619,-0.00934728,-0.2412874,6
11.98,-21.95746,1.452495,-41.3248,0.3264840039155317,0.05863916046064,-0.154099477330238,355.8135,210.9045,179.6893,0.9632326,-0.007120313,-0.2661608,6
12.0,-22.03429,1.60993,-41.42841,0.3365057025445512,0.0939077338342543,-0.1806244290829699,359.36,213.7831,180.3903,0.9568306,-0.004881805,-0.2905731,6
12.02,-21.79078,1.269933,-41.25931,0.3622396408727248,0.100316397915969,-0.1799885128357132,354.0796,206.1611,180.0354,0.9727495,-0.01198824,-0.226034,6
12.04,-21.86065,1.433083,-41.36725,0.3937012204972596,0.1061786042108421,-0.1799335838704987,357.5819,209.0263,180.5448,0.9678385,-0.00988929,-0.250641,6
12.06,-21.77498,1.254376,-41.29703,0.4012459015787564,0.1578408326267164,-0.2018850905574636,357.4369,207.0519,181.213,0.9719111,-0.01551969,-0.2340441,6
12.08,-21.84516,1.418206,-41.40508,0.4388557650779314,0.1352824842447616,-0.1781455952487203,0.9855099,209.941,181.7488,0.9659446,-0.0125209,-0.2581555,6
12.1,-21.91685,1.578229,-41.50837,0.4828493134904446,0.1117741365224961,-0.1552355046965017,4.501818,212.8689,182.4644,0.9584212,-0.009500213,-0.2818248,6
12.12,-21.66248,1.237763,-41.30267,0.5192727759395188,0.1115530281181106,-0.1271920378712483,6.14783,205.1952,182.6237,0.9745342,-0.01061878,-0.2165331,6
12.14,-21.72759,1.404669,-41.41502,0.5423392787633841,0.1377546824640123,-0.1156073414233054,9.749966,208.1559,183.1501,0.9666599,-0.005901208,-0.2400045,6
12.16,-21.79446,1.567655,-41.52291,0.5708830323391818,0.1624821517272174,-0.104236791175782,13.31901,211.1856,183.8733,0.9572048,-0.001177028,-0.2630575,6
12.18,-21.6033,1.217426,-41.32372,0.6012050556894422,0.1585839462013528,-0.0673072615580538,11.86582,206.5653,183.4202,0.968313,-0.005150581,-0.2254204,6
12.2,-21.66678,1.389582,-41.43442,0.6372891663849054,0.1560704519621503,-0.0322717617202537,15.43244,209.5704,183.9537,0.9587461,0.001192607,-0.2482569,6
12.22,-21.52017,1.190904,-41.29995,0.7013187338190949,0.0993770612924157,0.0499538997379591,16.05489,206.5504,183.8485,0.9642749,-0.0003114883,-0.2226869,6
12.24,-21.49765,1.183208,-41.30058,0.7198413910534041,0.1209574115890097,0.0779122718172926,17.36201,206.5221,183.9895,0.9628068,0.001109887,-0.2215091,6
12.26,-21.55544,1.363572,-41.40999,0.7431543459925378,0.1419947071518052,0.1036830147968386,20.87038,209.5547,184.4841,0.9520113,0.008960698,-0.2438014,6
12.28,-21.44623,1.168122,-41.29348,0.7898161412411602,0.0804804505005531,0.1801495874963379,20.11654,205.7745,184.1675,0.9606104,0.004026961,-0.2132698,6
12.3,-21.50134,1.35234,-41.40307,0.803269045355087,0.1001512775775498,0.2076946635345171,23.61958,208.8019,184.6039,0.949356,0.0127794,-0.235283,6
12.32,-21.38232,1.152901,-41.26381,0.8370348356976822,0.0639679010731371,0.2788313745785533,23.04822,203.8562,184.1505,0.9595503,0.006548528,-0.1953068,6
12.34,-21.31022,1.138897,-41.21696,0.8775902304718781,0.0296218439659975,0.3453293330551927,26.28884,200.8738,184.0529,0.9585463,0.007305026,-0.1683881,6
12.36,-21.3558,1.330886,-41.32835,0.879633761209873,0.0777974300568737,0.3589073767533044,29.76514,203.8344,184.275,0.9469444,0.01773007,-0.1900593,6
12.38,-21.26024,1.128509,-41.22015,0.8857277809488102,0.0705527146373028,0.3967941520099014,30.02363,199.6077,183.817,0.9527083,0.01238257,-0.155873,6
12.4,-21.30337,1.323527,-41.33106,0.8961377031517554,0.0655245351203217,0.4288902685319646,33.46512,202.5251,183.9443,0.9405959,0.02387417,-0.1772082,6
12.42,-21.20968,1.121607,-41.21442,0.9211188180536576,0.0032860755233613,0.4944016457690203,34.69623,197.7049,183.3452,0.9440782,0.01833811,-0.138228,6
12.44,-21.16176,1.11702,-41.19539,0.914561395892227,0.0278463854092908,0.5080760631822416,39.60431,195.8132,182.7408,0.9327718,0.02430035,-0.1213622,6
12.46,-21.20002,1.315754,-41.30594,0.91179068906711,0.0521774877085555,0.5160357649205531,42.991,198.5839,182.633,0.9193545,0.03805294,-0.1418867,6
12.48,-21.13305,1.114787,-41.22548,0.8958756858020753,0.0489895025479611,0.5250903088672452,43.2611,196.375,181.8537,0.9208342,0.03760581,-0.1264649,6
12.5,-21.17025,1.314336,-41.33519,0.8831909158973299,0.0475054466323749,0.5276038132159142,46.62002,199.166,181.7897,0.9064803,0.05172486,-0.1467753,6
12.52,-21.09809,1.11353,-41.24472,0.8647450413270064,0.0467365466698499,0.5151002744554365,46.3604,195.3293,180.4694,0.9112659,0.048767,-0.1210085,6
12.54,-21.06334,1.109859,-41.26363,0.8522157841180054,0.0188409858116488,0.5027056829117633,50.65326,192.7853,178.8042,0.8977179,0.05700012,-0.1050703,6
12.56,-21.09781,1.308701,-41.37196,0.8207197173211527,0.0502536034012216,0.4586029987998223,53.95272,195.3839,178.5149,0.8823138,0.07215665,-0.1250997,6
12.58,-21.05402,1.103554,-41.36307,0.7988233734891748,0.0257481961786033,0.4228146995244506,56.49138,191.5393,176.3274,0.8744892,0.07563659,-0.1036016,6
12.6,-21.09114,1.298981,-41.46908,0.7791620509891306,0.0002334941087376,0.3824929648952517,59.76059,193.9429,175.8349,0.8578921,0.09170338,-0.1231407,6
12.62,-21.04466,1.104298,-41.46631,0.7476537808017301,0.0082282067439086,0.324645747849158,61.20882,186.3882,171.3548,0.8547833,0.0930586,-0.08613405,6
12.64,-21.01979,1.117867,-41.54829,0.7217738258730511,0.0238164151364217,0.2647499401644815,61.82431,179.7126,167.3215,0.8528499,0.09345008,-0.05458358,6
12.66,-21.05995,1.303764,-41.65247,0.6980220123707102,0.039080150676167,0.2006520615017013,64.95871,180.9098,165.5145,0.8362902,0.1105799,-0.07434295,6
12.68,-21.00825,1.144139,-41.66558,0.687821412070825,0.0047257468748498,0.1499466431585912,58.39935,178.9306,167.8964,0.8685023,0.08749925,-0.04333062,6
12.7,-21.0515,1.325584,-41.76959,0.6622671850319031,0.0498742995941991,0.0807469641958205,61.51413,180.3239,166.2629,0.8529998,0.1042057,-0.06357093,6
12.72,-20.9823,1.178018,-41.75351,0.6506660905992105,0.0477278955762992,0.0300464935205431,52.10839,181.0952,171.2251,0.8953843,0.07290942,-0.04216053,6
12.74,-20.94683,1.21126,-41.81283,0.653223053034468,0.0227637055536424,-0.0134477499643477,43.1815,183.0689,173.9022,0.9276628,0.05927838,-0.04442878,6
12.76,-20.99292,1.384251,-41.92542,0.6377965400804686,0.0666968646605304,-0.0728893274744439,46.53239,185.4324,173.2842,0.9149758,0.07243583,-0.06657073,6
12.78,-20.93539,1.23917,-41.8974,0.6269757532616342,0.0866532358259177,-0.1167493788137035,32.09505,186.0299,175.2898,0.9582944,0.05396383,-0.06184783,6
12.8,-20.98509,1.408278,-42.01577,0.621992495655459,0.1051426579263225,-0.164104100293791,35.63071,188.635,174.9509,0.9474097,0.06482675,-0.08504179,6
12.82,-20.90058,1.25721,-41.94461,0.6341946953157365,0.0736960171742972,-0.1831883045451894,20.06556,188.0365,176.5594,0.9814785,0.04169064,-0.07418849,6
12.84,-20.84601,1.268511,-41.96653,0.6383052991231226,0.0870611908704229,-0.2142253468559474,8.128802,188.7979,177.5119,0.9941943,0.02702802,-0.07802447,6
12.86,-20.89147,1.435745,-42.08682,0.6510617052605951,0.0990448288687185,-0.2470865184670998,11.64685,191.5956,177.5817,0.9893139,0.03113286,-0.1026045,6
12.88,-20.80838,1.275639,-42.03814,0.6561119118803433,0.1083336113449084,-0.2765735459819716,358.4136,190.8208,178.2316,0.9953513,0.01405591,-0.09405587,6
12.9,-20.85166,1.440982,-42.1606,0.6701557894262602,0.1158227289602689,-0.3074248806870709,1.962785,193.6019,178.5273,0.99271,0.01478683,-0.1186115,6
12.92,-20.75868,1.285044,-42.10011,0.6783300031925892,0.1228679454179514,-0.3311617055403584,353.3264,190.9454,178.7945,0.9937577,0.004903088,-0.09459514,6
12.94,-20.69355,1.293645,-42.13767,0.7060805458082449,0.1036509921977858,-0.335898654963441,352.8218,189.4523,179.3364,0.9946585,0.000602107,-0.08186942,6
12.96,-20.72998,1.454731,-42.26408,0.7175701605035743,0.1290514641410397,-0.3587958533069484,356.3844,192.1774,179.8336,0.9938679,-0.001902807,-0.1059691,6
12.98,-20.64317,1.282839,-42.18405,0.7320136913786435,0.1264673926842081,-0.3577461578176644,353.7561,189.7455,179.8415,0.9949127,-0.003249797,-0.08474175,6
13.0,-20.6778,1.444729,-42.30854,0.7565424018167786,0.1230597729673527,-0.3561471795303497,357.2705,192.4689,180.3881,0.9937894,-0.005952488,-0.1086462,6
13.02,-20.53516,1.254476,-42.15711,0.7978101819357422,0.0686762033711019,-0.3176729520390671,357.4356,186.7975,181.1492,0.9979278,-0.01133475,-0.05949041,6
13.04,-20.56439,1.418321,-42.28277,0.8114824643552914,0.0614922090721845,-0.2964385504720903,0.9991852,189.5518,181.618,0.9964011,-0.01334343,-0.08312435,6
13.06,-20.5965,1.578328,-42.40455,0.8350341993117718,0.0538563131296501,-0.275614079675516,4.534927,192.3407,182.259,0.9933192,-0.01533134,-0.1066045,6
13.08,-20.45631,1.240277,-42.21548,0.8494701180607032,0.0461321433397408,-0.2450006168443437,3.99886,188.0854,182.1435,0.9967762,-0.01618752,-0.06979378,6
13.1,-20.48384,1.405923,-42.34254,0.8743296711205133,0.0384473174042624,-0.2147941393147894,7.615316,190.8944,182.7015,0.9931594,-0.01711234,-0.09313404,6
13.12,-20.33928,1.226408,-42.15903,0.917042727120564,-0.0224743692818256,-0.1348847351818793,10.3021,184.9542,183.178,0.9947559,-0.02371325,-0.04054203,6
13.14,-20.35976,1.396571,-42.28593,0.9241270737619685,-0.0095435823995953,-0.101377388730568,13.89374,187.8004,183.6509,0.9901194,-0.0233253,-0.06364097,6
13.16,-20.38322,1.56284,-42.40967,0.9410791630314316,0.0020514227605423,-0.0674137850600544,17.45654,190.7249,184.3181,0.983929,-0.02290302,-0.08661637,6
13.18,-20.25428,1.199683,-42.16493,0.9702584918723498,-0.0665963518684355,0.0202826673378941,14.7404,186.2178,183.7078,0.9899851,-0.02508268,-0.04961376,6
13.2,-20.27244,1.375915,-42.28944,0.9719065741562845,-0.0853465773193083,0.0843318232528993,18.29562,189.098,184.2051,0.9839714,-0.02350688,-0.07243558,6
13.22,-20.14361,1.175931,-42.0735,0.9874212446981812,-0.1305588204453923,0.1712489241577337,18.7119,181.4869,184.0334,0.9860777,-0.03261169,-0.007074564,6
13.24,-20.15177,1.35839,-42.19672,0.9838432635419538,-0.1194793520759383,0.2207132283837243,22.24082,184.3446,184.389,0.9800799,-0.0302407,-0.02978563,6
13.26,-20.16285,1.537146,-42.3181,0.9766004475984476,-0.1356090504541147,0.2860336684803171,25.74723,187.3029,184.949,0.9725905,-0.027828,-0.05242822,6
13.28,-20.05203,1.153081,-42.07282,0.9802937449692872,-0.1498218776191834,0.3490116281837663,23.06031,180.4665,184.0666,0.9792237,-0.03395071,0.003105707,6
13.3,-20.05725,1.3415,-42.19424,0.9676423107795866,-0.1646774879660564,0.4127042333094559,26.56773,183.2946,184.3122,0.9724013,-0.02999949,-0.01931693,6
13.32,-19.95427,1.132845,-41.98402,0.9684197174751344,-0.2060344325125971,0.494301041476894,28.00319,175.0043,183.9365,0.9684333,-0.04383156,0.05056371,6
13.34,-19.94951,1.326826,-42.10308,0.9554573718402302,-0.1889964100924215,0.5367024072559587,31.4622,177.7557,184.0007,0.9615886,-0.03889774,0.0283005,6
13.36,-19.94755,1.517285,-42.22156,0.932430554024251,-0.1977700367697679,0.5801240052695942,34.9129,180.6207,184.2713,0.9533294,-0.03392451,0.006014802,6
13.38,-19.85528,1.1216,-42.01802,0.9191292147526896,-0.2047242021748852,0.6201065543525743,34.69622,173.9191,183.3513,0.9522972,-0.04368082,0.05931307,6
13.4,-19.84813,1.318802,-42.13569,0.8899045241511265,-0.2105217923565204,0.6533752193115889,38.11747,176.6226,183.338,0.9440929,-0.03713586,0.03734821,6
13.42,-19.77671,1.115509,-41.98497,0.8726576866746782,-0.2429972851656518,0.6981809528832272,41.83078,171.3141,182.4043,0.9306545,-0.04656838,0.07818878,6
13.44,-19.76595,1.314926,-42.10058,0.8451729850348602,-0.2159005068984482,0.7061493702275108,45.20866,173.9171,182.2549,0.9213011,-0.03852883,0.05652494,6
13.46,-19.75789,1.51098,-42.21619,0.8117738198756457,-0.2155363305322105,0.7137400359188861,48.58693,176.6735,182.3276,0.9106358,-0.03044309,0.03480222,6
13.48,-19.6829,1.113488,-42.06266,0.7869179105268342,-0.2138868070418833,0.7172697920926883,46.36872,171.9128,180.4924,0.916827,-0.03170151,0.06650825,6
13.5,-19.67202,1.313261,-42.1769,0.7541556537186191,-0.2117448118886266,0.7102791238653703,49.70726,174.5297,180.3837,0.9062787,-0.02309122,0.04470536,6
13.52,-19.59172,1.106971,-42.15096,0.7385604394284919,-0.2373101998380436,0.7029043769675045,53.29225,169.8692,177.8066,0.8908978,-0.02254986,0.07035048,6
13.54,-19.55974,1.103604,-42.21826,0.7144754092806953,-0.2042366418540337,0.6628577052529465,56.46965,169.1617,176.3184,0.8780609,-0.01648155,0.06803239,6
13.56,-19.55404,1.299099,-42.33011,0.6926377726329531,-0.1956839620857711,0.61822765629715,59.73884,171.4001,175.7871,0.8655101,-0.005531561,0.0467198,6
13.58,-19.49494,1.10427,-42.34687,0.6771437255126465,-0.1874237230692943,0.5704466283371765,61.20716,164.7733,171.3741,0.8557796,-0.003098948,0.07576143,6
13.6,-19.49303,1.294884,-42.45794,0.661519397517301,-0.1726105936981037,0.519739892329441,64.41933,166.4188,170.2067,0.8424814,0.008920964,0.05450029,6
13.62,-19.42649,1.117797,-42.44999,0.6536764410343205,-0.1821048252743167,0.4793620104521974,61.82784,158.9069,167.3708,0.8486722,-0.0006946344,0.1005282,6
13.64,-19.35156,1.144094,-42.52494,0.6408472814764337,-0.1357521609958944,0.4207573084628651,58.40776,156.0723,167.8732,0.8598351,-0.01037768,0.1295143,6
13.66,-19.35081,1.325637,-42.63703,0.6386125060285854,-0.1087163942838711,0.3740523464189653,61.51239,157.3025,166.2035,0.8485361,0.001293447,0.1076593,6
13.68,-19.27794,1.178044,-42.63277,0.6450144514772509,-0.1053713518127474,0.33615902053584,52.10435,158.9851,171.2288,0.8868676,-0.01231086,0.1303337,6
13.7,-19.27899,1.355724,-42.7463,0.6465770517692775,-0.0534550408212817,0.2822706008543409,55.2429,160.8095,170.1785,0.877043,-0.002210777,0.1080148,6
13.72,-19.20878,1.2112,-42.71069,0.6565090729553753,-0.0485203366712535,0.2527184457530742,43.19664,161.7438,173.9198,0.9198177,-0.00962716,0.1280215,6
13.74,-19.14174,1.239227,-42.75322,0.6647462527555996,-0.0188384533772714,0.2194403472407229,32.10757,162.7074,175.2669,0.9509874,-0.002306506,0.1330591,6
13.76,-19.14025,1.408458,-42.88105,0.6708835797949879,0.0307796361015815,0.1777317149268862,35.63464,165.163,174.8948,0.9448909,0.00257735,0.1092878,6
13.78,-19.07551,1.257243,-42.82146,0.6867267403531603,0.0315149582345939,0.1633027965924922,20.08509,165.4474,176.5511,0.9769711,0.007317271,0.1194523,6
13.8,-19.07302,1.425192,-42.94957,0.6983740232996194,0.0768498189622449,0.1287197380581952,23.61996,168.0726,176.4638,0.9737269,0.008783001,0.09537014,6
13.82,-18.99931,1.267963,-42.86022,0.7265206106596582,0.0738985256033259,0.1303459178092501,8.192019,166.9861,177.5791,0.9909703,0.01284281,0.1115099,6
13.84,-18.91387,1.275554,-42.87871,0.7475807763563966,0.1158274362271127,0.1059296689313518,358.4374,167.0411,178.2123,0.9933752,0.01703789,0.1130336,6
13.86,-18.90359,1.440803,-43.0083,0.7648829403249211,0.1776362958680752,0.0695990230169423,2.000919,169.6919,178.4819,0.9957384,0.01162316,0.08958161,6
13.88,-18.82578,1.285003,-42.95459,0.7946420518728434,0.1678986771604595,0.0720169598420703,353.3293,167.8954,178.7996,0.9926229,0.01653336,0.1058582,6
13.9,-18.81314,1.447914,-43.08487,0.8177501365248463,0.2036171225629675,0.0524714050581396,356.9013,170.5036,179.2245,0.9961659,0.008980302,0.0829267,6
13.92,-18.73475,1.293602,-43.00273,0.8501374706323164,0.1871230897502068,0.0768204941646724,352.8202,167.1773,179.3485,0.9917402,0.01263059,0.1117991,6
13.94,-18.64907,1.282943,-42.99213,0.875092829389204,0.215929003494066,0.0780147797839667,353.7585,165.5077,179.8052,0.9905294,0.008550491,0.1260366,6
13.96,-18.62954,1.444877,-43.1197,0.8955330990015211,0.2647811182600818,0.070940507536652,357.2793,168.1048,180.3098,0.9943398,-0.0002284308,0.1035253,6
13.98,-18.57219,1.262081,-43.01048,0.9180336717315494,0.2384077741009955,0.1102294724125991,355.7238,165.5649,180.6283,0.9913965,-0.0007480895,0.1253445,6
14.0,-18.55175,1.425637,-43.13652,0.9287060208053864,0.2361135191186712,0.1421133455514622,359.245,168.1737,181.1398,0.9946153,-0.009214792,0.102948,6
14.02,-18.49325,1.250103,-43.01234,0.951034739399682,0.2088591144948844,0.1985489539895208,359.4102,164.8002,181.417,0.9911355,-0.01157596,0.1321793,6
14.04,-18.41384,1.240514,-42.97839,0.9597897288335036,0.232846233937842,0.2186532336922164,3.98673,163.1557,182.0866,0.9883606,-0.02309451,0.1469791,6
14.06,-18.38622,1.406419,-43.10487,0.969387584107316,0.206312749064508,0.2728654407495652,7.596731,165.8288,182.5789,0.9897487,-0.03045153,0.1245291,6
14.08,-18.33471,1.232288,-42.98238,0.9915023201383222,0.1792615031346621,0.3312347279924417,8.209545,163.0941,182.8949,0.9860191,-0.0354403,0.1483621,6
14.1,-18.30614,1.400993,-43.10736,0.9867474640130572,0.172848862156115,0.3815443543291064,11.79421,165.7954,183.3732,0.9862742,-0.04174987,0.1259349,6
14.12,-18.23345,1.209156,-42.88501,0.9837556182836442,0.1413654653298536,0.45597500156288,13.39021,159.87,183.4974,0.9768187,-0.05020729,0.176996,6
14.14,-18.19748,1.383729,-43.00565,0.9683495428388662,0.1614527334512968,0.4889588881868478,16.94233,162.5892,183.9037,0.976369,-0.0555833,0.1545754,6
14.16,-18.16513,1.554515,-43.12506,0.9519211832695924,0.1273286408021695,0.5624084244597167,20.47044,165.3901,184.4977,0.9744611,-0.0608777,0.1319465,6
14.18,-18.12428,1.183439,-42.87497,0.9393159367369376,0.067144225758722,0.6559231465772761,17.36438,160.0836,183.897,0.9721973,-0.05919432,0.175904,6
14.2,-18.0969,1.176079,-42.83605,0.9179184780304634,0.0860514108518733,0.6991986731590778,18.68831,158.5082,184.0159,0.9677714,-0.0642217,0.1894561,6
14.22,-18.03777,1.161071,-42.78053,0.8910780389894062,0.0502947946419939,0.7760585944452965,21.53659,155.7517,184.0477,0.9584936,-0.07313686,0.2126546,6
14.24,-17.99351,1.347829,-42.89329,0.8488824662053776,0.0427743386272328,0.8256558962657596,25.03163,158.4344,184.2572,0.9568319,-0.07613482,0.1904217,6
14.26,-17.96439,1.145651,-42.76905,0.8187551727792921,0.037174280934427,0.8771897392559591,24.56606,154.9399,184.0271,0.9516258,-0.07963987,0.2191511,6
14.28,-17.91833,1.336282,-42.87964,0.7863942005312929,-0.0251320503840283,0.9565198601607064,28.04311,157.6006,184.1761,0.9493818,-0.08170474,0.1969766,6
14.3,-17.89316,1.13273,-42.74054,0.7497366350031629,-0.0032534586128004,0.9848501383627236,27.99277,152.8558,183.9917,0.9406667,-0.08957183,0.2357515,6
14.32,-17.82783,1.124781,-42.70238,0.7085747152703472,-0.0376061324010257,1.0390916904448142,32.0465,149.8389,183.5876,0.925346,-0.1008316,0.2582897,6
14.34,-17.77373,1.321316,-42.80686,0.6597572224416637,-0.0406023452718857,1.0603674699359544,35.47171,152.4168,183.5717,0.9222983,-0.1014127,0.23617,6
14.36,-17.7372,1.118574,-42.72092,0.6223689964688528,-0.0420333708416024,1.0823507453622705,37.35709,149.3294,183.0927,0.9109819,-0.1093212,0.2587815,6
14.38,-17.68324,1.316655,-42.8245,0.5838783307261137,-0.1013137547909066,1.1240996486935124,40.75668,151.8546,183.0031,0.9067491,-0.1084682,0.2367079,6
14.4,-17.66488,1.115435,-42.72956,0.5444198968758429,-0.073832762488363,1.120211846720932,41.8231,149.1647,182.439,0.8982932,-0.114034,0.2556089,6
14.42,-17.59371,1.114344,-42.72377,0.5018343878965983,-0.1034379828047992,1.1358568889520813,44.6619,147.8267,181.2076,0.8876263,-0.1146422,0.2601434,6
14.44,-17.53728,1.314279,-42.82345,0.4615676336369381,-0.1021682614009062,1.1231638874989356,48.00518,150.3156,181.0902,0.8820161,-0.1125956,0.2377371,6
14.46,-17.4941,1.112747,-42.76581,0.4319586544637408,-0.0999975829681285,1.1106107726785757,48.04644,147.2831,179.6429,0.8767586,-0.1119282,0.2560312,6
14.48,-17.43897,1.31257,-42.86514,0.4099182688146305,-0.157009310097439,1.1114377914170603,51.36067,149.6872,179.4271,0.870433,-0.1089514,0.2335359,6
14.5,-17.39206,1.107017,-42.81842,0.3887256315611866,-0.1274943283022852,1.0738428420305883,53.27079,145.6766,177.7915,0.8564692,-0.1157985,0.2554516,6
14.52,-17.27589,1.102135,-42.89209,0.3838879287732062,-0.1538076465844282,1.0507773038948418,59.63152,141.7867,174.1413,0.8270781,-0.1206414,0.2596178,6
14.54,-17.22505,1.295382,-42.99107,0.3779123026554678,-0.1216448502362597,1.0078484704632371,62.8787,143.5767,173.2623,0.818634,-0.1151063,0.2370703,6
14.56,-17.13512,1.108872,-43.00583,0.3771658242383446,-0.0616806732360355,0.9589493432575268,62.63884,135.7351,168.0587,0.8074134,-0.1124614,0.2700186,6
14.58,-17.0868,1.297024,-43.1053,0.3883672087971288,-0.0793047911589635,0.9297181705685428,65.80136,136.7793,166.3806,0.7988108,-0.1060827,0.2471629,6
14.6,-17.00524,1.128585,-43.0894,0.3975491678268186,-0.0644319403958755,0.8973363667114578,60.97318,132.1469,166.852,0.8060718,-0.1142252,0.2941055,6
14.62,-16.95081,1.144035,-43.09806,0.4235490345182182,-0.0710064354810189,0.8765794446457296,58.41508,130.9191,167.8873,0.8109627,-0.1177691,0.3136719,6
14.64,-16.90194,1.325606,-43.19833,0.449473317123517,-0.0257204757885345,0.8403440638261026,61.51696,132.026,166.2232,0.8043855,-0.1122426,0.2907809,6
14.66,-16.76497,1.195394,-43.17929,0.4619174615950601,-0.0043508244316199,0.8117908261494504,48.33905,134.2802,173.1095,0.8487202,-0.1082498,0.331111,6
14.68,-16.70611,1.209884,-43.20753,0.4855640726867567,0.015274787130107,0.7855554693184006,43.38622,134.896,173.8215,0.8645176,-0.09531157,0.3374448,6
14.7,-16.64923,1.381266,-43.32083,0.4830046522672668,0.0347231491564875,0.7598837859308105,46.91039,136.9265,173.1021,0.8605676,-0.0945169,0.3138821,6
14.72,-16.59831,1.239083,-43.25102,0.4726861646789277,0.0296007324602192,0.748433074897406,32.12473,136.6582,175.261,0.8965015,-0.06516305,0.3439245,6
14.74,-16.50418,1.25767,-43.25258,0.4655670172987358,0.0693846705056531,0.7195964844993341,20.06018,137.5042,176.4656,0.9192865,-0.03478548,0.3516898,6
14.76,-16.44414,1.426108,-43.36473,0.4411410821295249,0.0823609405484197,0.7043412610901063,23.56254,139.9683,176.2801,0.9215884,-0.03999475,0.3286668,6
14.78,-16.38675,1.268106,-43.28941,0.4310268197038485,0.0937961462334659,0.6968265821521653,8.179022,139.76,177.5477,0.9368941,-0.004483774,0.3416,6
14.8,-16.32263,1.434918,-43.40105,0.4251612888332272,0.1483133323324314,0.6702816264001497,11.73181,142.304,177.6399,0.9419039,-0.0136218,0.3193069,6
14.82,-16.22405,1.279167,-43.27262,0.3856701995186973,0.1312297433053385,0.6786110787057273,354.5026,138.9491,178.4058,0.9351147,0.0298259,0.3508111,6
14.84,-16.15267,1.443678,-43.38129,0.3527510086846808,0.1591905187946519,0.6648096959975076,358.066,141.4535,178.693,0.9436958,0.01633485,0.3301873,6
14.86,-16.08573,1.604241,-43.48935,0.3233327524672595,0.2068974319759782,0.6444083814514672,1.612297,143.9727,179.1359,0.9508946,0.002819473,0.3091034,6
14.88,-16.00857,1.293641,-43.34952,0.2685925782785112,0.1806278518483474,0.6570029024684141,352.8224,139.675,179.3311,0.9367362,0.02704432,0.3443454,6
14.9,-15.93414,1.454741,-43.45713,0.1928780579401137,0.1745057325261927,0.6631128292805766,356.3888,142.1456,179.8072,0.9454436,0.01181132,0.3242549,6
14.92,-15.87739,1.270144,-43.28236,0.1181071045454951,0.141772551812346,0.6920114672882836,354.0747,136.5335,179.9955,0.9276758,0.01917468,0.3697926,6
14.94,-15.79946,1.433435,-43.38319,0.0515112576392668,0.1540966088039961,0.7018947477351496,357.5796,139.0113,180.4431,0.9365196,0.003773583,0.3499575,6
14.96,-15.726,1.592961,-43.48368,-0.042800826338982,0.1422479562060118,0.717499909621977,1.06004,141.5121,181.0424,0.9440167,-0.01163698,0.3296428,6
14.98,-15.71134,1.250279,-43.29881,-0.1193955089368965,0.1295916610505094,0.7448220947245723,359.386,137.0508,181.4185,0.9305198,-0.009558159,0.3659934,6
15.0,-15.67156,1.245853,-43.27039,-0.2214885848921279,0.117397295840146,0.7665370000814464,1.389988,135.9865,181.6322,0.926913,-0.01774903,0.3748105,6
15.02,-15.5928,1.237987,-43.22499,-0.3274675188792155,0.0795649129730745,0.8140334613209328,6.117571,134.549,182.5919,0.9203504,-0.04143994,0.386781,6
15.04,-15.50786,1.405155,-43.3212,-0.419362597307692,0.0912430500900428,0.8369231066532787,9.708699,137.1119,183.064,0.9262778,-0.05572143,0.3662568,6
15.06,-15.49549,1.226631,-43.20838,-0.5014649680244905,0.1270588976371043,0.8476567871029808,10.2725,134.6133,183.172,0.9175704,-0.05995699,0.3863891,6
15.08,-15.41077,1.39709,-43.30298,-0.6191227849198282,0.0845917686569288,0.8951473479808962,13.83969,137.2,183.6213,0.9224235,-0.07314255,0.3655821,6
15.1,-15.42489,1.209113,-43.16628,-0.7207663753211724,0.0927290370096922,0.9181024353228676,13.37833,134.2417,183.5412,0.913219,-0.07353875,0.3892742,6
15.12,-15.41283,1.200154,-43.11632,-0.8039771701299312,0.0995134313543242,0.9525553449199328,14.69535,132.6107,183.6295,0.9060976,-0.08012879,0.4020714,6
15.14,-15.32553,1.376911,-43.20439,-0.9288546658749584,0.0780098876247369,0.9786148757730356,18.21751,135.2091,184.0283,0.9102331,-0.09236342,0.3811046,6
15.16,-15.32467,1.176093,-43.03531,-1.0343706643623072,0.0579639324866745,1.0147072034524705,18.68777,129.994,184.0114,0.8913112,-0.09987997,0.4219522,6
15.18,-15.3,1.168675,-43.0037,-1.1207711953349018,0.036317257739246,1.0616251422480376,20.07928,128.5067,184.0092,0.8837395,-0.1067053,0.4329717,6
15.2,-15.20893,1.353474,-43.08331,-1.1901043679440029,0.0908127530911795,1.0649575665812483,23.56543,131.0755,184.2536,0.887303,-0.1175677,0.4119866,6
15.22,-15.24292,1.153384,-42.95058,-1.299558829952178,0.0628833937931714,1.0882643915527206,23.02254,126.1161,183.9938,0.8698536,-0.1208021,0.4499032,6
15.24,-15.20033,1.139296,-42.88569,-1.3918505614097465,0.0665648451193421,1.0946572804133066,26.2794,122.7822,183.8863,0.8507414,-0.1377766,0.472791,6
15.26,-15.10462,1.331843,-42.95599,-1.490024400781146,0.013794515345073,1.1268861529293188,29.74062,125.261,183.904,0.8538017,-0.1471483,0.4518359,6
15.28,-15.11394,1.12872,-42.85233,-1.5786774845361289,-0.0082306885459623,1.1375426043540466,30.00519,120.9954,183.7447,0.8360558,-0.1548781,0.4827801,6
15.3,-15.01586,1.323998,-42.91741,-1.6481762022548498,-0.02832859076908,1.155855843730519,33.44171,123.4725,183.7668,0.8386029,-0.1638887,0.4615925,6
15.32,-15.03571,1.12173,-42.81551,-1.7089233429312258,-0.0474392798219949,1.1576017990227667,34.67559,118.6508,183.3055,0.816274,-0.1756464,0.4941722,6
15.34,-14.97065,1.1171,-42.77861,-1.7538128253118028,-0.0343902254305484,1.1444539351216276,39.58685,116.4338,182.7126,0.7953812,-0.19724,0.5022619,6
15.36,-14.87057,1.315971,-42.83685,-1.7966052264822645,-0.0780367930856014,1.1455236209023143,42.97139,118.7784,182.5407,0.7965077,-0.2042141,0.4806905,6
15.38,-14.86185,1.114864,-42.76962,-1.8199130367036152,-0.06185756756739,1.1251478020525356,43.24884,116.41,181.8244,0.7869285,-0.2067209,0.4947239,6
15.4,-14.76185,1.314552,-42.82579,-1.842677554446088,-0.1026607815552653,1.1185031767104991,46.60672,118.7683,181.69,0.7873391,-0.2131054,0.4727042,6
15.42,-14.76186,1.113604,-42.75182,-1.8435530808907847,-0.0838156815112805,1.0891118769295005,46.34577,114.9126,180.4426,0.7741476,-0.214676,0.4958202,6
15.44,-14.66087,1.109906,-42.7336,-1.8291711324161115,-0.0931143851109387,1.060393354591782,50.66079,112.0389,178.7699,0.7520255,-0.2310637,0.5013381,6
15.46,-14.56091,1.308868,-42.78531,-1.8000551371501228,-0.1016904289232008,1.0367649106508896,53.9575,114.1975,178.407,0.7515907,-0.236,0.4787384,6
15.48,-14.4852,1.103622,-42.75277,-1.7566018714923288,-0.1079617700778771,1.0035755728707318,56.48727,110.2255,176.2871,0.7310086,-0.2471137,0.4910277,6
15.5,-14.38727,1.299181,-42.8055,-1.6993662333082953,-0.114178581593408,0.9753659286624732,59.7522,112.1699,175.7025,0.7294953,-0.250761,0.4679735,6
15.52,-14.24351,1.108954,-42.76074,-1.617067218712381,-0.1134070654069529,0.9446933722577446,62.62411,100.0856,167.9982,0.6861835,-0.2634661,0.5040235,6
15.54,-14.14694,1.297234,-42.81406,-1.5317926775518238,-0.0830152469561182,0.9150645115989996,65.7758,100.9143,166.2136,0.6843699,-0.2654838,0.4805014,6
15.56,-14.05238,1.482531,-42.86892,-1.435871356693298,-0.1015692097767292,0.9009319598515084,68.9365,101.5849,164.3042,0.6816924,-0.2671758,0.4563942,6
15.58,-13.93711,1.144009,-42.79638,-1.3344192774476744,-0.0657737766069121,0.8802178293293705,58.42342,97.6313,167.8499,0.687203,-0.2500421,0.5326408,6
15.6,-13.86338,1.161451,-42.78619,-1.2222944755900105,-0.0321576236152551,0.8657190773411818,55.80719,96.66405,168.7775,0.6874176,-0.2450826,0.5505218,6
15.62,-13.71578,1.195398,-42.77143,-1.1131779277273588,-0.0184927314264359,0.8568683413252218,48.34123,99.93082,173.1038,0.7131079,-0.2208924,0.5669386,6
15.64,-13.61695,1.371585,-42.82761,-0.9918624855035244,-0.001137388296464,0.8503123027972572,51.49026,101.7161,172.2694,0.7154906,-0.2264762,0.5445805,6
15.66,-13.60096,1.227195,-42.81042,-0.8590612145140677,0.0146605702829471,0.8510521423437849,38.04376,102.69,174.614,0.7470286,-0.1686725,0.5779105,6
15.68,-13.49049,1.397072,-42.87378,-0.7289470840262033,0.0721133266950819,0.8419868103394315,41.58385,104.7513,174.0553,0.7506908,-0.1780193,0.5553784,6
15.7,-13.56841,1.250174,-42.83653,-0.6103380760666,0.0819518968456442,0.845051665654184,26.28321,104.7737,175.9246,0.7758501,-0.1112463,0.5875639,6
15.72,-13.60151,1.257785,-42.82488,-0.4825742642771,0.0907499413559777,0.8588277214436602,20.06393,104.4659,176.4742,0.7813348,-0.08269052,0.598567,6
15.74,-13.49044,1.426414,-42.88469,-0.3458267154502445,0.1420746307923692,0.8567468531626474,23.54816,106.8098,176.2913,0.7895008,-0.09615064,0.5780061,6
15.76,-13.52363,1.272063,-42.80963,-0.2076060278760678,0.2111641807525063,0.848856643239305,2.429958,106.115,177.9194,0.7991592,0.001765458,0.6004714,6
15.78,-13.40745,1.438524,-42.86435,-0.0807680433922923,0.1854807557566669,0.8803203698518374,5.973487,108.5326,178.0629,0.8110362,-0.01672296,0.5824272,6
15.8,-13.29508,1.601101,-42.92075,0.0534972986187669,0.2057050289549738,0.8958623129667478,9.506769,110.9772,178.3587,0.8217675,-0.03518391,0.5635861,6
15.82,-13.51286,1.291387,-42.7947,0.188102564685054,0.1784577350079888,0.9389612108062576,352.2368,104.5798,179.0454,0.7889288,0.04798027,0.6106883,6
15.84,-13.39062,1.453227,-42.84145,0.3123471796091381,0.1717485232815616,0.9626070242739956,355.8151,106.9401,179.426,0.8028911,0.02575538,0.5949857,6
15.86,-13.27246,1.611073,-42.89019,0.4400218339963202,0.1637191190561591,0.9977964004360116,359.3737,109.3155,179.9524,0.8156976,0.003500152,0.5784526,6
15.88,-13.43233,1.28295,-42.78083,0.570632937368222,0.1516005426068513,1.0452422712367166,353.7634,104.7643,179.8069,0.7908698,0.03453678,0.6095599,6
15.9,-13.50557,1.270184,-42.75775,0.673080923457521,0.1315509692885825,1.0805847235287604,354.0621,103.5981,180.0365,0.7848024,0.03178056,0.6175782,6
15.92,-13.49909,1.254566,-42.71838,0.7778514981734592,0.1110834683980007,1.128517067876861,357.4232,102.0261,181.1535,0.7771959,0.006323059,0.6287768,6
15.94,-13.37695,1.418542,-42.75532,0.8864305005625628,0.1387066992533549,1.1475069451626745,0.9796157,104.4077,181.6039,0.7900168,-0.01629758,0.6128662,6
15.96,-13.49519,1.245669,-42.69072,0.9690237698837636,0.0915218738319192,1.1953160878701905,1.412415,102.3011,181.6473,0.7785463,-0.01892464,0.6273016,6
15.98,-13.37047,1.41005,-42.7261,1.0390962851307193,0.0191443146025517,1.2582499649243672,5.041729,104.7129,182.1552,0.7904144,-0.04173485,0.6107033,6
16.0,-13.50887,1.237597,-42.6432,1.119895973037814,0.0201368189072365,1.2920545124264835,6.14805,101.5578,182.627,0.7726167,-0.05163256,0.6321911,6
16.02,-13.54465,1.226349,-42.5766,1.1857920406571516,-0.0057613012874223,1.328450746852952,10.30413,99.82306,183.1741,0.7600664,-0.07890857,0.6430247,6
16.04,-13.41993,1.396423,-42.60523,1.252989484559136,-0.0045079241507365,1.3553702260652578,13.91196,102.2929,183.6211,0.7702338,-0.1003599,0.6253834,6
16.06,-13.29831,1.5626,-42.63618,1.3195067650707362,-0.0043100702991037,1.3935142363543631,17.49623,104.8337,184.2384,0.7792841,-0.1216623,0.6068614,6
16.08,-13.54634,1.19968,-42.4916,1.3950936338661248,0.0432835086475973,1.4122561151110622,14.73957,100.1544,183.7133,0.7575081,-0.106918,0.6393064,6
16.1,-13.42357,1.375855,-42.51603,1.4235301527607287,-0.0145753579072477,1.4521092631899857,18.30656,102.6599,184.1935,0.7666628,-0.1275315,0.6210092,6
16.12,-13.30332,1.548255,-42.54274,1.466728195608976,-0.0180707519926316,1.4703613879455857,21.84854,105.2526,184.8519,0.7747237,-0.1479606,0.6018521,6
16.14,-13.55835,1.168205,-42.35154,1.497399432549907,-0.0487188448144788,1.4855092970825456,20.12999,97.5451,184.121,0.7359046,-0.1417298,0.6532134,6
16.16,-13.43746,1.352458,-42.36931,1.5157205569239094,-0.1046409086370819,1.5120623498749772,23.66242,100.0397,184.477,0.7442706,-0.1609291,0.6345289,6
16.18,-13.31832,1.53306,-42.38941,1.5470460522089975,-0.1027057515291378,1.5125195409396426,27.17567,102.6304,185.0156,0.7515962,-0.179902,0.6149838,6
16.2,-13.20125,1.710123,-42.41173,1.5876895293493964,-0.0723069232396851,1.5058860532047689,30.66129,105.346,185.7567,0.757874,-0.1986233,0.5946062,6
16.22,-13.49933,1.138942,-42.19514,1.5942497919433027,-0.1259218785101988,1.5111393129682282,26.28284,94.60695,184.0517,0.7098114,-0.179377,0.6658507,6
16.24,-13.38063,1.330969,-42.20702,1.6194077522567512,-0.1207166551609074,1.4957690123744634,29.77041,97.04658,184.2374,0.717298,-0.1967908,0.6467677,6
16.26,-13.43549,1.124784,-42.09309,1.6519551168161668,-0.0850077170769214,1.4686379391871984,32.05925,90.17651,183.5863,0.6742263,-0.2161586,0.6843532,6
16.28,-13.40363,1.121771,-42.06392,1.659732250640331,-0.1347194693772238,1.4542657206974958,34.66473,88.87544,183.2922,0.6619563,-0.231825,0.687301,6
16.3,-13.28744,1.319222,-42.06865,1.6709627665531446,-0.1526227215242557,1.4211548653515278,38.06938,91.1571,183.185,0.6685539,-0.2469509,0.6678774,6
16.32,-13.26269,1.115487,-41.98781,1.6815293862362286,-0.1682956892493552,1.3962407808534127,41.82425,87.59645,182.4184,0.6409496,-0.2712156,0.6793003,6
16.34,-13.14761,1.314934,-41.9897,1.7083495338420636,-0.1259809478380351,1.3548827852594902,45.2039,89.82276,182.2525,0.6463127,-0.2849389,0.659015,6
16.36,-13.13642,1.114307,-41.93567,1.7249333471634316,-0.1392713170805558,1.3111280202912248,44.65858,87.62617,181.2295,0.6374174,-0.2810126,0.6702769,6
16.38,-13.0225,1.31424,-41.93599,1.7398639453917149,-0.1506236463740226,1.2743106472346335,48.00416,89.87716,181.1122,0.6424458,-0.2941873,0.6494141,6
16.4,-13.02058,1.112816,-41.8843,1.766097919445877,-0.1039377633082724,1.225962442625491,48.03443,85.86178,179.6169,0.6231399,-0.2959218,0.6678558,6
16.42,-12.90767,1.312742,-41.8843,1.796179309652274,-0.144641179966331,1.1957509994366378,51.3477,87.98479,179.344,0.6277661,-0.3081038,0.6466728,6
16.44,-12.78336,1.103684,-41.80845,1.8378302282564047,-0.152967563175754,1.1549631370980924,56.45656,82.22749,176.2815,0.5906095,-0.337366,0.6533633,6
16.46,-12.67226,1.299309,-41.80939,1.8755527116412405,-0.1301468024017903,1.1082079624373318,59.72604,84.02342,175.6568,0.5940162,-0.3477056,0.6312597,6
16.48,-12.57367,1.104315,-41.75441,1.908690952906811,-0.1085873170414883,1.0657294824362404,61.19444,77.30305,171.3453,0.566081,-0.3558086,0.6463194,6
16.5,-12.46361,1.295064,-41.75748,1.93898152930883,-0.1075342101888275,1.0249007605006657,64.3999,78.49459,170.075,0.5690514,-0.3648129,0.6236916,6
16.52,-12.27839,1.128602,-41.66582,1.9639599059014547,-0.1062645785711836,0.9883463566307888,60.97106,69.53191,166.8033,0.5360303,-0.3575315,0.6699926,6
16.54,-12.16791,1.312396,-41.67004,1.9758849790198416,-0.0506020260509388,0.9418537364949816,64.0703,70.10083,164.8335,0.5398926,-0.3661973,0.6477153,6
16.56,-12.06481,1.161364,-41.60513,1.9858087540929488,-0.0648271098100273,0.9167589366094636,55.81581,70.08334,168.8253,0.5422962,-0.3319882,0.6939139,6
16.58,-11.95325,1.34079,-41.61079,1.9845736512851195,-0.1034171901772892,0.8984424039282883,58.9194,71.1246,167.3164,0.5474836,-0.3416966,0.6723726,6
16.6,-11.84342,1.517211,-41.61876,1.973985899877176,-0.0674055537766403,0.8671065276221528,62.03588,72.09436,165.7765,0.5520087,-0.3510011,0.6500449,6
16.62,-11.79177,1.211543,-41.51669,1.958302967249236,-0.0514367322228691,0.8393171079034705,43.16158,75.41081,173.9675,0.5832527,-0.2606719,0.722849,6
16.64,-11.6595,1.239141,-41.45909,1.9269976515091936,-0.0146898585920449,0.8064558686099499,32.14027,76.36495,175.2923,0.6024476,-0.1930081,0.7476649,6
16.66,-11.53316,1.408425,-41.46232,1.885790822630983,0.0192454728622905,0.7789241140067249,35.66243,78.46268,174.9237,0.6119851,-0.2102977,0.7280892,6
16.68,-11.40937,1.573902,-41.46835,1.828237863137406,0.0278527370153192,0.7523058351028595,39.19384,80.63108,174.7054,0.6206812,-0.2273158,0.7075365,6
16.7,-11.42138,1.263146,-41.37066,1.748163038978799,0.0129798269658899,0.7343647365955013,14.02208,80.00739,177.1793,0.6401384,-0.07776665,0.7581139,6
16.72,-11.29288,1.43015,-41.37125,1.6848916961963156,0.0435501969383528,0.7096421478317776,17.60149,82.31043,177.2032,0.6529707,-0.09929129,0.7413861,6
16.74,-11.16706,1.593245,-41.3748,1.626557333062664,0.0511811084589744,0.6930136891549354,21.17598,84.66408,177.382,0.6648906,-0.1206772,0.7236518,6
16.76,-11.04428,1.752636,-41.38123,1.5580169380751316,0.0576200064321511,0.6841015669318455,24.73932,87.09058,177.7268,0.6758826,-0.141893,0.7049372,6
16.78,-11.04196,1.285248,-41.18829,1.499600352413119,0.1078940677332011,0.6631158801278465,353.3302,82.06535,178.7066,0.6548406,0.05127556,0.7534412,6
16.8,-10.91212,1.44849,-41.18512,1.4288319676934191,0.1533661840482035,0.6488234968632476,356.9005,84.326,179.0199,0.6708007,0.02578472,0.7410954,6
16.82,-10.82045,1.295962,-41.07053,1.317087167028307,0.1021052313681258,0.6533577187034698,353.4491,81.33426,179.526,0.650414,0.0460292,0.7574169,6
16.84,-10.76504,1.283272,-41.03637,1.243312598537755,0.1183291177487667,0.6398282418266197,353.7322,81.60376,179.8061,0.6523975,0.04248709,0.7559012,6
16.86,-10.63813,1.445506,-41.02731,1.1405301481339332,0.0829042058686586,0.639879958877235,357.2322,83.84613,180.2898,0.6679808,0.01628034,0.7437826,6
16.88,-10.51397,1.603961,-41.02151,1.015182505631226,0.0227947452081421,0.648926643100241,0.7094291,86.11321,180.9092,0.6826502,-0.009940395,0.7306762,6
16.9,-10.59402,1.254763,-40.93422,0.9207681920410788,0.0333502060369221,0.6434731068842163,357.3867,81.43214,181.1838,0.6522852,0.01054592,0.7575603,6
16.92,-10.46805,1.418946,-40.92386,0.8294762038188294,0.020675524748118,0.6428390052101571,0.918,83.69876,181.66,0.666997,-0.01563115,0.7448767,6
16.94,-10.34469,1.579378,-40.91666,0.7471191528652912,0.0352648622369786,0.6377595263885025,4.42659,85.99894,182.277,0.6807871,-0.04177989,0.7311935,6
16.96,-10.4053,1.237748,-40.78505,0.6347140659259735,0.0001980573269041,0.6406736804538173,6.133145,80.17326,182.6161,0.6419214,-0.05559637,0.7645636,6
16.98,-10.38088,1.232424,-40.75122,0.5500713479419951,0.0152730150511168,0.6360462582598316,8.187612,79.57106,182.8789,0.6367035,-0.07087558,0.7673903,6
17.0,-10.25489,1.401264,-40.73501,0.4317538667649652,-0.0205973451716558,0.6381893780543972,11.76826,81.91216,183.3201,0.6495103,-0.09627865,0.7528647,6
17.02,-10.28156,1.208993,-40.65123,0.3336987646527973,-0.0327229887754232,0.6342959395957397,13.39212,78.97942,183.5511,0.6285103,-0.1095134,0.7684041,6
17.04,-10.15796,1.383372,-40.63111,0.2541252040985431,-0.0159335720553383,0.6232618333295923,16.95483,81.35478,183.9914,0.6403933,-0.1341843,0.7529967,6
17.06,-10.03602,1.553978,-40.61396,0.1692946401740754,0.0006244256633368,0.6188093229728819,20.49547,83.80738,184.5978,0.651386,-0.1586656,0.7365726,6
17.08,-9.916091,1.720973,-40.59976,0.0458852239611742,-0.0631950180457415,0.6221960114418481,24.00684,86.36134,185.3855,0.6614754,-0.1829298,0.7191542,6
17.1,-10.11575,1.175754,-40.51447,-0.0269637415179286,-0.0471218688119151,0.6081524920128301,18.71067,78.03499,184.1082,0.616258,-0.148483,0.7697953,6
17.12,-9.995786,1.358031,-40.48982,-0.1025946793404622,-0.0309656429665997,0.6008236868878676,22.24677,80.42702,184.511,0.62722,-0.1721424,0.7536198,6
17.14,-10.04118,1.153106,-40.41974,-0.2127320602687397,-0.0984903250178998,0.6047099955643818,23.04393,74.56006,184.0898,0.5874559,-0.1800095,0.7834709,6
17.16,-10.01403,1.14552,-40.38942,-0.2808651374542508,-0.1101342232455307,0.5835955880071158,24.57144,73.71076,184.0908,0.5796108,-0.1910708,0.7858847,6
17.18,-9.898685,1.335956,-40.35844,-0.3488596000929981,-0.1189228247784433,0.5692262652953062,28.06634,76.04099,184.2846,0.5900022,-0.2132307,0.7693284,6
17.2,-9.783614,1.52287,-40.3299,-0.4380826663173959,-0.1835176631314967,0.560134898705706,31.54944,78.46588,184.6524,0.5996061,-0.2351052,0.7517735,6
17.22,-9.903233,1.128655,-40.2847,-0.527167086981053,-0.2469592092849711,0.5598911590262219,30.01044,70.5081,183.7737,0.5502581,-0.2296657,0.7932493,6
17.24,-9.791079,1.323858,-40.24964,-0.5670075375880957,-0.2569647721770699,0.5354168061083406,33.46135,72.76461,183.8097,0.5600429,-0.2505145,0.776247,6
17.26,-9.678769,1.515631,-40.21688,-0.6124871166139769,-0.2926623879409311,0.5154231117075279,36.90723,75.11935,184.017,0.5690931,-0.2710366,0.7582583,6
17.28,-9.734797,1.117054,-40.15139,-0.6297712686728317,-0.2675779365203456,0.4834546124589343,39.60133,66.93766,182.7354,0.5119854,-0.2948838,0.7891018,6
17.3,-9.706709,1.11552,-40.1278,-0.6309553566990213,-0.2125591959541115,0.4513139403677471,41.8117,66.2511,182.4059,0.5041137,-0.3094906,0.7862639,6
17.32,-9.599178,1.315025,-40.08825,-0.648939338506688,-0.2432366660140831,0.4224991368428057,45.18486,68.34854,182.2155,0.5123651,-0.3278059,0.7678734,6
17.34,-9.491101,1.511256,-40.0508,-0.6494331038455434,-0.2132512306630087,0.386752980559562,48.55987,70.563,182.1992,0.5199656,-0.3457108,0.748539,6
17.36,-9.481627,1.112821,-39.97778,-0.6457428526959299,-0.183469317263216,0.3558652284491259,48.05365,64.3503,179.6148,0.4875256,-0.342997,0.7723527,6
17.38,-9.376363,1.312739,-39.93636,-0.6263435328096469,-0.1825761863738847,0.3294657255633764,51.38371,66.35667,179.3325,0.4952507,-0.3599741,0.7528326,6
17.4,-9.270486,1.509465,-39.89698,-0.6070158049483652,-0.2081293980914014,0.3081155083029019,54.7172,68.49376,179.2292,0.5023578,-0.3765097,0.732405,6
17.42,-9.120248,1.102013,-39.77564,-0.5673231957102877,-0.174132289414228,0.2834236824669478,59.63692,60.83344,174.2161,0.4603315,-0.4061067,0.7345389,6
17.44,-9.013036,1.104173,-39.71902,-0.5139880646814944,-0.1931466622392887,0.2759787506522162,61.20602,58.36221,171.4344,0.4516818,-0.4118937,0.7308409,6
17.46,-8.908681,1.2948,-39.68464,-0.4593762521010426,-0.1526245163924929,0.2608428401451368,64.42361,59.52594,170.2554,0.4577917,-0.4253885,0.7093444,6
17.48,-8.804461,1.482452,-39.65248,-0.404234349475618,-0.1619438285921329,0.2549189610638871,67.65047,60.67048,169.0891,0.4633486,-0.4383805,0.6870219,6
17.5,-8.70817,1.128468,-39.55449,-0.3448630853075137,-0.1145706577513455,0.2440701957190585,60.98537,52.41685,166.8832,0.4300644,-0.4088167,0.7424515,6
17.52,-8.602207,1.312156,-39.52431,-0.2899437657056747,-0.1147511529567765,0.2415408768248745,64.09758,52.94784,164.9959,0.4366324,-0.4215983,0.7213363,6
17.54,-8.496901,1.492888,-39.49657,-0.2442164512552083,-0.0633073724279513,0.2287031815761482,67.21545,53.2801,162.9422,0.4426801,-0.4338897,0.6993929,6
17.56,-8.355211,1.195084,-39.35076,-0.1950656519091651,-0.0559911006237287,0.2288695997028158,48.37474,57.75011,173.2107,0.4609792,-0.33207,0.7856827,6
17.58,-8.272871,1.209563,-39.30854,-0.1434003434308632,-0.0008747020906717,0.2227090379013807,43.42886,59.08485,173.9432,0.474445,-0.2972296,0.7974895,6
17.6,-8.151953,1.380813,-39.27626,-0.1029918662039477,0.0071535957419676,0.2213111191260228,46.95985,60.8499,173.3338,0.4836677,-0.3159752,0.7778265,6
17.62,-8.037555,1.249771,-39.19081,-0.0611655870026531,0.0131065639399877,0.2248802553086264,26.31285,63.86347,176.0517,0.5213745,-0.1753117,0.8217655,6
17.64,-7.914781,1.417952,-39.15998,-0.017148978345794,0.0411984147584227,0.224621706895209,29.86191,65.98872,175.9075,0.5335514,-0.1971758,0.8048797,6
17.66,-7.793774,1.582309,-39.13244,0.016701261618223,0.0672003460195114,0.2199472548697771,33.4138,68.18394,175.9154,0.5450053,-0.2187864,0.7869352,6
17.68,-7.799869,1.267773,-39.06451,0.0487683191806258,0.0925517173930848,0.2193065246059742,8.243213,69.04168,177.6259,0.5663459,-0.04749537,0.8207693,6
17.7,-7.755814,1.271672,-39.02647,0.0782891489049315,0.1143775532319521,0.2231644118224496,2.484099,69.65219,177.9909,0.5711776,-0.007781053,0.8203533,6
