t,pX,pY,pZ,aX,aY,aZ,reX,reY,reZ,rtX,rtY,rtZ,ID
6.72,-41.14962,1.127193,-35.89025,3.671975750695058,-0.1842121677332783,0.1506481976076257,12.40523,357.2039,159.3254,-0.004479186,-0.1106117,0.9781916,17
6.74,-41.00579,1.345461,-35.94978,3.7055602936153607,-0.1793805258597814,0.1278454461731604,10.42534,358.2337,155.3821,0.004369674,-0.0920259,0.9731548,17
6.76,-40.86281,1.558637,-36.01492,3.735270438244898,-0.1955226391573487,0.1035875235219556,8.391103,359.3586,151.4014,0.01266014,-0.0722718,0.9665082,17
6.78,-40.85668,1.15691,-36.01176,3.761359642253821,-0.1864965742436054,0.0761436566338344,14.48962,9.666972,163.3667,0.1008845,-0.1122488,0.9765564,17
6.8,-40.8403,1.358316,-36.00627,3.783332197304872,-0.1542229936588182,0.0455942204794572,14.35754,12.17597,163.1667,0.122279,-0.1075208,0.9740002,17
6.82,-40.82352,1.559721,-36.0014,3.791137613197672,-0.1670339017627645,0.0158397310385414,14.23487,14.68062,162.9577,0.1435873,-0.1027463,0.9709527,17
6.84,-40.66091,1.169726,-35.91143,3.79646234898365,-0.1555752293107108,-0.017444705628991,17.54651,24.11269,166.6131,0.2224084,-0.1240827,0.9561995,17
6.86,-40.58836,1.174717,-35.87853,3.798726514006658,-0.1217885136317193,-0.0541380759940297,16.78086,27.83415,167.433,0.2520153,-0.114741,0.9506461,17
6.88,-40.54756,1.369993,-35.84905,3.7906874311149066,-0.1340397033423516,-0.0858727737356499,17.9383,29.46975,167.0517,0.2666351,-0.1214859,0.9447249,17
6.9,-40.50593,1.56466,-35.82041,3.780156104709828,-0.1223109238681744,-0.1210994720194271,19.12712,31.06936,166.6732,0.2808896,-0.128346,0.9384975,17
6.92,-40.35617,1.195386,-35.79576,3.768132608813703,-0.1330493138979258,-0.1533090490593673,9.476551,41.02412,170.8174,0.3542795,-0.04916549,0.9280855,17
6.94,-40.298,1.383826,-35.75554,3.7502449708208863,-0.1424789180519456,-0.1856138217982037,11.38108,42.41523,170.5953,0.3663323,-0.06261943,0.9216186,17
6.96,-40.23864,1.571163,-35.71727,3.729921204863469,-0.1286362388953953,-0.2210393495023304,13.29404,43.8173,170.3797,0.3783198,-0.07593641,0.9146763,17
6.98,-40.17924,1.757318,-35.68028,3.6958956932317335,-0.1378613325069839,-0.2515257793560188,15.21189,45.21264,170.2041,0.3900566,-0.08921221,0.9073603,17
7.0,-39.83835,1.247398,-35.70804,3.659763001150448,-0.1238880663625515,-0.2849807473542718,358.5426,59.93536,176.8208,0.4989733,0.0248691,0.8660803,17
7.02,-39.71652,1.261958,-35.69117,3.610679090760523,-0.1382917475644823,-0.311704029048526,357.216,62.21966,178.4115,0.5161899,0.02795633,0.8560176,17
7.04,-39.57617,1.411448,-35.61314,3.559575245938559,-0.1286961540816611,-0.3414104708520122,1.789108,63.65572,179.0255,0.5273985,-0.00878009,0.8494322,17
7.06,-39.49213,1.259647,-35.70874,3.491448202508898,-0.1444449866462445,-0.366245623984696,355.9451,69.70899,180.8502,0.5713364,0.02479354,0.8199199,17
7.08,-39.37158,1.420637,-35.65771,3.4223638500416724,-0.1359450728341883,-0.3942186471579472,359.6544,71.12238,181.4979,0.581552,-0.005148871,0.813399,17
7.1,-39.34942,1.249805,-35.71785,3.3328170572698825,-0.152387422180489,-0.4149541730235171,359.448,74.163,181.5418,0.6029406,-0.004269768,0.7976581,17
7.12,-39.31226,1.245441,-35.72593,3.243880896663504,-0.1442830152520746,-0.4373312819508399,1.430195,75.55589,181.796,0.6123254,-0.01946335,0.7903523,17
7.14,-39.19104,1.40984,-35.68974,3.139008759821002,-0.1617638152167104,-0.450551098221422,5.037016,77.02316,182.3869,0.6212203,-0.04733325,0.782127,17
7.16,-39.15578,1.231627,-35.73572,3.035505563413409,-0.1538771582757445,-0.4652413176717287,8.241815,80.57661,183.151,0.6432115,-0.07252803,0.7618183,17
7.18,-39.11374,1.225905,-35.73853,2.910297218192805,-0.172469263974037,-0.4735704555541256,10.30351,81.90233,183.4574,0.650425,-0.08747956,0.7536507,17
7.2,-38.99268,1.395976,-35.7125,2.78764763798635,-0.1648704632887144,-0.4839902602415815,13.84853,83.47095,184.1216,0.6571748,-0.1136685,0.7431904,17
7.22,-38.97468,1.199016,-35.74023,2.6483996792098337,-0.1853609070503952,-0.48416915077489,14.69479,86.64482,184.0468,0.6767604,-0.1170045,0.7241791,17
7.24,-38.85571,1.375136,-35.71996,2.5126267823884483,-0.1784413263144809,-0.4871781449924022,18.17164,88.28536,184.8022,0.682358,-0.1420318,0.7125894,17
7.26,-38.86428,1.182437,-35.73277,2.359718539822338,-0.1988455271286239,-0.4819243797529138,17.31389,89.1444,184.3594,0.689232,-0.1335348,0.7077591,17
7.28,-38.74694,1.362535,-35.71608,2.211577629214986,-0.1910782619098123,-0.4792407398869436,20.74433,90.82165,185.1362,0.6941547,-0.1576533,0.6955985,17
7.3,-38.77699,1.167312,-35.72301,2.0681282231664424,-0.157198266371708,-0.4790530249418525,20.04667,90.11719,184.5647,0.6915768,-0.1506066,0.6999562,17
7.32,-38.66112,1.351246,-35.70823,1.895410404554149,-0.1793715085959889,-0.4649219647770017,23.44911,91.81606,185.3143,0.6959277,-0.1738436,0.6873283,17
7.34,-38.66024,1.144137,-35.70346,1.71717613938005,-0.2009858341633266,-0.4461627867461031,24.51827,90.60079,184.6271,0.6880007,-0.1772711,0.692883,17
7.36,-38.54629,1.333788,-35.68994,1.546670714765634,-0.1926505249328025,-0.428914733557014,27.89466,92.32652,185.3233,0.6915426,-0.1992674,0.6795346,17
7.38,-38.55612,1.131281,-35.68558,1.363945067272252,-0.2121588833643062,-0.4058707029974373,28.00141,90.63834,184.5155,0.6826746,-0.1971644,0.6885154,17
7.4,-38.442,1.324159,-35.67472,1.1903397381499057,-0.20126064682449,-0.3837531114553334,31.4036,92.34306,185.0993,0.6854708,-0.2181213,0.6746851,17
7.42,-38.46087,1.123715,-35.67421,1.014225039301362,-0.2184195454385094,-0.3557705861896583,32.09132,89.91496,183.9641,0.6718835,-0.2189607,0.6864113,17
7.44,-38.3471,1.319564,-35.66908,0.8481416534071062,-0.204758888881706,-0.3283473478635663,35.49987,91.49345,184.2624,0.6737819,-0.2379643,0.6722728,17
7.46,-38.2951,1.116667,-35.67151,0.6788233777759825,-0.2186167271783857,-0.2978047956071865,39.65091,90.09412,182.8729,0.6595268,-0.2562359,0.670458,17
7.48,-38.18255,1.315355,-35.67545,0.5206304237004353,-0.2014888805559158,-0.2675726133369656,43.03643,91.45419,182.7978,0.6596674,-0.2722382,0.6556398,17
7.5,-38.16365,1.114752,-35.67756,0.3593594813577425,-0.2118280752692199,-0.2340984372500552,43.28609,90.99987,181.8536,0.6586972,-0.2692012,0.6556655,17
7.52,-38.05236,1.314536,-35.68496,0.2104551426085992,-0.1911112856005322,-0.2008153627975559,46.64175,92.28296,181.6785,0.6580557,-0.2839666,0.640386,17
7.54,-37.958,1.112712,-35.67969,0.0742954855234971,-0.1986009507577976,-0.1628203668387549,48.10671,90.81326,179.6235,0.651209,-0.2840172,0.6401504,17
7.56,-37.848,1.31271,-35.68926,-0.0491212890494257,-0.1752464613682524,-0.1251950169251143,51.42706,91.97192,179.3023,0.6497771,-0.2975185,0.624117,17
7.58,-37.76839,1.106941,-35.68945,-0.1605560450321945,-0.1794585097575568,-0.0853005191943605,53.34221,90.64518,177.7633,0.6414557,-0.3031439,0.6219523,17
7.6,-37.66021,1.304935,-35.702,-0.2586823542365133,-0.1534194001355716,-0.046152390218169,56.62311,91.63503,177.2612,0.6390617,-0.3153552,0.6052755,17
7.62,-37.55284,1.102092,-35.70536,-0.3450242097242215,-0.1525001320237239,-0.0037394558921803,59.70488,88.61466,174.1061,0.6233343,-0.324587,0.601954,17
7.64,-37.35299,1.109017,-35.71727,-0.4172481482802936,-0.1220758733214391,0.0378161791116591,62.67914,82.24841,167.952,0.5997505,-0.330676,0.6039298,17
7.66,-37.24704,1.297277,-35.73446,-0.4646689765995875,-0.1120339774985041,0.0853804692357034,65.82713,81.96721,166.0896,0.5961943,-0.3405017,0.5859125,17
7.68,-37.14214,1.482703,-35.75276,-0.4975723066241748,-0.073705393240877,0.1317997396607433,68.96795,81.3605,163.9216,0.592066,-0.3500032,0.5673481,17
7.7,-37.00378,1.144417,-35.7461,-0.5185682340296349,-0.0552301374057569,0.1812589497165246,58.35038,81.17371,167.9698,0.6037269,-0.3086381,0.62619,17
7.72,-36.81481,1.178222,-35.76057,-0.5155040255528185,-0.0297386380559334,0.2325381724417159,52.04129,84.78751,171.3593,0.6285654,-0.2774257,0.6395012,17
7.74,-36.70768,1.355885,-35.78247,-0.4955600974078811,0.0222966184680064,0.2823818612652404,55.18067,85.31927,170.2919,0.6272479,-0.2885527,0.62287,17
7.76,-36.59666,1.211307,-35.7949,-0.4801180406379641,0.066211446015867,0.3395922770527031,43.09483,89.64011,174.053,0.6682525,-0.2261535,0.6454346,17
7.78,-36.48257,1.384187,-35.82045,-0.4783535643616909,0.0323622141766337,0.4073958141168416,46.45295,90.61797,173.4699,0.6680289,-0.2396931,0.6292676,17
7.8,-36.37066,1.553751,-35.84708,-0.470380309868907,0.0578764825652103,0.4753970000149961,49.81673,91.60768,172.9363,0.6671197,-0.2529874,0.6124706,17
7.82,-36.32879,1.249794,-35.8478,-0.4467321309448104,0.0784096751191897,0.5422538241897339,26.1726,95.68616,176.0917,0.7268199,-0.1272532,0.6476297,17
7.84,-36.20753,1.417696,-35.87921,-0.4113770203338562,0.0452746745545978,0.6119100516628189,29.75033,96.98795,175.9153,0.7293922,-0.1442211,0.6332318,17
7.86,-36.08894,1.581789,-35.9117,-0.3812277798243899,0.0919720494891234,0.6674865779048247,33.33114,98.32549,175.8281,0.7311361,-0.1610264,0.6181325,17
7.88,-36.02046,1.271752,-35.88696,-0.3441259317184153,0.1606925989569772,0.7166412395160382,2.309566,101.1158,177.9961,0.7722163,0.0007001739,0.6347997,17
7.9,-35.89875,1.437871,-35.92049,-0.3090994473452859,0.1539051976297514,0.7625277459279722,5.88238,102.5067,178.1431,0.7793123,-0.01948934,0.6243228,17
7.92,-35.76888,1.285213,-35.90999,-0.2571894342423135,0.1185450445956017,0.8018806063996307,353.3051,103.4091,178.7784,0.7830563,0.04453646,0.6191128,17
7.94,-35.66851,1.291211,-35.92084,-0.2088303696094495,0.1590007810030526,0.8350584167563229,352.2209,103.907,179.1376,0.7853599,0.0477173,0.6152661,17
7.96,-35.54439,1.452748,-35.95372,-0.1515758634620834,0.1929005870030696,0.859398976169218,355.8177,105.2418,179.5352,0.7940106,0.0253733,0.6067944,17
7.98,-35.49916,1.295967,-35.93152,-0.105291495162338,0.1467935049070818,0.8732586299815326,353.461,104.2681,179.5796,0.7880306,0.03789909,0.612978,17
8.0,-35.37599,1.456673,-35.96385,-0.0493740750365843,0.0936380855958744,0.8778553209470319,357.0186,105.6052,180.0191,0.7962903,0.0155949,0.6043553,17
8.02,-35.32899,1.261971,-35.92945,-0.0265084946464497,0.1342539285336804,0.8825148220199486,355.7585,104.6315,180.6266,0.7909616,0.01829715,0.6107214,17
8.04,-35.20884,1.425699,-35.96162,-0.0194178089930785,0.1215865402357413,0.8799909674071875,359.2885,105.9841,181.0462,0.7985377,-0.003553313,0.6018436,17
8.06,-35.19467,1.250028,-35.94011,-0.0269441764213747,0.0864262945709696,0.8625732447668186,359.4521,105.3717,181.4164,0.7952902,-0.006932056,0.6060844,17
8.08,-35.0732,1.414279,-35.97388,-0.0312334959872657,0.0969476414229585,0.8543360075651067,3.052948,106.749,181.8376,0.8019092,-0.02875495,0.5966367,17
8.1,-35.08964,1.240257,-35.93622,-0.0384852048817796,0.1055944392837844,0.8341301434607074,4.046862,105.5232,182.1094,0.7951,-0.03600775,0.6051705,17
8.12,-34.96536,1.405533,-35.95901,-0.0616349013477179,0.0879456135217096,0.823143111576436,7.663556,106.8374,182.8052,0.8000021,-0.0594266,0.5957658,17
8.14,-34.95802,1.225953,-35.90672,-0.0738181131012094,0.0959973236327549,0.8087625073252731,10.37527,104.4297,183.2339,0.7852003,-0.0775864,0.6119658,17
8.16,-34.83532,1.395702,-35.92639,-0.0879263797246077,0.1024903918430603,0.7844878182915709,13.95211,105.7742,183.9024,0.7885904,-0.1001926,0.6018713,17
8.18,-34.87599,1.208754,-35.89182,-0.1193091110874213,0.0798879227726225,0.7699807362298534,13.47905,104.1186,183.4526,0.7806687,-0.09571682,0.6131083,17
8.2,-34.75511,1.382851,-35.91492,-0.153611883169316,0.0585680568625582,0.7547026695882453,17.06541,105.3863,183.9453,0.7830354,-0.11695,0.6030824,17
8.22,-34.7701,1.183315,-35.85217,-0.1882414129412586,0.0388671606450095,0.7310811463850975,17.44371,101.4838,183.7893,0.7617583,-0.1212101,0.6290373,17
8.24,-34.65174,1.364101,-35.87809,-0.2248509685284685,0.0185724596443563,0.7132812864447811,21.024,102.6763,183.96,0.7633453,-0.140433,0.6187932,17
8.26,-34.67981,1.168477,-35.82714,-0.261102536575081,0.0002425064891307,0.6882588595875632,20.1785,98.97289,183.9189,0.744167,-0.1393291,0.6437619,17
8.28,-34.5625,1.353404,-35.84978,-0.2786632549541687,0.035575819346402,0.660880086016352,23.73208,100.1294,183.9791,0.7453501,-0.1579662,0.6332998,17
8.3,-34.44653,1.534813,-35.87333,-0.323294369693349,-0.0123710989890641,0.6351239401561459,27.28267,101.3238,184.1218,0.745739,-0.1764321,0.6221751,17
8.32,-34.57182,1.145587,-35.78205,-0.358852141918303,-0.0311058941419102,0.6096237527873241,24.61681,95.27377,183.9732,0.7164922,-0.168581,0.6634032,17
8.34,-34.54473,1.13299,-35.75121,-0.3916026382700726,-0.0474469169649236,0.577825217708245,28.04124,91.6518,183.8254,0.689836,-0.191956,0.6815041,17
8.36,-34.43029,1.327526,-35.76208,-0.4166318068065648,-0.0624103662510299,0.5465962418695103,31.50468,92.69873,183.6593,0.6900502,-0.2095302,0.6702691,17
8.38,-34.45811,1.124895,-35.72208,-0.4382545099107209,-0.0750492409894457,0.5092046189264812,32.09496,88.66902,183.498,0.6652665,-0.2181316,0.6929758,17
8.4,-34.34478,1.321928,-35.72739,-0.438509747884531,-0.0303364839913006,0.4669746035206179,35.51852,89.67548,183.2811,0.6650335,-0.2354261,0.6811955,17
8.42,-34.31503,1.117211,-35.68518,-0.4552495235183342,-0.0712356902740093,0.4239689625795977,39.64709,85.43628,182.6397,0.6322836,-0.2637886,0.6962785,17
8.44,-34.20303,1.316471,-35.68608,-0.4492928493243893,-0.0808524428973018,0.3785183444167117,43.03082,86.32952,182.289,0.6309597,-0.2801636,0.6834411,17
8.46,-34.18644,1.115013,-35.66126,-0.4389281560874947,-0.0884362043002834,0.3284041419627668,43.28179,84.63769,181.7337,0.6216034,-0.2821218,0.690969,17
8.48,-34.07569,1.315099,-35.65946,-0.4243125526082569,-0.0944338780825107,0.277829099592715,46.63437,85.52624,181.4025,0.6199129,-0.2982078,0.6774446,17
8.5,-34.06721,1.113708,-35.6327,-0.4052075184612151,-0.0987604818165565,0.2239608458341848,46.38167,83.26371,180.3648,0.609722,-0.2962764,0.687865,17
8.52,-33.95754,1.314,-35.6289,-0.3575353229150044,-0.102871595040958,0.1674613058173468,49.70284,84.10091,179.9841,0.6078066,-0.3119869,0.6737564,17
8.54,-33.8472,1.107101,-35.5905,-0.3040542535059978,-0.1338938596317803,0.108901216798718,53.33986,80.68382,177.6748,0.5852966,-0.3303038,0.6750673,17
8.56,-33.73897,1.305288,-35.58606,-0.2450974771887124,-0.1057735680766384,0.0458013259986511,56.62074,81.28063,177.0385,0.5825144,-0.3449275,0.6598478,17
8.58,-33.63848,1.102191,-35.56305,-0.1833777312564155,-0.0790856181280169,-0.0195537940364376,59.69769,77.88002,174.0415,0.5645134,-0.3582678,0.657452,17
8.6,-33.53156,1.295697,-35.56036,-0.1085734995482701,-0.0753034288582613,-0.085394080235277,62.92457,78.01653,172.9255,0.5608961,-0.371676,0.6412838,17
8.62,-33.43811,1.109147,-35.52953,-0.0316460158232905,-0.071668584305845,-0.1528075885763948,62.6567,70.93051,167.8752,0.5375679,-0.3687648,0.6599686,17
8.64,-33.33178,1.297618,-35.52641,0.0469943462140034,-0.0117680312294058,-0.2229402991632874,65.78155,70.23617,165.8681,0.5340248,-0.3813941,0.6432098,17
8.66,-33.15283,1.144514,-35.47497,0.1294283477523712,0.0035326361017477,-0.2913863193792192,58.34791,67.68487,167.8285,0.5264463,-0.3510391,0.6923413,17
8.68,-33.04538,1.326304,-35.47149,0.2092546165014441,-0.0041856404374997,-0.3582457977314162,61.42224,67.13484,165.9084,0.523981,-0.3640178,0.6763301,17
8.7,-32.95964,1.178436,-35.4387,0.2889072670891432,-0.0138361479782593,-0.4249870135434914,52.02672,70.71171,171.2256,0.5458692,-0.3168666,0.7113885,17
8.72,-32.79261,1.211531,-35.41308,0.3723120678776275,0.0063472623673441,-0.4971663322748867,43.09013,74.46209,173.9139,0.577485,-0.2621045,0.7277313,17
8.74,-32.67628,1.384688,-35.4095,0.4431944053974423,0.0472927322141583,-0.5699452406625856,46.43231,75.03432,173.1531,0.5773571,-0.2786891,0.7133068,17
8.76,-32.56172,1.554545,-35.40719,0.5122822447924622,0.085180434890766,-0.6419023872624523,49.77863,75.57542,172.3931,0.576667,-0.2950021,0.6982014,17
8.78,-32.50739,1.249841,-35.39217,0.5781422128566773,0.1649172483493847,-0.7140715587769773,26.19337,79.9861,176.0384,0.6316041,-0.1518589,0.7407153,17
8.8,-32.45566,1.257412,-35.38203,0.6261852273236874,0.1498277920308229,-0.7773087762737498,19.94798,81.25086,176.6123,0.6448762,-0.1124437,0.7438515,17
8.82,-32.33273,1.42561,-35.37886,0.6715791859085858,0.1326006229689695,-0.8384537574194706,23.46616,82.30343,176.4739,0.6487114,-0.133223,0.7327709,17
8.84,-32.23923,1.271935,-35.34868,0.7244286604619763,0.1358326988321817,-0.8966390762369167,2.312746,85.34547,177.9772,0.6778283,-0.002873589,0.7347316,17
8.86,-32.11427,1.438318,-35.34624,0.7687068012971623,0.1154993370551124,-0.9484794870055824,5.868996,86.45502,178.0888,0.6845261,-0.02588927,0.7269985,17
8.88,-31.99163,1.600907,-35.34522,0.8087130426408922,0.0928379609232114,-0.9962339886122082,9.42146,87.57975,178.271,0.6904941,-0.04887203,0.7185047,17
8.9,-31.96502,1.285231,-35.32409,0.8509241369655913,0.1355693944035082,-1.04799119631471,353.2983,89.34494,178.7976,0.7013763,0.04892803,0.7103136,17
8.92,-31.80969,1.293663,-35.32449,0.8738256678382426,0.1072390290711441,-1.0866834570313744,352.8341,91.1234,179.3626,0.7123548,0.04771721,0.6990097,17
8.94,-31.68265,1.454844,-35.32546,0.890098557548693,0.123527628804904,-1.127004446297632,356.4071,92.18188,179.7752,0.7200434,0.02315343,0.6932179,17
8.96,-31.55833,1.612124,-35.32786,0.891411745692162,0.1104002019845525,-1.1578634505304295,359.9708,93.26289,180.2527,0.7269503,-0.001427959,0.6866866,17
8.98,-31.5727,1.269524,-35.34216,0.8859895438488956,0.0967867287868601,-1.1836525782724534,354.0868,94.52733,180.1091,0.7335399,0.03430482,0.6776861,17
9.0,-31.44903,1.432643,-35.34819,0.8694358879121631,0.0796430683899803,-1.2050796852892205,357.6035,95.58743,180.5753,0.7406303,0.01033054,0.6715689,17
9.02,-31.32797,1.592054,-35.35547,0.8467640616204313,0.0622667306134269,-1.221407140707532,1.109831,96.67426,181.106,0.7469373,-0.01364759,0.6647542,17
9.04,-31.2992,1.245907,-35.36922,0.81855133143821,0.0469400092491145,-1.2337476471739963,1.401858,97.80518,181.6969,0.7533352,-0.0191984,0.6573565,17
9.06,-31.24357,1.240484,-35.37281,0.7846789576217348,0.031686283248302,-1.2408548550392409,3.994617,98.42937,182.1815,0.7561322,-0.03716683,0.6532139,17
9.08,-31.1195,1.406622,-35.38609,0.742064875539612,0.0157719153409234,-1.241388555468106,7.587038,99.56748,182.6625,0.7607418,-0.06040896,0.6452597,17
9.1,-30.99795,1.568983,-35.40043,0.694051469972861,0.0005313778091556,-1.2362844591075604,11.16806,100.7469,183.2209,0.7645162,-0.08357862,0.6366097,17
9.12,-31.06765,1.226068,-35.38093,0.645777285901119,-0.0181264562209637,-1.226207600193824,10.34973,100.0462,183.2531,0.7612278,-0.07958828,0.6415642,17
9.14,-30.94434,1.396215,-35.3983,0.5921533124243634,-0.0350908525463777,-1.2119156795682962,13.95727,101.2243,183.6892,0.7642633,-0.101753,0.6325616,17
9.16,-30.82334,1.562588,-35.41663,0.5322096781408496,-0.0538152205856929,-1.1958173538590715,17.55399,102.4511,184.2105,0.7664575,-0.1237996,0.6228747,17
9.18,-30.89746,1.190642,-35.38231,0.4676945761451994,-0.0706864548536101,-1.176051593159657,16.09841,101.6853,183.8526,0.7643698,-0.1141763,0.6285277,17
9.2,-30.87523,1.183015,-35.37787,0.422240961109237,-0.0357309001605041,-1.1603992009644086,17.40237,101.2294,183.9838,0.7602028,-0.12249,0.6309144,17
9.22,-30.75685,1.363556,-35.39673,0.3434446879924819,-0.0816990358946946,-1.1266677333002368,20.94118,102.4324,184.3524,0.7616596,-0.1428584,0.6208881,17
9.24,-30.75486,1.160447,-35.37238,0.273307438402266,-0.0992554572992574,-1.0955146516870835,21.59441,99.99108,184.2042,0.74751,-0.1479452,0.6363052,17
9.26,-30.63792,1.346912,-35.39002,0.2012384907878694,-0.1144745842376532,-1.059732460104135,25.12478,101.1781,184.4746,0.7481504,-0.167422,0.6257669,17
9.28,-30.52216,1.529928,-35.40858,0.1484948097949829,-0.0745793671031443,-1.0304980874949845,28.64803,102.4206,184.8367,0.7480068,-0.186719,0.6145848,17
9.3,-30.60005,1.138803,-35.37,0.0697064777921587,-0.1188335552289832,-0.9854718275874612,26.3145,98.72495,184.0518,0.7332221,-0.1742743,0.6398848,17
9.32,-30.58613,1.132512,-35.36319,-0.0098207067938034,-0.1614782665019389,-0.9358850944994828,28.04694,97.49767,184.017,0.7233714,-0.1852424,0.645702,17
9.34,-30.4726,1.32658,-35.38015,-0.0545292861612103,-0.1206626795748838,-0.898652079650299,31.51417,98.58906,184.0491,0.7228729,-0.2027675,0.6345443,17
9.36,-30.44222,1.121648,-35.35968,-0.0998062270477682,-0.1347520280300055,-0.8568409110977431,34.74931,95.13861,183.3021,0.6983193,-0.2216897,0.6499965,17
9.38,-30.33042,1.319267,-35.37642,-0.1521137696238526,-0.175019379865132,-0.8106427247456445,38.16983,96.10086,183.1154,0.6966531,-0.2375963,0.6381106,17
9.4,-30.21906,1.51371,-35.39409,-0.1817916143357978,-0.1551346910250312,-0.7698139000014255,41.59144,97.0964,182.9959,0.6943005,-0.2532671,0.6256074,17
9.42,-30.24782,1.115453,-35.37729,-0.2109358734219228,-0.191744471591895,-0.7243679810519632,41.88543,95.11296,182.4091,0.68397,-0.2556541,0.6356862,17
9.44,-30.14525,1.114395,-35.38195,-0.225814715103958,-0.1677623658713286,-0.6845761455006913,44.69441,94.67365,181.166,0.6774662,-0.2645763,0.6296033,17
9.46,-30.03625,1.314653,-35.39801,-0.238517351444143,-0.1441418143815697,-0.6442956585713357,48.03693,95.53903,180.8849,0.6742024,-0.2787859,0.6162282,17
9.48,-29.99035,1.112848,-35.39336,-0.2412373496004338,-0.1491767545117915,-0.6030535977575928,48.07418,94.00789,179.5702,0.6690124,-0.275269,0.621689,17
9.5,-29.88258,1.313043,-35.41055,-0.2435868818123774,-0.1812116517193886,-0.5605019239722804,51.38113,94.75291,179.1486,0.6652449,-0.2886292,0.6078514,17
9.52,-29.70044,1.103628,-35.42273,-0.228522567271296,-0.1535969178302358,-0.5218727543734234,56.53569,92.08173,176.2338,0.6444502,-0.3077323,0.5998311,17
9.54,-29.5792,1.102129,-35.43767,-0.1938081886375671,-0.1811236413192618,-0.4839766577962781,59.69681,90.87077,174.0844,0.6351466,-0.3168958,0.5895196,17
9.56,-29.47432,1.295581,-35.45837,-0.1579577192388446,-0.1492608532129233,-0.451864595647776,62.93057,90.98885,173.007,0.6294965,-0.3281174,0.5740878,17
9.58,-29.37012,1.486208,-35.47987,-0.1211261851431282,-0.1189791513419929,-0.4207077598042756,66.16357,90.96984,171.8097,0.6232758,-0.3390391,0.5581488,17
9.6,-29.22232,1.118027,-35.48105,-0.0772052128060361,-0.1075307248888389,-0.3894508876864551,61.8121,83.54628,167.2963,0.6104627,-0.3174718,0.5981105,17
9.62,-29.11818,1.304172,-35.50338,-0.0363134597244085,-0.1193404642294212,-0.3562633721901882,64.91907,82.77051,165.2429,0.6049273,-0.327705,0.5822552,17
9.64,-29.01516,1.487527,-35.52644,0.0071476999266644,-0.0763216072323559,-0.3281489356751308,68.00916,81.59504,162.8062,0.5988545,-0.3376482,0.5658935,17
9.66,-28.79675,1.178303,-35.52924,0.0604743832517575,-0.0783280257497076,-0.3000750854574638,52.04167,86.11885,171.2747,0.6361537,-0.272932,0.6318969,17
9.68,-28.70804,1.19559,-35.53948,0.1033156930823189,-0.0317804381811251,-0.2805260788720245,48.2687,88.67592,173.2565,0.6538945,-0.2544237,0.6347746,17
9.7,-28.60166,1.371743,-35.5632,0.1451384824428951,0.0124979858063329,-0.2626942505721121,51.41839,89.10463,172.4358,0.6511254,-0.2667644,0.6205941,17
9.72,-28.42942,1.239109,-35.60254,0.1868896124388088,0.0346501268913724,-0.2476892052360586,32.02789,94.13407,175.3778,0.7107448,-0.1593759,0.6460328,17
9.74,-28.30998,1.408227,-35.63225,0.2196777384815598,0.077408417769006,-0.2382580730880183,35.56657,94.97483,174.9944,0.7102509,-0.1755384,0.6330187,17
9.76,-28.19293,1.573649,-35.66265,0.2498173912246475,0.1175402772713462,-0.2312564403148007,39.10966,95.82458,174.6593,0.7090082,-0.1915199,0.6193491,17
9.78,-28.07849,1.735515,-35.69366,0.2661625228823077,0.0843004620562447,-0.2197922022291001,42.65696,96.69187,174.3772,0.7070172,-0.2073071,0.6050369,17
9.8,-28.06052,1.267847,-35.67669,0.2894373169522199,0.1187067359217815,-0.2128914873146428,8.098022,101.2228,177.6091,0.7716979,-0.02871369,0.6317166,17
9.82,-27.93969,1.434439,-35.70995,0.3196723847193854,0.1746089814861447,-0.2098770305291371,11.6774,102.2819,177.6628,0.7757931,-0.04801285,0.6224062,17
9.84,-27.81768,1.279098,-35.71341,0.3477787773117828,0.1597482728567448,-0.2028286934852579,354.4158,104.3808,178.4524,0.7886394,0.04051619,0.6127756,17
9.86,-27.72508,1.284917,-35.72591,0.3710392424217037,0.1676914108313074,-0.1993224659350616,353.3269,104.8189,178.8195,0.7906396,0.04365088,0.609423,17
9.88,-27.60209,1.447723,-35.75841,0.3903719686697422,0.1742358246958782,-0.1987396135321715,356.9257,105.8368,179.1595,0.7973507,0.02202324,0.6028755,17
9.9,-27.48196,1.606609,-35.79156,0.4050959016569559,0.1765713152980536,-0.2008551771730413,0.5167143,106.8736,179.5627,0.8031964,0.0003787889,0.5956852,17
9.92,-27.45634,1.295854,-35.76644,0.4077561551180486,0.1728754830934733,-0.1977760562969264,353.4718,105.7365,179.5646,0.7958199,0.03739528,0.6028389,17
9.94,-27.33357,1.456458,-35.79924,0.4019209502383467,0.1918253545226483,-0.197663919440771,357.0458,106.7466,179.9696,0.8022691,0.01559162,0.596406,17
9.96,-27.2958,1.261982,-35.77774,0.3905708203652409,0.2085210666980933,-0.2004027829901637,355.7578,106.0027,180.6117,0.79821,0.01801279,0.6012177,17
9.98,-27.17634,1.425716,-35.81021,0.3583801901085874,0.1492622811393542,-0.1951127562719028,359.2951,107.0276,180.9982,0.8039861,-0.003345779,0.5945527,17
10.0,-27.16693,1.250056,-35.79341,0.3298847009251688,0.1388275272127898,-0.1858651993060212,359.451,106.4178,181.3989,0.8007905,-0.006906939,0.5988011,17
10.02,-27.0461,1.41435,-35.82704,0.2979722281244914,0.1286252154053659,-0.179123103622989,3.057057,107.4657,181.7827,0.8056375,-0.02831539,0.5916038,17
10.04,-26.99718,1.237571,-35.80193,0.2497462064931626,0.0673378116792699,-0.1653835928929856,6.198647,106.6589,182.6201,0.7999622,-0.05059201,0.5971748,17
10.06,-26.8757,1.40447,-35.83516,0.2117250534355275,0.0805446359310845,-0.153059844241663,9.837933,107.7519,183.0179,0.8031572,-0.07172514,0.5889846,17
10.08,-26.8838,1.226269,-35.8061,0.1797552982075601,0.118151599625742,-0.143538512039913,10.33833,106.8387,183.1932,0.7979463,-0.07595587,0.5953156,17
10.1,-26.76409,1.396605,-35.83939,0.1153138046578488,0.0780332353906878,-0.1227332450483498,13.94421,107.9524,183.566,0.8001826,-0.09633324,0.586544,17
10.12,-26.74969,1.199523,-35.80585,0.0409698611258342,0.0115826439580424,-0.0978964435498319,14.76714,107.1699,183.7031,0.7951837,-0.102034,0.5917419,17
10.14,-26.63219,1.375995,-35.83762,-0.0077373753888014,0.0211230878653682,-0.0794704016309362,18.33886,108.3111,184.0818,0.7964206,-0.1217563,0.5823372,17
10.16,-26.64095,1.183027,-35.81024,-0.0763751552147735,-0.022062130542253,-0.0541374565717305,17.40927,107.0221,183.9664,0.7911207,-0.1174458,0.5916767,17
10.18,-26.52509,1.363578,-35.8413,-0.1466117616852815,-0.0634844112911733,-0.0297139939513568,20.95522,108.1675,184.3137,0.7917924,-0.1365706,0.5819555,17
10.2,-26.41089,1.540595,-35.87305,-0.1899468016427259,-0.0259486425229774,-0.0139496876520439,24.49266,109.3653,184.7477,0.7916321,-0.1555473,0.5716336,17
10.22,-26.50172,1.160665,-35.80886,-0.2483555091611182,-0.0438156315634013,0.0119218224001365,21.5796,105.0418,184.1369,0.7749262,-0.141972,0.6026872,17
10.24,-26.44778,1.145344,-35.79731,-0.3056955769771829,-0.058806811520917,0.0368880274729654,24.60928,103.0881,184.0839,0.7598897,-0.1597127,0.6131867,17
10.26,-26.33495,1.336068,-35.82439,-0.3451402764442854,-0.0170643668881033,0.0545607961776051,28.10237,104.1596,184.184,0.7593074,-0.1770449,0.6027691,17
10.28,-26.22307,1.523463,-35.85227,-0.4055333919979924,-0.0596052862855841,0.0803813413960288,31.59163,105.2754,184.3643,0.757956,-0.1941926,0.5917513,17
10.3,-26.28298,1.128612,-35.79877,-0.4638205496686791,-0.1003098919260461,0.1051653437825717,30.05768,100.4953,183.749,0.7366972,-0.1900175,0.6237887,17
10.32,-26.17182,1.324112,-35.82386,-0.4915182289169197,-0.0568214124099046,0.1204167427088487,33.50671,101.4798,183.6742,0.7351875,-0.2060927,0.612824,17
10.34,-26.06128,1.51639,-35.84978,-0.5124343476561641,-0.0689900049402033,0.136408394129873,36.95531,102.5005,183.6703,0.73295,-0.2219619,0.6012632,17
10.36,-26.05058,1.117045,-35.81598,-0.5356349858239358,-0.1069303631393586,0.1527280977735579,39.65538,98.14991,182.7151,0.7053113,-0.2389726,0.6221355,17
10.38,-26.00088,1.115531,-35.82376,-0.5425871581970987,-0.0841404535373192,0.1618529157379349,41.86568,98.08911,182.3756,0.7003689,-0.2487548,0.6176726,17
10.4,-25.8925,1.315313,-35.84764,-0.5452377365045336,-0.0613587181678941,0.1690777410188539,45.23394,98.89037,182.0585,0.6967497,-0.2625948,0.6053262,17
10.42,-25.79609,1.113656,-35.84782,-0.5584612821600836,-0.125749672169063,0.1801319917895085,46.38808,97.42632,180.3936,0.689787,-0.2622418,0.6075122,17
10.44,-25.68876,1.3139,-35.87042,-0.5463146754377406,-0.1019874068791424,0.1843374957207979,49.71801,98.1768,180.0343,0.6856173,-0.2755137,0.5943097,17
10.46,-25.58173,1.51115,-35.89389,-0.5200270198304104,-0.1058034497626991,0.1857269696196546,53.04991,98.94823,179.7204,0.6808092,-0.2885283,0.5805644,17
10.48,-25.51777,1.107036,-35.88796,-0.4892683303121177,-0.1083015893539278,0.184876374280269,53.33429,96.18902,177.7225,0.6709073,-0.2864828,0.5901022,17
10.5,-25.42746,1.103698,-35.90184,-0.4427789615008781,-0.1078504407839025,0.180521618701916,56.51953,94.95689,176.2032,0.6594219,-0.2983219,0.5834244,17
10.52,-25.32329,1.29957,-35.92669,-0.392059649421216,-0.1067562691451507,0.1739318777746472,59.77121,95.27052,175.3794,0.653631,-0.3096607,0.5689248,17
10.54,-25.09962,1.109113,-35.95287,-0.3324074563321133,-0.0974959687861584,0.1653332166521011,62.65813,86.90097,167.8726,0.6240403,-0.3133025,0.5788767,17
10.56,-24.99654,1.297587,-35.97904,-0.2727446431062277,-0.0584538823387938,0.1543221061178812,65.78814,86.07458,165.8322,0.6176356,-0.3232472,0.5633341,17
10.58,-24.89446,1.483276,-36.00587,-0.2112023843686352,-0.0208121881579524,0.1418354785287885,68.90077,84.82412,163.3829,0.6106846,-0.3329064,0.5473021,17
10.6,-24.75523,1.144357,-36.00639,-0.14433515167164,-0.0576171842486536,0.1319220845623165,58.3661,85.00533,167.8941,0.6244831,-0.295278,0.605338,17
10.62,-24.67685,1.161787,-36.01361,-0.0720124482419874,-0.0346705572901261,0.1171036189922114,55.75583,85.0392,168.8435,0.6280792,-0.2849318,0.6177054,17
10.64,-24.57255,1.34136,-36.04024,0.0016916894476044,-0.0124339294868541,0.1010564808688725,58.83968,84.66335,167.2,0.6234012,-0.2954797,0.6030414,17
10.66,-24.40161,1.211831,-36.0598,0.0763382580450402,0.0059552601459876,0.0840503784882438,43.05503,91.7897,173.9803,0.680461,-0.2199618,0.6326988,17
10.68,-24.29142,1.385514,-36.08846,0.1289885219292244,0.024283777492298,0.0653842774406712,46.3387,92.30813,173.2879,0.6778554,-0.2332694,0.6191474,17
10.7,-24.18318,1.556033,-36.11772,0.1848232684535768,0.0657012274326093,0.043575893289864,49.62566,92.7985,172.5959,0.6746256,-0.2463616,0.6050368,17
10.72,-24.08882,1.257532,-36.12452,0.2405651110558291,0.1042765335925803,0.0207358231606589,19.9589,97.98927,176.6108,0.7462679,-0.09167513,0.6420527,17
10.74,-23.97082,1.425943,-36.15594,0.2826980382263082,0.116330373128447,0.0051781126208672,23.45803,98.93842,176.4661,0.7479065,-0.1090957,0.6312211,17
10.76,-23.8552,1.590716,-36.18796,0.3169375401319514,0.1048295606828397,-0.0073021399731612,26.95881,99.90432,176.3821,0.7487842,-0.1264065,0.6197587,17
10.78,-23.8168,1.271968,-36.17337,0.3485105703647244,0.0916474724568824,-0.0193805254245331,2.302874,102.7361,177.9867,0.781115,0.001177872,0.6238171,17
10.8,-23.69695,1.438404,-36.20718,0.376882731966921,0.0738909574278822,-0.0306752679770161,5.853653,103.7439,178.1008,0.7860218,-0.01850176,0.6158652,17
10.82,-23.57966,1.60107,-36.24154,0.4048376325397678,0.0764282918009535,-0.0398609169816897,9.400879,104.7663,178.2791,0.7901085,-0.03815735,0.6072819,17
10.84,-23.45152,1.291556,-36.22771,0.4297322253685434,0.0776572873447123,-0.0479701916441364,352.2048,105.1708,179.0707,0.7920618,0.04772398,0.606591,17
10.86,-23.36923,1.293874,-36.23674,0.4449176810928521,0.0760577903019186,-0.0523056748783421,352.8111,105.3237,179.337,0.7932724,0.04261541,0.6056035,17
10.88,-23.24705,1.45534,-36.26846,0.4602132603366531,0.0972752082173259,-0.0582566997352627,356.3678,106.2832,179.7201,0.7996699,0.02096311,0.5995982,17
10.9,-23.12777,1.612948,-36.30077,0.4534867650143801,0.0676133074184497,-0.0558528691180741,359.9166,107.2636,180.1617,0.8052229,-0.0007047313,0.5929704,17
10.92,-23.15907,1.269709,-36.25666,0.4426224661344111,0.0367653556329799,-0.051844320918887,354.0874,105.9286,180.0483,0.7972113,0.03072775,0.6014935,17
10.94,-23.03949,1.432965,-36.28801,0.4330935500789055,0.0237978227003597,-0.04781349065136,357.6078,106.8922,180.4503,0.8031649,0.009276398,0.5953785,17
10.96,-22.92265,1.592518,-36.31992,0.4098861419594151,-0.0130966730598967,-0.0383970867037115,1.119898,107.8788,180.9109,0.8082853,-0.01217837,0.5886566,17
10.98,-22.9128,1.246038,-36.27719,0.3951743001298879,0.0022173879292972,-0.0355920503462803,1.402484,106.1719,181.6227,0.7992936,-0.0186708,0.6006494,17
11.0,-22.87883,1.24063,-36.27227,0.3764632142868271,0.0157359243346238,-0.0314715863295775,3.997005,105.9362,182.0908,0.797299,-0.03555523,0.6023008,17
11.02,-22.75802,1.406891,-36.30374,0.3437748280867065,0.0029000923219534,-0.0185074064164476,7.602978,106.964,182.4765,0.8008617,-0.05677292,0.5947788,17
11.04,-22.72678,1.226388,-36.27045,0.3084240148785966,-0.0086234879629744,-0.0042631067723064,10.32161,105.7587,183.197,0.7923105,-0.07641676,0.6028162,17
11.06,-22.60699,1.396886,-36.30084,0.2621816370713796,-0.0219037957481798,0.0101454991368195,13.91027,106.8238,183.5699,0.7943975,-0.09696916,0.5944137,17
11.08,-22.48952,1.563662,-36.33183,0.2135479241855375,-0.0334452530920869,0.0256639950183803,17.49035,107.9312,184.0191,0.7956347,-0.1174128,0.5853859,17
11.1,-22.57195,1.199546,-36.27441,0.181099484024529,0.0050340899878518,0.0332331908300522,14.76706,106.344,183.694,0.7909063,-0.1025757,0.5974513,17
11.12,-22.50521,1.183111,-36.26564,0.1164062591337806,-0.0369128825791942,0.0569695650385781,17.40476,105.5277,183.9438,0.7833664,-0.1185785,0.6019263,17
11.14,-22.38879,1.36371,-36.29412,0.0662155378914555,-0.0224429653418974,0.0722081145931099,20.95263,106.6162,184.2652,0.783904,-0.1379117,0.5925703,17
11.16,-22.39755,1.168127,-36.26696,0.0152349409739356,-0.0079465385433055,0.0883962051326205,20.14812,104.5655,184.1093,0.7745061,-0.1348654,0.6069073,17
11.18,-22.28243,1.352713,-36.29446,-0.0445699838360864,-0.0217215746420035,0.1065467214978248,23.67747,105.6393,184.3583,0.7745116,-0.1535432,0.5972589,17
11.2,-22.16866,1.533847,-36.32265,-0.1033264288695412,-0.0327960681850192,0.125447217772443,27.20072,106.7612,184.6888,0.7737194,-0.1720591,0.5870056,17
11.22,-22.25773,1.139031,-36.24828,-0.1732578554787993,-0.1001574772842396,0.1522868343440286,26.29564,99.84693,183.9765,0.7395976,-0.1722077,0.6325952,17
11.24,-22.14511,1.331585,-36.27066,-0.2190713471649377,-0.1112773164811817,0.1685313214426713,29.76396,100.8292,183.9858,0.7386831,-0.1894613,0.6223638,17
11.26,-22.03327,1.520874,-36.29384,-0.253511826335675,-0.0891547470283479,0.1789901617298896,33.23013,101.8486,184.067,0.7370366,-0.2065247,0.6115245,17
11.28,-22.07783,1.124741,-36.25116,-0.2986024898851962,-0.1227699519526102,0.1936999011218478,32.09145,97.52594,183.5704,0.7166659,-0.2046241,0.6396627,17
11.3,-21.9665,1.321597,-36.27185,-0.3407659949279029,-0.1547934075820116,0.2083700377529238,35.52505,98.41647,183.4187,0.7147318,-0.2207255,0.6287805,17
11.32,-21.85565,1.515268,-36.29336,-0.3699512052821645,-0.1578284922441051,0.2142814881212649,38.95919,99.33591,183.3286,0.7121007,-0.2366093,0.6172953,17
11.34,-21.82437,1.115481,-36.27375,-0.3956705499179787,-0.1869257995476498,0.2211618623379827,41.88112,96.48046,182.4013,0.6915349,-0.252577,0.62747,17
11.36,-21.75937,1.114891,-36.27956,-0.4173541337532307,-0.2148450022046379,0.2276723309177031,43.26482,96.47742,181.7949,0.6894585,-0.2563621,0.6233502,17
11.38,-21.65114,1.314896,-36.29917,-0.4292604680188883,-0.2131208566604443,0.2279109987022236,46.60917,97.2496,181.5134,0.6856623,-0.270578,0.6109282,17
11.4,-21.54319,1.511891,-36.31962,-0.4275725071039993,-0.1793878292172082,0.2246940071001502,49.95499,98.04765,181.283,0.6812286,-0.2845414,0.597948,17
11.42,-21.53813,1.112832,-36.30166,-0.4277106108630102,-0.2029605036462724,0.223034453937525,48.07968,95.52558,179.5799,0.6771501,-0.2713552,0.6127868,17
11.44,-21.4309,1.313016,-36.32154,-0.4087948817687086,-0.1951677847113308,0.2164856694188968,51.39334,96.17298,179.1597,0.6726649,-0.2847281,0.5995614,17
11.46,-21.26962,1.103659,-36.33471,-0.3861266572078272,-0.1864624117754057,0.2085492212909576,56.52114,93.16502,176.2292,0.6501452,-0.3042031,0.5937415,17
11.48,-21.16453,1.299487,-36.35584,-0.3560372119412398,-0.233551892168335,0.2012295447201744,59.78194,93.4488,175.4261,0.6443436,-0.3161638,0.579367,17
11.5,-21.0444,1.104445,-36.36505,-0.3166918393685671,-0.1933520455417519,0.1885118023577181,61.22361,88.81929,171.2388,0.6282851,-0.3166988,0.5857864,17
11.52,-20.94065,1.295414,-36.38756,-0.2718530827916203,-0.1745781455646617,0.1760972042445319,64.40885,88.44585,169.7356,0.6219491,-0.3276002,0.5706982,17
11.54,-20.7226,1.128884,-36.4044,-0.2120343670536835,-0.1771345002292546,0.163358677393604,60.95033,82.51359,166.7751,0.608457,-0.3132852,0.605083,17
11.56,-20.61868,1.312864,-36.42761,-0.1677905326188549,-0.1243223847230133,0.1500968457849474,64.02325,81.56029,164.616,0.602582,-0.3236543,0.5899587,17
11.58,-20.51598,1.494059,-36.45144,-0.1227079532586943,-0.1188397224647826,0.1389141072940702,67.07471,80.19141,162.0571,0.5961843,-0.3337435,0.5743319,17
11.6,-20.38778,1.178216,-36.449,-0.0763992827000628,-0.1151518427687598,0.1275800130051916,52.05885,86.69578,171.2857,0.6392634,-0.2713361,0.6286651,17
11.62,-20.20905,1.211392,-36.47789,-0.0383736566080754,-0.0830341787465029,0.1130989029867022,43.10494,90.64518,173.989,0.6739925,-0.2232595,0.6393582,17
11.64,-20.09641,1.384498,-36.50385,0.0082749919803766,-0.048068184431478,0.0954095923651339,46.44805,91.11879,173.3008,0.6711342,-0.2372881,0.6258858,17
11.66,-19.98573,1.554342,-36.53042,0.0565845490925482,-0.0143231196337362,0.0772741083427543,49.79408,91.56132,172.6094,0.6676429,-0.2510926,0.6118333,17
11.68,-19.91273,1.249782,-36.54227,0.0865851822226586,0.0157352091288955,0.0614950729863403,26.22002,96.05267,176.048,0.7288752,-0.1266385,0.6451558,17
11.7,-19.79217,1.417823,-36.57217,0.1167082099451741,0.0447511886823056,0.0458088730128203,29.79352,96.89158,175.7994,0.7289414,-0.1439088,0.6335531,17
11.72,-19.67404,1.582092,-36.60265,0.1339913945743043,0.0240968929843186,0.0358505567928215,33.37041,97.74347,175.6031,0.7282383,-0.1610307,0.6212938,17
11.74,-19.57871,1.271747,-36.59295,0.1564418386478521,0.0474983623431314,0.0254568535161698,2.360737,101.8361,177.9794,0.776189,0.0006991932,0.6299174,17
11.76,-19.49333,1.275457,-36.60339,0.1773363547127942,0.0696704280077236,0.0159519698467764,358.3997,102.7289,178.2358,0.7808299,0.02074254,0.6243978,17
11.78,-19.37166,1.440718,-36.63477,0.1893864129453151,0.0434818750861833,0.012297697794767,1.979724,103.6813,178.4204,0.7862507,0.0001640953,0.6175123,17
11.8,-19.25262,1.602142,-36.6667,0.2113594272084804,0.08570452784832,0.0033012895874362,5.55514,104.6484,178.6654,0.790843,-0.02040851,0.6099869,17
11.82,-19.21267,1.291367,-36.64101,0.2179357481757804,0.0799066097926651,0.001634525252486,352.2208,104.3142,179.0879,0.7875208,0.04788572,0.6124925,17
11.84,-19.08944,1.453183,-36.67215,0.2172012315487792,0.0450425789863856,0.0061651325108567,355.8119,105.2294,179.4117,0.7939157,0.0262622,0.6069074,17
11.86,-19.00778,1.282686,-36.65536,0.2123744453293048,0.0774976718971621,0.0058492939595637,353.775,104.4068,179.7883,0.7889628,0.03473409,0.6120346,17
11.88,-18.88608,1.444681,-36.68433,0.1951069176056385,0.0833880479421916,0.0083943434387796,357.321,105.3244,180.1684,0.7948762,0.0130102,0.6063197,17
11.9,-18.88629,1.262021,-36.66537,0.1746655667886554,0.0888466353200608,0.0125548797094543,355.7517,104.6641,180.5957,0.7911288,0.01853696,0.6105036,17
11.92,-18.76607,1.425743,-36.69458,0.1333968956610907,0.0439957588846153,0.0255702926156828,359.2941,105.5934,180.964,0.7964834,-0.002975842,0.6045706,17
11.94,-18.70328,1.24592,-36.67587,0.1062307150224666,0.0473615197039881,0.0336089805506967,1.413693,104.9216,181.6145,0.7926916,-0.01868688,0.6093353,17
11.96,-18.6488,1.240593,-36.6769,0.0772611201760335,0.0507381431173286,0.0431057491881539,3.999267,104.9928,182.0857,0.7923143,-0.03566945,0.6088436,17
11.98,-18.52734,1.406803,-36.70618,0.0275857197404834,0.0029484450441514,0.0615284798107405,7.611758,105.9735,182.4643,0.7956922,-0.05708185,0.6016728,17
12.0,-18.40846,1.569217,-36.73601,-0.0077488608335283,0.0293465541868765,0.0705862253911284,11.21612,106.9879,182.9097,0.7982131,-0.07842763,0.5938638,17
12.02,-18.47299,1.217522,-36.66299,-0.055157701660518,0.0283629229568198,0.0856311682063726,11.88276,104.1634,183.3456,0.7824589,-0.0864893,0.6133592,17
12.04,-18.35315,1.390064,-36.69044,-0.1033635299532262,0.0288326613070111,0.1020178320012652,15.47221,105.1811,183.6758,0.7840575,-0.1069782,0.6050969,17
12.06,-18.36364,1.199593,-36.66614,-0.1398016820494441,0.0792982675192599,0.1102865535050314,14.76715,104.6498,183.677,0.7820026,-0.1036856,0.6090664,17
12.08,-18.24511,1.376131,-36.69299,-0.2043466902338775,0.0498438692524777,0.1292233866515246,18.34174,105.6861,184.0227,0.7829331,-0.1238204,0.6003709,17
12.1,-18.12845,1.54905,-36.72046,-0.2688322398739944,0.021463484497839,0.1494715505313264,21.90857,106.7685,184.4458,0.7830395,-0.14382,0.5910534,17
12.12,-18.22272,1.168338,-36.64229,-0.3266321580725451,0.0159022344265165,0.1671056888737707,20.13599,100.8247,184.0444,0.7543796,-0.1381093,0.6318084,17
12.14,-18.10685,1.353151,-36.66396,-0.375123034573116,0.0416348826770635,0.1800077937615807,23.65617,101.8259,184.2223,0.7544318,-0.1571361,0.6225554,17
12.16,-17.99225,1.534539,-36.68634,-0.4220136802339367,0.0671685391552193,0.1936162105712906,27.17182,102.8681,184.4745,0.7537171,-0.1759994,0.6126793,17
12.18,-18.06474,1.145405,-36.64107,-0.4741905161356987,0.0637588781719875,0.2078962790692857,24.6089,99.25789,184.065,0.739001,-0.1643493,0.6382162,17
12.2,-17.95051,1.336165,-36.66094,-0.5231529554978791,0.0627405518390692,0.2226911860300147,28.1071,100.2228,184.1389,0.7382184,-0.182502,0.628425,17
12.22,-17.92082,1.128657,-36.63281,-0.5856677920757816,0.0049158771385883,0.2441686984300224,30.04962,96.54036,183.7392,0.7147657,-0.1959771,0.6488336,17
12.24,-17.86053,1.124774,-36.63328,-0.6146796592819508,0.0337691926243352,0.2512385276288196,32.07359,95.80159,183.566,0.7070028,-0.2073037,0.6503927,17
12.26,-17.74911,1.321671,-36.65069,-0.6392329392815652,0.0624808139292429,0.2576691155762329,35.49643,96.6416,183.4055,0.704995,-0.2237502,0.6397966,17
12.28,-17.73141,1.118677,-36.63742,-0.6763863476549603,0.0043136665463136,0.2676567194194525,37.39036,94.85643,183.0304,0.6915964,-0.2352147,0.6468363,17
12.3,-17.62111,1.317214,-36.65521,-0.6855867634132935,0.0334557297246473,0.2675305526051357,40.78344,95.60427,182.7457,0.6885969,-0.2506123,0.6356034,17
12.32,-17.61884,1.115543,-36.65014,-0.6982367334360096,0.005952654202931,0.2694997775116636,41.85483,94.89433,182.3741,0.6829079,-0.2557561,0.6369745,17
12.34,-17.51635,1.114431,-36.65504,-0.7055397764188025,-0.0209003175591214,0.27060929565934,44.68124,94.43626,181.1535,0.6762221,-0.2649959,0.6310046,17
12.36,-17.4079,1.314752,-36.67112,-0.6960356458229873,0.0380629958481761,0.2647822083818045,48.01885,95.13515,180.8417,0.6721799,-0.2794795,0.6185318,17
12.38,-17.36187,1.112876,-36.66715,-0.6806471121095579,0.0397051369040852,0.2587251552178919,48.06221,93.68089,179.5636,0.6672823,-0.276021,0.6236078,17
12.4,-17.25451,1.31312,-36.68404,-0.6595825890382063,0.0426194696851663,0.2513062656990081,51.36683,94.26204,179.116,0.6627567,-0.289747,0.6106412,17
12.42,-17.19495,1.107092,-36.68302,-0.6220787906858043,-0.012607531712862,0.2435836245028539,53.30616,92.51939,177.7085,0.651782,-0.2971759,0.6113191,17
12.44,-17.00065,1.102185,-36.70284,-0.5651887755849141,0.0187984960115557,0.2289478799461237,59.67646,89.76691,174.0636,0.6295533,-0.3203681,0.5956091,17
12.46,-16.89587,1.295726,-36.72187,-0.5038035605357312,0.0483846514860414,0.2128601932220011,62.90558,89.69076,172.9283,0.6232534,-0.3321538,0.5809923,17
12.48,-16.76313,1.109065,-36.72916,-0.4391750408591055,0.0575124574134075,0.1968775615493516,62.65047,83.74722,167.9261,0.6077415,-0.3250101,0.5960518,17
12.5,-16.65913,1.297548,-36.74867,-0.3711361944273452,0.066420968224512,0.1796707757650928,65.77753,82.86299,165.9251,0.6013605,-0.335974,0.5808164,17
12.52,-16.55424,1.128853,-36.74866,-0.2870789740279982,0.0854375901608359,0.1609029883638424,60.95202,80.95773,166.7951,0.6001261,-0.3188952,0.6133521,17
12.54,-16.36634,1.161678,-36.76455,-0.2007090115035015,0.0809912615188337,0.1423783940426615,55.77277,81.67184,168.8241,0.6096739,-0.2959099,0.6357697,17
12.56,-16.26075,1.341262,-36.78474,-0.1295794002556818,0.1273424198214154,0.1223576386832343,58.85721,81.18005,167.1528,0.6048747,-0.3073724,0.6214821,17
12.58,-16.15758,1.195536,-36.78834,-0.0589169790735488,0.1265792933374367,0.1019445816722717,48.28455,87.33569,173.2223,0.6464694,-0.258092,0.6422369,17
12.6,-16.05082,1.371709,-36.80926,0.0141079967535406,0.1231549335399489,0.0809377933863393,51.43552,87.58679,172.3561,0.6429988,-0.2709767,0.6288724,17
12.62,-15.96984,1.227257,-36.8254,0.0738117115567571,0.1438320494240106,0.0585666670675717,37.98539,90.56451,174.6994,0.6817675,-0.197676,0.6539051,17
12.64,-15.83101,1.250314,-36.84911,0.1250930384329946,0.1629792400996743,0.0380157641760217,26.17347,93.65496,176.0047,0.7153246,-0.1300636,0.6602665,17
12.66,-15.71135,1.419024,-36.87476,0.1755125252703189,0.1809918009217203,0.0175321367155891,29.68915,94.4265,175.7074,0.7154131,-0.1473379,0.6490983,17
12.68,-15.65927,1.263493,-36.87527,0.2154019519628354,0.1490713871784605,0.0017312031099843,13.86871,97.02486,177.1944,0.745355,-0.06175149,0.6552007,17
12.7,-15.53822,1.430929,-36.90169,0.2601289606431156,0.1843860006786462,-0.015875378222069,17.42166,97.91678,177.131,0.747789,-0.08074627,0.6459702,17
12.72,-15.50739,1.271837,-36.89127,0.2908583462601357,0.1712084177004738,-0.0269855320701513,2.374096,99.67107,177.9684,0.764149,0.0001850333,0.6444635,17
12.74,-15.36591,1.279081,-36.90083,0.3240944277209188,0.1342453954987666,-0.0342399705351015,354.4496,101.0949,178.4433,0.7707562,0.04124059,0.6351432,17
12.76,-15.24304,1.443614,-36.92721,0.3582508422201507,0.1642633103399374,-0.0456477589438391,358.025,101.9867,178.6634,0.7767783,0.01990888,0.6294302,17
12.78,-15.17009,1.291237,-36.92173,0.3840644178666901,0.1704160119893159,-0.0536592154293131,352.2281,101.9962,179.1112,0.7749846,0.04866337,0.6282887,17
12.8,-15.04531,1.452912,-36.9467,0.4065641175796317,0.1747192962297888,-0.0595849167944244,355.8264,102.8649,179.4555,0.7812387,0.02641438,0.6231515,17
12.82,-15.01385,1.295993,-36.93309,0.4052241589121443,0.1257871747195227,-0.0566045950615166,353.4574,102.1994,179.5578,0.7768278,0.03883233,0.6271106,17
12.84,-14.92917,1.269913,-36.92843,0.4089420155635921,0.1188450560073642,-0.0572289162029431,354.0759,102.2347,180.0272,0.7774007,0.03225308,0.6268794,17
12.86,-14.80833,1.433345,-36.95174,0.408918473232168,0.1111995084714577,-0.055805757896203,357.587,103.1091,180.4036,0.7830681,0.01033375,0.6215695,17
12.88,-14.79044,1.254445,-36.94449,0.3961172673548556,0.1022324852985525,-0.0534468426786522,357.4494,102.6574,181.1598,0.7806511,0.006006084,0.6244887,17
12.9,-14.66893,1.418539,-36.96938,0.3799940088268254,0.0927388644059082,-0.0494086213236508,1.018777,103.5527,181.5158,0.7854291,-0.01589159,0.6187466,17
12.92,-14.67086,1.245675,-36.9463,0.3577756664899973,0.083923847038953,-0.0436758918542583,1.436739,102.969,181.6156,0.7821903,-0.01883721,0.6227539,17
12.94,-14.58856,1.237795,-36.93975,0.3258005609269065,0.0496940620101915,-0.0313021764701524,6.163428,102.7439,182.601,0.7791228,-0.05125658,0.6241518,17
12.96,-14.46593,1.40495,-36.96383,0.299772528940351,0.0659087088889279,-0.0242914494122521,9.784149,103.693,182.9738,0.7818631,-0.0729954,0.6170529,17
12.98,-14.47549,1.226405,-36.93825,0.2602248211712892,0.0558744692285249,-0.0132676779888782,10.31982,102.8929,183.1803,0.7770017,-0.07764354,0.6224329,17
13.0,-14.35434,1.396893,-36.96249,0.2185473741575629,0.0467324635373782,-0.0006942575971606,13.91541,103.8622,183.5315,0.7787997,-0.09873822,0.6147161,17
13.02,-14.39681,1.199868,-36.91629,0.1511543273143185,-0.0157247141621162,0.0210042017976102,14.73144,101.8785,183.6538,0.7671039,-0.1052946,0.6278002,17
13.04,-14.27815,1.376659,-36.93766,0.1004386563754147,-0.0291622193346789,0.0340961403461479,18.28085,102.863,183.9731,0.768038,-0.1257371,0.619469,17
13.06,-14.16128,1.549887,-36.95969,0.0489830293735169,-0.0410940857080668,0.0483121496112612,21.82335,103.8903,184.3651,0.7681798,-0.1460455,0.6105085,17
13.08,-14.23383,1.175734,-36.91488,-0.0041917164277269,-0.0538780947771626,0.0623918182862945,18.7272,101.5012,184.0788,0.7599339,-0.1300655,0.6283553,17
13.1,-14.11685,1.358388,-36.93527,-0.0570483704540936,-0.0649040049638429,0.0774816011081265,22.262,102.4896,184.3567,0.7600114,-0.1498463,0.6194969,17
13.12,-14.16093,1.153117,-36.89202,-0.1319638188807492,-0.1326109851421583,0.1020996951276709,23.04892,97.87525,184.0544,0.7336893,-0.1572879,0.6485631,17
13.14,-14.04609,1.341963,-36.90847,-0.1748530324166122,-0.1170512803709957,0.1126315261520058,26.54066,98.80919,184.1609,0.7331383,-0.1760998,0.6392481,17
13.16,-13.9322,1.527483,-36.92567,-0.2160966488970679,-0.1018685243169789,0.1233192305592325,30.02927,99.78083,184.3366,0.731859,-0.1947328,0.6293076,17
13.18,-13.99602,1.132668,-36.8861,-0.2788943474562015,-0.1724860307849307,0.1415850785603583,28.02469,95.94543,183.9803,0.7146581,-0.1870342,0.6554175,17
13.2,-13.88287,1.326859,-36.90081,-0.3223261101641916,-0.1859688962616558,0.15251815045122,31.48685,96.82242,183.961,0.7132162,-0.2048743,0.6455109,17
13.22,-13.88597,1.121837,-36.87447,-0.3637174185126284,-0.2261648460965023,0.1647217517365033,34.7055,92.63595,183.2435,0.6841632,-0.2254436,0.665062,17
13.24,-13.77472,1.319661,-36.88793,-0.3894967084918974,-0.2061493940373042,0.1696190321555883,38.10971,93.36224,182.9766,0.6816326,-0.241765,0.654417,17
13.26,-13.66382,1.514366,-36.90216,-0.4142041675873342,-0.2130017959822394,0.173432033101629,41.51548,94.10345,182.7538,0.6784551,-0.2578549,0.6431602,17
13.28,-13.67102,1.115508,-36.88903,-0.4349305403959647,-0.2183127257616825,0.1764882413495065,41.8631,92.82977,182.3915,0.6712625,-0.2603657,0.6491945,17
13.3,-13.56105,1.315269,-36.90261,-0.4493947841361723,-0.2222738641656429,0.1770363735470725,45.23871,93.49638,182.0788,0.667434,-0.2756877,0.6374778,17
13.32,-13.51411,1.113727,-36.8945,-0.4547447736754098,-0.2536878306051204,0.1776602080607459,46.36229,92.25138,180.3664,0.6617876,-0.2749405,0.638027,17
13.34,-13.40601,1.314079,-36.90818,-0.4402730178762002,-0.2255416668168393,0.1741843022177285,49.68001,92.82724,179.9569,0.6574323,-0.2893799,0.6255484,17
13.36,-13.29812,1.511478,-36.92262,-0.4196221235177901,-0.2250881665838909,0.1693216726080946,52.99902,93.406,179.5719,0.6524824,-0.3035531,0.6125137,17
13.38,-13.23353,1.107081,-36.91549,-0.3952207071911342,-0.224015848900953,0.1632792799622207,53.3084,91.15914,177.72,0.6444435,-0.3012247,0.6190397,17
13.4,-13.12694,1.305269,-36.93016,-0.3559967771168177,-0.2206992401412749,0.1547967378187973,56.58922,91.5256,177.0957,0.6390345,-0.3145872,0.6054755,17
13.42,-12.94169,1.104355,-36.93957,-0.299342614984454,-0.2425323110554493,0.1456544740778831,61.21539,86.16798,171.3155,0.614368,-0.326285,0.6004591,17
13.44,-12.83726,1.295295,-36.95605,-0.2333597992842917,-0.2060338966223427,0.1328811413476938,64.40142,85.76182,169.8747,0.6080223,-0.3381474,0.5856419,17
13.46,-12.73359,1.483479,-36.97317,-0.1741774548076988,-0.1901069406486179,0.1214348356663039,67.58025,85.09133,168.1834,0.6011501,-0.3497163,0.5703264,17
13.48,-12.57905,1.12877,-36.97363,-0.1136601144957247,-0.174785547601261,0.1094002312920832,60.96608,80.3555,166.8017,0.5968454,-0.3211248,0.6164655,17
13.5,-12.47416,1.312662,-36.992,-0.0567649831208083,-0.1528780044768733,0.0977235450626379,64.05208,79.32946,164.6614,0.5907894,-0.3323536,0.6016245,17
13.52,-12.2618,1.178042,-37.00175,0.0111682028876713,-0.1521636904412439,0.0852947276520597,52.09123,84.16505,171.2659,0.6252043,-0.2790852,0.6424645,17
13.54,-12.15407,1.19531,-37.01324,0.079742442578901,-0.1012034328506636,0.0695828323620393,48.32117,86.86756,173.239,0.6437252,-0.2597118,0.6448128,17
13.56,-12.04692,1.371385,-37.03234,0.1327869172719218,-0.0752240817173761,0.053461289882259,51.48222,87.09579,172.3994,0.6400912,-0.2729599,0.6316065,17
13.58,-11.94699,1.227084,-37.05183,0.1859337936957075,-0.0508053030605273,0.0369516943196037,38.01104,90.28505,174.7258,0.6800802,-0.1986222,0.6555678,17
13.6,-11.82637,1.396823,-37.07526,0.2283854286364557,-0.027441030910867,0.0206701532585897,41.56467,90.78895,174.1555,0.6774718,-0.2149028,0.6427996,17
13.62,-11.7865,1.250019,-37.0784,0.2600776935511255,-0.0285419349761456,0.007013741929291,26.21508,93.5433,176.03,0.7146004,-0.1306495,0.6609396,17
13.64,-11.65849,1.263874,-37.09154,0.295401799376886,0.0151688796233045,-0.0073371274809215,13.85949,96.25854,177.1912,0.7409646,-0.06238835,0.6601755,17
13.66,-11.53872,1.431836,-37.1158,0.3234924574432452,0.0326819150787647,-0.0169040587599749,17.3642,97.10698,177.1244,0.7432587,-0.0812943,0.6512907,17
13.68,-11.48557,1.271955,-37.11039,0.3419587776617715,0.025780831595201,-0.0228663120384275,2.360073,99.12031,177.9707,0.7610433,0.0001181066,0.6481326,17
13.7,-11.36397,1.438434,-37.13585,0.367520174920843,0.0643791005026186,-0.031316278394291,5.911642,99.99173,178.0638,0.76543,-0.02021945,0.6412287,17
13.72,-11.32359,1.279103,-37.1233,0.3795836504574118,0.0551773765895087,-0.0335633771761081,354.4576,100.7405,178.4458,0.7687927,0.04126801,0.6375244,17
13.74,-11.16945,1.291247,-37.13044,0.4034137628804155,0.0692194558402653,-0.0369486854385243,352.2317,101.0262,179.0986,0.7696346,0.04913096,0.6348329,17
13.76,-11.04437,1.452961,-37.15326,0.4210003356724505,0.1049516982535434,-0.0409365596685784,355.8301,101.8539,179.4289,0.7757054,0.02679738,0.6300262,17
13.78,-10.99223,1.295987,-37.14417,0.4168384635743111,0.0882059374410258,-0.0380445248910819,353.4545,101.4582,179.5569,0.7727538,0.03912536,0.6321217,17
13.8,-10.86789,1.456787,-37.166,0.4157358203288263,0.1162061707310609,-0.0378629382001811,357.0168,102.2864,179.9444,0.7784445,0.01670869,0.6271734,17
13.82,-10.88679,1.269948,-37.14278,0.3954380537446194,0.0927342241360568,-0.0299214961404992,354.0743,101.7117,180.0296,0.7745322,0.03242937,0.6304193,17
13.84,-10.78921,1.254481,-37.14687,0.3847526471114026,0.1148633390749644,-0.0258716693988034,357.4461,101.5275,181.1474,0.7744542,0.006341432,0.6321582,17
13.86,-10.66729,1.418593,-37.16935,0.3754128965458178,0.1623811382563694,-0.0244939542429749,1.017023,102.3807,181.49,0.7790633,-0.01569307,0.6267474,17
13.88,-10.64861,1.245671,-37.15151,0.3395917476690674,0.1355166702561696,-0.0142655973124448,1.437988,102.0847,181.6162,0.7773612,-0.018855,0.6287712,17
13.9,-10.52454,1.41024,-37.17425,0.3157535277533951,0.1582768641225009,-0.0071316874623086,5.08453,102.9623,181.9934,0.7810346,-0.04121613,0.6226686,17
13.92,-10.54455,1.237614,-37.14859,0.2666106058655332,0.1292942675761526,0.0099360667146068,6.178498,102.0928,182.6032,0.7755555,-0.05151116,0.628567,17
13.94,-10.47401,1.226269,-37.13574,0.2328679901419341,0.1501194732834749,0.0215553248711293,10.33566,101.6456,183.1721,0.770174,-0.0782481,0.6308449,17
13.96,-10.3517,1.39655,-37.15742,0.2020025911234093,0.195512023303756,0.0300027364312409,13.95531,102.571,183.5138,0.7717997,-0.09968907,0.6234219,17
13.98,-10.37471,1.20871,-37.13332,0.1399166372396071,0.1619306680522946,0.0478482888334275,13.43882,102.137,183.5571,0.7699007,-0.09746789,0.6265986,17
14.0,-10.25417,1.383119,-37.15466,0.0813041666835703,0.1539141692293678,0.0630490630513653,17.03147,103.0813,183.9089,0.7708254,-0.1184579,0.6186988,17
14.02,-10.29843,1.190913,-37.12555,0.0140769641232064,0.1196627661050458,0.0834107431371533,16.07898,101.9702,183.794,0.76601,-0.1134614,0.6265913,17
14.04,-10.2427,1.175684,-37.1123,-0.0300684523316453,0.1411554465552738,0.0946924281303021,18.74197,100.6442,184.0743,0.7551997,-0.1308879,0.6340069,17
14.06,-10.12504,1.358256,-37.13101,-0.0928595088502253,0.1080876095317078,0.1116265121726227,22.29287,101.5884,184.345,0.7550851,-0.1509297,0.6254166,17
14.08,-10.14805,1.160691,-37.10601,-0.1554015061110778,0.0760863233094243,0.1294552921951224,21.58333,99.24313,184.1302,0.7434528,-0.1481858,0.6411026,17
14.1,-10.03174,1.34736,-37.12363,-0.2103308456184242,0.06877728837966,0.143458207335283,25.11599,100.1612,184.308,0.7428268,-0.1675636,0.6321824,17
14.12,-10.07129,1.139055,-37.08385,-0.277942701464239,0.0353773833406121,0.1607137998276933,26.29885,95.6609,183.9768,0.7159948,-0.1776713,0.6591814,17
14.14,-9.957128,1.331557,-37.09782,-0.3195728917819566,0.060864602593663,0.1690491088012153,29.78444,96.50701,183.9774,0.714665,-0.1960393,0.6497378,17
14.16,-9.843678,1.520784,-37.11251,-0.370173288229383,0.0297661724479632,0.1819132987039635,33.26783,97.38478,184.04,0.7126347,-0.2142099,0.6396648,17
14.18,-9.89167,1.124781,-37.07713,-0.4267381749008235,-0.028729316821124,0.1963353862582195,32.08012,93.31947,183.5675,0.6927347,-0.2113048,0.6655458,17
14.2,-9.854476,1.12182,-37.07417,-0.4536727011061706,-0.0007106854891161,0.2021755302383248,34.6927,92.49842,183.2556,0.6833667,-0.2256791,0.6659242,17
14.22,-9.753806,1.117135,-37.076,-0.4918632348940017,-0.0294030735171824,0.209113156896505,39.6174,91.79192,182.6826,0.6698824,-0.2515981,0.6602997,17
14.24,-9.643626,1.316366,-37.08839,-0.5091216201842867,-0.0265283622596481,0.2106472766134599,42.99361,92.41497,182.3516,0.666292,-0.2673296,0.6492011,17
14.26,-9.605302,1.11495,-37.0856,-0.5213086340598825,-0.0222541395489709,0.211226028663388,43.26509,92.18973,181.7727,0.6657082,-0.2659779,0.6486554,17
14.28,-9.496108,1.315018,-37.09778,-0.5378305413048861,-0.0764217753588126,0.2130030433151732,46.61615,92.80302,181.452,0.6615787,-0.2812628,0.6369025,17
14.3,-9.466734,1.113668,-37.09106,-0.5320847249756777,-0.0431422287005471,0.2098685531100397,46.36215,91.7355,180.3983,0.6588319,-0.276389,0.6410785,17
14.32,-9.326052,1.109932,-37.09725,-0.5279393646372781,-0.0679041578060805,0.2075134443838191,50.66825,90.55201,178.7484,0.6454246,-0.2940755,0.6326584,17
14.34,-9.218959,1.309199,-37.10965,-0.4968193281333601,-0.0620557872465802,0.2011530302156687,53.95625,90.96077,178.207,0.6403197,-0.3080975,0.6197163,17
14.36,-9.105507,1.10369,-37.11333,-0.4611990339223304,-0.0560413330313124,0.1934840046037544,56.49289,89.34522,176.2363,0.6300532,-0.3160361,0.6151896,17
14.38,-8.999887,1.299586,-37.12738,-0.4175775518426727,-0.1065937342737213,0.1864131687366237,59.74387,89.4838,175.4156,0.6240537,-0.3290705,0.6014022,17
14.4,-8.879272,1.104436,-37.13036,-0.3640645551975037,-0.0705458269701405,0.1750961192704148,61.2087,84.99121,171.2559,0.6083584,-0.3299627,0.6065574,17
14.42,-8.675207,1.117942,-37.14226,-0.3069735030311943,-0.0869060222415237,0.1651788528435664,61.81823,79.96271,167.2906,0.5914657,-0.3301706,0.6168615,17
14.44,-8.570515,1.304177,-37.15738,-0.2464580077066802,-0.0675651752213555,0.1545122619126644,64.91771,78.9219,165.1949,0.5851807,-0.3418132,0.6020687,17
14.46,-8.437333,1.144231,-37.15983,-0.1839582557326444,-0.0491170576226163,0.1431808971942212,58.38644,79.53594,167.8857,0.5948709,-0.3138911,0.634339,17
14.48,-8.331934,1.325978,-37.1758,-0.1201881311473757,-0.0803480879215358,0.1333668712456379,61.46891,78.745,166.0116,0.5893105,-0.3257329,0.6200396,17
14.5,-8.229446,1.17806,-37.17421,-0.0624746408663268,-0.0347117505870586,0.1207065124056523,52.09324,82.88074,171.2536,0.6179907,-0.2828712,0.6493879,17
14.52,-8.049695,1.211173,-37.19325,-0.0015861990809787,-0.0350581245162838,0.1072707130861676,43.17195,86.83788,173.9587,0.6523166,-0.2331705,0.661143,17
14.54,-7.935615,1.384277,-37.2113,0.0450243947882027,0.0086291002027621,0.0922632843021613,46.51925,87.15544,173.2336,0.6490909,-0.2482076,0.6483367,17
14.56,-7.84488,1.239039,-37.22644,0.0913040430557156,0.0727923609891508,0.0760241955160898,32.0881,90.43881,175.3476,0.6895016,-0.1668291,0.6684371,17
14.58,-7.724184,1.408245,-37.24733,0.1259414318659589,0.0646259677935778,0.06250943741545,35.62303,91.02811,174.9203,0.688058,-0.1840352,0.6568208,17
14.6,-7.678935,1.257077,-37.24821,0.1526881290085345,0.0780174666807579,0.0514770831806288,20.06799,93.68304,176.5934,0.7215323,-0.09777474,0.6694811,17
14.62,-7.631522,1.263656,-37.25023,0.1809074853816152,0.0674777170747306,0.0431174111197183,13.90418,94.81906,177.1797,0.7325915,-0.06390469,0.6693816,17
14.64,-7.510431,1.431369,-37.27153,0.2185249020633113,0.1012560726087421,0.0327735983261217,17.43403,95.62267,177.1006,0.7347195,-0.08321863,0.6607634,17
14.66,-7.402695,1.275697,-37.26386,0.2457217536159504,0.1096903180607006,0.0253435566355237,358.4039,98.16798,178.1995,0.7553605,0.0209933,0.6549731,17
14.68,-7.327339,1.279063,-37.26707,0.2701974346506363,0.115997546042208,0.0193540864720365,354.4716,98.93001,178.444,0.7586294,0.0416471,0.6495941,17
14.7,-7.203651,1.443614,-37.28799,0.2907793108850677,0.1215893463130401,0.0145044338882662,358.0466,99.73839,178.6604,0.7642833,0.01992251,0.6445495,17
14.72,-7.151937,1.291232,-37.27574,0.2976446456481173,0.1024157714170018,0.0143099678397335,352.2322,99.5167,179.1027,0.7612076,0.04971949,0.6449142,17
14.74,-7.016833,1.295992,-37.27674,0.3134891256700659,0.1282724562002718,0.0106867757090123,353.4547,99.45725,179.5476,0.7615956,0.03990864,0.6455215,17
14.76,-6.891845,1.456803,-37.29411,0.3085599863826152,0.1231817767154182,0.0111461951517526,357.0187,100.246,179.9241,0.7671519,0.01718661,0.6409376,17
14.78,-6.890249,1.269934,-37.27757,0.2992682889375863,0.1169702762107136,0.0132840254396633,354.0745,100.0215,180.0321,0.7651501,0.03300218,0.6417737,17
14.8,-6.768644,1.433366,-37.29524,0.2954706013447068,0.1541037798808994,0.0125092943400346,357.5855,100.8125,180.4085,0.7704548,0.01068175,0.6371365,17
14.82,-6.747739,1.249927,-37.27145,0.2657130280716668,0.1154642491374177,0.0218581135737663,359.4509,99.4502,181.3813,0.7629249,-0.006098832,0.6463574,17
14.84,-6.623221,1.414006,-37.28882,0.253174651218543,0.1270980211382615,0.0261795163022711,3.082338,100.2748,181.7363,0.7669571,-0.02886247,0.6409562,17
14.86,-6.501327,1.574245,-37.30686,0.2405544528765897,0.1629640593697269,0.0293607724633213,6.707177,101.1257,182.1457,0.7701688,-0.05158916,0.6348782,17
14.88,-6.53548,1.237656,-37.27343,0.1992671858860238,0.1234579326576833,0.0412793983635957,6.173469,100.2478,182.6154,0.765332,-0.05200312,0.6409756,17
14.9,-6.411508,1.404648,-37.29106,0.1558593356206843,0.1079036310824653,0.0516864402100338,9.806997,101.1154,182.9984,0.7677544,-0.07441598,0.634486,17
14.92,-6.44282,1.217641,-37.25085,0.1019100328091721,0.0659303087359519,0.0671256234772652,11.86034,99.48876,183.3525,0.7568073,-0.08893925,0.6447722,17
14.94,-6.321629,1.390264,-37.26727,0.0663963559132007,0.0743397039587401,0.0770033848113334,15.43923,100.3795,183.6829,0.7580505,-0.1104174,0.6374331,17
14.96,-6.202461,1.559228,-37.28433,0.0176394698305088,0.0566148790205068,0.0877102287681799,19.01152,101.3085,184.0782,0.7585071,-0.1317755,0.6294416,17
14.98,-6.279536,1.190957,-37.2452,-0.0328177860892669,0.0401520902801816,0.0995607199280801,16.06534,100.0893,183.806,0.7556256,-0.1148937,0.639096,17
15.0,-6.2586,1.183285,-37.2373,-0.0852004597935471,0.0224102988251933,0.1110591059174979,17.37486,99.39505,183.9348,0.7500922,-0.1235232,0.6429796,17
15.02,-6.193729,1.168231,-37.22464,-0.1458294980543237,-0.02212607702827,0.1272368410524693,20.13168,97.94823,184.0985,0.7382234,-0.1412138,0.6505981,17
15.04,-6.076776,1.352882,-37.23836,-0.1825402204686774,-0.0110386893060594,0.1371882459588365,23.65692,98.84144,184.3253,0.7378178,-0.1612981,0.6421083,17
15.06,-6.089537,1.152989,-37.21719,-0.2096610079043758,0.0287118073027112,0.1430100720020686,23.06157,96.75857,184.0945,0.7272599,-0.1588509,0.6557144,17
15.08,-5.973979,1.34168,-37.23005,-0.2620857801360405,-0.0159583497187038,0.1558799669298336,26.56758,97.62576,184.2378,0.7263321,-0.1782879,0.6468562,17
15.1,-6.003042,1.139019,-37.20718,-0.2923404482070951,-0.0029950020418453,0.1628994395795997,26.2804,95.14214,184.0071,0.7129869,-0.1784128,0.6624747,17
15.12,-5.990739,1.132743,-37.19893,-0.3207693229335322,0.0095654297580451,0.1702024105963202,28.00318,93.84229,183.9693,0.702565,-0.1896971,0.6684343,17
15.14,-5.877779,1.327004,-37.20968,-0.3396641487953409,-0.0056966452501403,0.1755412585873283,31.45265,94.62872,183.9327,0.7008465,-0.2079306,0.6590493,17
15.16,-5.849246,1.121763,-37.18627,-0.3554521609775014,-0.0191599721939149,0.1803904999363643,34.70662,91.13186,183.2769,0.6753061,-0.2282127,0.674039,17
15.18,-5.801618,1.118737,-37.18391,-0.368595211890261,-0.0341582934994898,0.1849324264305591,37.36727,90.46978,183.017,0.6664124,-0.2432138,0.6728483,17
15.2,-5.690747,1.317331,-37.19363,-0.3554629709677189,0.0333358775909503,0.1817431563327955,40.75743,91.07628,182.7067,0.6630992,-0.2596414,0.662282,17
15.22,-5.688492,1.11557,-37.19028,-0.3499295005732994,0.0155738248579781,0.1793517158752182,41.83783,90.55084,182.3693,0.6583299,-0.2649209,0.6624207,17
15.24,-5.584771,1.114435,-37.1897,-0.338183701721588,0.0297289046435103,0.1745633218444799,44.69206,90.17377,181.1447,0.6522833,-0.274963,0.6556709,17
15.26,-5.475803,1.314788,-37.19786,-0.3228254618713444,-0.0137198454856417,0.1711018828964396,48.02898,90.7366,180.8174,0.647984,-0.2905436,0.643786,17
15.28,-5.430326,1.11289,-37.19255,-0.2971842563744508,-0.0261012609829902,0.1656122899623184,48.05346,89.42077,179.5625,0.6436675,-0.2869036,0.6479979,17
15.3,-5.322398,1.313167,-37.20162,-0.2673344381830488,-0.0374558064889398,0.1592770879098521,51.35709,89.86424,179.0976,0.638913,-0.3017457,0.6355974,17
15.32,-5.262926,1.107118,-37.19815,-0.2039637031369748,-0.0474418562932346,0.1503443431219384,53.28908,88.29212,177.711,0.6288303,-0.309297,0.6349986,17
15.34,-5.067887,1.102195,-37.20577,-0.1425756357037447,-0.0268145300540428,0.1394734250763916,59.65499,85.61192,174.0767,0.6075667,-0.3339696,0.6181561,17
15.36,-4.962355,1.295779,-37.21703,-0.0742257114309265,-0.0597224028516041,0.1295429383098181,62.88261,85.39644,172.924,0.6011242,-0.346926,0.6040045,17
15.38,-4.829438,1.109034,-37.21676,-0.0051243199582654,-0.0342314321097537,0.1174550190667238,62.63919,79.58527,167.9459,0.5856639,-0.3397899,0.617841,17
15.4,-4.724624,1.297566,-37.22838,0.0666737611519423,-0.059309204307305,0.1071330094243236,65.76367,78.55845,165.9241,0.5791582,-0.3519383,0.6030455,17
15.42,-4.619845,1.128773,-37.22309,0.1374277794549606,-0.0283094212336237,0.0946580009297717,60.95766,76.79855,166.7929,0.5774686,-0.3333121,0.6346952,17
15.44,-4.430051,1.161749,-37.22764,0.2064660942801467,-0.0165415005237903,0.0836085384735252,55.76297,77.56081,168.8233,0.5864992,-0.3089079,0.6572616,17
15.46,-4.323572,1.34135,-37.2396,0.2746958195410713,-0.0055165735308063,0.0723057442877515,58.84494,76.93151,167.1353,0.5814959,-0.3215144,0.6434654,17
15.48,-4.220359,1.195535,-37.2382,0.3365074581469475,0.0082266793495931,0.0587717900927664,48.28585,83.20189,173.218,0.6228929,-0.2694837,0.6651195,17
15.5,-4.112649,1.371733,-37.25063,0.3984125665389842,0.0205309526095865,0.0450631305346407,51.43513,83.31824,172.3369,0.6191808,-0.2834565,0.6523281,17
15.52,-3.986533,1.239233,-37.26787,0.4619011939591034,0.034048250684341,0.0296223794349881,32.08521,87.88272,175.3333,0.6744467,-0.1716704,0.6836278,17
15.54,-3.865978,1.408738,-37.28344,0.5132738960025729,0.067653076643807,0.0146280938842204,35.593,88.42426,174.8897,0.6730552,-0.189252,0.6722847,17
15.56,-3.747595,1.574637,-37.29966,0.5527828117325069,0.0526046065483669,0.0026894211476982,39.10319,88.956,174.4677,0.6709915,-0.206642,0.6602794,17
15.58,-3.706193,1.263305,-37.29732,0.5925398709569769,0.0823535742206928,-0.0091569011201384,13.94831,93.09644,177.1887,0.722414,-0.06580533,0.6802877,17
15.6,-3.646931,1.268002,-37.29781,0.6273290042849157,0.1090442907509409,-0.0198870706533966,8.169798,94.24181,177.5713,0.7317927,-0.03297048,0.6774663,17
15.62,-3.499792,1.275575,-37.30206,0.6537978099427408,0.1097511144030371,-0.0266029432686352,358.4219,96.30997,178.2055,0.7446464,0.0208501,0.6671337,17
15.64,-3.375984,1.441028,-37.31914,0.6912400862965685,0.1116726370236032,-0.0321927712405605,1.993906,97.09521,178.3506,0.7494808,-0.000730616,0.6616411,17
15.66,-3.299014,1.285091,-37.31313,0.7244204467952029,0.1116348145663154,-0.0360966859038862,353.3254,97.82703,178.7695,0.7519859,0.04633559,0.6565163,17
15.68,-3.173908,1.44821,-37.32951,0.7542955017112972,0.1547497619548291,-0.0424695544871331,356.913,98.58665,179.046,0.7576107,0.02387533,0.6520975,17
15.7,-3.122945,1.29365,-37.31876,0.7674771834831187,0.1485149560070734,-0.0438671382774868,352.8271,98.31847,179.3208,0.7547926,0.04538214,0.6529473,17
15.72,-3.072592,1.296023,-37.31466,0.7753603632939443,0.1408269645066083,-0.0433834808312205,353.4475,98.09645,179.5513,0.7538747,0.0404101,0.6545164,17
15.74,-2.947405,1.456888,-37.3285,0.7876883566517991,0.1758705182908857,-0.0458134565529757,357.0068,98.84578,179.9295,0.7592615,0.01745591,0.650261,17
15.76,-2.911985,1.262134,-37.30993,0.7915216177174659,0.2295649745726094,-0.0492649778901084,355.7337,98.36884,180.5965,0.7564094,0.0203921,0.6530181,17
15.78,-2.789717,1.425957,-37.32409,0.7654722765788882,0.1830697370134433,-0.0422296093046874,359.2685,99.13232,180.9583,0.761148,-0.002225446,0.6484932,17
15.8,-2.669993,1.586097,-37.33892,0.7516021468702956,0.1871735630728051,-0.0388596478082732,2.797093,99.91817,181.3676,0.7651154,-0.02483435,0.6433201,17
15.82,-2.695723,1.240659,-37.29446,0.7208459871446575,0.1408325420489439,-0.0283381970338316,3.978494,97.97903,182.0653,0.7536019,-0.03636554,0.6561673,17
15.84,-2.57188,1.406919,-37.30783,0.6908167670941361,0.1207312452545001,-0.0202584378871764,7.592141,98.79153,182.4179,0.7564799,-0.05906247,0.6503184,17
15.86,-2.45047,1.5694,-37.32188,0.655636050188618,0.1012641029091964,-0.0111687436521892,11.19934,99.63436,182.8262,0.7585599,-0.08169103,0.6437927,17
15.88,-2.502146,1.226464,-37.28647,0.6147152344496902,0.0795835242573845,-0.0008011940474448,10.29624,98.45093,183.1847,0.7523109,-0.079538,0.6520867,17
15.9,-2.481188,1.217772,-37.27984,0.5609847773434258,0.0523974218664482,0.0109361827171028,11.83928,98.40753,183.3554,0.7507056,-0.08940135,0.6518941,17
15.92,-2.415432,1.199821,-37.26833,0.5030711241242882,0.0265960028324823,0.0236615466298042,14.72891,98.38586,183.6781,0.7475956,-0.1078153,0.650903,17
15.94,-2.2958,1.376563,-37.28097,0.463359338798392,0.051798151859493,0.0288709370720283,18.27814,99.25459,184.0148,0.7481104,-0.1291689,0.6433805,17
15.96,-2.308073,1.183258,-37.26104,0.3935411859448268,-0.0040558947673305,0.0439848893581542,17.37521,98.20522,183.9431,0.7433662,-0.1245394,0.6507396,17
15.98,-2.190084,1.364024,-37.27337,0.3082474110481887,-0.0858530343042434,0.0624974036592966,20.90214,99.07751,184.2505,0.7433429,-0.1453798,0.642847,17
16.0,-2.223086,1.1683,-37.24964,0.2495459098186602,-0.0870161851710153,0.073676978212986,20.11085,96.97488,184.1044,0.7326913,-0.1420516,0.6568669,17
16.02,-2.161775,1.153071,-37.23547,0.1890613472927201,-0.1159308029891664,0.0877363610216068,23.04026,95.23514,184.0904,0.7185162,-0.1603659,0.6653405,17
16.04,-2.046495,1.341839,-37.24525,0.1358743365288052,-0.1129333113496539,0.0981770213069532,26.53127,96.06145,184.2267,0.7175136,-0.180033,0.6567369,17
16.06,-1.932119,1.527303,-37.2557,0.0819964679206799,-0.1099503261864885,0.1088214466861083,30.01896,96.92388,184.425,0.7158095,-0.1995169,0.6475003,17
16.08,-1.998524,1.132711,-37.22065,0.0462373197419985,-0.0529549310730192,0.114535554932992,28.01162,92.99346,183.982,0.6975588,-0.1909559,0.6736266,17
16.1,-1.885089,1.326905,-37.22935,-0.0191976409157098,-0.109020977169349,0.1280246511298806,31.47386,93.74754,183.9562,0.6956742,-0.2095468,0.6644252,17
16.12,-1.772203,1.517893,-37.23874,-0.0622936244238417,-0.1054005845190041,0.1363531695899604,34.9351,94.5294,183.985,0.6931211,-0.2279328,0.6545937,17
16.14,-1.766171,1.118673,-37.20463,-0.0958930479481665,-0.1282497039540796,0.1436465871098828,37.3904,89.82127,183.0414,0.6624926,-0.244672,0.676611,17
16.16,-1.654603,1.317173,-37.21246,-0.1336124919930976,-0.1771024738684219,0.1516603850630611,40.8026,90.40511,182.7549,0.658995,-0.261537,0.6661612,17
16.18,-1.543304,1.512566,-37.22096,-0.1565033349403454,-0.165367294211107,0.1543788093897857,44.21595,90.99724,182.501,0.6548797,-0.278154,0.6550952,17
16.2,-1.432471,1.704873,-37.23013,-0.1671502271452896,-0.123720823196214,0.1547053306198824,47.63008,91.60374,182.2832,0.6501507,-0.2945074,0.6434237,17
16.22,-1.477271,1.114448,-37.21158,-0.1899270747021338,-0.1683246042767802,0.1574108781592214,44.69174,89.89174,181.1564,0.6506401,-0.2756736,0.6573018,17
16.24,-1.367629,1.314769,-37.21923,-0.1931150734917462,-0.1526696634543134,0.1576523911740306,48.05203,90.41456,180.8268,0.6460893,-0.2915254,0.6455711,17
16.26,-1.263578,1.109949,-37.21215,-0.1914083173095792,-0.1072183138076404,0.1557674933752757,50.67556,88.07309,178.7444,0.6315805,-0.3007526,0.6464409,17
16.28,-1.185638,1.107129,-37.21287,-0.1762648073526617,-0.1494489763085008,0.1557561638585429,53.29828,87.34119,177.7056,0.6235301,-0.312007,0.6401528,17
16.3,-1.078549,1.305369,-37.22083,-0.1508646426703029,-0.1592147977507249,0.1540535030156746,56.58135,87.56018,177.0459,0.6178671,-0.3263704,0.6270971,17
16.32,-0.8457735,1.104429,-37.22221,-0.1225581304805465,-0.1684339098675339,0.1515783968528472,61.21314,81.95687,171.2415,0.5921175,-0.3401586,0.622387,17
16.34,-0.7404333,1.295465,-37.23214,-0.0844942090353063,-0.1199280358078256,0.146496678515362,64.40063,81.32527,169.6801,0.5855005,-0.3529947,0.6080561,17
16.36,-0.6028115,1.1179,-37.22912,-0.0386766801139523,-0.1182551164028065,0.1442902251458653,61.82,77.40315,167.2994,0.577511,-0.3390951,0.6299409,17
16.38,-0.4978383,1.304168,-37.23919,0.0081498423018365,-0.1165153134390726,0.1416178771001179,64.91621,76.28393,165.2022,0.5711476,-0.3514681,0.6154119,17
16.4,-0.3844792,1.14415,-37.2332,0.051411435257233,-0.061289629876998,0.1368233154052349,58.3994,76.63443,167.875,0.5786247,-0.3234648,0.6491122,17
16.42,-0.2787082,1.325954,-37.24355,0.1101903642889007,-0.0755007370528203,0.1345403775169398,61.47655,75.7536,165.986,0.5729851,-0.3360527,0.6350918,17
16.44,-0.08569762,1.195359,-37.23873,0.168968654326911,-0.0610550416266253,0.1291482789124129,48.32787,82.18452,173.1784,0.6169738,-0.2722825,0.6703904,17
16.46,0.0221684,1.371596,-37.24952,0.2159607525441428,-0.0250009188528396,0.1223574099340263,51.47621,82.24105,172.2681,0.6131076,-0.2864535,0.6577899,17
16.48,0.1231823,1.227053,-37.26233,0.2622115405846682,0.0084349447220966,0.1152895820775716,38.04013,85.5914,174.6924,0.6526783,-0.2091436,0.6827243,17
16.5,0.2447348,1.396971,-37.27575,0.2960820415867795,0.0182560370540618,0.1077422785179598,41.58058,85.95087,174.0801,0.6498574,-0.2264417,0.6705987,17
16.52,0.377235,1.257245,-37.28323,0.3295995886949892,0.0270943704876325,0.1000570476876721,20.07176,90.48373,176.5888,0.7025626,-0.1018365,0.6893515,17
16.54,0.498769,1.425447,-37.29742,0.3592020296917843,0.0777573647425129,0.0930471131133678,23.59526,91.16807,176.4118,0.7033263,-0.1211308,0.6801705,17
16.56,0.5604763,1.267997,-37.29401,0.3799129544575753,0.0574979643878572,0.0911999820838609,8.175001,93.55924,177.5752,0.7277417,-0.03342207,0.6818125,17
16.58,0.6835519,1.434892,-37.30927,0.3902648202072419,0.0126729499046828,0.0919308164465677,11.73586,94.30886,177.5806,0.7306527,-0.05410939,0.6747282,17
16.6,0.8042741,1.598034,-37.32515,0.4087980167021993,0.036117296566648,0.0908528083031239,15.29534,95.06935,177.6343,0.7328234,-0.07473681,0.6669694,17
16.62,0.8256562,1.279128,-37.30145,0.4356963004963027,0.0372838721619591,0.0920214500102467,354.4775,96.61349,178.4317,0.7453413,0.04224726,0.6648003,17
16.64,0.9795899,1.291228,-37.29793,0.4549709084071071,0.060978415745385,0.0926067012823654,352.2382,96.8686,179.0895,0.7460994,0.05083578,0.6623386,17
16.66,1.105823,1.452982,-37.31076,0.4689198329408912,0.0815362458002362,0.0945371484675856,355.8372,97.58148,179.4053,0.7516778,0.02782898,0.6585094,17
16.68,1.229346,1.610822,-37.32428,0.4638023521099779,0.0737644666805764,0.0984193636451218,359.4308,98.31158,179.7649,0.7564732,0.004800227,0.6540028,17
16.7,1.227492,1.282795,-37.29697,0.4421582946830932,0.041379725065352,0.1044934787665106,353.7732,97.43517,179.7914,0.7502912,0.03719939,0.6588706,17
16.72,1.351666,1.444764,-37.30883,0.4266494573653078,0.0548952215893034,0.1077924988455532,357.3222,98.14967,180.1642,0.7553809,0.01422388,0.654868,17
16.74,1.473187,1.60295,-37.32139,0.4080674154306521,0.0422582196823744,0.1125493725911637,0.8652349,98.8858,180.5807,0.7597023,-0.008759002,0.6502079,17
16.76,1.591817,1.757527,-37.33459,0.3852144832910508,0.0298678569167999,0.118071105232735,4.401489,99.64906,181.0438,0.7632516,-0.03172708,0.6448954,17
16.78,1.55351,1.246218,-37.28455,0.3705690705236006,0.0677063515029814,0.119622042736549,1.364286,97.82213,181.6171,0.7534515,-0.01845842,0.6572444,17
16.8,1.676874,1.411433,-37.29665,0.3508929933156353,0.1018109017638338,0.1219622416336418,4.952981,98.58312,181.9886,0.7567272,-0.04131959,0.6520712,17
16.82,1.719249,1.232106,-37.26824,0.2924762008505301,0.0366821958321304,0.1328512043163341,8.235244,97.7507,182.8932,0.7499046,-0.06617789,0.6571581,17
16.84,1.779104,1.226416,-37.26307,0.2527470360768113,0.0462027859265488,0.1358453623843116,10.30427,97.79083,183.1755,0.7485426,-0.07980919,0.6564029,17
16.86,1.901938,1.396833,-37.2754,0.1906769635024323,0.0032984838458541,0.1436070408937162,13.90882,98.6004,183.5152,0.7497832,-0.1020004,0.6498092,17
16.88,2.022631,1.563527,-37.28838,0.1132940908496461,-0.0646588338447973,0.1537630102313683,17.50715,99.44601,183.9143,0.7502417,-0.1240796,0.6425459,17
16.9,1.932232,1.199718,-37.24801,0.0593173433804757,-0.0567813353582258,0.1571847890169078,14.74852,98.11765,183.6764,0.7460516,-0.1080924,0.6526394,17
16.92,2.052773,1.37623,-37.26004,0.0032813422612117,-0.0754606173355394,0.1623071827525644,18.32673,98.94879,184.0102,0.7463353,-0.1296714,0.6453381,17
16.94,2.171585,1.549141,-37.2727,-0.0450878634612027,-0.0629602522790448,0.1639761737521681,21.89878,99.8208,184.4075,0.7458519,-0.1511121,0.6373816,17
16.96,2.105415,1.168235,-37.22051,-0.1125776658612189,-0.1042075996008705,0.1692894934907505,20.14363,95.9972,184.0816,0.727045,-0.1430042,0.663047,17
16.98,2.13375,1.160838,-37.21289,-0.1603911923618051,-0.088648880250923,0.1699645447194742,21.56124,95.03745,184.1082,0.7194884,-0.1522097,0.6679479,17
17.0,2.250344,1.347624,-37.22222,-0.2282036821602027,-0.127603843794108,0.1743039895148923,25.08253,95.82891,184.2555,0.7185344,-0.172334,0.6597795,17
17.02,2.2623,1.13906,-37.19065,-0.2777939362090342,-0.1372821079654731,0.1759085503136326,26.28977,92.41495,183.9888,0.6970338,-0.18175,0.679221,17
17.04,2.376802,1.331542,-37.19764,-0.316723974788017,-0.1138815854746153,0.1734306289063996,29.77587,93.14902,183.994,0.6953076,-0.2009674,0.6704335,17
17.06,2.490655,1.520766,-37.20527,-0.3531316801890711,-0.0899819006174953,0.1703519115543761,33.26015,93.9108,184.053,0.6929085,-0.2199849,0.6610045,17
17.08,2.603657,1.706778,-37.21354,-0.4067690980907888,-0.1518232834422432,0.1708199720669059,36.74242,94.70945,184.1723,0.6898387,-0.2387859,0.6509436,17
17.1,2.510331,1.121752,-37.16726,-0.4304881989843316,-0.1262893582050586,0.1641068410165065,34.71365,89.01883,183.2842,0.6627345,-0.2318303,0.6863766,17
17.12,2.622563,1.31945,-37.1726,-0.450159451898333,-0.1004138466676106,0.1564874668574836,38.14325,89.60749,183.0485,0.6595989,-0.2494706,0.6764671,17
17.14,2.682481,1.115561,-37.16324,-0.4751232185103008,-0.1609711810132688,0.1499874025164107,41.84547,88.1591,182.3791,0.6443211,-0.2699721,0.6760198,17
17.16,2.746801,1.114936,-37.16059,-0.4859596049462242,-0.1615081531570848,0.137090203316152,43.24363,88.07584,181.7861,0.642015,-0.2749318,0.6722081,17
17.18,2.855967,1.315017,-37.1648,-0.4922941196164397,-0.1598075525144964,0.1229944039589776,46.58559,88.57536,181.4647,0.6376799,-0.2912404,0.6609746,17
17.2,2.96499,1.512133,-37.16966,-0.5022679132722353,-0.2160394646548832,0.1095313629089629,49.9285,89.07887,181.167,0.6327727,-0.3072855,0.6491562,17
17.22,2.967668,1.112883,-37.15376,-0.5080394816032717,-0.2727025567493588,0.0952290209101045,48.05276,86.88032,179.5737,0.6291175,-0.2932953,0.6621366,17
17.24,3.075917,1.313147,-37.15792,-0.4741851801891346,-0.273279729058252,0.0757474756681748,51.36396,87.25121,179.1105,0.6242024,-0.3088688,0.6500149,17
17.26,3.184037,1.510495,-37.16272,-0.435124866835143,-0.2999129226745874,0.0556866412009524,54.67608,87.60484,178.6475,0.6187356,-0.3241673,0.6373265,17
17.28,3.36049,1.102148,-37.14879,-0.3916471578101113,-0.2669202545614022,0.0324339004500169,59.65766,82.81216,174.1026,0.5921993,-0.3430688,0.6328871,17
17.3,3.45383,1.104377,-37.14549,-0.3401763624496101,-0.2048389416328494,0.0071593155957589,61.20656,79.70359,171.2928,0.5796254,-0.3478347,0.6341022,17
17.32,3.559176,1.295397,-37.15048,-0.2812637098057176,-0.2221664257519073,-0.0182380014060816,64.39182,79.07978,169.7809,0.5731778,-0.3612861,0.6197956,17
17.34,3.663854,1.483674,-37.15606,-0.237964190143322,-0.1815011010812316,-0.0455069307547777,67.56657,78.15309,167.978,0.5662434,-0.3744287,0.6049701,17
17.36,3.89745,1.144197,-37.13481,-0.1926877929365056,-0.1418500321193955,-0.0732715041852598,58.39634,73.7093,167.8348,0.5619908,-0.3326663,0.6635532,17
17.38,4.003719,1.326017,-37.14031,-0.1379546165286436,-0.1189474774435951,-0.1037551813364858,61.47221,72.74719,165.8928,0.5564173,-0.3457986,0.6496081,17
17.4,4.10879,1.505058,-37.14641,-0.0854645569972947,-0.1189820735074271,-0.1346950711564716,64.52744,71.43674,163.6164,0.5503802,-0.3586414,0.6351296,17
17.42,4.32276,1.211836,-37.13279,-0.0315987049215269,-0.0695614460077841,-0.1684010945286402,43.09691,81.08681,173.9803,0.6184133,-0.2469765,0.6932904,17
17.44,4.435465,1.22703,-37.14098,0.0266798553319729,-0.0648243150416875,-0.205371585695417,38.045,82.77222,174.7047,0.6356552,-0.2154098,0.6985883,17
17.46,4.557354,1.396962,-37.14779,0.0735822047930574,-0.0159886093980218,-0.2447983921681613,41.58346,83.10377,174.1039,0.6329435,-0.2334015,0.6865849,17
17.48,4.677145,1.563249,-37.15532,0.1100330636225024,-0.0150506039755491,-0.2796353196073191,45.12405,83.40218,173.4963,0.6295906,-0.2511587,0.6738935,17
17.5,4.714076,1.256574,-37.1514,0.1480733486732623,0.0314779297173411,-0.3138887460922017,20.15136,87.81978,176.5898,0.6862783,-0.105665,0.7053964,17
17.52,4.83861,1.423951,-37.15952,0.1696937654322317,0.0300609117448419,-0.3373673489496225,23.75221,88.46774,176.4124,0.686938,-0.1260116,0.6963244,17
17.54,4.960844,1.587523,-37.16836,0.1881358494635807,0.0731423131745353,-0.3607263201979833,27.35398,89.12215,176.2753,0.6868877,-0.1462244,0.686542,17
17.56,5.04633,1.275489,-37.1454,0.2022943808792354,0.0690900566353462,-0.3716177271570808,358.4479,92.64767,178.196,0.7229513,0.02073701,0.690587,17
17.58,5.120939,1.278995,-37.14113,0.2229712314740419,0.1114489043419345,-0.3828759726275601,354.5008,93.36465,178.4389,0.7262077,0.04280728,0.6856649,17
17.6,5.246074,1.443504,-37.14912,0.2280726640444728,0.1063287618593815,-0.3825949853626378,358.0823,94.06279,178.6443,0.7314388,0.02006036,0.6815993,17
17.62,5.390805,1.293647,-37.13195,0.2308387645351435,0.0991423611519219,-0.3782923126624311,352.8314,94.23095,179.3026,0.731021,0.04699361,0.6794581,17
17.64,5.517219,1.454883,-37.13797,0.2323641927290063,0.1100072458699764,-0.3670490721191104,356.4186,94.90963,179.6369,0.736314,0.02346204,0.6759108,17
17.66,5.640945,1.612226,-37.14479,0.2173231473908707,0.1188021434922353,-0.3529962339397938,0.0005267137,95.6072,180.0129,0.7408468,-8.663069e-05,0.6716741,17
17.68,5.621986,1.269842,-37.12449,0.1992667398654672,0.1273445259429298,-0.3340784512420756,354.0904,95.38041,180.0394,0.7385448,0.03444569,0.672231,17
17.7,5.664814,1.261851,-37.12487,0.1777250980656346,0.1328333782262165,-0.3101952713763776,355.7654,95.34872,180.569,0.7389397,0.02120828,0.6727399,17
17.72,5.788837,1.42527,-37.13287,0.1448283327180299,0.1349244941339242,-0.2881349082869313,359.3416,96.04165,180.903,0.743383,-0.002015229,0.6687951,17
17.74,5.846981,1.245907,-37.11804,0.109891935908722,0.1371511890764054,-0.2609901821067621,1.396277,95.92072,181.606,0.7424394,-0.01856615,0.669656,17
17.76,5.971897,1.410713,-37.12623,0.0723161221308694,0.1367239293030248,-0.2286469135137503,5.024951,96.64667,181.9657,0.7455813,-0.04194345,0.664751,17
17.78,6.094322,1.571699,-37.13512,0.0052035568194994,0.0597357971088813,-0.1924144276152528,8.648138,97.4004,182.3743,0.7479362,-0.06527238,0.6591528,17
17.8,6.214009,1.729034,-37.14469,-0.0550736176998019,0.0553092749877926,-0.1625198313594982,12.26453,98.18865,182.8363,0.7495026,-0.08852649,0.6528676,17
17.82,6.096427,1.226186,-37.10175,-0.1163696269409475,0.0521038078105783,-0.1276637480926989,10.32509,96.71685,183.2005,0.7423247,-0.08055171,0.663393,17
17.84,6.220243,1.396323,-37.11078,-0.1865363779964304,0.046244062241504,-0.095421979940995,13.95214,97.49634,183.5642,0.7434016,-0.1032525,0.6570117,17
17.86,6.207747,1.199633,-37.08966,-0.2479088910330145,0.0684500343806953,-0.0610586141355513,14.7502,97.35085,183.7054,0.7416385,-0.1087961,0.6576353,17
17.88,6.23856,1.190951,-37.08584,-0.331374184963912,0.0380833703870528,-0.02490989760771,16.0626,97.36365,183.817,0.7402036,-0.116961,0.6568962,17
17.9,6.358377,1.369472,-37.09502,-0.4148652380383959,0.0092084226695506,0.0161507418657391,19.62701,98.17302,184.1709,0.7400864,-0.1386493,0.6495955,17
17.92,6.368562,1.168137,-37.0737,-0.4851653125061728,0.0033591484217377,0.0536557105236221,20.13703,96.0922,184.1339,0.7275382,-0.1432101,0.6624978,17
17.94,6.486269,1.35261,-37.0822,-0.5541587848402834,0.0002709775543953,0.0957627470411184,23.67792,96.88761,184.391,0.7266365,-0.1640521,0.6546484,17
17.96,6.472095,1.152922,-37.06616,-0.6409210038663189,-0.0582257294835294,0.1404458538440849,23.06267,95.03493,184.1317,0.7172613,-0.1609685,0.6666179,17
17.98,6.58822,1.341464,-37.0742,-0.6988026570230823,-0.0327686832077984,0.1805137161414514,26.58116,95.80666,184.3071,0.71584,-0.1811418,0.6583778,17
18.0,6.55749,1.139011,-37.05724,-0.7407003193764257,0.0218334454802267,0.2219220468660649,26.27525,93.55431,184.0209,0.7037259,-0.1804562,0.6723134,17
18.02,6.631643,1.128704,-37.04726,-0.8045497026014672,-0.0086952274327522,0.2658584430755963,30.01539,91.74957,183.7458,0.6870735,-0.202851,0.678197,17
18.04,6.744174,1.324273,-37.05514,-0.8488390293639694,0.0215137389236207,0.3084160317870656,33.45742,92.39033,183.6409,0.68448,-0.2211003,0.6691737,17
18.06,6.856256,1.516688,-37.06364,-0.8885833518830375,0.0519748541956277,0.3548776602457639,36.89927,93.05026,183.5797,0.6812415,-0.2391376,0.6595275,17
18.08,6.830778,1.118651,-37.04485,-0.9425468649962212,-0.0042202642596782,0.4005649465643328,37.38849,90.28024,183.0477,0.665188,-0.2438611,0.6739672,17
18.1,6.9418,1.317167,-37.05341,-0.9922485303083988,-0.0599977147345955,0.4503686779368978,40.79219,90.79424,182.7626,0.6612599,-0.2607347,0.663956,17
18.12,7.052556,1.512604,-37.06259,-1.011420388470814,-0.0600218973070496,0.4970234839086416,44.19677,91.31274,182.5042,0.6567206,-0.277364,0.6533384,17
18.14,7.099545,1.114418,-37.05947,-1.0254210082358393,-0.0579015716536968,0.5471484632826495,44.68468,90.97726,181.1738,0.656813,-0.2732396,0.651165,17
18.16,7.169549,1.113718,-37.06396,-1.0330773129011477,-0.0542361210423877,0.5973585365458502,46.33908,90.64029,180.3835,0.6527675,-0.2788406,0.647365,17
18.18,7.277281,1.314094,-37.07454,-1.0286537553540909,-0.0187394355086141,0.6496724172771113,49.65127,91.02149,179.9667,0.6475437,-0.294038,0.6359296,17
18.2,7.329734,1.109947,-37.07417,-1.018847620228891,0.0163929893558023,0.7048914443197472,50.64718,90.04408,178.7585,0.6426423,-0.2953893,0.635597,17
18.22,7.436432,1.309244,-37.0856,-1.0060549989622092,-0.0369975726015921,0.7659059826668013,53.93242,90.2974,178.2071,0.6367857,-0.3098902,0.6234817,17
18.24,7.631124,1.102151,-37.09975,-0.9727251497294404,-0.003006487056716,0.8269301113503742,59.64053,87.20789,174.1211,0.6160288,-0.3289354,0.6098291,17
18.26,7.744359,1.104329,-37.10903,-0.9340814496655696,0.0298337454245598,0.8905863144920882,61.20003,84.63423,171.3405,0.6062436,-0.3315775,0.608769,17
18.28,7.84868,1.295334,-37.12233,-0.8790629906237815,-0.0190633073589626,0.9683128341457756,64.38335,84.01655,169.8734,0.5990838,-0.3443319,0.5948992,17
18.3,7.952296,1.483612,-37.13612,-0.8336938993171854,-0.004643006362557,1.0443027549539805,67.55659,83.10359,168.1224,0.5914196,-0.3567947,0.5805354,17
18.32,8.082983,1.128638,-37.14514,-0.7836106617244405,0.0384094497968222,1.1212170140554854,60.96895,79.36795,166.822,0.5914471,-0.3246888,0.6216453,17
18.34,8.187408,1.312654,-37.16068,-0.721976338240707,0.0361454647746778,1.2069139309773291,64.0426,78.15031,164.6773,0.584541,-0.3367075,0.6077696,17
18.36,8.290721,1.493933,-37.17667,-0.6586122019698784,0.0318171204039735,1.2940877211718869,67.08974,76.48621,162.0983,0.5771496,-0.3484453,0.5933967,17
18.38,8.48303,1.195293,-37.1963,-0.6133208246025699,0.1010596394874094,1.3783240694212058,48.33566,86.2984,173.2071,0.6405569,-0.2612055,0.6478708,17
18.4,8.567109,1.209735,-37.21487,-0.5684158760266256,0.0991415050126252,1.4590483780028247,43.37923,87.97932,173.9324,0.6585239,-0.2313707,0.6540049,17
18.42,8.686272,1.381201,-37.23452,-0.5226878865514966,0.0950739454011539,1.5420208400120146,46.89852,88.12002,173.1679,0.6538851,-0.2474394,0.6416033,17
18.44,8.822104,1.249885,-37.27587,-0.4930109119437238,0.156205357514382,1.6238680061678128,26.26924,93.66778,176.0378,0.7152418,-0.1308107,0.6600907,17
18.46,8.942582,1.418278,-37.29853,-0.4649321989610631,0.1699545361158519,1.7019725482039636,29.81281,94.22164,175.7664,0.7139987,-0.1488027,0.6502689,17
18.48,8.987491,1.263543,-37.28893,-0.4448262918826633,0.1599691682758138,1.7768317277255772,13.96165,94.78755,177.1505,0.7323873,-0.0640847,0.6695057,17
18.5,9.108791,1.431179,-37.30984,-0.4277337923414521,0.1483823567962632,1.8540259794180232,17.5043,95.43669,177.0363,0.7336345,-0.08342546,0.6618082,17
18.52,9.127205,1.272013,-37.26131,-0.3976644326356584,0.1578191462490533,1.9317068383091804,2.440468,95.31767,177.8851,0.7391188,-0.0007029334,0.6729859,17
18.54,9.248709,1.439011,-37.27972,-0.3716987285838222,0.1660845981797405,2.0116720864044977,5.980894,95.6404,177.7847,0.7405711,-0.02071727,0.6696724,17
18.56,9.355552,1.286026,-37.21949,-0.3547597659268635,0.1257995745603009,2.0880751961615287,353.3078,93.45594,178.4627,0.7262641,0.04975592,0.6848029,17
18.58,9.478563,1.450295,-37.22865,-0.3370297279887631,0.1529823530608813,2.1623966922745907,356.8742,93.36678,178.3818,0.7269665,0.02897953,0.685986,17
18.6,9.510904,1.294777,-37.17383,-0.327919797663935,0.1544268245497216,2.225452481577115,352.7856,90.80187,179.0075,0.7102178,0.05032896,0.7011122,17
18.62,9.633222,1.457394,-37.17059,-0.3257008197124595,0.1288516076619558,2.287313160220638,356.3376,90.27959,178.9743,0.708238,0.0288811,0.7051939,17
18.64,9.662038,1.270879,-37.10566,-0.3319403120226596,0.1482770532047964,2.34738328173877,354.0672,87.92311,179.7229,0.6931534,0.03892611,0.7189262,17
18.66,9.715466,1.262365,-37.08618,-0.354064253114658,0.1178676511280963,2.3985666079526187,355.7569,86.95578,180.3848,0.6876894,0.02455343,0.725053,17
18.68,9.837463,1.425777,-37.06836,-0.382010099669636,0.086451110787596,2.4515988600641423,359.3953,86.19104,180.4722,0.6832172,0.001037935,0.7301845,17
18.7,9.957871,1.585158,-37.05055,-0.3952035924626742,0.1256596457758767,2.5019562410335583,3.063208,85.50092,180.5152,0.6784691,-0.02267792,0.7341289,17
18.72,9.893907,1.245945,-37.0375,-0.4212578480310163,0.1164039082375287,2.534710167768327,1.426844,85.26161,181.4877,0.6770433,-0.0179517,0.7357236,17
18.74,10.01505,1.410918,-37.015,-0.4586297561241834,0.0821668009174298,2.5644893604220256,5.0911,84.58262,181.6397,0.6716975,-0.0424696,0.7393553,17
18.76,10.13365,1.572197,-36.99214,-0.4907725359647101,0.0987414369361434,2.5928686380984702,8.75585,83.909,181.7502,0.6656449,-0.06694252,0.7421991,17
18.78,10.06311,1.226418,-36.97899,-0.527906489251553,0.1140958236026807,2.622715908091066,10.33433,83.00532,183.0763,0.6579136,-0.08514042,0.7472147,17
18.8,10.076,1.217831,-36.97151,-0.5924468582799085,0.0507808222567438,2.632879500692435,11.87301,82.73065,183.2383,0.6548581,-0.09616458,0.7481196,17
18.82,10.19301,1.390724,-36.9469,-0.6609599376860915,-0.0124124563515299,2.6455424777268925,15.4836,82.07352,183.3557,0.647305,-0.120614,0.7496825,17
18.84,10.17292,1.191292,-36.93255,-0.6985618452497928,0.0201196292099672,2.652518672205272,16.08117,81.13294,183.6488,0.6402273,-0.126703,0.7546988,17
18.86,10.28746,1.370305,-36.90715,-0.7595846106902577,-0.0281777096901154,2.642297838300049,19.67329,80.47655,183.7372,0.6318805,-0.151097,0.7553409,17
18.88,10.2507,1.176201,-36.90126,-0.8121964069070085,-0.0475470396842234,2.6207356098327645,18.73032,78.44346,183.895,0.6192508,-0.147194,0.7674344,17
18.9,10.36292,1.359417,-36.87479,-0.8529370866574784,-0.0369290185731448,2.599470471896913,22.28934,77.75546,183.8783,0.6103801,-0.1712234,0.7674747,17
18.92,10.34877,1.153655,-36.85128,-0.8949768873251629,-0.0263710581226165,2.580125055630554,23.05847,73.2316,183.8419,0.5787056,-0.1799244,0.7900119,17
18.94,10.4578,1.343127,-36.82224,-0.939286561810611,-0.0444596190632341,2.541449827742283,26.57617,72.45661,183.6176,0.5690422,-0.2034733,0.7889678,17
18.96,10.43392,1.139726,-36.80769,-0.9838311725538336,-0.0599176229161612,2.504902109863665,26.25612,69.17053,183.7482,0.5463861,-0.204969,0.8055534,17
18.98,10.53953,1.333092,-36.77564,-1.0093401997558205,-0.0188227435253085,2.4666558254979547,29.71566,68.32682,183.3982,0.5362499,-0.2281736,0.803692,17
19.0,10.64639,1.523432,-36.74414,-1.0347272473697815,0.0202994444216408,2.4299574157939974,33.20916,67.36709,182.919,0.5252492,-0.2512489,0.8011923,17
19.02,10.57651,1.122208,-36.7204,-1.0573282982801524,0.002961319004301,2.3700035254877827,34.79119,62.27776,183.0894,0.4863859,-0.2691004,0.8206405,17
19.04,10.68201,1.32046,-36.68062,-1.072000336443435,0.0185763663742583,2.309570054956267,38.31762,61.51712,182.5025,0.4768217,-0.2925034,0.8152056,17
19.06,10.7871,1.515579,-36.64064,-1.0845841832633054,0.0342557569004046,2.2510866774922924,41.83513,60.65888,181.8147,0.4667521,-0.3155916,0.8090053,17
19.08,10.76201,1.11595,-36.63309,-1.101483918325343,-0.037058416664297,2.18396130333295,41.90079,59.17662,182.2095,0.4550413,-0.3197651,0.8153601,17
19.1,10.86216,1.316488,-36.59232,-1.1012013958698137,-0.0487234504720769,2.108686978070628,45.29416,58.00558,181.4531,0.4431608,-0.3424138,0.8094622,17
19.12,10.93221,1.114372,-36.54382,-1.0947063569027595,-0.0872037173736962,2.038657941471908,46.34232,55.57448,180.0667,0.4283811,-0.3483543,0.813427,17
19.14,11.02938,1.315488,-36.49823,-1.0859685004500732,-0.125000669884482,1.9706434735487968,49.70878,54.23218,179.1933,0.4162021,-0.3711939,0.8062755,17
19.16,11.08196,1.110612,-36.45934,-1.065806591512194,-0.0768886884407628,1.902796275350956,50.64574,52.53646,178.4108,0.4053284,-0.3779644,0.8078637,17
19.18,11.17649,1.310672,-36.41119,-1.034583820948457,-0.0857238354049175,1.838407921895409,53.97905,50.90862,177.3203,0.3924595,-0.4007064,0.7998092,17
19.2,11.27074,1.507942,-36.36245,-1.0011811333924494,-0.0935673159551425,1.775875341395747,57.29433,49.02948,175.959,0.379288,-0.423088,0.7909683,17
19.22,11.35014,1.102516,-36.2922,-0.9564165111278368,-0.09702340234048,1.71439777073748,59.69418,47.17167,173.7598,0.3713602,-0.4365454,0.7828822,17
19.24,11.44221,1.296321,-36.23791,-0.9015747393435862,-0.1239926105405706,1.6639149434712914,63.01908,45.11179,172.046,0.3597144,-0.458818,0.7715377,17
19.26,11.53415,1.487257,-36.18317,-0.8589591451171259,-0.0921468700841709,1.6155892933734457,66.32993,42.55724,169.7925,0.3479293,-0.4807116,0.7592779,17
19.28,11.7062,1.128762,-36.04628,-0.817507824685276,-0.0330039386865173,1.568712909847009,61.00105,36.08289,166.3871,0.3221633,-0.4475646,0.7948574,17
19.3,11.77349,1.144217,-35.9946,-0.7722456782250637,-0.046945808515991,1.5257293033767354,58.4138,36.45198,167.6232,0.3213737,-0.4313539,0.807789,17
19.32,11.85891,1.325915,-35.93276,-0.729422254963267,-0.085236499464014,1.4807628772652288,61.52208,33.99718,165.3187,0.3116515,-0.4530078,0.7959269,17
19.34,12.00619,1.195835,-35.82161,-0.6820168296120717,-0.0661603666365667,1.4428371212401574,48.29504,41.08047,172.9848,0.3430001,-0.3627747,0.8441021,17
19.36,12.08851,1.372662,-35.75788,-0.635167916394084,-0.0481688589763768,1.409775918203799,51.40152,39.56141,171.7409,0.3335366,-0.3850633,0.8351334,17
19.38,12.16879,1.54696,-35.69504,-0.5892803201244758,-0.0343869688798848,1.3815294093724215,54.4682,37.67987,170.219,0.3230054,-0.4070547,0.8258458,17
19.4,12.24825,1.240029,-35.66125,-0.5601408091716671,-0.0229045214917997,1.3465156450034197,32.0265,44.81028,175.2693,0.3765774,-0.2396977,0.8835422,17
19.42,12.33637,1.410783,-35.58741,-0.5347388556696591,-0.0109997559152991,1.308669800453223,35.42922,43.80994,174.6503,0.3681664,-0.265416,0.8775507,17
19.44,12.42254,1.578317,-35.51425,-0.5134174020508575,0.0003418693665902,1.2783153555284308,38.81997,42.71955,173.9306,0.3594256,-0.2908784,0.8707407,17
19.46,12.51204,1.268604,-35.4794,-0.4979334920379403,0.0079813396242957,1.2550030277222382,8.147565,50.30932,177.5058,0.4252883,-0.0550606,0.9020057,17
19.48,12.56878,1.272307,-35.43995,-0.4879490492190279,0.0148200631311393,1.2404534034279715,2.411299,51.56453,177.9033,0.43513,-0.01098706,0.8999361,17
19.5,12.6596,1.439492,-35.36186,-0.4729479322883887,0.0659317678481585,1.229803590873897,5.928587,50.90621,177.8423,0.4300003,-0.03860482,0.9011511,17
19.52,12.77882,1.285377,-35.28255,-0.4691974263411693,0.0459229214181128,1.216648855925806,353.3205,53.16742,178.6876,0.446119,0.05721087,0.8930028,17
19.54,12.86996,1.449083,-35.20047,-0.4548497171842012,0.0498119833111667,1.2027854950037709,356.8956,52.5055,178.7969,0.4418901,0.02893423,0.8965989,17
19.56,12.9273,1.293825,-35.15836,-0.4471877164895663,0.0521267489682005,1.198308936839667,352.8211,52.70705,179.2469,0.4426595,0.05901059,0.8944778,17
19.58,13.01643,1.455431,-35.07243,-0.4528430263952274,0.0488365162042036,1.1761308715174037,356.4086,52.0374,179.4425,0.438307,0.03029236,0.8982661,17
19.6,13.02847,1.283122,-35.06715,-0.4660740480410785,0.0448486481426984,1.1621067229574944,353.7631,52.39737,179.728,0.4407144,0.04985823,0.8959945,17
19.62,13.10208,1.262269,-35.00557,-0.4758165836595824,0.0362246556463612,1.1393547384500708,355.7278,52.2635,180.5287,0.4402805,0.03143206,0.8970748,17
19.64,13.18804,1.426295,-34.92082,-0.4968433237693683,0.0034695811383388,1.117460384822798,359.2797,51.60493,180.7408,0.4352888,0.002845532,0.900246,17
19.66,13.2067,1.250293,-34.90732,-0.511706353390442,0.0215131985783262,1.0934005804985445,359.4146,51.45867,181.3136,0.434139,-0.0003745961,0.9007586,17
19.68,13.29325,1.414913,-34.82097,-0.5241155447093511,0.063342884773671,1.0732235979230422,3.03512,50.81483,181.5101,0.4285491,-0.02957157,0.9030344,17
19.7,13.37752,1.575893,-34.73579,-0.557239830467466,0.0309886814492826,1.0351988422778975,6.657088,50.18069,181.6669,0.4225218,-0.05873509,0.9043751,17
19.72,13.32662,1.237817,-34.7746,-0.597461848985732,-0.0014808960909949,1.0025405336143045,6.156126,50.11411,182.5172,0.4217391,-0.05792027,0.9048609,17
19.74,13.36302,1.226608,-34.72326,-0.6260314966415308,-0.0131637516980863,0.9612171502765472,10.30465,49.3959,183.0796,0.4138037,-0.09274188,0.9055339,17
19.76,13.4472,1.397356,-34.63682,-0.660872642663632,-0.0232610745086093,0.9248564199716328,13.9265,48.78267,183.233,0.4066429,-0.1219321,0.9050813,17
19.78,13.52944,1.564553,-34.55133,-0.7130409977058809,-0.0860469605215402,0.8757976265994216,17.54868,48.16924,183.3486,0.3990683,-0.1509879,0.9036931,17
19.8,13.45399,1.199954,-34.6146,-0.7432939353354668,-0.0727662319061313,0.8336307048815437,14.7479,48.25532,183.5887,0.4015239,-0.1297684,0.906288,17
19.82,13.53536,1.376839,-34.52914,-0.7712333443534924,-0.0863312111910397,0.7861712804696737,18.33864,47.65544,183.7419,0.393854,-0.1587133,0.9046957,17
19.84,13.61514,1.550319,-34.44439,-0.803550283643085,-0.0975087626412165,0.7443915165424073,21.92966,47.0526,183.8581,0.3857902,-0.1874886,0.9021843,17
19.86,13.55532,1.168469,-34.49162,-0.8203598578043878,-0.0540040641131105,0.7096754484192589,20.13595,45.19018,184.0052,0.3724286,-0.1745191,0.9108183,17
19.88,13.57105,1.161083,-34.47205,-0.8413507313063784,-0.0128231418232797,0.6802923322092713,21.55225,44.16692,184.0299,0.3630068,-0.1861338,0.9122051,17
19.9,13.64849,1.348262,-34.38919,-0.8630336743008487,-0.0274484525839391,0.6296222920470829,25.07599,43.51515,184.0026,0.3545787,-0.214135,0.9088691,17
19.92,13.72486,1.532282,-34.30661,-0.8870555739208741,-0.0394013181446244,0.585777829930942,28.59792,42.84167,183.9291,0.3458112,-0.2419177,0.9046455,17
19.94,13.6811,1.132967,-34.34087,-0.9018374190385764,-0.0501070751566486,0.5383033945947853,28.01403,39.67239,183.8835,0.321339,-0.2387047,0.9149559,17
19.96,13.75492,1.327607,-34.25909,-0.9222914410256132,-0.0864496021563504,0.4912076019200935,31.48217,38.91926,183.6536,0.3123318,-0.2658853,0.9099361,17
19.98,13.82802,1.519256,-34.17727,-0.924612668293964,-0.0627001864951947,0.4532188927122229,34.94629,38.11979,183.3596,0.3030353,-0.2928069,0.904052,17
20.0,13.90029,1.707951,-34.09555,-0.9275818729814378,-0.03870627593909,0.4218199175777322,38.40551,37.26157,182.9906,0.2934575,-0.3194426,0.8973105,17
20.02,13.83823,1.118917,-34.16186,-0.9400193742986888,-0.1015724646996007,0.3828051288915013,37.36789,35.45812,182.9515,0.2805143,-0.3124612,0.9045232,17
20.04,13.90935,1.317881,-34.08099,-0.9274047122042814,-0.0758576003805008,0.35229806190838,40.76845,34.50937,182.4562,0.2708516,-0.3385211,0.8972006,17
20.06,13.97995,1.513985,-33.99992,-0.9149721011533544,-0.0501099099347004,0.3279539658768122,44.16084,33.46753,181.855,0.2609454,-0.3642608,0.8890518,17
20.08,14.00721,1.114636,-33.99366,-0.918040182090516,-0.111775961891125,0.2977822865158552,44.67612,34.8176,181.074,0.2733244,-0.365239,0.8836162,17
20.1,14.04043,1.113869,-33.95881,-0.90201622818172,-0.0849807779466877,0.2792479365074616,46.32838,34.37101,180.314,0.2706155,-0.3765478,0.8786493,17
20.12,14.13264,1.110113,-33.85869,-0.8849906169969586,-0.0583841932168259,0.2675737399615787,50.6264,33.22733,178.6843,0.2631513,-0.4067227,0.8647863,17
20.14,14.20021,1.309788,-33.78035,-0.8749417288985653,-0.0608800347769964,0.2684356048459637,53.89566,31.98467,177.914,0.2534829,-0.4310978,0.8545059,17
20.16,14.26731,1.506824,-33.70177,-0.8754949501258973,-0.0894692479530258,0.2738644609811169,57.15205,30.55463,176.9471,0.2436028,-0.4550938,0.8434921,17
20.18,14.35456,1.102319,-33.60705,-0.8682650795089164,-0.058273534321126,0.2858271258369997,59.64166,29.38437,174.0,0.2449157,-0.4688538,0.8314657,17
20.2,14.41994,1.29627,-33.5288,-0.8595304941714708,-0.0282484933818512,0.3028273184318992,62.84558,27.50172,172.5732,0.2352119,-0.4922062,0.8191192,17
20.22,14.49355,1.109117,-33.44475,-0.859109568869354,-0.0794248800096636,0.3243958353635081,62.61198,22.94626,167.8832,0.2227439,-0.4884449,0.8217472,17
20.24,14.61467,1.128783,-33.30214,-0.8554770768366073,-0.0436030183260639,0.3478610987944699,60.95315,20.18285,166.7049,0.2077996,-0.4785013,0.8325117,17
20.26,14.67664,1.313197,-33.22149,-0.8591210723041276,-0.0539295082851691,0.3819729697188627,63.97935,17.38584,164.2614,0.1986792,-0.5011987,0.8195432,17
20.28,14.73759,1.49509,-33.14131,-0.8616575441123602,-0.0661616020542271,0.4198098827647927,66.9389,13.92485,161.1492,0.1894011,-0.5234756,0.8059024,17
20.3,14.82646,1.178056,-33.04858,-0.886020090875332,-0.0468766964077516,0.4444112155422681,52.11745,23.42342,171.1527,0.2149867,-0.4148005,0.8701439,17
20.32,14.87374,1.195316,-32.99801,-0.9058668896614503,-0.0026814801985219,0.4733973642998728,48.35069,26.14009,173.1373,0.2298152,-0.3858581,0.8815266,17
20.34,15.00026,1.227061,-32.88131,-0.9258604564081958,-0.0037348214549768,0.5054097268725433,38.07432,29.4649,174.6395,0.2548857,-0.3038711,0.9093502,17
20.36,15.06992,1.397396,-32.7855,-0.952954419088314,0.039277329074754,0.5332609474600387,41.58655,28.3405,173.8623,0.246958,-0.3314497,0.9004694,17
20.38,15.13785,1.564308,-32.69091,-0.9784225044462715,0.0795236596187181,0.5630132976236655,45.08529,27.08293,172.942,0.2387905,-0.3586952,0.8906914,17
20.4,15.19073,1.256665,-32.68274,-1.0024188098449378,0.1139853093245215,0.5941489488815344,20.18852,33.89443,176.527,0.2919272,-0.1588835,0.9397861,17
20.42,15.22767,1.263336,-32.65178,-1.032800297736736,0.1218483050187242,0.6145426598688313,13.99418,35.59,177.1321,0.3061438,-0.1083633,0.9438372,17
20.44,15.29875,1.430899,-32.55371,-1.0621723654403723,0.1289722246922449,0.6359374524034398,17.55932,34.90686,176.9141,0.3002293,-0.1375737,0.9412087,17
20.46,15.37872,1.275633,-32.48272,-1.091285243889868,0.0876248718530198,0.6605193971770316,358.4646,39.01757,178.1544,0.3336748,0.0180053,0.9424557,17
20.48,15.45005,1.441373,-32.38372,-1.1251565073725869,0.091887312174721,0.6892079387896084,2.040049,38.39499,178.1623,0.3290007,-0.01153754,0.944026,17
20.5,15.51943,1.603484,-32.28617,-1.1537573960165588,0.1193325080363987,0.7232865493919562,5.614295,37.77094,178.1313,0.3240018,-0.04106011,0.9446482,17
20.52,15.55388,1.29144,-32.26581,-1.182075541080665,0.0971391126545974,0.7536906886065529,352.2397,39.68034,179.0072,0.3380553,0.06658373,0.9386507,17
20.54,15.63542,1.296084,-32.1652,-1.2153775708838457,0.1204428915761807,0.782759466415198,353.4472,39.97122,179.4926,0.3409843,0.05522149,0.9383197,17
20.56,15.70233,1.457178,-32.06126,-1.2503612508623831,0.1410071448604482,0.8092751671000333,357.0199,39.33152,179.728,0.3363597,0.02528539,0.9413716,17
20.58,15.71048,1.27025,-32.06658,-1.2868074845777135,0.1322120915687094,0.8191464052232864,354.0731,39.97601,179.9718,0.3413543,0.048669,0.9385118,17
20.6,15.77574,1.433923,-31.96552,-1.3293724258234183,0.0995032542372321,0.8205806917130274,357.5959,39.34021,180.2045,0.3365647,0.01915398,0.9414251,17
20.62,15.82694,1.250467,-31.91674,-1.3613044811077684,0.1154655153976715,0.8314521692091135,359.3896,39.24541,181.3186,0.3358556,0.001152785,0.9418284,17
20.64,15.86658,1.246016,-31.85492,-1.391384967454529,0.1093339197709475,0.829854011677778,1.392519,39.10519,181.5477,0.3344622,-0.01596964,0.9422342,17
20.66,15.93278,1.411056,-31.75148,-1.421718887482743,0.1036241545911161,0.8261470030557105,5.034527,38.50039,181.7658,0.3286977,-0.04653523,0.9432881,17
20.68,15.99707,1.57242,-31.64967,-1.4429302701858453,0.1459555977011611,0.8302472857281669,8.678213,37.9056,181.947,0.3225957,-0.07704965,0.943357,17
20.7,15.96982,1.232171,-31.70251,-1.4735830727590948,0.1127602987309447,0.8033089805327265,8.23635,38.62418,182.833,0.3280835,-0.07590641,0.9415941,17
20.72,16.03558,1.401018,-31.59979,-1.5042573469254972,0.0800805769894951,0.7744095688896282,11.88065,38.0456,183.0425,0.3214824,-0.1064129,0.9408767,17
20.74,16.04235,1.208928,-31.60061,-1.5153949001440083,0.1193637487675518,0.7614509363616224,13.42411,38.65995,183.4991,0.3252189,-0.1202762,0.9379049,17
20.76,16.10781,1.383579,-31.50084,-1.527421569401464,0.1061200805400792,0.7250724689888606,17.03369,38.09823,183.6979,0.3180947,-0.1503317,0.9358885,17
20.78,16.0964,1.191195,-31.52482,-1.543979581856052,0.0684496230602924,0.6759856945204361,16.06219,38.28498,183.7264,0.3202395,-0.1424728,0.9364359,17
20.8,16.16121,1.370092,-31.42722,-1.5595124358267838,0.0323122219986541,0.6256440801191192,19.63964,37.72558,183.9003,0.3128896,-0.1721385,0.9337678,17
20.82,16.16815,1.168426,-31.42178,-1.5613127769117303,0.0206225392953756,0.575232701459822,20.13367,36.33004,184.0286,0.3009278,-0.176772,0.9368716,17
20.84,16.23208,1.353335,-31.32648,-1.5609695749730412,0.0113856405912281,0.5249474681963213,23.68315,35.74051,184.0875,0.293176,-0.2058921,0.9331524,17
20.86,16.29494,1.535011,-31.23175,-1.566341966866723,-0.0539540186459716,0.4583948026499347,27.23195,35.13802,184.107,0.2851404,-0.2348001,0.9285116,17
20.88,16.35659,1.713531,-31.13777,-1.5544568351782262,-0.0632466489941009,0.4016430849309973,30.77917,34.51657,184.084,0.2768299,-0.2634638,0.9229558,17
20.9,16.28579,1.139227,-31.25249,-1.530081732048275,-0.0409565053309616,0.3558132218190559,26.28169,32.65234,183.9379,0.2660863,-0.2274549,0.9361911,17
20.92,16.34754,1.332029,-31.16001,-1.5057726269516012,-0.0743302002390025,0.3027509555695831,29.77145,31.97615,183.7951,0.2578704,-0.2556341,0.9308909,17
20.94,16.36049,1.12501,-31.14428,-1.478099001507963,-0.1057874495618791,0.2510117436700754,32.05084,29.33091,183.5008,0.2350648,-0.2743781,0.9315271,17
20.96,16.39131,1.122008,-31.09884,-1.4295988850771413,-0.0515694818770459,0.2177995035425608,34.65334,28.41521,183.2001,0.2261457,-0.2951396,0.9271033,17
20.98,16.45085,1.320215,-31.00941,-1.377421318377014,0.0006487648476847,0.1863917699650668,38.04184,27.55298,182.7701,0.2174159,-0.3218867,0.9198103,17
21.0,16.50984,1.515576,-30.91988,-1.329585629611099,-0.0628396310507298,0.1366512042465659,41.42348,26.61417,182.2506,0.2084939,-0.3483324,0.9116805,17
21.02,16.5106,1.115118,-30.93108,-1.283167244197466,-0.1545684609868363,0.0796322139409251,43.23249,26.70581,181.708,0.2093401,-0.3615894,0.9057072,17
21.04,16.56748,1.315596,-30.84226,-1.2129086786493248,-0.1311642695968254,0.0468615362448945,46.56534,25.72934,181.1825,0.2005305,-0.3874359,0.8963693,17
21.06,16.62391,1.513329,-30.75324,-1.1368481574058866,-0.1647900700695048,0.0141947689970747,49.89001,24.6406,180.5339,0.1915496,-0.4129323,0.8862412,17
21.08,16.57425,1.113142,-30.74813,-1.0565677544369918,-0.1978014101241272,-0.0156964114402162,48.03278,23.01035,179.4503,0.1841002,-0.3979416,0.8946758,17
21.1,16.62753,1.313883,-30.65827,-0.9660610832672916,-0.1447064823275216,-0.0318200846299334,51.32411,21.85028,178.7207,0.1755683,-0.4232798,0.8840562,17
21.12,16.68036,1.511931,-30.56823,-0.8579727730085249,-0.1481690131894019,-0.0323976312481395,54.60355,20.5272,177.819,0.1668897,-0.4482426,0.8726704,17
21.14,16.64712,1.102443,-30.42913,-0.7500603238538281,-0.1203661440389807,-0.0334321230468432,59.6108,16.20337,173.9367,0.1481427,-0.4849387,0.8541514,17
21.16,16.61234,1.104662,-30.34542,-0.6393292221885614,-0.0937630774787542,-0.0320568290354068,61.16747,12.64718,171.1102,0.1337277,-0.4968318,0.848732,17
21.18,16.65735,1.296246,-30.25445,-0.5217270496355044,-0.1482552231524883,-0.0257270612785442,64.30278,10.33106,169.1817,0.1258484,-0.5204512,0.8349352,17
21.2,16.70168,1.485312,-30.16381,-0.4053704205402808,-0.1159695616051801,-0.0196654579737303,67.39417,7.444812,166.6777,0.1178695,-0.5436289,0.8204446,17
21.22,16.67806,1.128884,-30.07494,-0.287664514884034,-0.0851025962107531,-0.0118177337381433,60.94055,4.839441,166.623,0.09514994,-0.4989528,0.8527697,17
21.24,16.71798,1.313436,-29.98134,-0.1599617097662977,-0.0696820738329863,0.0046462199101928,63.94904,1.990078,164.0861,0.08788235,-0.5223256,0.8387171,17
21.26,16.69795,1.178239,-29.8404,-0.0395627786681611,-0.0521604318344068,0.0104646181406167,52.10023,7.584126,171.0578,0.09339612,-0.4322303,0.8914513,17
21.28,16.73513,1.356703,-29.74375,0.0815211075616755,-0.0352919601214428,0.0181682097448043,55.16928,5.740861,169.5122,0.08646782,-0.4564853,0.8793917,17
21.3,16.69669,1.211307,-29.67844,0.2028311274842913,-0.0222451558693431,0.0273194966610348,43.22056,11.25357,173.7992,0.1108463,-0.36105,0.9219235,17
21.32,16.73555,1.385071,-29.57425,0.3173990654317147,-0.0075231514016207,0.0210994052058159,46.51917,9.942349,172.7872,0.1042004,-0.3876254,0.9113044,17
21.34,16.76115,1.250238,-29.46713,0.4355129544905156,0.0085797199934566,0.0183713965397021,26.29885,16.4598,175.8735,0.1474078,-0.2199841,0.9619547,17
21.36,16.80406,1.419314,-29.35602,0.5433888200325221,0.0453300130410362,0.0124140540893291,29.80474,15.61458,175.3434,0.1415152,-0.2492455,0.9551982,17
21.38,16.84559,1.584913,-29.24658,0.6428078670200277,0.0340946267382717,-0.0058804124218538,33.30374,14.69979,174.7329,0.1354924,-0.2782696,0.9475037,17
21.4,16.88568,1.747176,-29.13904,0.739679575321619,0.0212856768826932,-0.0245023991208737,36.79364,13.69917,174.0263,0.1293419,-0.3070213,0.93888,17
21.42,16.87097,1.271873,-29.14562,0.8355219836629639,0.0746744035337713,-0.0312064076142366,2.470061,24.16423,177.9277,0.2096116,-0.0172887,0.9773801,17
21.44,16.91612,1.438506,-29.03286,0.9320164269393878,0.0815781961974466,-0.0348670263888619,6.033489,23.56815,177.8919,0.2048542,-0.04775827,0.9772046,17
21.46,16.9565,1.284681,-28.90188,1.0204311204932597,0.0646378823773708,-0.0452715742680105,353.3808,28.13233,178.7392,0.2420061,0.0586664,0.9684938,17
21.48,16.96717,1.291124,-28.80057,1.1026434331008987,0.0933050002028042,-0.0517352134931599,352.2626,28.65189,179.049,0.246323,0.06741844,0.9668014,17
21.5,17.01475,1.452927,-28.68506,1.1762374207120962,0.122749381220004,-0.0695395053444096,355.8833,28.05973,179.2527,0.2420388,0.03642488,0.9695799,17
21.52,17.06421,1.28299,-28.59137,1.2297321979453582,0.074216845613502,-0.111048370108671,353.7772,28.93232,179.7458,0.2493227,0.05310978,0.9668958,17
21.54,17.1098,1.445101,-28.47753,1.280699820407221,0.0963386691893499,-0.1485235970717231,357.3414,28.34304,179.995,0.2447587,0.02250336,0.9693066,17
21.56,17.15379,1.603555,-28.36579,1.3220943447825348,0.1426131897881837,-0.1936067256015858,0.9068725,27.7704,180.2073,0.2399555,-0.008116637,0.97075,17
21.58,17.16654,1.254744,-28.39257,1.353105360218744,0.1064244964471183,-0.2528649926618906,357.4037,30.1819,181.1297,0.2604882,0.01930648,0.965161,17
21.6,17.17924,1.249907,-28.32205,1.3801484077559332,0.0970827493369406,-0.3086472305087757,359.4352,30.93294,181.3613,0.2667088,0.001581615,0.9636914,17
21.62,17.22982,1.414029,-28.20928,1.4018208548407345,0.0897013048818154,-0.368840968329144,3.087254,30.37075,181.6115,0.2614563,-0.02967725,0.9647371,17
21.64,17.28236,1.237624,-28.19282,1.410990254076478,0.0809115968704674,-0.4339808601024764,6.149415,32.60148,182.5865,0.2790417,-0.0577943,0.9585156,17
21.66,17.33577,1.404647,-28.08196,1.4192487375490257,0.0998707421567816,-0.4973177900261829,9.807026,32.073,182.8607,0.2731021,-0.0889966,0.9578595,17
21.68,17.38759,1.56798,-27.97288,1.422428538967222,0.1193867934192476,-0.5652507777853053,13.46588,31.55607,183.1039,0.2668813,-0.1200965,0.9561984,17
21.7,17.37938,1.2175,-28.06219,1.4016253838372823,0.0570662990054413,-0.6541406916196375,11.87571,33.64556,183.3535,0.2848389,-0.1074031,0.9525374,17
21.72,17.43523,1.389946,-27.95542,1.380264578139332,0.0435258675208309,-0.7317668400140618,15.49792,33.13851,183.5977,0.2783739,-0.1380406,0.9504624,17
21.74,17.48965,1.558844,-27.85006,1.355203760806898,0.0330020949836688,-0.8122754893941369,19.12099,32.63824,183.8129,0.2716282,-0.1685272,0.9474108,17
21.76,17.48739,1.183227,-27.93179,1.3213013325857703,0.0205497466363265,-0.889077227820426,17.39243,34.80815,183.9298,0.2905495,-0.1543266,0.9442453,17
21.78,17.50716,1.17586,-27.91059,1.2838833203676363,0.0112400396804788,-0.9676374539173024,18.70888,34.64537,184.0707,0.288097,-0.1655054,0.9430726,17
21.8,17.56562,1.358635,-27.81094,1.2540261070620646,0.0567199750240993,-1.0298121676765124,22.26023,34.14444,184.2468,0.28102,-0.1950779,0.9394114,17
21.82,17.55035,1.160833,-27.85761,1.2005309751387858,0.0177909434287643,-1.1061919398627889,21.55176,33.65559,184.1374,0.2777458,-0.1891108,0.9416413,17
21.84,17.609,1.347689,-27.75998,1.1528325719461057,0.037862428104358,-1.1690169647981836,25.08252,33.13017,184.2284,0.2704341,-0.2182557,0.9372737,17
21.86,17.614,1.139008,-27.77607,1.1024454672733324,0.0587773953006789,-1.2313543501643802,26.28091,32.18601,184.0303,0.2620915,-0.2277872,0.9372923,17
21.88,17.63371,1.1327,-27.75169,1.032604160184294,-0.0071670378919275,-1.3007858549939004,28.00991,31.51164,184.0049,0.2551674,-0.2419769,0.9355454,17
21.9,17.69247,1.327,-27.65806,0.9606350603616972,-0.0717990611170952,-1.3690473627552202,31.48764,30.90405,183.9085,0.2473684,-0.2701217,0.9296204,17
21.92,17.72746,1.121829,-27.62702,0.9019156598665092,-0.0827119526918046,-1.4057919061416042,34.67169,29.55291,183.2731,0.235135,-0.2949533,0.9247992,17
21.94,17.78752,1.319804,-27.53698,0.839478652887681,-0.1192650227903629,-1.4415656297161077,38.08727,28.78702,182.9239,0.2268357,-0.3219385,0.9173711,17
21.96,17.84705,1.51489,-27.44687,0.7840963356724964,-0.0946892567328891,-1.4622252759206251,41.49763,27.95506,182.4962,0.2183339,-0.3486203,0.9091022,17
21.98,17.90596,1.707108,-27.35685,0.733022581238223,-0.0398760350909053,-1.4719838511499237,44.90162,27.04008,181.9743,0.2096375,-0.3749745,0.9000012,17
22.0,17.91047,1.115005,-27.40709,0.6697206902267312,-0.0709471649908751,-1.4838107434336971,43.26162,29.99628,181.7644,0.2350528,-0.3597286,0.899274,17
22.02,17.93459,1.114484,-27.38551,0.6090957907864807,-0.1298561745954352,-1.4870209393819378,44.6516,30.4525,181.1468,0.2392639,-0.3689506,0.8935202,17
22.04,17.99584,1.315095,-27.29981,0.5552371367885729,-0.1288378426937121,-1.4712679634561567,47.98255,29.56122,180.6832,0.2307303,-0.3945256,0.8839787,17
22.06,18.06573,1.110037,-27.23585,0.5016151997804785,-0.1261443708907924,-1.4505932780550004,50.63035,29.47763,178.7324,0.2345419,-0.4109583,0.8729681,17
22.08,18.12747,1.309602,-27.15221,0.44781443563779,-0.1252242450118427,-1.4254342278838497,53.9137,28.36021,178.0213,0.2259105,-0.4356712,0.8621432,17
22.1,18.18878,1.506505,-27.06842,0.4116292948507358,-0.1233804975017397,-1.3787711963608589,57.18594,27.07057,177.1298,0.2170891,-0.4599993,0.8505822,17
22.12,18.3088,1.104312,-26.94459,0.3720152437825494,-0.1472250203606511,-1.329166065659309,61.18888,25.55064,171.3513,0.2272302,-0.4805929,0.8286064,17
22.14,18.37001,1.295555,-26.86349,0.3323705360222213,-0.1721824201268985,-1.2759645921710223,64.35761,23.53795,169.7105,0.2186916,-0.5037867,0.8155187,17
22.16,18.43051,1.484273,-26.78261,0.3140893155529336,-0.1588182273112721,-1.2161314977822184,67.4935,21.02624,167.5655,0.2099764,-0.5265545,0.8017573,17
22.18,18.52189,1.12857,-26.68221,0.3084455027421708,-0.1166470631074718,-1.153441307289722,60.98052,18.95067,166.7678,0.1985758,-0.480792,0.8346745,17
22.2,18.58178,1.312791,-26.59918,0.3037143106052511,-0.0760321248003905,-1.0893918994934442,64.03481,16.30082,164.4031,0.1903074,-0.5036572,0.8213615,17
22.22,18.6407,1.494456,-26.51671,0.3075794055670551,-0.1067037968790779,-1.017453935280146,67.02782,13.00602,161.3896,0.1818872,-0.5260998,0.8073756,17
22.24,18.77202,1.195208,-26.37843,0.3236054096523215,-0.0600785843863837,-0.9440730152349884,48.37118,24.9133,173.1181,0.2204236,-0.387518,0.8838392,17
22.26,18.83873,1.209693,-26.30922,0.3422326216025291,-0.0161782493500234,-0.8705302931729442,43.42739,26.49801,173.8529,0.2319242,-0.348187,0.8984689,17
22.28,18.90556,1.381519,-26.21263,0.364583740495104,0.0040154870995783,-0.8077981087609278,46.92344,25.26999,172.8964,0.2243376,-0.3753177,0.8879971,17
22.3,18.97082,1.549979,-26.11728,0.3907468896483954,0.0232389898324905,-0.7461658752919869,50.40268,23.86358,171.7546,0.2165348,-0.4020739,0.8766482,17
22.32,19.01901,1.249236,-26.12536,0.4314882653279137,0.0865594005428954,-0.6815916797228101,26.39786,31.21204,175.9583,0.2695064,-0.2105423,0.9349421,17
