t,pX,pY,pZ,aX,aY,aZ,reX,reY,reZ,rtX,rtY,rtZ,ID
1.52,-41.57085,0.9551926,-38.54724,2.9093411205845534,-0.067608780838311,1.4069948234185716,14.58766,358.0147,163.5754,0.001124276,-0.1280916,0.9819036,4
1.52,-41.56746,1.158276,-38.57466,2.9706470161655307,-0.0867965424756977,1.4056815273259913,13.54638,359.3564,163.6548,0.01124486,-0.1175325,0.9830147,4
1.54,-41.56823,1.358101,-38.57406,3.02746450573858,-0.1041753144705454,1.4011361807296518,13.56479,359.362,163.6786,0.01129107,-0.117686,0.9830248,4
1.56,-41.53241,1.156631,-38.48949,3.0828424253123696,-0.097514999187161,1.3963732404150395,17.73024,2.381841,165.386,0.03996511,-0.1502125,0.9794108,4
1.58,-41.54377,1.352559,-38.47069,3.127490340703569,-0.113664286508813,1.3848925546536923,18.28739,2.502041,165.7748,0.04106098,-0.1549816,0.9790325,4
1.6,-41.46392,1.167413,-38.4187,3.161901653051249,-0.1288411805488753,1.3686310107380573,17.79941,6.69922,166.809,0.07508193,-0.1467886,0.9787074,4
1.62,-41.37784,1.179484,-38.33733,3.19536503251313,-0.1427963677866172,1.3521370892156686,15.05067,12.3616,168.7859,0.1189497,-0.1191514,0.9795308,4
1.64,-41.32138,1.185725,-38.27779,3.227777633567614,-0.1331935174330502,1.3357238493765458,12.83934,15.47592,169.7719,0.1431417,-0.09842434,0.9794193,4
1.66,-41.30341,1.373752,-38.2154,3.2486013684253923,-0.1474430098066177,1.3152844776267143,14.79146,15.47097,169.7511,0.1443393,-0.1151183,0.9771814,4
1.68,-41.19482,1.201554,-38.16468,3.2604016341172937,-0.1606353859602816,1.2920523234575445,6.932129,21.86906,171.8654,0.1930736,-0.04578067,0.9767669,4
1.7,-41.1638,1.383204,-38.08426,3.2710525527214287,-0.1504764033515704,1.269271107014939,9.509038,21.87412,171.9008,0.1943528,-0.06782541,0.9749044,4
1.72,-40.96933,1.224956,-38.00682,3.268147927307435,-0.1633290889627942,1.2428593998819275,0.8900522,30.09357,175.514,0.2596946,0.002665097,0.9648665,4
1.74,-40.91416,1.390044,-37.89064,3.2645116553421376,-0.1532170638767908,1.217559547223889,4.692777,30.10882,175.827,0.2607858,-0.0300609,0.9638432,4
1.76,-40.74897,1.264468,-37.83274,3.24041954938678,-0.1708425931401697,1.185331355815328,356.9684,34.96276,178.3475,0.2998956,0.02955889,0.9534965,4
1.78,-40.66821,1.275174,-37.79642,3.2159934094569804,-0.1648070790290786,1.1544245635370096,354.4367,37.31283,180.1102,0.3195595,0.04567292,0.9463223,4
1.8,-40.59808,1.428339,-37.6679,3.1699794262768304,-0.1848960119315082,1.1165862522930112,358.6396,37.27401,180.7525,0.3196159,0.009150752,0.9474502,4
1.82,-40.51823,1.255723,-37.77139,3.109655340755724,-0.204817276673631,1.074840086242947,357.2985,42.41882,181.2543,0.361896,0.01801634,0.9318563,4
1.84,-40.44952,1.421612,-37.67669,3.050799988629977,-0.2006036249486651,1.0353757537445532,0.702059,42.41206,181.6413,0.361597,-0.01089172,0.9322044,4
1.86,-40.38938,1.247047,-37.69777,2.971321553350686,-0.221870307276522,0.9909914980716864,1.262545,45.82806,181.7641,0.3891234,-0.01614014,0.9209911,4
1.88,-40.34543,1.241873,-37.68467,2.880136133266685,-0.2427992556310967,0.9432702285146854,3.82064,47.24162,182.2528,0.3997813,-0.0384087,0.9157936,4
1.9,-40.27124,1.409883,-37.59415,2.791715094703677,-0.2385921082687312,0.8984694931584656,7.235821,47.28796,182.7336,0.3987603,-0.0673361,0.914573,4
1.92,-40.25383,1.233298,-37.64779,2.679183669944978,-0.2606000508391165,0.8446541061942705,8.044692,49.87674,183.1029,0.4187283,-0.07496971,0.9049976,4
1.94,-40.19025,1.218423,-37.6344,2.556003659482438,-0.2836718091228849,0.7885070234677274,11.65009,52.33776,183.614,0.4356509,-0.1048774,0.8938312,4
1.96,-40.15194,1.209575,-37.61883,2.4371693908471146,-0.280070619883458,0.7360238074134067,13.19549,53.53984,183.8192,0.4437592,-0.117436,0.8881415,4
1.98,-40.07299,1.385596,-37.5383,2.2986907048859804,-0.3036428197133791,0.6760902629452765,16.52368,53.6838,184.3803,0.4416178,-0.1451975,0.8848304,4
2.0,-40.07861,1.191487,-37.5862,2.150578979949941,-0.3263671417972168,0.6129796243543,15.81635,55.50509,184.088,0.4565892,-0.1381321,0.8782782,4
2.02,-40.0646,1.183601,-37.58876,2.008447392719224,-0.3212043031261439,0.5543522581910887,17.13139,55.9296,184.2442,0.4585093,-0.1486322,0.8753713,4
2.04,-40.01782,1.168251,-37.57153,1.8481791168910844,-0.3446588311546184,0.4897967232543427,19.87784,56.38529,184.4444,0.459099,-0.1700513,0.8706459,4
2.06,-39.93764,1.353608,-37.49922,1.6828625141285682,-0.3668861914748888,0.4241668127475977,23.13192,56.57993,184.9751,0.4562104,-0.1965345,0.8659915,4
2.08,-39.94657,1.15264,-37.52781,1.5249502080492905,-0.3596894644406789,0.3638156662679899,22.8101,56.45216,184.47,0.4564656,-0.1921772,0.8666804,4
2.1,-39.92926,1.144857,-37.52199,1.3515811469855628,-0.3805201596689694,0.2977408931710483,24.34254,56.45095,184.4944,0.4546719,-0.20375,0.8645353,4
2.12,-39.84933,1.335727,-37.45333,1.176987653370042,-0.3998613474142438,0.2338319134666449,27.56413,56.65251,184.9548,0.4513352,-0.2294274,0.8590034,4
2.14,-39.87263,1.131867,-37.4898,1.011056360926088,-0.388627300074615,0.1761135722436106,27.86781,55.88644,184.3466,0.4464134,-0.229822,0.8610797,4
2.16,-39.82043,1.123935,-37.46348,0.8383334215847471,-0.405064906633673,0.1162906739058042,31.97753,55.15573,183.9052,0.4364673,-0.259175,0.8559436,4
2.18,-39.77398,1.12147,-37.445,0.6750696820182878,-0.3905529016124968,0.0629499854679966,34.6945,54.99614,183.381,0.4327235,-0.2773642,0.8503731,4
2.2,-39.68305,1.319223,-37.38702,0.5053435977593859,-0.4033957528536459,0.0057317485101222,38.05426,54.88634,183.196,0.427451,-0.3013661,0.8428447,4
2.22,-39.67315,1.11701,-37.40147,0.334769652872021,-0.4133625088953285,-0.0511090066676578,39.6426,55.45067,182.7205,0.4304222,-0.3104613,0.8362551,4
2.24,-39.58234,1.114938,-37.36686,0.175034091366129,-0.3920221462411304,-0.1005902631884829,43.27823,56.36767,181.7673,0.4339517,-0.3317698,0.8219061,4
2.26,-39.52306,1.114423,-37.34034,0.0159891197644395,-0.3979543400087645,-0.1482885772803532,44.68901,56.73944,181.1481,0.4361083,-0.338902,0.8156012,4
2.28,-39.42948,1.314914,-37.28901,-0.1373932807257638,-0.4012029186701735,-0.1918742185400557,48.01701,56.45523,180.7555,0.4296832,-0.3613259,0.8061006,4
2.3,-39.39396,1.112894,-37.28123,-0.2790527482144869,-0.3730995726074102,-0.2277605604580976,48.08106,56.50905,179.5381,0.4337692,-0.357099,0.8036621,4
2.32,-39.25204,1.10706,-37.21793,-0.4161086494071533,-0.3725784749808014,-0.2599231419361389,53.3306,56.12459,177.7011,0.4282574,-0.3875052,0.7841901,4
2.34,-39.14246,1.103688,-37.16803,-0.5348918889532746,-0.3686476543944582,-0.2793082372132334,56.53181,55.55095,176.1944,0.4241269,-0.4051411,0.7715215,4
2.36,-39.04919,1.299733,-37.12224,-0.6431308798997986,-0.360749577842087,-0.2914039664892174,59.76813,54.75494,175.2577,0.4166704,-0.4255667,0.7597858,4
2.38,-38.93,1.104522,-37.07311,-0.7393038558495695,-0.322878842230548,-0.2958777788047468,61.2338,51.71143,171.1872,0.4094127,-0.4281224,0.7550888,4
2.4,-38.83694,1.29567,-37.02853,-0.8233216217038759,-0.2569825226100053,-0.2927760400186727,64.39921,50.24059,169.5344,0.4017334,-0.4476973,0.742338,4
2.42,-38.66788,1.128929,-36.96453,-0.8911117139626876,-0.2364054959467453,-0.278540485966392,60.9456,47.55147,166.8276,0.3984066,-0.4211726,0.7600679,4
2.44,-38.57413,1.313009,-36.92089,-0.946325016275228,-0.18739715016071,-0.2567043177693628,64.00428,45.59182,164.6187,0.3909941,-0.4401917,0.7472793,4
2.46,-38.48129,1.494468,-36.87767,-0.9914880965467016,-0.1574653595573186,-0.2282860104903301,67.02036,43.09076,161.8714,0.3832745,-0.4588573,0.7339028,4
2.48,-38.35534,1.178309,-36.83313,-1.0234001555424277,-0.0997655041405958,-0.1918761796157451,52.03481,51.79404,171.3063,0.4212736,-0.363712,0.7915718,4
2.5,-38.28363,1.195596,-36.80495,-1.0445944291674083,-0.0610665789882259,-0.1523452202376853,48.26364,54.41469,173.2704,0.4378767,-0.3384858,0.7992641,4
2.52,-38.11345,1.227492,-36.75601,-1.047437634104725,-0.0164636501916351,-0.1046662153297672,37.92015,57.86806,174.7392,0.4701214,-0.2630551,0.8196088,4
2.54,-38.02723,1.239433,-36.72773,-1.0350769188784286,0.0240798097797202,-0.0435974976641384,31.96148,59.61253,175.3865,0.4870875,-0.2194659,0.8279938,4
2.56,-37.91846,1.409017,-36.6786,-1.0141624373674851,0.0120033742663795,0.01943695540991,35.46202,59.35887,174.9296,0.4828681,-0.2434745,0.8200582,4
2.58,-37.87318,1.257022,-36.67471,-0.9818125693138552,0.0528105982212153,0.0797519877697805,20.00374,62.65932,176.5836,0.5162539,-0.1330258,0.8381421,4
2.6,-37.82612,1.263592,-36.65915,-0.9409374309719336,0.0410175849964201,0.1378038489239319,13.82379,64.11428,177.1764,0.5292604,-0.0889801,0.8395308,4
2.62,-37.71501,1.271954,-36.61275,-0.902163658391924,0.0564927692938335,0.1915206509296627,2.290131,66.53197,177.9433,0.5486286,-0.006864053,0.835635,4
2.64,-37.6025,1.438452,-36.56364,-0.8584425983933448,0.0941069461312782,0.2425416867853993,5.856553,66.53248,177.9505,0.5484904,-0.03291038,0.8344045,4
2.66,-37.56246,1.279173,-36.54298,-0.8033665122581635,0.1087188125149466,0.2892255053671135,354.4136,67.92673,178.416,0.557387,0.04812675,0.8287069,4
2.68,-37.50668,1.285962,-36.51476,-0.7397347981444504,0.0958049710736929,0.3300134585199243,353.2314,68.13433,178.7601,0.5586258,0.05494926,0.8272464,4
2.7,-37.39671,1.450476,-36.46433,-0.6750607530700403,0.1302253898717125,0.3715383717194012,356.7099,68.2421,178.9697,0.5604757,0.02880603,0.8276247,4
2.72,-37.37283,1.296486,-36.44221,-0.602476246475474,0.1099551557951901,0.4015060032626909,353.4275,67.87962,179.5088,0.5571946,0.04994731,0.82839,4
2.74,-37.26186,1.457895,-36.38774,-0.5473199438663849,0.1111263117742943,0.4220930905265252,356.9609,67.98235,179.8013,0.5588297,0.02295545,0.8288568,4
2.76,-37.28885,1.269905,-36.38943,-0.4847649827734752,0.1109120007372525,0.4317616807436177,354.074,67.66644,179.9951,0.5560312,0.04296122,0.8295525,4
2.78,-37.18034,1.433622,-36.33548,-0.4319531053550047,0.1495550478803454,0.4381365386748506,357.5817,67.77206,180.2887,0.557461,0.01611326,0.8299311,4
2.8,-37.22086,1.254596,-36.33929,-0.3949636776857925,0.1358321914713465,0.4314624783504888,357.4559,66.3756,181.1045,0.5474038,0.01330297,0.8365188,4
2.82,-37.21765,1.25024,-36.32462,-0.3663034461572403,0.0984056542716513,0.4041813413275745,359.4507,66.11047,181.3346,0.5454509,-0.00233502,0.8380482,4
2.84,-37.1079,1.414805,-36.26796,-0.33457225590515,0.1090854283598535,0.3970371189099131,3.061888,66.2687,181.5989,0.5460437,-0.0299939,0.8372145,4
2.86,-37.15312,1.237906,-36.26154,-0.3120197750717137,0.0681650458875686,0.3738069301000388,6.179602,65.22056,182.5599,0.5369902,-0.0574134,0.8415704,4
2.88,-37.14339,1.232474,-36.2463,-0.2951762646212961,0.0510851857313637,0.35308897766516,8.234606,64.85814,182.8233,0.5332159,-0.07376063,0.8425708,4
2.9,-37.03606,1.401798,-36.18865,-0.2701380703392741,0.0596674639477638,0.3357583065626377,11.82552,65.05231,183.0655,0.5323096,-0.1011304,0.8398421,4
2.92,-37.11777,1.217685,-36.21476,-0.2558709274627997,0.0138993610095423,0.3034354086531952,11.87755,64.40896,183.3035,0.5273384,-0.1027907,0.8428501,4
2.94,-37.11465,1.199905,-36.19802,-0.2381283679413064,-0.0071824776140699,0.2803465063877697,14.74473,63.96273,183.606,0.5215805,-0.125314,0.8429303,4
2.96,-37.01067,1.376951,-36.14069,-0.2149869852707864,0.000388897998648,0.2607157026448927,18.29808,64.17691,183.8262,0.5196802,-0.1521458,0.8388044,4
2.98,-37.07556,1.183412,-36.16139,-0.2011977151387549,-0.0189458549512339,0.2368847538732366,17.38782,63.03817,183.8565,0.5121475,-0.1461708,0.844853,4
3.0,-37.07905,1.175973,-36.15602,-0.1839974902618788,-0.0373623454295217,0.2068177500283576,18.71913,62.30158,183.994,0.5052455,-0.1568816,0.8468344,4
3.02,-36.97775,1.359088,-36.09903,-0.1721343836200013,-0.0568312414339136,0.1808785438861466,22.23903,62.50117,184.1326,0.5027672,-0.1831208,0.8419194,4
3.04,-37.04642,1.153207,-36.11517,-0.1542581633880866,-0.0756033351481412,0.1589657506650654,23.06265,59.43394,183.9882,0.4793749,-0.190409,0.8538878,4
3.06,-37.03219,1.145605,-36.10091,-0.1361496486531024,-0.0912830038574448,0.137410628847916,24.59266,58.56724,183.9902,0.4711556,-0.2022781,0.8553102,4
3.08,-36.9345,1.336773,-36.0438,-0.1136438095483569,-0.1054646272168118,0.1116876019478407,28.06889,58.69143,183.9307,0.4679202,-0.2275678,0.8492376,4
3.1,-36.99817,1.132766,-36.06406,-0.0739599933654941,-0.063918402805678,0.096420256538277,28.02808,56.39968,183.9244,0.4509074,-0.2289899,0.8584909,4
3.12,-36.9706,1.12486,-36.03276,-0.0395841577236693,-0.0788842085524442,0.0792886127628023,32.0858,54.16223,183.5195,0.4297594,-0.2593776,0.8591478,4
3.14,-36.87698,1.322018,-35.97412,1.3415682980522092e-05,-0.0921663961087217,0.0585515379131056,35.50401,54.16401,183.2528,0.4257084,-0.2836642,0.8515598,4
3.16,-36.89264,1.118759,-35.97369,0.0597924798258073,-0.0483438553737783,0.0495521748128524,37.40938,52.78615,182.9847,0.4134247,-0.2981315,0.8518795,4
3.18,-36.79997,1.317549,-35.91561,0.1153997595714892,-0.0605972609542001,0.0365468825646271,40.79594,52.68763,182.591,0.4087624,-0.321666,0.8432359,4
3.2,-36.82004,1.11562,-35.93045,0.1735384169552443,-0.0700484189483558,0.0245033706748989,41.86527,52.66005,182.3332,0.4076627,-0.3285727,0.8401553,4
3.22,-36.80738,1.114991,-35.91927,0.2383221126291825,-0.1068473950766925,0.0116261874682699,43.26799,52.41644,181.7408,0.4054529,-0.3369724,0.8363719,4
3.24,-36.71705,1.315252,-35.8612,0.318571942009588,-0.0841784956624809,0.0075626297704003,46.60034,52.27944,181.3354,0.4004661,-0.3597838,0.8264837,4
3.26,-36.69886,1.11294,-35.84228,0.4004664455661366,-0.0895052009200989,0.0043864497880381,48.07737,50.89491,179.5238,0.3939425,-0.3661978,0.8239305,4
3.28,-36.65029,1.109964,-35.809,0.4900015686958454,-0.0640614454937277,0.0040810728768301,50.68584,50.2832,178.7028,0.3883314,-0.3831119,0.8160295,4
3.3,-36.56184,1.309419,-35.75163,0.5838843947282717,-0.096459438462644,0.0035417145435312,53.95525,49.9183,178.0538,0.3829852,-0.4048306,0.8045878,4
3.32,-36.52441,1.103751,-35.72226,0.6854126132268785,-0.0972798316955699,0.0076804879297274,56.52839,48.42676,176.1571,0.3755147,-0.4195231,0.7963234,4
3.34,-36.39411,1.104552,-35.63047,0.7811406931736213,-0.0675224887139837,0.0090541772689416,61.22259,43.72033,171.1626,0.3559123,-0.4465025,0.7817757,4
3.36,-36.31678,1.109165,-35.57542,0.8894655961950475,-0.0597064983485285,0.0147997903796328,62.65176,40.15601,167.8474,0.3432958,-0.454523,0.7789091,4
3.38,-36.23032,1.297837,-35.51825,0.9962549007679636,-0.0765292387893337,0.0194930692449073,65.75922,38.33906,165.6654,0.3375871,-0.4743606,0.764807,4
3.4,-36.14441,1.483869,-35.46158,1.0977195852147483,-0.0376259665089357,0.0227855772507536,68.82913,35.94669,162.9124,0.3316078,-0.4938108,0.7500936,4
3.42,-36.03101,1.161803,-35.38001,1.196119034811305,-0.0474197525123213,0.0244019970308855,55.75268,39.99392,168.857,0.3435175,-0.4079517,0.8112179,4
3.44,-35.94321,1.341487,-35.32228,1.2903321962759131,-0.0270244006984429,0.023812360968467,58.82471,38.69538,167.1386,0.3386788,-0.4281188,0.7985187,4
3.46,-35.87473,1.195629,-35.27213,1.3812792818468305,-0.008104530470412,0.0222991105571903,48.26444,45.16382,173.2404,0.3720893,-0.3561815,0.8319151,4
3.48,-35.78632,1.371932,-35.21291,1.4656012714415532,-0.0383705759498921,0.0157097551624767,51.40452,44.60769,172.3198,0.3680733,-0.3774442,0.8207516,4
3.5,-35.71743,1.227676,-35.18856,1.5417843714762745,0.0009506221893406,0.0081236096261498,37.88711,48.38165,174.7143,0.4008252,-0.2779424,0.855729,4
3.52,-35.59742,1.250438,-35.13123,1.6119596148715516,0.0167541837562342,-0.0023938821572784,26.10849,52.04568,176.0267,0.4341708,-0.1880361,0.8714346,4
3.54,-35.49597,1.419268,-35.06655,1.666329405362874,0.0521505165362857,-0.0146199188671669,29.61648,52.03666,175.6926,0.4324213,-0.2135827,0.8639797,4
3.56,-35.44692,1.263571,-35.05492,1.7158581277953306,0.1079285810360561,-0.0258030514580207,13.84252,55.74804,177.1894,0.4665949,-0.0951096,0.8758904,4
3.58,-35.34312,1.431167,-34.99084,1.7466052093567024,0.0905226712846007,-0.0433815565957909,17.38945,55.86255,177.0692,0.4662933,-0.121675,0.8712603,4
3.6,-35.30893,1.271883,-34.98847,1.770887311753116,0.0951721578494758,-0.0588271217119462,2.33031,59.27242,177.968,0.4946247,-0.008905299,0.8686882,4
3.62,-35.25928,1.275532,-34.96846,1.8019407477649123,0.1006210651045666,-0.0689767503241975,358.3753,60.60004,178.2233,0.5042269,0.02006044,0.8633158,4
3.64,-35.15275,1.440945,-34.90545,1.82390500701204,0.1275934639720939,-0.0799903771009313,1.95517,60.74685,178.344,0.50572,-0.007412111,0.862408,4
3.66,-35.02808,1.291387,-34.87254,1.8275649455359089,0.1058519229419217,-0.0958269176367583,352.2146,63.83632,179.0976,0.5270175,0.06177608,0.8471023,4
3.68,-34.9606,1.293843,-34.8461,1.8210944900951416,0.1045292783702105,-0.1127038426222464,352.8174,64.45843,179.3348,0.5319438,0.05607687,0.8444399,4
3.7,-34.85256,1.455343,-34.78377,1.8125325736522224,0.1250162431717743,-0.1279444346426217,356.3837,64.57367,179.6618,0.5338111,0.02824989,0.8450097,4
3.72,-34.77268,1.26966,-34.77407,1.7760378990562256,0.0933010770235181,-0.1515790522448723,354.0886,66.46556,180.0548,0.5473334,0.04286858,0.8353246,4
3.74,-34.69955,1.261725,-34.75063,1.7391736298194551,0.0815410701833132,-0.1739652254710213,355.7943,67.0133,180.5799,0.5518098,0.02780316,0.8331472,4
3.76,-34.58984,1.425223,-34.69473,1.6842456867110318,0.0449243354658656,-0.2010705031032849,359.3728,67.14623,180.8793,0.5530111,0.0003167193,0.8331206,4
3.78,-34.48221,1.585015,-34.64008,1.639584774588973,0.0583841646869385,-0.2222002342945463,2.94997,67.29791,181.1867,0.5536678,-0.02716268,0.8322754,4
3.8,-34.49808,1.24582,-34.67432,1.5849047948833972,0.0688493358471164,-0.2456409247371462,1.431429,68.74843,181.6186,0.5643498,-0.01828286,0.8253207,4
3.82,-34.47573,1.24049,-34.66784,1.5165856714233703,0.0533719035522018,-0.2691072548081683,4.025553,69.07269,182.0977,0.5659547,-0.03929898,0.8234852,4
3.84,-34.36418,1.406701,-34.61472,1.4553723053694174,0.0631892646144066,-0.2886869737738005,7.64999,69.25182,182.4331,0.565657,-0.06691836,0.8216663,4
3.86,-34.34685,1.226235,-34.61443,1.3671003796616956,0.0208781624590732,-0.3160472169368784,10.33629,69.99641,183.221,0.5689197,-0.08981472,0.8169696,4
3.88,-34.3162,1.21749,-34.60334,1.2933957304988963,0.0290872096059353,-0.3383544168173777,11.86904,70.4143,183.3985,0.5706874,-0.1014462,0.8141045,4
3.9,-34.20618,1.390206,-34.55415,1.2263483735644352,0.0616330252668851,-0.3568922143435733,15.43997,70.6372,183.7302,0.569012,-0.1281955,0.810654,4
3.92,-34.19625,1.190771,-34.5528,1.1209944401128178,0.0132543159510633,-0.384665426273572,16.07169,71.32425,183.8576,0.5731298,-0.1329428,0.8067787,4
3.94,-34.14801,1.183098,-34.53112,1.0368744361649265,0.0180904918587743,-0.402078995443178,17.37862,71.09187,183.996,0.5700477,-0.1428848,0.8068839,4
3.96,-34.04055,1.363878,-34.4849,0.962034261684857,0.0507467039105918,-0.4152194699703404,20.90103,71.3408,184.3155,0.5674942,-0.1688418,0.802325,4
3.98,-34.06124,1.168004,-34.49071,0.85570490773293,0.0008325519014428,-0.4376663894195784,20.13654,70.26392,184.1713,0.561021,-0.1634998,0.8083624,4
4.0,-33.95482,1.352665,-34.44518,0.7698294703890403,0.0068581469795103,-0.4500257989755996,23.65061,70.50365,184.4283,0.5580347,-0.1890498,0.8032649,4
4.02,-33.9961,1.152717,-34.45866,0.6755073951203796,-0.0153113359596457,-0.4612633901819238,23.07304,69.09056,184.1685,0.5492427,-0.1848271,0.8106285,4
4.04,-33.9465,1.138691,-34.43229,0.5785898692730242,-0.0353302884831117,-0.4730921989908259,26.30728,67.70654,184.1035,0.5353386,-0.2082834,0.8126985,4
4.06,-33.90654,1.132404,-34.41324,0.5039218933377505,0.0014454970908782,-0.4748868453315111,28.0346,66.92152,184.0661,0.5274423,-0.2209215,0.8136498,4
4.08,-33.80377,1.32655,-34.36936,0.4208949932748016,-0.0176798930894876,-0.4766519461705636,31.4895,67.07336,184.0833,0.5233465,-0.2449813,0.80709,4
4.1,-33.70139,1.51761,-34.32579,0.3372364769377234,-0.0349625770403517,-0.4786747421109689,34.9433,67.23209,184.1118,0.5187742,-0.2688086,0.7997988,4
4.12,-33.73208,1.118642,-34.33582,0.2723234368044447,-0.0513189113316906,-0.4720725065019016,37.41434,64.02788,183.0353,0.4947405,-0.2851575,0.8073453,4
4.14,-33.63016,1.317299,-34.2956,0.2134569642062649,-0.0638708139519919,-0.4633872453430134,40.81193,63.95588,182.6949,0.4892666,-0.3073499,0.7991431,4
4.16,-33.52837,1.512981,-34.25557,0.1552440943755639,-0.0749201929618544,-0.4551191603963138,44.20813,63.85166,182.3296,0.4833603,-0.3292638,0.7902359,4
4.18,-33.52162,1.114977,-34.26398,0.1051146299728373,-0.0846247462555603,-0.4420881531265541,43.28492,64.54749,181.755,0.4914885,-0.3193988,0.7888254,4
4.2,-33.47758,1.114444,-34.24835,0.0563011244075224,-0.092976156353738,-0.4293688780580238,44.68733,64.58244,181.1419,0.4908867,-0.3262748,0.7838607,4
4.22,-33.35933,1.112927,-34.20529,0.0243759615885412,-0.1009264144292321,-0.4068343596147015,48.06932,63.74549,179.5307,0.4836659,-0.3439014,0.7747074,4
4.24,-33.25953,1.313361,-34.16852,0.0058622701280022,-0.0778243416005899,-0.3777626723203351,51.36716,63.46626,178.9786,0.4772657,-0.364371,0.7644159,4
4.26,-33.1727,1.10712,-34.13831,-0.0105955535527062,-0.055871892500738,-0.3490658246230333,53.32275,62.89983,177.6736,0.4739519,-0.3732544,0.7574807,4
4.28,-33.07381,1.305503,-34.1026,-0.0071114898408475,-0.06177962367934,-0.3123790194490654,56.58621,62.43393,176.9316,0.4670528,-0.392991,0.7461957,4
4.3,-32.95995,1.10223,-34.06264,0.0028876234342498,-0.0635620494947365,-0.2729207149664345,59.68041,60.66569,174.0306,0.4598327,-0.4060746,0.7345726,4
4.32,-32.87952,1.104451,-34.03247,0.0275908327614833,-0.0894573627553614,-0.2292024367993823,61.21773,57.83892,171.2518,0.4489786,-0.4126394,0.7323653,4
4.34,-32.78209,1.295574,-33.99765,0.0606963094998955,-0.0573903626801386,-0.182465791690003,64.38519,56.56626,169.6625,0.4416196,-0.4311315,0.7194602,4
4.36,-32.58203,1.128901,-33.92446,0.0924091269838003,-0.0455151297542188,-0.1405589348135816,60.95242,51.83153,166.7521,0.4267735,-0.4096826,0.7444272,4
4.38,-32.48825,1.144331,-33.8904,0.1240696054245371,-0.0293889609694361,-0.1007117085146802,58.36935,52.54274,167.9026,0.4303574,-0.3941038,0.7557712,4
4.4,-32.39027,1.326192,-33.85429,0.1561732158426902,-0.013963263973693,-0.0626153449091875,61.43746,51.00774,165.9662,0.4237066,-0.412375,0.7432337,4
4.42,-32.29867,1.178283,-33.82364,0.2012629181309857,-0.0452237649809617,-0.0252944329207567,52.04565,56.00401,171.2684,0.4501677,-0.3541265,0.7754364,4
4.44,-32.13097,1.211411,-33.77541,0.2410556421207017,-0.0278745310855571,0.0045139848141886,43.09385,60.26777,173.9644,0.483014,-0.292606,0.793594,4
4.46,-32.02399,1.384559,-33.73671,0.2813731453158969,-0.0120685981507441,0.0318231209248196,46.4393,59.85343,173.1767,0.4780028,-0.3137991,0.7833482,4
4.48,-31.93739,1.2392,-33.72665,0.3174323566053982,0.0025735109488011,0.0532397029028359,32.00529,63.74212,175.3486,0.5166312,-0.2133302,0.8097504,4
4.5,-31.82331,1.408488,-33.68689,0.3541740273458371,0.0155011816998867,0.0716595111886571,35.53704,63.61204,174.8624,0.5130229,-0.2365912,0.8012759,4
4.52,-31.74494,1.263736,-33.67683,0.3822017978555885,0.0259722891190234,0.0871802585803154,13.84671,68.3614,177.1745,0.5599973,-0.08593978,0.8193185,4
4.54,-31.63012,1.431567,-33.63754,0.4084806067758681,0.0347729376019193,0.1004724410252828,17.37392,68.4654,177.0407,0.5591409,-0.1104691,0.814809,4
4.56,-31.51725,1.595781,-33.59909,0.4329268192440274,0.042048781262813,0.1094637816213772,20.90131,68.56265,176.9108,0.557752,-0.1348928,0.8095259,4
4.58,-31.47477,1.275751,-33.59084,0.4553758651195205,0.0481519199604643,0.1193955423588386,358.3677,72.26441,178.1932,0.589336,0.02079891,0.8076088,4
4.6,-31.41109,1.279137,-33.5705,0.4756032736398978,0.0524011844071835,0.125177680823965,354.4238,73.15342,178.4312,0.5946026,0.04720761,0.802431,4
4.62,-31.25305,1.291305,-33.51768,0.4977553857671069,0.0563758081402581,0.1344432764297689,352.2255,73.89095,179.0884,0.599222,0.05894942,0.7976681,4
4.64,-31.13465,1.453091,-33.47533,0.5255328685410898,0.0826178362265625,0.1463282804641741,355.8301,74.0019,179.3609,0.6012585,0.03240894,0.7982066,4
4.66,-31.07388,1.296026,-33.45648,0.5500219008252274,0.1049301122000209,0.1541885336510979,353.46,74.28911,179.5378,0.6026565,0.04790014,0.7959493,4
4.68,-31.0295,1.283041,-33.44067,0.5476797425659776,0.0957829230664868,0.1542950023219313,353.7429,74.50964,179.7654,0.6043686,0.04467813,0.794831,4
4.7,-30.9143,1.445578,-33.39943,0.5479343594040045,0.1096802057987568,0.1556401082774234,357.261,74.62451,180.0714,0.6059973,0.01863104,0.7951077,4
4.72,-30.92192,1.262104,-33.4051,0.5308758305928087,0.0727020565846351,0.1485446822870528,355.7557,74.80601,180.5757,0.6071411,0.02636568,0.793715,4
4.74,-30.8275,1.250141,-33.37357,0.5149748864149881,0.0858232906383654,0.1450597189991995,359.4469,75.07284,181.3648,0.6092609,-0.003428933,0.7928659,4
4.76,-30.76652,1.24578,-33.35036,0.5005975788955017,0.1220498094353065,0.143031028694387,1.439529,75.27597,181.5985,0.610424,-0.01846408,0.7918525,4
4.78,-30.64888,1.410584,-33.31002,0.4592207641723314,0.0836244541070833,0.1304350075274607,5.081332,75.43211,181.9109,0.6104777,-0.0452519,0.7906169,4
4.8,-30.53345,1.571606,-33.27062,0.4149270109820557,0.0444589867036886,0.1145987651367672,8.721766,75.60934,182.2355,0.6099086,-0.07198951,0.7885769,4
4.82,-30.59613,1.226281,-33.27435,0.3638564718892931,0.0267541411763023,0.1017689081933594,10.34934,74.8555,183.1524,0.6030844,-0.08824547,0.7920924,4
4.84,-30.48,1.396711,-33.23497,0.3147070809364685,0.0083499903100438,0.0910334859932318,13.97408,75.05099,183.4255,0.6014374,-0.1145017,0.7890557,4
4.86,-30.49335,1.208695,-33.234,0.2635590292380807,-0.0088037646142773,0.0777047619157667,13.45237,75.26296,183.5356,0.6032279,-0.1114196,0.7883354,4
4.88,-30.37881,1.383268,-33.19571,0.2047131243734754,-0.0279641097464498,0.0638837273280374,17.05045,75.47467,183.817,0.6010398,-0.1373287,0.7846748,4
4.9,-30.26588,1.554263,-33.15812,0.1565862951285721,-0.0187999856241582,0.0538548954899482,20.64635,75.70967,184.1186,0.5982553,-0.1630937,0.7802371,4
4.92,-30.36828,1.175833,-33.16803,0.0856229049574186,-0.0632175623618447,0.0357951317751616,18.74061,72.53133,184.0158,0.5786792,-0.1516434,0.7984105,4
4.94,-30.25788,1.358713,-33.12895,0.0202181394665479,-0.0797112789522365,0.0213438088587363,22.28816,72.72516,184.1773,0.5756547,-0.1767396,0.7937486,4
4.96,-30.14858,1.538217,-33.0904,-0.035822610810634,-0.066351579647068,0.0094738388805479,25.83412,72.93537,184.3565,0.5720773,-0.2016589,0.7883255,4
4.98,-30.22221,1.153056,-33.10522,-0.0914901064579942,-0.0534077824118326,-0.0035783803905049,23.08699,70.52803,184.027,0.5595771,-0.183165,0.8035505,4
5.0,-30.11397,1.341984,-33.06673,-0.1538809900352347,-0.0695477143661945,-0.0173994578151903,26.60644,70.6759,184.0532,0.5558872,-0.2074969,0.7980749,4
5.02,-30.1508,1.132756,-33.06666,-0.2268476322163155,-0.1115164587277807,-0.0357056770722046,28.03449,67.50729,183.9312,0.5318537,-0.2197567,0.810818,4
5.04,-30.0459,1.327202,-33.02734,-0.2756274653681192,-0.0949811472868716,-0.045971528328919,31.49638,67.5817,183.8061,0.5275009,-0.2432132,0.8044496,4
5.06,-29.9414,1.518546,-32.98829,-0.3229093460404995,-0.1045470936587787,-0.0560249914136772,34.95698,67.65007,183.682,0.5226678,-0.2664399,0.7973479,4
5.08,-29.97187,1.121758,-32.99014,-0.356940552416447,-0.0822844784766434,-0.0626016276609977,34.75159,65.32822,183.2549,0.5077363,-0.265935,0.8076862,4
5.1,-29.86866,1.319665,-32.95156,-0.3992609880579403,-0.116524088417078,-0.0745764582108767,38.16506,65.28104,182.9465,0.5024811,-0.2883125,0.800069,4
5.12,-29.79588,1.115562,-32.93014,-0.4366301216017962,-0.1783941868204103,-0.0863616384422139,41.87229,65.06216,182.3639,0.4959328,-0.3115587,0.791234,4
5.14,-29.72428,1.114963,-32.90401,-0.4504995405254641,-0.1525922689929889,-0.0904862704942139,43.26114,65.10242,181.761,0.4953299,-0.3183636,0.7865086,4
5.16,-29.62345,1.315188,-32.86683,-0.4666067566154468,-0.1839246439780608,-0.0964642500740202,46.59814,64.96253,181.3709,0.4892044,-0.3395333,0.7772624,4
5.18,-29.58292,1.113703,-32.85268,-0.4784164789926106,-0.2150540017168051,-0.1022166117179503,46.3759,64.70547,180.3681,0.4908302,-0.3342054,0.7772005,4
5.2,-29.48264,1.314167,-32.81614,-0.4766132104304414,-0.2178716916811191,-0.1020997730780832,49.68884,64.4933,179.9008,0.4844922,-0.3549311,0.7672914,4
5.22,-29.3889,1.107092,-32.78331,-0.4480756356564401,-0.2183176611781259,-0.093147325006317,53.32047,63.80124,177.695,0.4798309,-0.3713541,0.7537839,4
5.24,-29.28952,1.305441,-32.74877,-0.4182871208255494,-0.1881192002412261,-0.0847391306746008,56.58838,63.34587,176.974,0.4728275,-0.3910529,0.7425467,4
5.26,-29.1903,1.501051,-32.71441,-0.3796966689762429,-0.2129962134708187,-0.0736463429264304,59.85143,62.76483,176.1319,0.4654344,-0.4104224,0.7306991,4
5.28,-29.03863,1.104501,-32.66058,-0.3363964049121546,-0.1790135146298321,-0.061507169271759,61.22329,58.53549,171.191,0.4536307,-0.4105869,0.7294374,4
5.3,-28.94859,1.109108,-32.62783,-0.288770351615824,-0.1972333790491678,-0.0479574922023902,62.65913,55.15126,167.885,0.4418497,-0.4165919,0.7275276,4
5.32,-28.75915,1.12888,-32.5588,-0.2282849601297756,-0.1791696149628797,-0.0302424494245512,60.95271,52.426,166.7733,0.4305534,-0.4081528,0.7422599,4
5.34,-28.66088,1.312972,-32.5244,-0.1631671593719694,-0.1564833533898359,-0.0116433213792639,64.01334,50.55391,164.5117,0.4233648,-0.4261089,0.729306,4
5.36,-28.53457,1.161732,-32.47925,-0.0967187195537397,-0.1348197197506284,0.0069912216866967,55.76589,53.55285,168.8212,0.4369808,-0.3767494,0.7648523,4
5.38,-28.44881,1.178168,-32.44893,-0.0447899498635333,-0.064074554371725,0.0197218588280971,52.06688,56.48087,171.2822,0.4533209,-0.3532215,0.7735114,4
5.4,-28.34941,1.356108,-32.41274,0.0087627489243042,-0.039198848354521,0.0293347001807271,55.18468,55.60128,170.0237,0.4474103,-0.3722233,0.7622167,4
5.42,-28.16004,1.228312,-32.36823,0.0559105413734775,-0.0382482896493074,0.035066211367237,37.84058,62.26468,174.7232,0.5013404,-0.2547444,0.8011523,4
5.44,-28.06366,1.239318,-32.34251,0.1053898890797886,0.0089963311862787,0.0415458142104787,32.02715,64.021,175.3396,0.5185955,-0.2130108,0.8084281,4
5.46,-27.95008,1.408868,-32.30374,0.1452474664994247,0.0306503613808468,0.0434320005446986,35.5346,63.88109,174.8477,0.5149357,-0.2360448,0.8000498,4
5.48,-27.8882,1.256929,-32.29477,0.1841663466798095,0.050964893062456,0.0446091154006591,20.02856,67.31664,176.5787,0.5498726,-0.1283839,0.8164338,4
5.5,-27.77192,1.424673,-32.25568,0.2141629094428783,0.0685839257252893,0.0452640855235957,23.60262,67.36201,176.3418,0.5480021,-0.1527741,0.8105137,4
5.52,-27.74001,1.267982,-32.25047,0.2461667671673129,0.0624768263231727,0.0465853133059797,8.092708,70.20824,177.5601,0.5747297,-0.04550245,0.8150203,4
5.54,-27.60808,1.275623,-32.20727,0.2806576551481621,0.1004593269147524,0.0514318722051472,358.3715,72.3945,178.1918,0.5902529,0.02078414,0.8069392,4
5.56,-27.4907,1.441134,-32.16832,0.306503337089254,0.0906636621683792,0.0538883477213714,1.949396,72.52779,178.2801,0.5915589,-0.004838007,0.8059428,4
5.58,-27.4264,1.285183,-32.14576,0.3292029148711135,0.0779056451045397,0.0559839236410271,353.3178,73.62969,178.748,0.5976671,0.05319075,0.7995493,4
5.6,-27.30837,1.448393,-32.10498,0.3476857577299057,0.0869102732943694,0.0580091595741034,356.9109,73.7444,178.9603,0.5995939,0.02700385,0.7997991,4
5.62,-27.23104,1.296114,-32.07277,0.3663395697130407,0.0918057307441698,0.0614399246951373,353.4559,73.70682,179.514,0.5985929,0.04821057,0.7990062,4
5.64,-27.11409,1.457104,-32.02937,0.3746398115019298,0.1182751751472044,0.0623319802056459,357.0221,73.81446,179.8136,0.6002838,0.02175373,0.7993633,4
5.66,-26.99951,1.614298,-31.98702,0.3656162558053757,0.0939577467453136,0.056655507646921,0.5865653,73.94044,180.1194,0.6013874,-0.004716258,0.7989404,4
5.68,-27.02857,1.262032,-32.00008,0.3601617489040944,0.115315791944465,0.0531485073181077,355.7658,74.3149,180.5876,0.6037382,0.02634673,0.7963098,4
5.7,-26.91399,1.425966,-31.95866,0.3602798323857579,0.1601752217195395,0.0521187524293722,359.306,74.434,180.8901,0.6048436,0.0001245926,0.7962835,4
5.72,-26.89582,1.245792,-31.94697,0.3345184115834581,0.1300205684186869,0.0448140345218375,1.435837,74.31018,181.5917,0.6037303,-0.01837392,0.7969694,4
5.74,-26.77879,1.410594,-31.90479,0.3232257346287404,0.1501836186186258,0.0435810431473324,5.079308,74.45941,181.8975,0.6037508,-0.04528433,0.7957693,4
5.76,-26.66397,1.571618,-31.86357,0.3112541485494611,0.1945730991143614,0.0429087549019433,8.720879,74.62933,182.2152,0.6031556,-0.07214113,0.7937592,4
5.78,-26.71034,1.232026,-31.8725,0.2778505154962687,0.1880268303241471,0.0365968904202329,8.2708,74.57093,182.8809,0.6025762,-0.07254597,0.7944032,4
5.8,-26.59423,1.400811,-31.83147,0.2413071669866382,0.1822876179106168,0.0296895983203828,11.90023,74.75494,183.1808,0.601274,-0.09910177,0.7918143,4
5.82,-26.63235,1.21745,-31.83813,0.2010742539180365,0.1744912480680342,0.0220305211619251,11.89042,74.71624,183.3539,0.6008636,-0.09995583,0.792084,4
5.84,-26.58122,1.199678,-31.81397,0.1595910553411328,0.1606731894489221,0.0138399419669479,14.75761,74.82112,183.6674,0.5989186,-0.121238,0.7898182,4
5.86,-26.46823,1.376375,-31.77506,0.105663449273873,0.1218263120998501,0.0022620257515244,18.3326,75.03291,183.9506,0.5965,-0.1470019,0.7859284,4
5.88,-26.49137,1.183161,-31.77516,0.0688969845063058,0.1371541503091437,-0.0040923878166099,17.40349,74.37012,183.9273,0.5929536,-0.1409323,0.790188,4
5.9,-26.37997,1.363921,-31.73692,0.0304879591377122,0.1518576072339326,-0.0107249905400452,20.95614,74.58245,184.1754,0.5900975,-0.1662881,0.7857946,4
5.92,-26.42264,1.168194,-31.74234,-0.0389129112748327,0.0836571182244373,-0.0253608661778756,20.14635,73.09362,184.0868,0.5809171,-0.1613303,0.7941977,4
5.94,-26.37597,1.15297,-31.71692,-0.0769833062641298,0.0978789476603782,-0.0328900839768602,23.07811,71.51797,184.0746,0.5664331,-0.182578,0.7987344,4
5.96,-26.26774,1.341802,-31.67899,-0.1144187933879772,0.1115299562221147,-0.0404492679364127,26.59187,71.68033,184.1507,0.5627059,-0.2069481,0.7932832,4
5.98,-26.16024,1.527393,-31.64145,-0.1516906219414471,0.1215079472822151,-0.0481759606513318,30.10388,71.85315,184.2402,0.5584496,-0.2311105,0.7870889,4
6.0,-26.23533,1.132705,-31.65452,-0.1918512116726494,0.1008591645284388,-0.0549721979564035,28.03496,69.00237,183.9561,0.5423387,-0.2184653,0.8038332,4
6.02,-26.21813,1.128764,-31.64399,-0.2406923599222374,0.0541929815766182,-0.064819505645528,30.02609,67.97376,183.7051,0.532697,-0.2321281,0.8051262,4
6.04,-26.11357,1.324579,-31.60744,-0.2652203198570473,0.0679995317918911,-0.0684756942226485,33.45293,68.00507,183.5177,0.527993,-0.2549182,0.7985032,4
6.06,-26.07875,1.118734,-31.58602,-0.2930745193261135,0.0249876382838651,-0.0744352127901457,37.4001,65.81401,183.0041,0.5073649,-0.282569,0.799526,4
6.08,-25.97539,1.317465,-31.5498,-0.3171586815973191,-0.0171847146453191,-0.0798978689929907,40.79522,65.70682,182.6287,0.5016255,-0.3043754,0.7915164,4
6.1,-25.95859,1.115598,-31.5501,-0.3288064545984728,-0.0304088593327737,-0.0825326019123231,41.86426,65.9553,182.3452,0.5021501,-0.3100418,0.7873358,4
6.12,-25.85073,1.114479,-31.51195,-0.3443192848649605,-0.0703962257735886,-0.0873221833832884,44.68305,65.8336,181.129,0.4994602,-0.3240379,0.7784436,4
6.14,-25.74952,1.314985,-31.47624,-0.3504361683979726,-0.0501318739814699,-0.0887407778413043,48.01645,65.66789,180.7216,0.4931358,-0.3449809,0.7689273,4
6.16,-25.69501,1.112946,-31.4564,-0.344505541640324,-0.0577130160762624,-0.0863013411505875,48.0623,64.89502,179.5265,0.4914387,-0.3416296,0.7698297,4
6.18,-25.59445,1.313397,-31.42182,-0.3342965084583036,-0.0926594730577695,-0.0831129372160051,51.35983,64.59536,178.9648,0.4848324,-0.3619327,0.7596712,4
6.2,-25.52608,1.107153,-31.39759,-0.3107931475568435,-0.0682477924836576,-0.0759149090179645,53.30571,63.81837,177.6716,0.4800479,-0.3711201,0.7537109,4
6.22,-25.33041,1.102232,-31.32937,-0.2648995901828317,-0.0993956728342287,-0.0611064338814921,59.67838,61.38371,174.0282,0.4644386,-0.4042269,0.7316789,4
6.24,-25.23146,1.29595,-31.2968,-0.2150101129427324,-0.0714387054641617,-0.0454983119613778,62.89591,60.39665,172.7567,0.4567388,-0.4229139,0.7192888,4
6.26,-25.09523,1.109138,-31.24696,-0.1582067844088617,-0.0955667152954133,-0.0272255406522701,62.64462,55.16194,167.8749,0.4419743,-0.4164247,0.7275215,4
6.28,-24.99716,1.297821,-31.21391,-0.0990543160495414,-0.1217293402101044,-0.0084728498492037,65.75078,53.33992,165.7094,0.4343757,-0.4344055,0.7143645,4
6.3,-24.8876,1.128931,-31.17212,-0.0442584769567893,-0.1118473667186368,0.0084626983601046,60.9443,52.45221,166.7511,0.4308124,-0.4079395,0.7421371,4
6.32,-24.69895,1.161773,-31.10514,0.0132893612079509,-0.0745370082127681,0.0258508712150771,55.76145,53.48814,168.7969,0.4366338,-0.3767874,0.7650559,4
6.34,-24.59547,1.178211,-31.0688,0.0698088178366305,-0.0573818171368363,0.0406729487969106,52.06517,56.45152,171.2579,0.4531999,-0.3531818,0.7735772,4
6.36,-24.49609,1.356233,-31.03305,0.1266924613694491,-0.0411501842076952,0.0553845815821176,55.17454,55.54601,169.975,0.447214,-0.3720987,0.7623513,4
6.38,-24.39792,1.531519,-30.99787,0.1770719770480315,-0.0239097481995026,0.0647065968789859,58.26913,54.43076,168.4888,0.44088,-0.3907196,0.7505335,4
6.4,-24.29,1.228407,-30.98142,0.2301845321641669,0.0164341886499226,0.0746723607312054,37.82816,62.28639,174.7482,0.501451,-0.2547261,0.8011343,4
6.42,-24.23201,1.239437,-30.96863,0.2731963133536927,0.0087293692530774,0.0790582245032061,32.01319,63.955,175.3606,0.5181045,-0.2131092,0.8087906,4
6.44,-24.11933,1.409157,-30.92939,0.3034184657802194,0.0437693544623355,0.0820305759930684,35.50225,63.82154,174.8915,0.5144649,-0.2361143,0.8004723,4
6.46,-24.00786,1.263536,-30.90851,0.3316548419592107,0.0549511968898677,0.0845087407141811,13.864,68.7336,177.1778,0.5626459,-0.0857939,0.8174808,4
6.48,-23.89216,1.43111,-30.86951,0.3571512416848712,0.0649592570905197,0.0862113090292213,17.41482,68.82507,177.0459,0.5616676,-0.1104529,0.8130051,4
6.5,-23.85079,1.271888,-30.8583,0.3774654918420035,0.0730684926000234,0.0882950251107432,2.361265,71.45406,177.9484,0.5840062,-0.006272715,0.8112905,4
6.52,-23.70491,1.279118,-30.80934,0.3945645649703171,0.0798118805881653,0.0897839509878939,354.4488,73.17982,178.4254,0.5947937,0.04705825,0.8023014,4
6.54,-23.58746,1.443778,-30.76973,0.4222768079250509,0.086494838232872,0.0963841724034839,358.0278,73.29642,178.579,0.5965946,0.0212076,0.8022624,4
6.56,-23.50798,1.291279,-30.74143,0.4438774645641112,0.115144537440371,0.1020478255763603,352.2309,73.88821,179.0846,0.5992032,0.05893274,0.797686,4
6.58,-23.38962,1.453079,-30.69904,0.4477846699619388,0.0934942314046293,0.102538967494679,355.8355,73.98663,179.3539,0.6011515,0.03241042,0.7982891,4
6.6,-23.34923,1.296028,-30.68521,0.4548083689052142,0.1170730576481907,0.1049862981785967,353.459,74.15514,179.5339,0.6017237,0.04796324,0.796654,4
6.62,-23.26008,1.269944,-30.65028,0.4390589244576124,0.0891848656022574,0.0998319754933247,354.0776,74.4846,180.0088,0.6043822,0.04107923,0.795018,4
6.64,-23.14577,1.433485,-30.60894,0.421677603801263,0.081465785870183,0.0939482209271043,357.5951,74.58809,180.3194,0.6058166,0.01500649,0.795323,4
6.66,-23.11599,1.254502,-30.60498,0.3998296939959949,0.0732716582335469,0.0867274248897582,357.4489,74.71085,181.1328,0.6067526,0.01169784,0.7945176,4
6.68,-23.00022,1.418717,-30.56479,0.3729159823506429,0.0618204173927308,0.0779588021679891,1.024966,74.83291,181.4145,0.6074456,-0.01460317,0.794215,4
6.7,-22.88665,1.57926,-30.52554,0.3396329438812056,0.0503337993134454,0.0690693441187981,4.599891,74.97281,181.7044,0.607542,-0.04088415,0.7931342,4
6.72,-22.92062,1.23784,-30.52138,0.2968612423820662,0.0134775752844169,0.0585016559965021,6.169914,74.57306,182.5726,0.6038098,-0.05638608,0.7949947,4
6.74,-22.80422,1.405133,-30.48037,0.2648058886456499,0.0272122146821102,0.0512061685950673,9.798494,74.73929,182.8662,0.6028507,-0.08297669,0.7928814,4
6.76,-22.68987,1.568701,-30.44025,0.2105338854887226,-0.0107915532560788,0.037331594672803,13.42511,74.92667,183.1744,0.6012824,-0.1094759,0.7899686,4
6.78,-22.7549,1.21753,-30.45199,0.1529516252638405,-0.0485289829670679,0.0223160808427089,11.8817,74.78661,183.3447,0.6013644,-0.09982345,0.7917166,4
6.8,-22.64036,1.390181,-30.41268,0.115396790111526,-0.0143396683188705,0.0133875777696776,15.47538,74.97707,183.6212,0.5993848,-0.1258328,0.788447,4
6.82,-22.52755,1.559238,-30.37411,0.0448468493378899,-0.0596447966044009,-0.0049188736636223,19.06703,75.18948,183.9157,0.596812,-0.1517102,0.7843986,4
6.84,-22.58223,1.183128,-30.37849,-0.0050061196826218,-0.051860294053632,-0.0170261346467235,17.4154,74.53163,183.9182,0.5940656,-0.1408755,0.7893359,4
6.86,-22.54324,1.175778,-30.36133,-0.0469824203966489,-0.0162622509826191,-0.027401874676459,18.73263,74.03486,184.0526,0.5890654,-0.1508674,0.7907795,4
6.88,-22.43235,1.35858,-30.32404,-0.1168339689438613,-0.0633075452322058,-0.044249318415694,22.27632,74.22927,184.2519,0.585924,-0.1759007,0.7861953,4
6.9,-22.32256,1.538014,-30.28725,-0.1668989645925043,-0.0541220105165404,-0.0555505473392714,25.81825,74.44265,184.4701,0.5822207,-0.2007577,0.7808586,4
6.92,-22.41813,1.153084,-30.30478,-0.2303703117272295,-0.1010130058982047,-0.0693929310065399,23.06381,71.73583,184.0493,0.5680092,-0.1821849,0.797654,4
6.94,-22.30979,1.342013,-30.26806,-0.2777537708041846,-0.1182860491362801,-0.0784924443273853,26.56901,71.88055,184.0982,0.5642184,-0.2063482,0.7922831,4
6.96,-22.20217,1.527713,-30.23171,-0.3141853517121356,-0.1030560740828075,-0.0854478286150826,30.07282,72.03348,184.159,0.5599,-0.2303095,0.7861725,4
6.98,-22.09547,1.710242,-30.19579,-0.3626814543207004,-0.143812272889439,-0.095903571790767,33.57543,72.19663,184.2334,0.5550584,-0.2540484,0.7793286,4
7.0,-22.20103,1.124822,-30.20769,-0.4090245829225565,-0.1833387195660901,-0.1060305585043241,32.10358,67.18686,183.539,0.5243586,-0.2466345,0.8048509,4
7.02,-22.17525,1.121862,-30.19633,-0.4308198315507936,-0.1947875590531215,-0.1102879825333924,34.70865,66.52421,183.2308,0.5162636,-0.2640716,0.8024014,4
7.04,-22.07144,1.319859,-30.16079,-0.4360884663526057,-0.1744640818167635,-0.1099804063731921,38.10707,66.44708,182.8928,0.510831,-0.286075,0.7949716,4
7.06,-22.01844,1.115603,-30.14503,-0.446138000432243,-0.2106938463694615,-0.1116285263536824,41.85566,66.0011,182.3506,0.5024658,-0.3099358,0.7871651,4
7.08,-21.91573,1.315586,-30.10987,-0.4419967022361959,-0.1864427837132241,-0.110134280127208,45.22477,65.83366,181.9287,0.4961434,-0.3311654,0.7783354,4
7.1,-21.89199,1.114478,-30.10057,-0.4430163767336945,-0.2192246266033968,-0.1108170128779204,44.68027,65.90598,181.1326,0.4999469,-0.3239089,0.7781416,4
7.12,-21.85191,1.113773,-30.08666,-0.4268081374060246,-0.192055160884693,-0.1051702571686732,46.35075,65.364,180.3422,0.495411,-0.3327217,0.774392,4
7.14,-21.75126,1.314318,-30.05213,-0.3973821336977239,-0.1929791344642337,-0.0953141353486195,49.65198,65.11198,179.8379,0.4888942,-0.3531977,0.764654,4
7.16,-21.63224,1.107162,-30.00922,-0.364138370714933,-0.193067153260402,-0.0847901066464968,53.30921,63.6963,177.6677,0.4792507,-0.3713959,0.7542014,4
7.18,-21.5353,1.103812,-29.97586,-0.3166735342827023,-0.1906880919105213,-0.0696180837331992,56.49109,62.76974,176.1571,0.4720614,-0.3883995,0.7433512,4
7.2,-21.43627,1.299955,-29.94306,-0.2658448346223543,-0.18814951972092,-0.0538322150264081,59.72438,62.05228,175.1682,0.464582,-0.4074583,0.7316748,4
7.22,-21.21082,1.109166,-29.86168,-0.1902851801417862,-0.1784436145787202,-0.0292291996135034,62.64489,54.96441,167.8387,0.4408512,-0.4168371,0.7281802,4
7.24,-21.11252,1.297873,-29.82878,-0.1269288090963649,-0.1389187922792433,-0.0093607030551008,65.75085,53.09328,165.6253,0.4331565,-0.4348086,0.7150521,4
7.26,-20.98587,1.128904,-29.78043,-0.0584907102893472,-0.1483244616297295,0.0124455469588204,60.94366,52.33952,166.763,0.4300404,-0.4082866,0.7425957,4
7.28,-20.88791,1.313099,-29.74625,0.0051745100305335,-0.1031534836809923,0.0319014782743725,63.99105,50.44269,164.4872,0.4227714,-0.4261824,0.7297485,4
7.3,-20.77972,1.161737,-29.70706,0.0690386711467772,-0.0600174968384451,0.0512336759144815,55.76529,53.4076,168.8045,0.4360665,-0.3770446,0.7653663,4
7.32,-20.68075,1.341528,-29.67207,0.1311463322269723,-0.0368062330507306,0.0677575815888671,58.82699,52.03542,167.0298,0.4295085,-0.3953582,0.7534798,4
7.34,-20.50149,1.21181,-29.61937,0.1875242855562806,-0.0124059082095649,0.079278146837852,43.07401,60.46883,173.9561,0.4844515,-0.2920325,0.792788,4
7.36,-20.39657,1.385685,-29.58216,0.2433431567066808,0.0352179747955269,0.0903862565066266,46.34526,60.03458,173.1663,0.4793915,-0.3127083,0.7828712,4
7.38,-20.30806,1.239195,-29.57007,0.2911776734535967,0.0348995434949442,0.0965864510549106,32.05602,63.82566,175.3219,0.5172212,-0.213443,0.8092191,4
7.4,-20.19406,1.408625,-29.53106,0.3390205485463458,0.03198264358108,0.1024688339819457,35.57677,63.66268,174.8112,0.5134395,-0.2365577,0.8008634,4
7.42,-20.15415,1.257209,-29.52914,0.3859381172306837,0.0497550011709218,0.1099763248795029,20.03373,67.0863,176.5724,0.5482342,-0.1286334,0.8175236,4
7.44,-20.03919,1.425363,-29.49008,0.4382100297445523,0.0902964183337716,0.1204142907206535,23.57015,67.11795,176.3316,0.5463127,-0.1527901,0.81172,4
7.46,-19.9377,1.271895,-29.46283,0.4807760813240191,0.0822402817092579,0.1276757904285888,2.379205,71.33127,177.9451,0.5831371,-0.006411637,0.8119107,4
7.48,-19.82103,1.438386,-29.42397,0.5205877863665807,0.1185795239715778,0.1368141508665439,5.943975,71.45367,177.9665,0.5837913,-0.03173633,0.8100534,4
7.5,-19.77226,1.279114,-29.40729,0.5482511215178953,0.1073526330072098,0.1425581507376927,354.4608,73.09396,178.4245,0.5941963,0.04699186,0.8027503,4
7.52,-19.65491,1.443787,-29.36748,0.5831831615522742,0.1418688708674339,0.1520014434393242,358.0391,73.20458,178.5773,0.5959533,0.02113715,0.8027411,4
7.54,-19.52481,1.293725,-29.32193,0.6052890046322732,0.1502157072643789,0.1579322629632975,352.839,73.90192,179.2864,0.5996355,0.05364295,0.7978088,4
7.56,-19.40692,1.455067,-29.27929,0.6224179145535471,0.1571731205671042,0.163171591293636,356.4291,73.99619,179.5654,0.6013976,0.02716459,0.7983332,4
7.58,-19.38105,1.282851,-29.26942,0.6246712144123117,0.1587537235160351,0.1633778674894932,353.7666,74.25719,179.7705,0.6026253,0.04455501,0.7961678,4
7.6,-19.26536,1.445054,-29.22704,0.6217365620093163,0.1596937569254284,0.162294352227601,357.3107,74.35307,180.0824,0.6041198,0.01826331,0.7965478,4
7.62,-19.27467,1.262111,-29.2325,0.6082012104730246,0.1569958981047099,0.1579912143181649,355.7456,74.49358,180.5703,0.604972,0.02653645,0.7953659,4
7.64,-19.1807,1.250142,-29.19976,0.5945801918891225,0.1819770980807892,0.1536640148934376,359.4408,74.71619,181.3628,0.6067908,-0.003337544,0.794758,4
7.66,-19.06401,1.414582,-29.15895,0.5646103850854731,0.1567630922141827,0.1451506567044003,3.055873,74.84233,181.6539,0.6070845,-0.02994126,0.7940592,4
7.68,-18.94953,1.575285,-29.11907,0.5433083276952504,0.1814447251690258,0.1410910185875242,6.669789,74.98745,181.9543,0.6067685,-0.05651065,0.7925653,4
7.7,-18.99244,1.23764,-29.12634,0.497998566850508,0.1558452681359468,0.1305652412811007,6.191039,75.05827,182.5885,0.6071535,-0.05655337,0.7924276,4
7.72,-18.91913,1.226376,-29.09154,0.4416433231022536,0.1033294005583232,0.1176656474952926,10.32643,74.92551,183.1562,0.6035807,-0.08808773,0.7917358,4
7.74,-18.80339,1.396875,-29.05208,0.4037014055523937,0.1250667230055889,0.1090608615455663,13.94159,75.10323,183.4339,0.6018162,-0.1143005,0.7888073,4
7.76,-18.81732,1.20881,-29.05033,0.3621063048658297,0.1457078678453736,0.0992597038169669,13.4308,75.26222,183.5384,0.6032381,-0.111287,0.7883543,4
7.78,-18.70319,1.38344,-29.0119,0.289893210912219,0.08623984537208,0.0809294041964796,17.01926,75.45602,183.8229,0.6009369,-0.1371579,0.7848024,4
7.8,-18.59066,1.554513,-28.97414,0.2285012104900017,0.0770503964728763,0.0655799403523125,20.60567,75.67285,184.1263,0.5980425,-0.1628859,0.7804772,4
7.82,-18.68658,1.183216,-28.99451,0.1657837834074835,0.0695458000680624,0.049761210563878,17.40228,74.75552,183.9094,0.5956309,-0.1406135,0.7881801,4
7.84,-18.5747,1.36399,-28.95747,0.0849877554894122,0.0062804984093967,0.030097896145631,20.95896,74.9496,184.1387,0.5926618,-0.1658553,0.7838705,4
7.86,-18.46405,1.541349,-28.92096,0.0278193379051938,0.0250416221802549,0.0163708715299417,24.5138,75.16428,184.3873,0.5891196,-0.1909293,0.7788042,4
7.88,-18.5406,1.153059,-28.92662,-0.0189447185689621,0.0716982850481423,0.005516051610499,23.07386,71.89665,184.0496,0.5691147,-0.1821309,0.7968439,4
7.9,-18.43183,1.341935,-28.89008,-0.0920237683357805,0.0341921620200763,-0.0124724374154601,26.5904,72.03557,184.0986,0.5652585,-0.2063515,0.7914886,4
7.92,-18.41962,1.132752,-28.87133,-0.168943176438798,-0.0304785992593654,-0.0308460717520406,28.0297,69.24442,183.9455,0.5440631,-0.2181469,0.8026838,4
7.94,-18.36435,1.128783,-28.84737,-0.214731206698147,-0.0102282183103629,-0.0410294661623065,30.01929,68.28176,183.7037,0.5348721,-0.2317543,0.8037018,4
7.96,-18.2596,1.324599,-28.81144,-0.2586842013694106,0.010082706242973,-0.0508430843031111,33.44641,68.29974,183.5136,0.5300642,-0.2545025,0.7971504,4
7.98,-18.25291,1.121832,-28.80193,-0.3172536425511305,-0.056169356827413,-0.065765999210269,34.7032,66.7195,183.2468,0.5176023,-0.2638654,0.8015512,4
8.0,-18.1491,1.319787,-28.76633,-0.3737561905786375,-0.1221668041735198,-0.0802959519199966,38.10401,66.6464,182.9254,0.5121371,-0.2859228,0.7941341,4
8.02,-18.07741,1.115595,-28.74425,-0.3968000138073657,-0.0764936419686626,-0.0873927581169002,41.85224,66.18838,182.356,0.5037434,-0.3096442,0.7863598,4
8.04,-17.97462,1.315567,-28.70933,-0.4111929208308185,-0.0872885299954453,-0.0930849432691847,45.22212,66.01844,181.9389,0.4973737,-0.3308753,0.777559,4
8.06,-17.9325,1.114477,-28.6937,-0.4264733469316837,-0.1248965070410081,-0.0998405026058302,44.67451,66.10143,181.1365,0.5012731,-0.3235474,0.7773107,4
8.08,-17.83112,1.314976,-28.6584,-0.4302579666843709,-0.1022730608014668,-0.103006539654963,48.00988,65.92537,180.7312,0.4948462,-0.3444932,0.7678552,4
8.1,-17.79556,1.112954,-28.6451,-0.4299175919844282,-0.0803893756311226,-0.1054180063870404,48.05262,65.06912,179.53,0.4926156,-0.3412423,0.7691181,4
8.12,-17.69489,1.31341,-28.61087,-0.4166589620095255,-0.0880024673229298,-0.1044142826565854,51.35066,64.7556,178.9657,0.4859095,-0.3615416,0.759024,4
8.14,-17.52878,1.103744,-28.55232,-0.3898726782983279,-0.0646200220252876,-0.0995201790257862,56.50072,62.97794,176.1943,0.4732665,-0.3881232,0.7425454,4
8.16,-17.42954,1.299803,-28.51908,-0.3584507991030254,-0.0424726545186906,-0.0937312260585483,59.74871,62.28864,175.2455,0.4657676,-0.407338,0.7308152,4
8.18,-17.30408,1.104508,-28.47389,-0.3064081122529656,-0.0441648269912208,-0.0859584776243429,61.21195,58.58135,171.2002,0.4539084,-0.410425,0.7293272,4
8.2,-17.20571,1.295705,-28.44123,-0.2518385447879638,-0.0406223090900886,-0.0805919929462013,64.37914,57.21106,169.529,0.4461706,-0.4287724,0.7166161,4
8.22,-16.98834,1.128881,-28.36102,-0.194514101321352,-0.0373556941361866,-0.0741864860334491,60.94834,52.40081,166.7345,0.4305336,-0.4080451,0.7422677,4
8.24,-16.89001,1.313079,-28.32728,-0.1396651598309823,-0.0246879333281238,-0.0704521208779112,63.99722,50.46558,164.4219,0.4231531,-0.4259187,0.7294494,4
8.26,-16.76428,1.161717,-28.28157,-0.0841851932164008,-0.0125070805198277,-0.0662191755959553,55.76851,53.49931,168.8009,0.4366873,-0.3768241,0.764995,4
8.28,-16.66521,1.341501,-28.24673,-0.0327625797957176,0.0492917002720151,-0.0639412033669675,58.83132,52.11761,167.0216,0.4300721,-0.3951409,0.7531317,4
8.3,-16.56728,1.51858,-28.21241,0.0199340173910833,0.0401098978541966,-0.0653213156786152,61.86631,50.40004,164.9126,0.4231205,-0.4131426,0.7406805,4
8.32,-16.46921,1.211767,-28.18732,0.0646386686100624,0.0557513333855274,-0.0703305778841159,43.08581,60.57245,173.9813,0.4850894,-0.2920175,0.7923645,4
8.34,-16.31281,1.239175,-28.15055,0.1106383228301854,0.070165259643943,-0.0747335335994421,32.07059,63.83789,175.3413,0.5172572,-0.2136159,0.8091618,4
8.36,-16.19926,1.408642,-28.11105,0.1449055393862064,0.0821993342964122,-0.0838719283070075,35.58609,63.6816,174.853,0.5134754,-0.2367786,0.8008277,4
8.38,-16.13948,1.257254,-28.10292,0.1785468198477631,0.0929688107586226,-0.0930048827218086,20.03429,67.11098,176.5776,0.548404,-0.1286368,0.8174103,4
8.4,-16.02483,1.425477,-28.06379,0.2132640325741555,0.1470696025054161,-0.0986164787186596,23.56339,67.13908,176.3426,0.5464529,-0.1527684,0.8116435,4
8.42,-15.90356,1.271912,-28.0298,0.2312900887491413,0.1287183987099939,-0.1090319594443403,2.376629,71.3629,177.9466,0.5833611,-0.006393328,0.8117507,4
8.44,-15.78699,1.438424,-27.99095,0.2613932829634633,0.1337916676302624,-0.1127535514779181,5.939216,71.47973,177.969,0.5839754,-0.03170513,0.8099238,4
8.46,-15.71847,1.279116,-27.96768,0.2890426755440567,0.1373215953232033,-0.1163132703852647,354.462,73.13984,178.425,0.5945183,0.04697393,0.8025126,4
8.48,-15.60115,1.443795,-27.92791,0.3072668132062399,0.1397436266753954,-0.1207650713620553,358.0397,73.24478,178.578,0.596235,0.02112942,0.8025318,4
8.5,-15.54198,1.291249,-27.9061,0.3222530659720022,0.1404080766155351,-0.1248493767086413,352.2369,73.79386,179.0815,0.5985471,0.05893552,0.7981827,4
8.52,-15.42375,1.453066,-27.86347,0.3367815202451714,0.1363576442450559,-0.127988537854919,355.8412,73.88084,179.3486,0.600414,0.03241431,0.7988458,4
8.54,-15.33721,1.282751,-27.83213,0.3413505865178434,0.1070317684821509,-0.1339833129463694,353.7772,74.24042,179.7739,0.6025131,0.04446805,0.7962589,4
8.56,-15.22123,1.44481,-27.78945,0.3400924198673731,0.1224994801305281,-0.1410643611425728,357.3324,74.33047,180.0892,0.6039664,0.01807941,0.7966695,4
8.58,-15.21142,1.262087,-27.78806,0.3338121699120151,0.1354279504761358,-0.1491501097516967,355.7467,74.50226,180.5711,0.6050325,0.02652299,0.7953201,4
8.6,-15.09641,1.425922,-27.747,0.3156644191003788,0.1225520293317659,-0.1600954612828591,359.2965,74.60378,180.866,0.6060229,0.0003034612,0.7953877,4
8.62,-15.0982,1.250151,-27.74837,0.2941584175578831,0.1093918707116755,-0.1716571457208928,359.4341,74.74111,181.3625,0.6069639,-0.0032919,0.7946252,4
8.64,-14.9815,1.414584,-27.70754,0.2871316549158769,0.1443563708738575,-0.1769839342535175,3.049549,74.86149,181.6537,0.6072187,-0.02989586,0.7939582,4
8.66,-14.95058,1.237657,-27.68828,0.2575106959610331,0.1303824859068348,-0.1866130913439887,6.178544,74.96723,182.5832,0.6065319,-0.05645076,0.7929122,4
8.68,-14.83344,1.404704,-27.6474,0.2126605104855863,0.0917530149071907,-0.1999617997156897,9.826868,75.12376,182.8898,0.6054727,-0.08318833,0.7908481,4
8.7,-14.85724,1.22639,-27.64616,0.1653476749758586,0.053270023918202,-0.2136343494378159,10.32406,74.84492,183.154,0.603027,-0.08808316,0.7921606,4
8.72,-14.79592,1.208832,-27.61797,0.1226329569020905,0.0342063509889429,-0.2237390780717563,13.42871,75.06992,183.5341,0.6019201,-0.1113288,0.7893652,4
8.74,-14.68188,1.383464,-27.57924,0.08452688644351,0.0436583744608504,-0.233204564597564,17.01795,75.25694,183.814,0.5995843,-0.1372144,0.7858413,4
8.76,-14.56945,1.554538,-27.54119,0.0442747772805629,0.0524425201798192,-0.2429247270764349,20.60519,75.46655,184.1124,0.5966568,-0.162957,0.7815432,4
8.78,-14.64592,1.183249,-27.55468,0.0205542013394519,0.1109053590393771,-0.2474825863460732,17.39717,74.55949,183.9074,0.5942895,-0.1406792,0.7892013,4
8.8,-14.62704,1.175833,-27.54365,-0.0413324973247284,0.0620305876387637,-0.2599514974290513,18.72535,73.98621,184.0458,0.5887466,-0.1508123,0.7910322,4
8.82,-14.5162,1.35865,-27.50642,-0.103442177738815,0.0145796798124014,-0.2720614057357209,22.26809,74.16662,184.2381,0.5855258,-0.175822,0.7865145,4
8.84,-14.52176,1.153078,-27.49269,-0.1513016444393466,-0.0091222804750047,-0.2773846079588757,23.06853,71.68983,184.0534,0.5676765,-0.1822736,0.7978793,4
8.86,-14.41317,1.341937,-27.45564,-0.2075796188958758,-0.0582809147850396,-0.284052069679352,26.58541,71.82472,184.106,0.5637949,-0.2065503,0.7925415,4
8.88,-14.30532,1.52755,-27.41895,-0.2624490818558891,-0.1055669682047728,-0.289737556845997,30.10065,71.96776,184.1699,0.5593834,-0.2306218,0.7864593,4
8.9,-14.38192,1.132735,-27.43195,-0.2883630724554054,-0.069819990223137,-0.2882863489039762,28.02943,69.34972,183.9528,0.5447872,-0.2180784,0.8021911,4
8.92,-14.30836,1.124849,-27.39976,-0.3351032867395627,-0.1189603544023333,-0.2908424066228345,32.07645,67.48088,183.5357,0.5264713,-0.2461017,0.8035497,4
8.94,-14.20383,1.321954,-27.36383,-0.3643365781441039,-0.1074671880097362,-0.2894703622225303,35.50066,67.45251,183.2828,0.5213138,-0.2686028,0.7966296,4
8.96,-14.09956,1.516036,-27.32809,-0.3899648248637271,-0.1228364708831982,-0.2874189314940709,38.92377,67.4033,183.0159,0.5156896,-0.2908565,0.7889975,4
8.98,-14.10937,1.117147,-27.33063,-0.4112489095828855,-0.1361095314274039,-0.2839273062036294,39.61689,66.6451,182.6823,0.510078,-0.2951819,0.7902919,4
9.0,-14.00596,1.316492,-27.29615,-0.4254523586256902,-0.147619080126418,-0.2785258451551669,42.99933,66.49818,182.2902,0.5039034,-0.3166322,0.7819657,4
9.02,-13.90268,1.512894,-27.26182,-0.4345914920993035,-0.1572112737261333,-0.2713598975495519,46.37991,66.30887,181.8621,0.4972874,-0.3377982,0.7729554,4
9.04,-13.84571,1.113707,-27.24765,-0.4332627348660853,-0.1653324925299103,-0.2596492287670724,46.38075,66.71405,180.3832,0.5043244,-0.3306035,0.7684927,4
9.06,-13.77844,1.112952,-27.22729,-0.4273695189025932,-0.1718993971644054,-0.2463765551262482,48.05061,66.28046,179.5341,0.50071,-0.3388798,0.763882,4
9.08,-13.67707,1.313402,-27.19514,-0.4085348009076877,-0.1774700286136155,-0.2284832009707291,51.35001,65.9632,178.9721,0.4938624,-0.3590276,0.753877,4
9.1,-13.57575,1.51105,-27.1631,-0.3851823982773683,-0.181976398039822,-0.2093018673605065,54.64613,65.56492,178.3341,0.4866019,-0.3788683,0.7432423,4
9.12,-13.49365,1.10373,-27.13914,-0.330357735399903,-0.183159289201582,-0.1786689419891449,56.49376,64.59256,176.2113,0.4836387,-0.3842776,0.7358698,4
9.14,-13.3936,1.299775,-27.10848,-0.2720775533840036,-0.1843520428001854,-0.1470353497321652,59.74297,63.91035,175.2773,0.4759626,-0.4033141,0.7242543,4
9.16,-13.29385,1.49312,-27.07801,-0.2166913465737294,-0.177967575427121,-0.1158176194497064,62.98414,63.03682,174.1559,0.4678962,-0.4220114,0.7120475,4
9.18,-13.05951,1.117797,-27.03057,-0.1589874177570815,-0.1716610919518169,-0.0837856786771076,61.87384,55.75793,167.1623,0.4493696,-0.406739,0.7265552,4
9.2,-12.96536,1.12876,-27.0224,-0.1032660882283842,-0.1103851211508524,-0.0528889102452936,60.96572,54.44299,166.752,0.44361,-0.4026121,0.7344514,4
9.22,-12.86607,1.312881,-26.99149,-0.043822478019281,-0.1223362132617766,-0.0200937717936917,64.02396,52.5396,164.4825,0.4360333,-0.4203306,0.7217271,4
9.24,-12.66787,1.178102,-26.93495,0.0085566092897626,-0.1033221553739769,0.00822805467793,52.09284,58.2307,171.2147,0.4652503,-0.3490065,0.7662441,4
9.26,-12.56705,1.356088,-26.90254,0.0616671796843149,-0.0850083306734025,0.0367967659179959,55.20865,57.28127,169.9017,0.458896,-0.3677067,0.7551752,4
9.28,-12.46748,1.531323,-26.87064,0.1108662630421035,-0.0205806614644484,0.0635767423165396,58.30875,56.11473,168.378,0.4521828,-0.386113,0.7435161,4
9.3,-12.35712,1.228117,-26.86444,0.1550055325658237,-0.0270005641628841,0.0844286287616205,37.89511,64.03922,174.7348,0.5135966,-0.2519802,0.7931722,4
9.32,-12.29904,1.239352,-26.85374,0.2003034488223312,-0.0358836356510731,0.1055342016261509,32.0517,65.68588,175.3504,0.530241,-0.2106084,0.8007714,4
9.34,-12.18515,1.409055,-26.81794,0.2460707385438645,0.021837605119493,0.1279861638412183,35.54348,65.52773,174.8721,0.526319,-0.2333556,0.792589,4
9.36,-12.07548,1.263463,-26.80026,0.2789785822979578,0.0301180884505229,0.1466735351483059,13.92327,70.38893,177.1689,0.5743766,-0.08488511,0.8092026,4
9.38,-11.95866,1.431022,-26.76459,0.3030376320921235,0.0145646967321378,0.1623528974877093,17.4765,70.45955,177.0314,0.5731843,-0.1092853,0.804823,4
9.4,-11.84387,1.594924,-26.72966,0.3326581045048584,0.0446501015318994,0.1819008871239313,21.02936,70.52249,176.8957,0.5714394,-0.1335767,0.7996693,4
9.42,-11.82553,1.275663,-26.72562,0.3627047554863383,0.0278130852488884,0.2016734511878222,358.411,73.93176,178.1841,0.6010306,0.02060555,0.7989489,4
9.44,-11.68435,1.28514,-26.68037,0.3884034530545288,0.056177438531731,0.2214748333820373,353.3289,75.03075,178.7395,0.6073983,0.05283537,0.7921882,4
9.46,-11.5655,1.448403,-26.64248,0.4095053811799366,0.0811425289014217,0.2402533668607271,356.9201,75.12069,178.9449,0.6091546,0.02691283,0.7925428,4
9.48,-11.50622,1.293696,-26.62332,0.4173772295583752,0.0800014084787003,0.2546077746030661,352.8297,75.53538,179.2978,0.6109484,0.05317637,0.7891735,4
9.5,-11.38744,1.455047,-26.58353,0.4089279962283958,0.0530268914096299,0.2637700063601804,356.4169,75.61526,179.5889,0.6126201,0.02689812,0.7897509,4
9.52,-11.31686,1.269822,-26.56182,0.4045979158474226,0.071390092207152,0.2745869746932285,354.0934,76.25565,180.0179,0.6166044,0.04043249,0.7855856,4
9.54,-11.24366,1.261849,-26.54355,0.3874682827527319,0.0388120528783756,0.2801469427402829,355.7736,76.4201,180.5547,0.6182587,0.0259808,0.7850946,4
9.56,-11.12623,1.425359,-26.50654,0.3704603824195669,0.0544673234596888,0.285727402271084,359.3548,76.51506,180.8349,0.6192032,-8.994341e-05,0.7851769,4
9.58,-11.01109,1.585164,-26.4704,0.3485249404458824,0.0680438982787931,0.2893430508148342,2.934818,76.62753,181.1208,0.6195381,-0.02615379,0.7844881,4
9.6,-11.03794,1.245915,-26.48074,0.3145665580856438,0.0579175874466817,0.2898060874097514,1.408715,77.07788,181.5904,0.6228059,-0.01826088,0.7821568,4
9.62,-10.91945,1.410823,-26.44412,0.2629809376446465,0.0236602398387054,0.2843679279455644,5.042315,77.20158,181.8952,0.6226327,-0.04468045,0.7811026,4
9.64,-10.80321,1.571969,-26.40834,0.2258733783450315,0.0394697350943423,0.2838619001868938,8.674634,77.34561,182.2099,0.6218281,-0.07104959,0.7792578,4
9.66,-10.84335,1.226217,-26.40813,0.1680705287282289,0.0032870798785039,0.2774715532710035,10.34037,77.06639,183.1686,0.6182473,-0.08761831,0.7803191,4
9.68,-10.81409,1.217582,-26.3966,0.1205010360564871,0.0184235015160994,0.2730067298611764,11.87468,77.17403,183.337,0.6177395,-0.09888401,0.7790177,4
9.7,-10.69793,1.390208,-26.36218,0.0701622957575602,0.0328198238439359,0.267093179625522,15.47215,77.34368,183.6056,0.6155593,-0.1245223,0.7758952,4
9.72,-10.69473,1.190946,-26.34906,0.0066565256202898,0.0176984698467417,0.2580340392739928,16.08103,77.16495,183.7789,0.6135691,-0.1296409,0.7764819,4
9.74,-10.58061,1.369583,-26.31502,-0.0496176415737332,0.033113980215597,0.2499634292432775,19.66061,77.35515,184.0535,0.6106628,-0.1549786,0.7725052,4
9.76,-10.46788,1.544735,-26.28151,-0.1068003403119377,0.0483543888938152,0.2411106901715221,23.23821,77.5686,184.3477,0.6071576,-0.180157,0.767772,4
9.78,-10.35675,1.716507,-26.24859,-0.1914619113519748,-0.0189077914075979,0.2233147729441489,26.81339,77.80859,184.665,0.6030575,-0.2051474,0.7622885,4
9.8,-10.50096,1.160823,-26.2705,-0.2480605037640635,-0.0043714103280269,0.2126394818285488,21.5752,74.20572,184.0941,0.5868766,-0.1703494,0.7869925,4
9.82,-10.39024,1.347692,-26.23693,-0.2898718858160379,0.0385235072048469,0.2056024151863726,25.10875,74.34682,184.184,0.5830668,-0.1946137,0.7820349,4
9.84,-10.39462,1.139081,-26.21853,-0.3513129721577032,-0.0028910042063184,0.1929300243036609,26.30685,71.36265,183.9615,0.5612456,-0.2043615,0.7950782,4
9.86,-10.35503,1.132808,-26.20021,-0.4020506274480778,-0.0126646267713157,0.1808954113620506,28.03279,70.2946,183.9278,0.5514256,-0.2170654,0.7976422,4
9.88,-10.24792,1.327201,-26.16595,-0.4497895107025086,-0.0197518850402608,0.1689355523264688,31.51032,70.33525,183.798,0.5466721,-0.2402127,0.7915093,4
9.9,-10.14123,1.518468,-26.13191,-0.4948879359648102,-0.0274355151394232,0.1568936913727774,34.98695,70.36787,183.6659,0.5414151,-0.2631322,0.7846484,4
9.92,-10.19837,1.121852,-26.13357,-0.5289774178998826,-0.0357597671248723,0.14509313267614,34.70731,67.43008,183.2431,0.5225646,-0.262995,0.798313,4
9.94,-10.09363,1.319782,-26.09918,-0.5535026219622826,-0.0113297363148235,0.134242753235013,38.12438,67.3405,182.9157,0.5169262,-0.285049,0.7909578,4
9.96,-10.04447,1.115622,-26.08235,-0.5732357102340139,0.0130631300991743,0.1236305746556301,41.8486,66.56956,182.3476,0.5063857,-0.3089857,0.7846759,4
9.98,-9.941265,1.315607,-26.04829,-0.5976911167969481,-0.0496974089473074,0.1092499018653283,45.22255,66.37888,181.919,0.4998732,-0.3301727,0.7759554,4
10.0,-9.920118,1.114496,-26.03801,-0.6080931987241646,-0.0526285870165705,0.0979421917110849,44.67234,66.27404,181.1296,0.502467,-0.3232011,0.7765483,4
10.02,-9.818566,1.315011,-26.00321,-0.6129697468301706,-0.0535692257120794,0.0871899722858309,48.00842,66.07769,180.714,0.495921,-0.3441207,0.7671683,4
10.04,-9.710402,1.110002,-25.96213,-0.6039173806283982,-0.1135172775989374,0.0801849468261375,50.66709,64.51187,178.7172,0.4863978,-0.3564297,0.7617418,4
10.06,-9.610128,1.309445,-25.92803,-0.583798525310558,-0.0857223541888338,0.0761568444156512,53.9558,64.10034,178.0657,0.4793386,-0.3764665,0.7511801,4
10.08,-9.512687,1.103785,-25.89191,-0.5541181173211727,-0.0285474763641004,0.0742046197814207,56.47482,62.8514,176.1942,0.472497,-0.3882508,0.7431619,4
10.1,-9.413612,1.299892,-25.85872,-0.5139890316827583,-0.0554125494790648,0.0752590161976307,59.7174,62.13815,175.2319,0.4649174,-0.4074554,0.7315136,4
10.12,-9.191641,1.109116,-25.77618,-0.4577478045617713,-0.1072657229174836,0.0815197899049251,62.63626,54.84309,167.866,0.4399926,-0.4172204,0.7287601,4
10.14,-9.093431,1.297835,-25.74297,-0.3959551148416458,-0.0720435441890438,0.0888049895842204,65.74438,52.95448,165.6536,0.4321908,-0.4352765,0.7156886,4
10.16,-8.968944,1.12884,-25.69332,-0.3277833773937827,-0.0857248569805183,0.0975364769534063,60.9493,52.07673,166.7606,0.4283383,-0.4090296,0.743549,4
10.18,-8.87114,1.313043,-25.65867,-0.2571392412497386,-0.101508089501371,0.1062451947698019,63.99763,50.15445,164.477,0.4209653,-0.4270124,0.7307507,4
10.2,-8.774244,1.494605,-25.62444,-0.2046300702869706,-0.0377225208245723,0.1122302604379594,67.00275,47.68741,161.6532,0.4132604,-0.4446521,0.7173772,4
10.22,-8.662468,1.178136,-25.58064,-0.1408739086628263,-0.0167332766688586,0.1198903554023198,52.08777,55.83242,171.2236,0.4490917,-0.3546454,0.775852,4
10.24,-8.498206,1.211265,-25.53024,-0.0749544686891409,0.0031347829526379,0.1278085601297038,43.16525,59.95876,173.9463,0.4808306,-0.2936472,0.7946447,4
10.26,-8.392052,1.384617,-25.4912,-0.0223635506881635,0.0661705577180089,0.1319193241472995,46.49243,59.49825,173.1471,0.4755854,-0.3148047,0.7845921,4
10.28,-8.287449,1.554833,-25.45284,0.0213644388726179,0.0584342791215586,0.1297211760058014,49.81355,58.9352,172.2533,0.4699283,-0.3356838,0.7738615,4
10.3,-8.215437,1.249753,-25.45358,0.0657884585447121,0.0485167200326965,0.1272535671660963,26.27704,64.95778,176.0035,0.5293006,-0.1734021,0.8167514,4
10.32,-8.100415,1.417998,-25.41244,0.1085986059500729,0.104694093623855,0.1281442167678919,29.84313,64.89548,175.6525,0.5263069,-0.1974759,0.809598,4
10.34,-7.987348,1.582577,-25.37214,0.1548224571187231,0.1132515026771544,0.1304882230131783,33.40932,64.80433,175.2829,0.5227975,-0.2213594,0.8016536,4
10.36,-7.904026,1.271772,-25.35501,0.1940716846399779,0.0980262420014571,0.1306503625852064,2.414249,70.82069,177.9482,0.5795144,-0.00679536,0.8144932,4
10.38,-7.833324,1.275479,-25.32972,0.2318676925103067,0.127605785421248,0.1329704640984865,358.437,71.684,178.2059,0.5852528,0.02022124,0.8105853,4
10.4,-7.716607,1.440905,-25.28848,0.2662964207343553,0.1543482860847932,0.1346315302622116,2.020261,71.78687,178.3092,0.5863354,-0.005631043,0.8097424,4
10.42,-7.577394,1.291361,-25.24051,0.2850961112973428,0.1092713873326668,0.1321075719840161,352.2325,73.2338,179.057,0.5946245,0.05926005,0.8011038,4
10.44,-7.459628,1.453325,-25.19747,0.3152634191474717,0.1328559058359166,0.1341669789526878,355.8301,73.31081,179.2997,0.5964162,0.03283218,0.8018274,4
10.46,-7.344213,1.61145,-25.15543,0.3286858036474678,0.128195670794708,0.1317691643568408,359.4263,73.40275,179.5465,0.5976164,0.006379525,0.801757,4
10.48,-7.336895,1.282843,-25.15247,0.3379907684671823,0.1230008465435791,0.1288343808727763,353.7737,73.7618,179.7672,0.5991785,0.04465811,0.7987691,4
10.5,-7.305173,1.270114,-25.13924,0.3363159536984161,0.1137981589704247,0.1215433725029497,354.0701,73.88578,180.0,0.6002142,0.04134058,0.7981652,4
10.52,-7.191498,1.433721,-25.09677,0.3308999332271447,0.1045172601209735,0.113455948112302,357.5832,73.9656,180.3024,0.601484,0.01525903,0.7986024,4
10.54,-7.134373,1.250357,-25.08057,0.3181554912786468,0.0959228366866258,0.1047428335112896,359.4045,74.26265,181.3641,0.6036425,-0.003042867,0.7971497,4
10.56,-7.018786,1.415022,-25.03879,0.3084949660599208,0.1132357905976652,0.0984400761653043,2.998588,74.37043,181.6569,0.6038222,-0.02957859,0.7965587,4
10.58,-6.905386,1.575991,-24.99793,0.2947462441003347,0.1288555302415324,0.0915949250596765,6.591732,74.49714,181.9577,0.6034031,-0.05608119,0.7951791,4
10.6,-6.950887,1.237717,-25.00756,0.2512191849409454,0.0691869387393191,0.0768292363263083,6.163817,74.60622,182.5838,0.6040372,-0.05639841,0.7948228,4
10.62,-6.936591,1.232324,-24.99841,0.2177573951582958,0.0565594114234812,0.0669242418291333,8.220016,74.51438,182.8561,0.6022278,-0.07207637,0.7947141,4
10.64,-6.821106,1.401349,-24.95791,0.1814133130059207,0.0455671830744318,0.0568425226349513,11.82937,74.66388,183.1333,0.6007379,-0.09839739,0.7923156,4
10.66,-6.831769,1.208837,-24.95013,0.1416770316678962,0.0333271148642993,0.0464603939023651,13.42291,74.73512,183.5431,0.5996075,-0.1114726,0.7911279,4
10.68,-6.71806,1.383428,-24.91036,0.0942966958330348,0.0163890791132649,0.0331879490108169,17.01306,74.9121,183.8323,0.5972,-0.1374688,0.7876564,4
10.7,-6.60596,1.55446,-24.87127,0.0582742693185223,0.0283737870072399,0.0236662021473534,20.60125,75.11211,184.1394,0.5942028,-0.1633217,0.7834082,4
10.72,-6.712922,1.17593,-24.88472,0.0205813327204474,0.0401418492503581,0.0144640437818832,18.72169,71.96557,184.0154,0.5747513,-0.1518457,0.801276,4
10.74,-6.603129,1.3588,-24.84442,-0.0265947982564577,0.0245333729829714,0.003107584320988,22.2673,72.1226,184.1762,0.5715007,-0.177039,0.7967883,4
10.76,-6.494429,1.538304,-24.80463,-0.0843273295621488,-0.0162557332548952,-0.0106579926936394,25.81141,72.29497,184.3522,0.5677024,-0.202055,0.791538,4
10.78,-6.571687,1.153134,-24.82185,-0.1422567585130564,-0.0551628327598203,-0.0236101088646978,23.07025,69.9155,184.0278,0.5552934,-0.1835166,0.8065518,4
10.8,-6.464044,1.342056,-24.78215,-0.20075940900656,-0.0953344478653639,-0.0358167832728559,26.58786,70.02638,184.0526,0.5513817,-0.207957,0.8012396,4
10.82,-6.357137,1.527732,-24.74282,-0.2481503695189668,-0.1132243714665195,-0.0461624988838433,30.10387,70.14284,184.0866,0.5469521,-0.2321924,0.7951744,4
10.84,-6.398432,1.128753,-24.7416,-0.2935234477462756,-0.1284308215804061,-0.0550978670065989,30.04062,66.60532,183.7134,0.5230061,-0.2336704,0.8114132,4
10.86,-6.354257,1.124895,-24.72194,-0.3305706512387693,-0.1416958637328227,-0.0628665947646163,32.0556,65.67628,183.5345,0.5137866,-0.2479466,0.8117785,4
10.88,-6.250984,1.322001,-24.68283,-0.3544786731946039,-0.1226145911566792,-0.0669399192872317,35.47776,65.63396,183.2785,0.5086541,-0.2707158,0.804845,4
10.9,-6.147956,1.51609,-24.64391,-0.3877956144547138,-0.15955201879436,-0.0751293675867148,38.89872,65.56998,183.0074,0.503067,-0.293236,0.797193,4
10.92,-6.178449,1.117165,-24.65417,-0.4176772397674568,-0.1952012232350799,-0.0818790042865265,39.60704,64.64802,182.6785,0.4962551,-0.2979754,0.7990792,4
10.94,-6.076309,1.316523,-24.61625,-0.4230641814884853,-0.2016039053079703,-0.0826446076886875,42.98857,64.48462,182.28,0.4901341,-0.3197228,0.7907109,4
10.96,-5.974285,1.51294,-24.57848,-0.4289929643724982,-0.2343439291390237,-0.0835389969562818,46.36816,64.27731,181.8437,0.4835841,-0.3411835,0.7816513,4
10.98,-5.937174,1.113742,-24.56812,-0.4224581297925439,-0.2063932295002405,-0.0802961601083529,46.37266,64.15368,180.3706,0.4870809,-0.3351926,0.779569,4
11.0,-5.889546,1.11297,-24.55051,-0.411455813084591,-0.1787089672990343,-0.0754575191911541,48.04314,63.62161,179.5299,0.482879,-0.3439561,0.775308,4
11.02,-5.789742,1.313438,-24.51387,-0.3764877445187464,-0.1802806817520331,-0.0625335691719497,51.34185,63.28495,178.9584,0.4761688,-0.364488,0.7652112,4
11.04,-5.62815,1.103758,-24.45383,-0.3373930202833449,-0.1808893173728779,-0.0486857460687142,56.4816,61.63351,176.2056,0.4645199,-0.3912063,0.7481433,4
11.06,-5.529768,1.299833,-24.41826,-0.2905473128114101,-0.1769243734198859,-0.032247925530489,59.72999,60.92661,175.2567,0.4570443,-0.4106554,0.7364002,4
11.08,-5.431672,1.493208,-24.38288,-0.240456290116921,-0.1725817788234764,-0.0149615649698238,62.96986,60.0243,174.1161,0.4491945,-0.4297593,0.7240558,4
11.1,-5.291108,1.109097,-24.32844,-0.1870727619011792,-0.1108229115318347,0.00275701785361,62.63997,53.87488,167.8761,0.433777,-0.4199577,0.7324631,4
11.12,-5.105889,1.128753,-24.25673,-0.116817969860021,-0.1235083882462684,0.0256707983807005,60.96027,51.15539,166.7622,0.4223284,-0.4115944,0.7469254,4
11.14,-5.0085,1.312916,-24.22035,-0.062984531336296,-0.0805978158640721,0.0415810296094281,64.01596,49.22633,164.4767,0.4150157,-0.429767,0.7340515,4
11.16,-4.885506,1.161544,-24.17372,-0.0085220418377919,-0.0392672864661851,0.0573388495376048,55.79373,52.23746,168.7946,0.4282297,-0.3801112,0.7696415,4
11.18,-4.787126,1.341285,-24.13651,0.0441391838250306,-0.017331990823542,0.0705254928735654,58.86376,50.83421,167.0112,0.4216124,-0.3986972,0.7577373,4
11.2,-4.689878,1.518312,-24.09982,0.0975765107701653,0.0042541980637654,0.0835522661390939,61.90543,49.0913,164.894,0.4146641,-0.4169636,0.7452393,4
11.22,-4.5234,1.227031,-24.07209,0.1587945480907272,-0.0208947510687277,0.0958989762527275,38.03963,62.26791,174.7215,0.5011401,-0.2561487,0.800613,4
11.24,-4.410005,1.397041,-24.03163,0.2146332182998273,0.0016973396366324,0.1051450090798642,41.5729,61.96001,174.0873,0.4962862,-0.2790358,0.791054,4
11.26,-4.298466,1.563507,-23.99195,0.2610406112549855,0.0450578866850545,0.1118605629882276,45.10223,61.57835,173.3885,0.4909521,-0.3016464,0.7807312,4
11.28,-4.249863,1.257341,-23.99325,0.2969772243309053,0.0401981851523672,0.1141968431610256,20.06252,67.08804,176.5801,0.54822,-0.1288753,0.8174827,4
11.3,-4.135901,1.425743,-23.95399,0.3319259116610718,0.0334500231574121,0.1156717887709741,23.57435,67.10056,176.3503,0.5461615,-0.15293,0.8118185,4
11.32,-4.023857,1.590569,-23.91552,0.3584146653808023,0.0469678369033785,0.1184472162280285,27.0872,67.09735,176.1142,0.5435855,-0.176846,0.8053874,4
11.34,-3.928215,1.27575,-23.88659,0.3854545686601816,0.0376842753090692,0.1220503837977768,358.4195,72.01292,178.1794,0.5875692,0.02049441,0.8089007,4
11.36,-3.847571,1.279098,-23.85791,0.4097182867740961,0.0263325148903091,0.1249251201577505,354.4903,72.81676,178.422,0.5922619,0.04684165,0.8041936,4
11.38,-3.730545,1.443792,-23.8174,0.4264449559120126,0.0364168906608375,0.1277822154047028,358.0677,72.90458,178.5721,0.5938537,0.02096437,0.8043001,4
11.4,-3.61571,1.604736,-23.77778,0.4463305527675379,0.0694668213249523,0.1324625189575887,1.643852,73.00165,178.7275,0.5948646,-0.004925951,0.8036214,4
11.42,-3.585702,1.293713,-23.7629,0.4461765151715095,0.0526931054610746,0.1308639433376179,352.8315,73.47401,179.2802,0.5966464,0.0538483,0.8000412,4
11.44,-3.468219,1.455078,-23.71932,0.4342529388113699,0.0547545113732242,0.1260821796101399,356.4215,73.54564,179.5539,0.5982499,0.02733967,0.8006917,4
11.46,-3.421062,1.269903,-23.69669,0.417613944815979,0.0564980050829619,0.1201400091509117,354.0933,73.78689,180.0042,0.5995328,0.04118403,0.79869,4
11.48,-3.306762,1.433214,-23.6536,0.3819854225960963,0.0076478563616352,0.107830727394655,357.6303,73.86179,180.3113,0.6007655,0.01489731,0.7991532,4
11.5,-3.299962,1.25453,-23.65607,0.3580667957976799,0.0294208274622853,0.1002412088768238,357.438,73.87405,181.1237,0.6009333,0.01197659,0.7989268,4
11.52,-3.184716,1.418689,-23.61404,0.3237435826270343,0.027993971127309,0.0900172932813863,1.019781,73.96722,181.4002,0.6014311,-0.01445834,0.7987821,4
11.54,-3.141614,1.240436,-23.58858,0.2800485219862521,0.002001546927722,0.0778406458622154,4.003502,74.15958,182.0562,0.6019617,-0.03867406,0.7975593,4
11.56,-3.025025,1.406485,-23.54601,0.241890914591264,0.0271381310887099,0.0687149737290333,7.650165,74.28685,182.3572,0.601246,-0.06555778,0.7960111,4
11.58,-2.910579,1.568767,-23.50435,0.1811093475988848,0.0015496703008817,0.0529710338296021,11.29526,74.43488,182.6696,0.5999167,-0.09236859,0.7936519,4
11.6,-2.976061,1.226271,-23.51463,0.1176458186640479,-0.0237536308173515,0.0365894582076991,10.3286,74.03798,183.1589,0.597427,-0.08836924,0.7963867,4
11.62,-2.917069,1.208788,-23.48582,0.0520368358179154,-0.0280935566717308,0.0197907946177768,13.43623,74.22102,183.531,0.5960529,-0.1117089,0.7937964,4
11.64,-2.803308,1.383329,-23.44531,-0.0093599510311697,-0.0322750075695315,0.0054502626205281,17.03692,74.38994,183.8072,0.5936107,-0.1377908,0.7903352,4
11.66,-2.691163,1.554294,-23.40548,-0.0718382434892422,-0.0343906873842294,-0.0089640534541457,20.63571,74.58092,184.1006,0.5905793,-0.1637282,0.7860906,4
11.68,-2.770901,1.183277,-23.42073,-0.1363545040500748,-0.0364636867744037,-0.0243197886278951,17.39391,73.64512,183.9042,0.5879807,-0.1411524,0.7939192,4
11.7,-2.659693,1.364024,-23.38153,-0.2008299172649905,-0.0364182180070817,-0.0394184832489243,20.9543,73.81476,184.1282,0.5848908,-0.1665779,0.7896991,4
11.72,-2.549715,1.541352,-23.34286,-0.2875776985218105,-0.0912241739881744,-0.0609968184097038,24.51297,74.00401,184.3697,0.5812345,-0.1918347,0.7847154,4
11.74,-2.610913,1.153136,-23.34348,-0.349748300101595,-0.0919784145464411,-0.0760211857807688,23.06115,70.69364,184.0462,0.5607395,-0.1829536,0.8027878,4
11.76,-2.575342,1.14557,-23.32658,-0.4096750343475988,-0.090296537935019,-0.0904048408795783,24.58177,69.93013,184.0473,0.5534323,-0.1941151,0.8045269,4
11.78,-2.468503,1.336491,-23.28795,-0.4844010329287681,-0.1448336112597161,-0.1092284542517578,28.07756,70.02505,184.0457,0.5492587,-0.2182021,0.7989815,4
11.8,-2.36228,1.524227,-23.24964,-0.5291127116311786,-0.1143944250795317,-0.1188970427554036,31.57185,70.12326,184.0511,0.5445757,-0.2420766,0.7926951,4
11.82,-2.440753,1.128784,-23.2609,-0.587181407874118,-0.1397549228654609,-0.1330893931726304,30.02197,66.94731,183.7109,0.525458,-0.2331812,0.8098785,4
11.84,-2.336422,1.324527,-23.22215,-0.6440789166097933,-0.1923529601963231,-0.1472681240097295,33.46865,66.94522,183.5258,0.5205419,-0.2563154,0.8033309,4
11.86,-2.306212,1.118781,-23.20045,-0.6752756483858096,-0.1572736943599729,-0.1548727031426846,37.37059,64.62705,183.0037,0.4991068,-0.2839347,0.8048041,4
11.88,-2.203514,1.317505,-23.16215,-0.7033129517402325,-0.1487140909410346,-0.1628191459880357,40.77102,64.482,182.6228,0.4931959,-0.3059932,0.7968838,4
11.9,-2.18984,1.115637,-23.16241,-0.725894912701308,-0.1382405675178757,-0.1694374677288235,41.82449,64.65768,182.3466,0.4932705,-0.3117754,0.7930748,4
11.92,-2.088125,1.315642,-23.12516,-0.7551014806974435,-0.1856438302884704,-0.1791596478280439,45.18784,64.45466,181.9139,0.4868545,-0.333185,0.7843269,4
11.94,-2.008298,1.113753,-23.09293,-0.7559881719027544,-0.174001844130974,-0.1789386254402627,46.35585,63.92723,180.3674,0.4855795,-0.3354726,0.7805729,4
11.96,-1.94233,1.112975,-23.0675,-0.7510260360778502,-0.1608591614446587,-0.17717600143372,48.03637,63.37849,179.5293,0.4812472,-0.3443689,0.7763502,4
11.98,-1.842774,1.313453,-23.03054,-0.7408824263943706,-0.2065007463912742,-0.1739338988111329,51.3315,63.03526,178.9552,0.4745301,-0.3649149,0.7662742,4
12.0,-1.743268,1.511136,-22.99368,-0.7159777212122388,-0.164764182158037,-0.1654269584540406,54.62315,62.60796,178.3018,0.467417,-0.3851497,0.7555596,4
12.02,-1.59044,1.102203,-22.93551,-0.6664843341177764,-0.1483417842072185,-0.1480477582267845,59.63576,60.84229,174.0892,0.4608397,-0.4055667,0.7341873,4
12.04,-1.492075,1.295924,-22.90155,-0.6120604003705334,-0.1321044465099991,-0.1295507072081481,62.8558,59.8489,172.8489,0.4530284,-0.4244844,0.7218774,4
12.06,-1.35891,1.108994,-22.84869,-0.5623683988968681,-0.0582649231516082,-0.1135857389237839,62.64643,54.45491,167.9454,0.4372174,-0.4186683,0.7304215,4
12.08,-1.261342,1.297601,-22.81358,-0.502878930354796,-0.0617350146496218,-0.0936391017700506,65.76863,52.6373,165.8229,0.4295326,-0.4369985,0.7172609,4
12.1,-1.164456,1.483569,-22.77881,-0.4398970682842218,-0.0671654417871384,-0.0728493863050561,68.85423,50.24965,163.134,0.4215028,-0.4549708,0.7035254,4
12.12,-0.9680032,1.161444,-22.71289,-0.3722681500458379,-0.0354216659532432,-0.0528626040746038,55.80196,54.69138,168.8659,0.4443691,-0.3743096,0.7604436,4
12.14,-0.8687922,1.341119,-22.67864,-0.315348598346449,0.0208170188804034,-0.0379276614084682,58.87928,53.35345,167.1658,0.4376204,-0.3927372,0.7486348,4
12.16,-0.7707307,1.518092,-22.64488,-0.2572265330774249,0.0748256104305944,-0.0232418824364972,61.93071,51.69046,165.1462,0.4305297,-0.4108509,0.7362417,4
12.18,-0.6600498,1.211547,-22.61044,-0.2017438068135253,0.1060997274196788,-0.014007011205241,43.13236,61.25232,173.993,0.4896933,-0.2910438,0.7893577,4
12.2,-0.5551291,1.385344,-22.57345,-0.1438983632954261,0.1361256057356665,-0.0046649927657949,46.41004,60.82133,173.2484,0.4844462,-0.3118273,0.7795306,4
12.22,-0.3992919,1.250028,-22.53994,-0.0898883264189093,0.117960449157186,0.0010079800140623,26.26499,65.814,176.0077,0.5353922,-0.1722051,0.8128013,4
12.24,-0.3154399,1.257651,-22.51299,-0.0442368717453822,0.1656929367691695,0.0080884490546648,20.04395,67.28987,176.586,0.5496641,-0.1285575,0.8165483,4
12.26,-0.2026953,1.426465,-22.47439,-0.0003086205456602,0.2107180517306957,0.0144862487432324,23.5162,67.30063,176.3634,0.5476047,-0.1523351,0.8109745,4
12.28,-0.1520681,1.268157,-22.45918,0.0309144317220015,0.1821744156994741,0.0164622161858045,8.176654,69.96371,177.5513,0.5729758,-0.04618107,0.8161889,4
12.3,-0.0363957,1.435336,-22.42016,0.0701968612296732,0.2209716883736302,0.0241083008970401,11.72305,70.04655,177.4915,0.5726025,-0.07111529,0.8131595,4
12.32,-0.004684299,1.275644,-22.40628,0.1034252179116141,0.2124941993625926,0.0313820356948904,358.4383,71.97668,178.1823,0.5873172,0.02034517,0.8090868,4
12.34,0.1328113,1.285109,-22.35419,0.1349231195950594,0.2012262350447446,0.0390119914374258,353.3355,72.95703,178.7349,0.5929641,0.05328768,0.8030531,4
12.36,0.250172,1.44839,-22.312,0.1662068372960254,0.2557276257035138,0.048081215607155,356.9267,73.03279,178.9365,0.5946133,0.02707171,0.8035113,4
12.38,0.3064085,1.29369,-22.28803,0.1838135498037875,0.2609174142140609,0.0527639899953458,352.8265,73.25156,179.2915,0.5950956,0.05388766,0.8011927,4
12.4,0.4235069,1.455052,-22.24358,0.1981655348686687,0.2647329379994489,0.0574872281672362,356.4143,73.31748,179.5769,0.5966586,0.02730105,0.8018767,4
12.42,0.4268168,1.283005,-22.23899,0.1939303715843923,0.2150675527573259,0.0559937452952525,353.7629,73.41171,179.7662,0.5967318,0.04483277,0.800592,4
12.44,0.509979,1.262189,-22.20625,0.1990897767120116,0.2330460997553737,0.0581485655745162,355.7303,73.48171,180.561,0.5979206,0.02692489,0.8006746,4
12.46,0.6240917,1.426067,-22.16317,0.2003143845622498,0.2485748539728869,0.0595139231268397,359.2773,73.56158,180.8493,0.5987642,0.0006134282,0.8008664,4
12.48,0.6391292,1.250197,-22.15639,0.187404041367576,0.2403351863739163,0.0560623589527393,359.4181,73.64999,181.3574,0.5993714,-0.003035056,0.8003677,4
12.5,0.7549303,1.414645,-22.1133,0.1720849405354632,0.2319122603291684,0.0522081728487839,3.032899,73.74837,181.6439,0.5994844,-0.0297726,0.7998207,4
12.52,0.7379186,1.240391,-22.1122,0.1574654356482671,0.2228307046864551,0.0512389654197877,4.007631,73.7559,182.0534,0.5991482,-0.03871165,0.7996743,4
12.54,0.8063333,1.232196,-22.07804,0.1311032810251058,0.1889905556515622,0.0466791981923098,8.226846,73.63095,182.8607,0.5960766,-0.07232715,0.7993316,4
12.56,0.9216572,1.401015,-22.03533,0.1129664820901752,0.2060125714453757,0.0440840157728872,11.85455,73.77226,183.1435,0.5945277,-0.09893988,0.7969549,4
12.58,0.9005978,1.217574,-22.03396,0.0722821917986231,0.1709704595528587,0.0343739071263371,11.87378,73.65724,183.3394,0.593543,-0.1001279,0.7976075,4
12.6,1.014475,1.390149,-21.99226,0.0294618815088988,0.1365218126607577,0.0242271862863634,15.47556,73.81307,183.6102,0.5913571,-0.1263501,0.7944891,4
12.62,0.9678321,1.199842,-22.00117,-0.0114522374190878,0.1231335087247087,0.014016204879824,14.73888,73.67153,183.6514,0.5909986,-0.1215497,0.7957932,4
12.64,1.014382,1.183308,-21.97459,-0.0539709991355658,0.1118764422984777,0.0035337879916297,17.38631,73.02728,183.9071,0.5836958,-0.1414558,0.7970862,4
12.66,1.124954,1.364078,-21.93413,-0.0968987762822545,0.1024506172202515,-0.0068369392581368,20.94153,73.19338,184.1342,0.5806065,-0.1669565,0.792877,4
12.68,1.099096,1.168326,-21.93324,-0.1598078238288071,0.0378909709643632,-0.0231402260688207,20.1309,71.68017,184.0667,0.5711231,-0.1620468,0.8013059,4
12.7,1.20808,1.353115,-21.89305,-0.1943673744608961,0.0546479243010437,-0.0310147156879923,23.66598,71.82581,184.2123,0.5675988,-0.1870661,0.7965835,4
12.72,1.161536,1.153155,-21.9,-0.2491835495273873,0.016189866730581,-0.0450883957573284,23.05213,70.05312,184.0538,0.5562427,-0.1834128,0.8059266,4
12.74,1.208534,1.139094,-21.87214,-0.3096871351394487,-0.0496109866842871,-0.0598209929462081,26.29202,68.26945,183.9779,0.5395727,-0.2071028,0.8099728,4
12.76,1.314296,1.33168,-21.83184,-0.3434623688756025,-0.0302953114274413,-0.0680014780421554,29.78503,68.33646,183.9268,0.5351555,-0.2311157,0.8040757,4
12.78,1.301932,1.128781,-21.82674,-0.3782108141817416,-0.0375970911485318,-0.0766584616731127,30.0183,66.32207,183.7136,0.5210311,-0.2338012,0.8127427,4
12.8,1.405687,1.324528,-21.78683,-0.4096567046748333,-0.0428429073063899,-0.0842782325022812,33.46144,66.31683,183.531,0.5161287,-0.2570204,0.8061936,4
12.82,1.390803,1.121851,-21.78557,-0.4528499711046617,-0.1055426239656646,-0.0966833533684732,34.68914,64.69286,183.2492,0.503363,-0.2662358,0.8106115,4
12.84,1.474068,1.117204,-21.75373,-0.4666689613288562,-0.1098190689716727,-0.1016517971003168,39.59053,64.04626,182.6656,0.4921143,-0.2986548,0.8016956,4
12.86,1.575731,1.316605,-21.71519,-0.4759637889424399,-0.1123035112765535,-0.105384193469626,42.96455,63.86317,182.2509,0.4859641,-0.320405,0.7933753,4
12.88,1.602667,1.115035,-21.70724,-0.4792432111032607,-0.1129992247371062,-0.1088712043637394,43.25006,64.04774,181.7416,0.4881441,-0.3199061,0.7910326,4
12.9,1.703268,1.315308,-21.6688,-0.4775879458202934,-0.112223612395746,-0.1110375623473602,46.59627,63.83746,181.316,0.4817166,-0.3412678,0.7819372,4
12.92,1.720993,1.11375,-21.66082,-0.466661790112873,-0.1105473314895286,-0.1095057027079273,46.34313,63.48327,180.37,0.4825675,-0.3361918,0.7824901,4
12.94,1.842076,1.11002,-21.61348,-0.4418749591030317,-0.1367587546307017,-0.1030865333780997,50.64085,62.42921,178.7252,0.4724973,-0.3605319,0.7705567,4
12.96,1.940773,1.309484,-21.57586,-0.4094237777059509,-0.1036772324008079,-0.094762432264412,53.92168,62.00496,178.0752,0.4655575,-0.3808477,0.7599575,4
12.98,2.037202,1.10379,-21.5379,-0.3641958336238632,-0.0967367463761908,-0.0820653647278275,56.46222,60.88186,176.2037,0.4596456,-0.3928136,0.7512411,4
13.0,2.134948,1.299909,-21.5013,-0.3148471410018734,-0.0897727217041632,-0.0684403743019115,59.70278,60.15768,175.2449,0.4521869,-0.4123194,0.7395281,4
13.02,2.311846,1.108996,-21.43233,-0.2612799573986859,-0.1379269787632226,-0.0532243518430197,62.62671,53.90747,167.9657,0.4336751,-0.4201167,0.7326436,4
13.04,2.408854,1.297677,-21.3965,-0.2012798383829975,-0.1215939566831725,-0.0358724781633581,65.73952,52.08389,165.841,0.4260306,-0.4384653,0.7195135,4
13.06,2.505189,1.483733,-21.361,-0.1391872161419496,-0.1058445974811189,-0.0177217099169118,68.81562,49.69189,163.1515,0.4180459,-0.4564567,0.7058095,4
13.08,2.643156,1.144103,-21.30329,-0.0795736299253984,-0.0834877033108331,-0.0014207680009223,58.41032,51.54173,167.8379,0.4239175,-0.3967325,0.7591651,4
13.1,2.740778,1.326033,-21.26605,-0.0186456027557333,-0.0618345525588644,0.015272545819327,61.47519,49.89663,165.8345,0.4169185,-0.4151758,0.7467855,4
13.12,2.89371,1.195143,-21.21956,0.050268781016639,-0.0870883838529009,0.0306163954527014,48.36145,58.85932,173.2112,0.4685792,-0.3295933,0.7812291,4
13.14,2.993443,1.371413,-21.18239,0.1066606967399818,-0.0412660536187357,0.0420787315778019,51.50848,58.24459,172.2916,0.4628555,-0.3492599,0.7708128,4
13.16,3.09186,1.544905,-21.1458,0.1635211996648741,0.0012084177004718,0.0538828808676861,54.64734,57.49631,171.2444,0.4567715,-0.368648,0.7597978,4
13.18,3.192439,1.238886,-21.13439,0.2115550911024071,-0.0290291971518192,0.0598107026618444,32.14943,63.61461,175.3435,0.5155979,-0.21454,0.8099958,4
13.2,3.306176,1.408151,-21.09379,0.2499509342121482,-0.0141474820528402,0.0625414982999443,35.68447,63.4343,174.861,0.5116225,-0.2379403,0.8017051,4
13.22,3.37804,1.263743,-21.07938,0.2904612924771736,-0.0233678949564943,0.0659237694225338,13.94704,67.8653,177.1587,0.5564157,-0.08696543,0.8216232,4
13.24,3.491947,1.431734,-21.0391,0.3221744949188487,0.0105099931749798,0.0697041988646725,17.46118,67.91536,177.0153,0.5551998,-0.1114794,0.8173533,4
13.26,3.603908,1.596143,-20.99961,0.3479446660244384,0.0195847128970954,0.0722582792298491,20.97529,67.95695,176.8719,0.55346,-0.1358869,0.812314,4
13.28,3.640293,1.275744,-20.98618,0.3706220710489081,0.0269139638690235,0.0745802158781159,358.4309,71.32394,178.1784,0.5826969,0.02038977,0.8124188,4
13.3,3.756211,1.441509,-20.94524,0.3903041719714684,0.0337868833425826,0.0770311380119923,1.989928,71.41285,178.254,0.5836914,-0.005207909,0.8116471,4
13.32,3.842016,1.291278,-20.90527,0.4087241612261452,0.0163486208984047,0.0803583182457376,352.243,72.22765,179.0608,0.5875738,0.05946114,0.8062972,4
13.34,3.958929,1.453211,-20.85983,0.435116696908883,0.044194642022505,0.0874701259427976,355.8427,72.29032,179.3091,0.5892577,0.03284355,0.8071083,4
13.36,4.073501,1.611302,-20.81542,0.4383424085205816,0.042819684880874,0.0867841324433533,359.441,72.36832,179.5606,0.5903561,0.006200938,0.8071192,4
13.38,4.080089,1.282948,-20.81172,0.4364221950143516,0.0401984487709681,0.0853907098343977,353.7717,72.67377,179.7652,0.591566,0.04497382,0.8044218,4
13.4,4.194744,1.445028,-20.76586,0.4229039817281297,0.0327743634726606,0.079083892402231,357.3256,72.73801,180.0734,0.5928339,0.01841085,0.8049864,4
13.42,4.203187,1.254525,-20.76362,0.4021829322159713,9.497294651542032e-05,0.0715211307005732,357.4341,72.5562,181.1165,0.5917045,0.01228474,0.8057852,4
13.44,4.317623,1.418622,-20.71894,0.3933449832525807,0.015357044099377,0.068729773894999,1.022032,72.64052,181.3887,0.5921441,-0.01436284,0.8056919,4
13.46,4.429858,1.579032,-20.67524,0.3693797257330973,0.0081988111715732,0.06139223859947,4.608446,72.74212,181.6669,0.5919992,-0.04098859,0.8048042,4
13.48,4.399794,1.240427,-20.68061,0.3414532099261651,0.0006759166205513,0.0532008035222086,4.000255,73.04827,182.0576,0.5941994,-0.03872213,0.8033602,4
13.5,4.515501,1.406456,-20.63564,0.3037847799620778,-0.0079846713114564,0.0431265148254986,7.647974,73.16677,182.3605,0.5934359,-0.06579014,0.8018515,4
13.52,4.543714,1.226385,-20.61403,0.2545383155783307,-0.0430173206072269,0.0302066291761495,10.30685,73.03156,183.159,0.5904239,-0.08849815,0.8016135,4
13.54,4.59163,1.217733,-20.59352,0.2211211792216245,-0.0277485303072942,0.0225350676167868,11.85059,73.19705,183.3341,0.5903569,-0.1000943,0.7999961,4
13.56,4.704802,1.390416,-20.55113,0.1728863921820793,-0.038971531162491,0.0095461279461117,15.43998,73.3474,183.6005,0.5881671,-0.1262805,0.7969087,4
13.58,4.678326,1.199849,-20.55434,0.1217452559696405,-0.0490259422289547,-0.00420346831562,14.73443,73.33212,183.6594,0.5886344,-0.1217123,0.7975471,4
13.6,4.790146,1.376536,-20.51249,0.066826851682022,-0.0607833666864202,-0.0190907548740972,18.30948,73.49748,183.9338,0.5859625,-0.1476811,0.7938619,4
13.62,4.744135,1.183312,-20.52164,-0.0047377673527111,-0.0980213071852137,-0.0391143965872222,17.38039,72.80087,183.9172,0.5821132,-0.1415899,0.7982486,4
13.64,4.789199,1.16835,-20.49559,-0.0538887243387722,-0.0805809861685301,-0.0518810955872379,20.12046,71.46897,184.0774,0.5696419,-0.1621636,0.802375,4
13.66,4.897871,1.353107,-20.45468,-0.1132493410401012,-0.0899531176135425,-0.0681110506786817,23.65427,71.61459,184.2345,0.5661085,-0.1872626,0.7976606,4
13.68,4.870654,1.153126,-20.45589,-0.1839133161754884,-0.1253402976793511,-0.0877160100324245,23.05097,69.94609,184.0671,0.5554698,-0.1835496,0.8064572,4
13.7,4.977735,1.341953,-20.41517,-0.2337342495823795,-0.1036680370209603,-0.1010716399986182,26.56433,70.0604,184.1324,0.5515076,-0.2081476,0.8011823,4
13.72,4.93589,1.139144,-20.42223,-0.3028038103648613,-0.1379014699587707,-0.120343329589057,26.26527,68.26187,183.9808,0.5395498,-0.2069361,0.8100503,4
13.74,4.990842,1.128798,-20.39228,-0.3532568829993809,-0.1424815191116027,-0.1336333736134509,30.00567,66.30672,183.715,0.5209378,-0.2337345,0.8128358,4
13.76,5.094406,1.324553,-20.35239,-0.3915804117257671,-0.1145530812364037,-0.1442208601176919,33.44341,66.29765,183.5332,0.5160176,-0.256927,0.8063179,4
13.78,5.097954,1.121859,-20.34485,-0.4408654586485232,-0.1432953984721258,-0.1595529775669928,34.67655,64.77164,183.2524,0.5039327,-0.2660682,0.8102953,4
13.8,5.200473,1.319797,-20.30566,-0.4688608387690707,-0.1125041615243299,-0.1688307457207591,38.08049,64.668,182.9321,0.4983741,-0.2884933,0.8029203,4
13.82,5.199394,1.117203,-20.30685,-0.5058136675756688,-0.1386856301566297,-0.1826944750405807,39.58328,64.20736,182.669,0.4932446,-0.298393,0.8010255,4
13.84,5.29048,1.115036,-20.27548,-0.5204425496529228,-0.1051382165060698,-0.1897274370461015,43.24643,64.19022,181.7435,0.4891287,-0.3196608,0.7904376,4
13.86,5.39117,1.315309,-20.23729,-0.5269311558807872,-0.0419210632373432,-0.1943266656725639,46.59277,63.97559,181.3176,0.4826607,-0.3410095,0.7813692,4
13.88,5.426934,1.113746,-20.22311,-0.5381205041988388,-0.0660965089086957,-0.2018559468702356,46.34438,63.70374,180.3714,0.4840656,-0.3358122,0.781559,4
13.9,5.526643,1.31424,-20.18512,-0.5328141480349655,-0.0307119625442935,-0.2039182881700689,49.6597,63.42959,179.887,0.4774478,-0.3567494,0.7718201,4
13.92,5.565573,1.110025,-20.17017,-0.5147944235039825,-0.0534302336860841,-0.2050974463485797,50.63261,62.72264,178.7304,0.4744682,-0.3599067,0.7693814,4
13.94,5.724221,1.103782,-20.10973,-0.4793287080575323,-0.017354230397577,-0.2017643563291447,56.45748,61.1596,176.216,0.4614315,-0.392189,0.7501709,4
13.96,5.822276,1.299881,-20.07339,-0.4416989235770978,0.0475502403750315,-0.1995991643673638,59.70535,60.43699,175.2641,0.4539141,-0.4117277,0.7384607,4
13.98,5.943186,1.104458,-20.02627,-0.3912794776919153,0.0302487139059924,-0.1985941495312007,61.18964,56.81759,171.2448,0.4425038,-0.4151068,0.7364367,4
14.0,6.040388,1.2957,-19.99053,-0.3382095801253613,0.0465606835952515,-0.200649015783092,64.35698,55.41759,169.5748,0.4347621,-0.4337808,0.7237343,4
14.02,6.140717,1.1179,-19.94944,-0.2674424960211845,0.0409108257196872,-0.2045836633883673,61.81795,52.00666,167.2623,0.425052,-0.4170993,0.7413885,4
14.04,6.315973,1.14414,-19.8808,-0.205409751541721,0.0900672624084753,-0.2139276600381849,58.40436,51.23975,167.8331,0.4219384,-0.3974473,0.7602924,4
14.06,6.413227,1.326133,-19.84325,-0.1406789090400073,0.0915259866075642,-0.2261455654380912,61.4611,49.58682,165.8254,0.4149455,-0.415881,0.7479474,4
14.08,6.517464,1.178007,-19.80371,-0.0739951637951326,0.0905347062402352,-0.2390894397798471,52.11622,54.59558,171.1992,0.440733,-0.3576004,0.780494,4
14.1,6.615745,1.356092,-19.76518,-0.0148642206608617,0.1177479685430518,-0.2604343238399242,55.22192,53.61327,169.8747,0.4345652,-0.3767804,0.7693577,4
14.12,6.76294,1.226908,-19.73852,0.0372947256735123,0.1210610071855806,-0.285466673448401,38.08552,61.11842,174.6753,0.4931366,-0.2583282,0.8053965,4
14.14,6.876048,1.396934,-19.69664,0.0840174794451573,0.1678884708285755,-0.3132965843663866,41.62138,60.7672,173.9949,0.4881938,-0.2813011,0.7958587,4
14.16,6.987302,1.563402,-19.65555,0.1283988541617173,0.1675578711780911,-0.3446085585106844,45.15267,60.33545,173.2432,0.4827767,-0.3039941,0.7855492,4
14.18,7.034942,1.257236,-19.65802,0.1662148786253752,0.1412368590368996,-0.3779332841871481,20.11779,66.08344,176.5677,0.5410124,-0.1302696,0.8221664,4
14.2,7.089691,1.263907,-19.64252,0.2056397469831317,0.1821115375670035,-0.4089885424828359,13.94242,67.564,177.1634,0.5542518,-0.08718649,0.8230917,4
14.22,7.222198,1.272228,-19.59763,0.2293757910044251,0.1742554539575004,-0.4421615902273608,2.397945,70.23412,177.9397,0.5753377,-0.006773299,0.8174509,4
14.24,7.336655,1.439178,-19.55682,0.2596792966262449,0.1885114943530877,-0.4731347857765047,5.921987,70.31992,177.9567,0.575754,-0.03197073,0.8157961,4
14.26,7.402079,1.279186,-19.53353,0.2889310767157147,0.2007302985578957,-0.5066121669241066,354.4973,71.98795,178.42,0.5864315,0.04692757,0.8084584,4
14.28,7.51811,1.44401,-19.49138,0.304986432936654,0.163800595364845,-0.5415309746244321,358.064,72.06272,178.568,0.5879274,0.02101076,0.8086408,4
14.3,7.573556,1.291209,-19.47017,0.3308248661803066,0.194813073511575,-0.5744320085884702,352.2472,72.63732,179.0757,0.590462,0.05923602,0.804189,4
14.32,7.707418,1.295997,-19.4198,0.335219728881869,0.1751905324168031,-0.6091938925438622,353.4467,72.86485,179.5269,0.5927085,0.04843367,0.803376,4
14.34,7.823394,1.456922,-19.3737,0.3356288281869946,0.1737408386752991,-0.6466166168265732,357.0162,72.92294,179.8399,0.5940508,0.02176952,0.804005,4
14.36,7.8309,1.270161,-19.36899,0.3334030097741771,0.1711034281038588,-0.6861998629867005,354.0721,73.17911,180.0031,0.5952822,0.0415014,0.8018513,4
14.38,7.944064,1.433691,-19.32477,0.3115045318909664,0.1172374820575109,-0.7298924321294296,357.5901,73.2408,180.3093,0.5964221,0.01526786,0.8023909,4
14.4,7.951505,1.254639,-19.32797,0.3031110575349538,0.1331128849604528,-0.7697260705475175,357.4193,73.30981,181.1199,0.5969905,0.01223249,0.8018727,4
14.42,8.049256,1.245932,-19.28588,0.2708960782414622,0.0988720319773804,-0.812679688582095,1.388032,73.61372,181.5956,0.5988824,-0.01803856,0.8006244,4
14.44,8.165176,1.410802,-19.24174,0.2445624554159944,0.090847806739323,-0.8517460186874195,5.02278,73.71482,181.9065,0.5985833,-0.04502472,0.7996889,4
14.46,8.172682,1.237824,-19.23429,0.2167211937341284,0.0825444909708527,-0.8929304937882514,6.140215,73.72978,182.5761,0.5979546,-0.05630475,0.7994248,4
14.48,8.288284,1.405035,-19.19089,0.1656590155574169,0.0219581580657153,-0.9361897543231188,9.772635,73.85527,182.8789,0.596723,-0.08310799,0.7975242,4
14.5,8.262625,1.226525,-19.1916,0.1343251196892312,0.0342722365323854,-0.9742947041670482,10.28631,73.62459,183.1524,0.5945831,-0.08815802,0.7985554,4
14.52,8.321018,1.208992,-19.16381,0.0755871345543266,-0.0070951532048749,-1.013083700142596,13.39944,73.88314,183.5348,0.5937364,-0.11161,0.7955758,4
14.54,8.433841,1.383658,-19.12256,0.0287478163849166,0.003261312167534,-1.0504421210218269,16.98096,74.04015,183.816,0.5912411,-0.1376449,0.7921962,4
14.56,8.417058,1.191161,-19.122,-0.0093602806897934,0.0391784977181849,-1.086087086146554,16.04465,73.84528,183.7754,0.5908592,-0.1311042,0.7939559,4
14.58,8.528252,1.369949,-19.08159,-0.0778964122869818,-0.0057900604740142,-1.122209080127781,19.60183,74.01127,184.046,0.5879407,-0.1567901,0.7900475,4
14.6,8.493199,1.175916,-19.08621,-0.1402617781496791,-0.0233448755785974,-1.1524875828495782,18.69949,72.96744,184.0632,0.5816958,-0.1513392,0.7962704,4
14.62,8.497669,1.168433,-19.08009,-0.2100807066159358,-0.067999031285432,-1.1832457617514236,20.09915,72.162,184.0788,0.5745066,-0.1615755,0.7989385,4
14.64,8.606278,1.353276,-19.04061,-0.2554306163070867,-0.056585612473533,-1.2076526481853542,23.61599,72.30385,184.2371,0.570942,-0.1864652,0.7942914,4
14.66,8.57754,1.14554,-19.04102,-0.3067925905113762,-0.0714429530905208,-1.2301139334343825,24.57536,70.05277,184.075,0.5542546,-0.1941043,0.8039653,4
14.68,8.600929,1.139144,-19.02803,-0.355552546803997,-0.0844827694365182,-1.2535855735738468,26.24818,69.11919,183.996,0.5455912,-0.2061403,0.8060296,4
14.7,8.70608,1.331797,-18.9892,-0.4001366611834729,-0.0972919961044735,-1.270723023469619,29.70799,69.18632,183.9626,0.5411485,-0.2298807,0.8002509,4
14.72,8.66635,1.128777,-18.99586,-0.4532250445220929,-0.136579399659222,-1.2880811924675593,30.00469,67.29617,183.7236,0.5279211,-0.2327628,0.8083181,4
14.74,8.72463,1.121861,-18.96984,-0.4800263808807647,-0.1168981070867883,-1.298866159884918,34.67292,65.79464,183.2536,0.5111493,-0.2648175,0.8057731,4
14.76,8.82784,1.319795,-18.93246,-0.5036665461251664,-0.1237905503573863,-1.309720884706326,38.07774,65.69012,182.9342,0.5055153,-0.2870986,0.7984521,4
14.78,8.830023,1.117204,-18.93413,-0.521769451532806,-0.1293037875748832,-1.3207891902804842,39.58553,65.35812,182.668,0.5012624,-0.2967686,0.7960249,4
14.8,8.932493,1.316601,-18.89791,-0.5199399419970541,-0.0775326766259799,-1.3271635153200716,42.95985,65.16212,182.2542,0.4949256,-0.3183473,0.7878333,4
14.82,8.940487,1.114434,-18.90104,-0.5258207495524196,-0.1125276076439259,-1.3342269378245208,44.65707,66.43224,181.1694,0.5034553,-0.3229969,0.7759655,4
14.84,9.041573,1.314868,-18.86567,-0.5107676077448016,-0.0878939028114213,-1.335578044380067,47.9868,66.27557,180.7976,0.4970372,-0.343964,0.766533,4
14.86,9.142483,1.512443,-18.83025,-0.4881570547420693,-0.0340708793897173,-1.33573302418415,51.31174,66.09911,180.397,0.4903371,-0.3646118,0.7563754,4
14.88,9.174058,1.109783,-18.82509,-0.461972893550411,-0.0683645086955387,-1.3374160691305752,50.64331,67.78524,178.8536,0.5075874,-0.3499661,0.7479071,4
14.9,9.275222,1.308965,-18.79382,-0.4235221681237884,-0.0715057662821767,-1.3360173116077507,53.94036,67.5535,178.3737,0.5007938,-0.3699065,0.7371573,4
14.92,9.426345,1.101855,-18.76375,-0.3656525784521023,-0.1008961084003412,-1.338613959050921,59.68068,68.95799,174.2683,0.5109411,-0.3851117,0.700062,4
14.94,9.529045,1.295092,-18.73966,-0.2950376027912087,-0.072007359131353,-1.3372563926832095,62.97829,68.0198,173.2572,0.5016055,-0.4041876,0.6884655,4
14.96,9.631232,1.485558,-18.71556,-0.2260372308808209,-0.0647283922283813,-1.341711753410629,66.26916,66.84113,172.0068,0.4918937,-0.4229707,0.6762441,4
14.98,9.789054,1.117169,-18.70086,-0.154345282274205,-0.0581577931639044,-1.3453038013646794,61.9009,66.53139,167.6748,0.5138642,-0.3770373,0.682653,4
15.0,9.878933,1.128026,-18.69952,-0.0832654670111316,-0.0440927230646614,-1.3531800875655478,61.02999,66.80707,167.1847,0.5186254,-0.3683096,0.6834992,4
15.02,10.07855,1.160194,-18.69231,-0.0010600479826712,-0.0513404902742784,-1.3667603467907878,55.95013,69.94431,169.2871,0.539876,-0.3354509,0.6954221,4
15.04,10.18376,1.338843,-18.67644,0.0812350963804215,-0.0063870290229552,-1.381150368317214,59.14681,68.71037,167.9653,0.5308119,-0.3537472,0.6848526,4
15.06,10.29279,1.194175,-18.67595,0.1518378666802797,0.0598055287251113,-1.4004358317008134,48.44466,76.23579,173.5775,0.580134,-0.290742,0.7021643,4
15.08,10.39889,1.369625,-18.66169,0.2195133447363546,0.0540417254173098,-1.4280686318168931,51.66018,75.67398,172.9802,0.5721614,-0.3096533,0.6931586,4
15.1,10.48475,1.226329,-18.67838,0.2868304992387631,0.0944433780326,-1.457510238456158,38.11895,79.75968,174.9905,0.6164027,-0.2238666,0.7154793,4
15.12,10.5361,1.238267,-18.68412,0.3539245399677841,0.1313931135829701,-1.488471712102097,32.20499,81.83614,175.6032,0.636859,-0.18529,0.7184978,4
15.14,10.65668,1.407104,-18.67495,0.4092453745926512,0.1411686650958596,-1.5250496231770452,35.7602,81.81037,175.3435,0.6320952,-0.2065404,0.7105291,4
15.16,10.75003,1.262548,-18.68019,0.4616545573441488,0.1495947484808979,-1.563662722065462,14.05657,85.95528,177.3758,0.6784629,-0.07400394,0.724022,4
15.18,10.81452,1.266858,-18.67673,0.5105253442229345,0.1537390183619115,-1.6040361052061698,8.31697,87.41419,177.7535,0.6900481,-0.0389003,0.7198578,4
15.2,10.93974,1.432728,-18.67024,0.5644122293991558,0.2211467440573838,-1.6395324775161653,11.95203,87.70522,177.8648,0.69032,-0.06222659,0.7157371,4
15.22,10.96099,1.274093,-18.6657,0.6062832641325471,0.2173780809831955,-1.6721698003575265,358.5892,89.48394,178.3569,0.7036642,0.01883563,0.7102816,4
15.24,11.09423,1.284543,-18.65859,0.6420556098993708,0.2356099472023692,-1.7070288205256836,353.3885,90.57553,178.7477,0.7089811,0.04831989,0.7027817,4
15.26,11.22139,1.447456,-18.65892,0.6703519385327965,0.206131050826153,-1.746189842567342,357.0206,91.03189,178.892,0.7129949,0.0251115,0.7006206,4
15.28,11.26596,1.293537,-18.65301,0.6903180757518605,0.1975342435154967,-1.780668513449859,352.8505,91.37851,179.2385,0.7138644,0.04830018,0.6974716,4
15.3,11.39318,1.454447,-18.65035,0.7056870922651672,0.1870970238940473,-1.8169793712632127,356.4702,91.81171,179.5533,0.7177679,0.0242287,0.6955905,4
15.32,11.38452,1.282481,-18.64778,0.7144398730258006,0.1702997103534412,-1.850869461585792,353.805,92.14672,179.8314,0.7191206,0.038544,0.6927799,4
15.34,11.46472,1.261739,-18.65202,0.7151236607649276,0.1761988598343508,-1.8878326953163744,355.7445,92.86494,180.6602,0.7241986,0.02141656,0.6885675,4
15.36,11.58841,1.424882,-18.64746,0.6961431635718554,0.1325081139179543,-1.9225202742969807,359.3232,93.14257,181.0854,0.7262236,-0.002818573,0.6873682,4
15.38,11.59457,1.24989,-18.6574,0.6873766744729026,0.1390114512591131,-1.9542606427941496,359.4056,93.77215,181.4814,0.7299713,-0.005891985,0.6833361,4
15.4,11.71911,1.413826,-18.65468,0.655093232650686,0.095776276742232,-1.9808134094357497,3.032384,94.03859,181.9084,0.7309254,-0.03021516,0.6817412,4
15.42,11.69305,1.240116,-18.65881,0.6335600504632328,0.1021943180894839,-2.003560892636383,3.989614,94.50878,182.1692,0.7333508,-0.03751429,0.6786954,4
15.44,11.76073,1.231759,-18.65966,0.5945882355490157,0.0828085845418283,-2.021426614388456,8.24487,95.00934,182.9893,0.7339079,-0.0677288,0.6749358,4
15.46,11.88412,1.400131,-18.66042,0.5503921119674731,0.0640623039457496,-2.042709408001909,11.87598,95.37118,183.4212,0.7330875,-0.09156812,0.6715717,4
15.48,11.85696,1.217086,-18.66172,0.4975610601301217,0.042508991475725,-2.052306971127722,11.88784,95.74652,183.4872,0.7352205,-0.09187509,0.6691946,4
15.5,11.97882,1.389086,-18.6638,0.4400530227187151,0.0220474132219541,-2.065531113930335,15.50324,96.0974,183.9215,0.7334009,-0.115327,0.6654344,4
15.52,11.91839,1.190786,-18.65666,0.3841073738991054,-0.0017159436391468,-2.067750652274818,16.06216,95.406,183.8854,0.7288036,-0.1187962,0.6694938,4
15.54,12.03755,1.369128,-18.65856,0.3325939509405669,0.0044672747112426,-2.0713792470018006,19.63695,95.75452,184.2696,0.7260779,-0.1415216,0.6651499,4
15.56,12.15515,1.544024,-18.66079,0.2604486886987325,-0.0433310906478515,-2.0689130029473315,23.20462,96.13272,184.674,0.7226323,-0.1640039,0.6601712,4
15.58,12.06595,1.168129,-18.65652,0.2041057820779768,-0.0355934048575723,-2.064230746029477,20.12263,94.65292,184.1651,0.7191397,-0.1446452,0.6716232,4
15.6,12.08,1.160694,-18.65537,0.1448019681157382,-0.0284090220275128,-2.0629711426276782,21.54741,94.03303,184.2011,0.7135012,-0.1537021,0.6743321,4
15.62,12.1347,1.145293,-18.65356,0.077714025397984,-0.0501997001244493,-2.043572633387824,24.58201,93.36095,184.1721,0.7050758,-0.1718269,0.6755344,4
15.64,12.24902,1.335817,-18.65713,0.0189558159105454,-0.0700170042991848,-2.018902075241213,28.08951,93.65276,184.3125,0.7007347,-0.1925453,0.6699468,4
15.66,12.23945,1.1327,-18.65755,-0.0403112064227793,-0.0874511125015527,-1.998171147493944,27.9965,92.33233,184.0068,0.6936451,-0.1918936,0.6776914,4
15.68,12.35146,1.326919,-18.66377,-0.0800233848650919,-0.0473436022930798,-1.975456919474912,31.45662,92.54264,183.969,0.6886588,-0.2113543,0.671747,4
15.7,12.33487,1.124853,-18.66278,-0.1257154889698517,-0.0631804014784233,-1.9418956969905627,32.03354,91.11388,183.5713,0.6798787,-0.2144876,0.6788306,4
15.72,12.35937,1.12188,-18.66585,-0.17008942590668,-0.0769823008859548,-1.9125540143928368,34.65047,90.71616,183.2537,0.6730163,-0.2284519,0.6765385,4
15.74,12.47105,1.319396,-18.67138,-0.1918655334431966,-0.0332039119391201,-1.880691450066733,38.10076,90.8951,183.0932,0.6671547,-0.2470857,0.6691749,4
15.76,12.517,1.115483,-18.68752,-0.2049435599209013,0.0384452762235567,-1.850900009472077,41.92254,90.93388,182.4289,0.6602046,-0.2649404,0.6601668,4
15.78,12.6284,1.314928,-18.69535,-0.2297047739064037,-0.005178159820791,-1.8189371775520988,45.40177,90.92054,182.1862,0.6522644,-0.2831807,0.6521972,4
15.8,12.73952,1.511212,-18.70284,-0.2371427041928857,0.0113817265790422,-1.78539791243198,48.87313,90.96897,181.9637,0.6441194,-0.3011174,0.6432586,4
15.82,12.75788,1.112769,-18.71681,-0.2384039062696934,-0.0296984720747475,-1.758446891516075,48.11251,91.52361,179.6545,0.6550739,-0.2824089,0.6361663,4
15.84,12.86717,1.312856,-18.72873,-0.2220139065901305,-0.0393780751578435,-1.7309475756221588,51.55175,91.11405,179.214,0.6449847,-0.3000663,0.6283865,4
15.86,12.97697,1.509919,-18.74076,-0.2033728476812912,-0.0480829905094578,-1.7070232620028976,55.01989,90.51735,178.6814,0.6336793,-0.3178663,0.6205005,4
15.88,13.07176,1.103438,-18.7655,-0.1827869285811028,-0.0592014728888213,-1.6867930133926547,56.50296,90.47285,176.4074,0.6355811,-0.3135508,0.6094602,4
15.9,13.1618,1.101872,-18.78407,-0.1444624569277643,-0.0677212499379147,-1.6700311553107756,59.66982,89.50101,174.2671,0.6276164,-0.3223337,0.5977678,4
15.92,13.36862,1.108494,-18.82945,-0.1046738054470117,-0.0761329147480277,-1.6562050462578446,62.71291,84.35625,168.1434,0.6101338,-0.3243366,0.5933559,4
15.94,13.47299,1.296517,-18.84514,-0.0712731617275914,-0.0272198826681201,-1.6452203626952469,65.94195,82.49566,166.1542,0.5984188,-0.339521,0.5829268,4
15.96,13.60201,1.128276,-18.8833,-0.022194517626747,-0.0526524149847438,-1.646580553254572,61.0107,82.73371,167.0141,0.6088279,-0.3141326,0.6045284,4
15.98,13.70525,1.31191,-18.89993,0.0243337417382942,-0.103030643584305,-1.6486044124080443,64.14375,80.97911,164.9665,0.5983124,-0.328378,0.5938154,4
16.0,13.81214,1.161313,-18.94175,0.061821726144934,-0.0735242069897588,-1.6509573450171189,55.80471,85.18393,169.0121,0.628332,-0.2856684,0.6172968,4
16.02,13.98131,1.196016,-19.00668,0.1078989717906773,-0.0626022679083581,-1.6616574224491911,48.25484,92.01231,173.1628,0.6723276,-0.2442655,0.615238,4
16.04,14.08241,1.37308,-19.03429,0.1383371492463223,-0.0301230198407749,-1.6720470339403182,51.31902,91.83817,172.2347,0.666428,-0.2567052,0.6045662,4
16.06,14.18238,1.547292,-19.06185,0.1658512498854074,-0.0002501691633591,-1.683255392354671,54.39521,91.53763,171.2243,0.6598328,-0.2691317,0.5935559,4
16.08,14.26889,1.239304,-19.1453,0.1892263629535082,0.0721028929846608,-1.692887045982629,32.13681,99.55695,175.3127,0.7404181,-0.1485789,0.6113554,4
16.1,14.38271,1.408981,-19.18404,0.1970685363770035,0.0493457403704847,-1.7005944594995333,35.63216,99.88429,174.8443,0.7368082,-0.1639323,0.6015453,4
16.12,14.49498,1.574881,-19.22251,0.20514450274006,0.0716904549675861,-1.7052955209820273,39.15096,100.107,174.3649,0.7320345,-0.1793582,0.5916033,4
16.14,14.58079,1.267682,-19.30321,0.217399007173912,0.0700646448137558,-1.7088471659808997,8.247986,108.6829,177.6429,0.8110926,-0.025246,0.5801195,4
16.16,14.6979,1.433932,-19.34626,0.2201020299033502,0.0446015736922525,-1.7101121128639338,11.86127,109.1756,177.7086,0.8116777,-0.0436509,0.5745541,4
16.18,14.81322,1.596202,-19.3887,0.2215281790859351,0.0635885973517847,-1.7100483440655605,15.4845,109.6818,177.8212,0.8114318,-0.06216048,0.5684027,4
16.2,14.92593,1.754808,-19.43082,0.2253646375461673,0.1040182061321949,-1.709654491716336,19.10393,110.203,177.9661,0.8103532,-0.08056998,0.561688,4
16.22,14.92595,1.284732,-19.47115,0.2123968995958791,0.0735985753627194,-1.7024646376652268,353.3456,114.9627,178.8617,0.841444,0.03956012,0.5371275,4
16.24,15.0442,1.447153,-19.51796,0.2088527022292292,0.0889903426662355,-1.695524478486531,356.971,115.4889,179.257,0.8452718,0.01958654,0.5336435,4
16.26,15.13942,1.295012,-19.58403,0.1978699351918065,0.1242923587616225,-1.6890217993779575,353.5221,116.9637,179.6044,0.8510059,0.03247487,0.5220969,4
16.28,15.17994,1.282226,-19.60665,0.1661153688156811,0.0834548748704557,-1.6730926290765682,353.841,117.3313,179.7965,0.8528628,0.02945127,0.5193613,4
16.3,15.29763,1.442819,-19.65521,0.1300868442042206,0.0640421590129184,-1.652048618907418,357.5037,117.4793,180.1822,0.8546325,0.009944974,0.518774,4
16.32,15.34162,1.254293,-19.6961,0.0875094802427907,0.0444836559895719,-1.6318858547726105,357.4382,118.4841,181.1787,0.859193,0.002594332,0.5110601,4
16.34,15.45522,1.417701,-19.74584,0.0578071859128348,0.0713748935713551,-1.6124174373426512,1.061295,118.6772,181.5685,0.8600142,-0.01649617,0.5100028,4
16.36,15.47357,1.245595,-19.76184,0.015095946199461,0.0512639020038926,-1.5818792887248,1.408626,119.4397,181.6297,0.8633296,-0.0184778,0.5042906,4
16.38,15.58712,1.409968,-19.8147,-0.0330899723352886,0.0315556770694619,-1.5532589032710749,5.07659,119.6549,181.9888,0.8631513,-0.03724461,0.5027012,4
16.4,15.57219,1.237607,-19.81219,-0.070032448136283,0.0595833013338883,-1.524248101848238,6.147177,120.0343,182.5964,0.8641001,-0.04638395,0.4999458,4
16.42,15.68424,1.404492,-19.86633,-0.1295633543965464,0.0107831346810134,-1.482374319381472,9.801612,120.2757,182.9338,0.8626833,-0.06464281,0.4978286,4
16.44,15.69066,1.217437,-19.86765,-0.180054590556153,-0.0130041794301801,-1.4358144735053968,11.87216,120.766,183.3858,0.8627998,-0.07663239,0.4939912,4
16.46,15.79988,1.389696,-19.9223,-0.2269605341488096,-0.0087834406230047,-1.3914044514066544,15.48937,121.0377,183.7133,0.8599757,-0.09423158,0.4911931,4
16.48,15.77445,1.199708,-19.90887,-0.2789387685228033,-0.00499504213724,-1.349056008966742,14.73825,121.3541,183.7067,0.862188,-0.09074555,0.4890494,4
16.5,15.88142,1.376141,-19.96351,-0.3363337019053691,-0.0291560062633506,-1.290143867895404,18.3247,121.6421,184.0378,0.8586916,-0.10795,0.4859174,4
16.52,15.88704,1.175681,-19.96121,-0.3971637175168774,-0.0510558921114453,-1.2342257383896866,18.71933,121.0253,184.1243,0.8554391,-0.1109058,0.4904582,4
16.54,15.99169,1.358116,-20.01545,-0.4348033347053643,-0.0186972758100657,-1.1826242224413916,22.28068,121.3178,184.4073,0.8510193,-0.1274928,0.4868956,4
16.56,15.97748,1.160717,-20.00291,-0.4942113220489386,-0.0691755453103467,-1.1166526495559626,21.55385,119.9218,184.185,0.8464308,-0.1245923,0.4973447,4
16.58,16.08036,1.347291,-20.05663,-0.5643917281535167,-0.1456001456801501,-1.047131775709584,25.08942,120.1911,184.3778,0.8414102,-0.1405263,0.4934893,4
16.6,16.1823,1.530547,-20.11007,-0.6056554747452134,-0.1387349102131429,-0.9828045034620612,28.62281,120.4822,184.5952,0.8355858,-0.1563185,0.4891647,4
16.62,16.09869,1.139071,-20.05832,-0.6401012545602223,-0.1587205343038226,-0.9151713383751052,26.26687,118.1389,184.0165,0.8307487,-0.1459925,0.5070768,4
16.64,16.15453,1.128699,-20.08213,-0.6651709614166963,-0.1454099234026408,-0.85285348665847,30.01252,116.5241,183.7579,0.8165525,-0.1630642,0.5150431,4
16.66,16.25277,1.32428,-20.13557,-0.6897832004818643,-0.1316673826437099,-0.7951632850283588,33.46914,116.6478,183.6278,0.8097939,-0.1769226,0.5103818,4
16.68,16.35058,1.516766,-20.18897,-0.709399542470146,-0.1455312001219746,-0.7322457579815289,36.92497,116.767,183.5014,0.8022974,-0.1906156,0.5052567,4
16.7,16.31788,1.118729,-20.16735,-0.7355002679053508,-0.1852473129668418,-0.6690019907150124,37.34674,115.0251,183.0407,0.7942622,-0.1931109,0.5158271,4
16.72,16.41365,1.317341,-20.22139,-0.7407545917386678,-0.1645836021354487,-0.612261748158478,40.75194,115.0053,182.7052,0.7860062,-0.2056741,0.5104349,4
16.74,16.50916,1.512958,-20.27546,-0.7327026329162969,-0.170166019914634,-0.5594436302530315,44.15599,114.9565,182.3495,0.7770522,-0.2180508,0.5045906,4
16.76,16.60426,1.705598,-20.3295,-0.7219000346667874,-0.1734229657976858,-0.5123446547929311,47.55877,114.8732,181.967,0.7674083,-0.2302304,0.4982998,4
16.78,16.6027,1.113686,-20.34154,-0.6988945530792248,-0.1179815663179322,-0.4695062827204337,46.36359,115.3963,180.4139,0.7762352,-0.2131638,0.4924327,4
16.8,16.69592,1.314048,-20.39597,-0.6733541032603982,-0.0646304635320383,-0.4322095633283118,49.71186,115.264,179.9794,0.7664275,-0.2248928,0.4857006,4
16.82,16.81302,1.107142,-20.46961,-0.649288592197593,-0.1289913779501501,-0.3973460127242529,53.26585,114.5085,177.7364,0.756481,-0.2275783,0.4759777,4
16.84,16.91492,1.103763,-20.53491,-0.6095024402528972,-0.1054665671309769,-0.3674717160427123,56.43617,113.861,176.2511,0.7464597,-0.2337105,0.4675892,4
16.86,17.00373,1.299826,-20.59073,-0.5538347287073289,-0.1367499327890729,-0.3517779716254452,59.68779,113.2765,175.3385,0.7349829,-0.2439745,0.4596971,4
16.88,17.09216,1.493175,-20.6465,-0.4972798690523508,-0.1942888942808837,-0.340133155230593,62.93204,112.5132,174.2521,0.7229027,-0.2540275,0.4514329,4
16.9,17.22069,1.108957,-20.73183,-0.4375665373536863,-0.1642804595996077,-0.331481633310835,62.61971,106.7542,167.9697,0.7144095,-0.2364426,0.4631587,4
16.92,17.30799,1.297637,-20.78828,-0.3599122596472246,-0.1520766545817551,-0.3362790513735878,65.73864,105.0173,165.8302,0.7020766,-0.2456064,0.4541887,4
16.94,17.39456,1.483663,-20.84446,-0.2969210521883982,-0.1120409093738829,-0.3407064515664908,68.82205,102.7199,163.1352,0.6891791,-0.2545681,0.4448555,4
16.96,17.59073,1.161348,-20.97329,-0.2334993419419979,-0.11899565076464,-0.3496930124155835,55.82184,105.5189,168.7848,0.7278104,-0.2131778,0.4957948,4
16.98,17.66593,1.17781,-21.02318,-0.1744219787516714,-0.0743234272030489,-0.3593657663842986,52.14677,108.5469,171.2458,0.7466568,-0.2002432,0.4957315,4
17.0,17.75538,1.355822,-21.07946,-0.1193271882903608,-0.0761981603931,-0.3740770813193168,55.2591,107.7308,169.9993,0.7366481,-0.2100593,0.4878049,4
17.02,17.90292,1.227777,-21.2063,-0.0618896818326861,-0.0511144360869174,-0.394443506025754,37.98933,114.7462,174.7221,0.8035762,-0.1386364,0.4966462,4
17.04,18.00033,1.399018,-21.27031,-0.0146826475941441,-0.0051765670572944,-0.4124914133293149,41.40117,114.5421,174.1075,0.795711,-0.1504167,0.4898075,4
17.06,18.09608,1.566933,-21.33347,0.0312626276872225,0.0380288329515821,-0.4333173157368133,44.81007,114.2747,173.4408,0.7871267,-0.1620579,0.4825281,4
17.08,18.19,1.731622,-21.39568,0.0659937735602103,0.0079862456545891,-0.4509292636820121,48.21703,113.9302,172.7069,0.7778267,-0.1735556,0.4748115,4
17.1,18.20306,1.263278,-21.4413,0.1018964689125585,0.0464840502608641,-0.4636781930580866,14.03192,121.8289,177.1771,0.8685507,-0.03799441,0.4796996,4
17.12,18.30401,1.430743,-21.51066,0.134307165436216,0.0825972074075338,-0.4775883362140409,17.59079,121.9855,177.0625,0.8658908,-0.05197044,0.4756331,4
17.14,18.3982,1.275555,-21.58337,0.1626336080176358,0.0467038077591729,-0.4918698063370521,358.4854,125.6954,178.1926,0.8895133,0.02006342,0.4564461,4
17.16,18.46811,1.278999,-21.6335,0.1877098637871332,0.056090564681582,-0.4980761976786332,354.5475,126.636,178.4283,0.8921245,0.03359694,0.4490705,4
17.18,18.56985,1.443635,-21.70462,0.208534657574317,0.064382912391508,-0.5043845640949307,358.1277,126.8128,178.5924,0.8939278,0.01829547,0.4477449,4
17.2,18.66951,1.604503,-21.77458,0.2151030922590138,0.0242836278199907,-0.5037320459590551,1.706464,126.9997,178.7675,0.8948537,0.002980334,0.4459818,4
17.22,18.69822,1.293646,-21.7959,0.2174521052870828,-0.0188251379395102,-0.5032366768904524,352.8224,127.7075,179.2889,0.8957235,0.03314282,0.4401402,4
