t,pX,pY,pZ,aX,aY,aZ,reX,reY,reZ,rtX,rtY,rtZ,ID
2.98,-43.30424,1.108888,-38.92311,2.3579585682805613,-0.0820327336847829,0.906125208473168,11.93352,357.6994,163.7398,-0.005067854,-0.1057096,0.9846831,10
3.0,-43.41377,1.156506,-39.47479,2.4498601245127265,-0.0703722156626783,0.894462669575093,14.65918,359.1024,163.2958,0.01084422,-0.1273484,0.9814247,10
3.02,-43.40107,1.357761,-39.46769,2.535923771140074,-0.0805594874166959,0.8788993105549956,14.70284,0.1480513,163.0064,0.02017319,-0.1263609,0.9808693,10
3.04,-43.34553,1.161222,-39.37144,2.6232046562817004,-0.0879931778731211,0.8657008313695647,18.17311,4.556025,166.027,0.05815244,-0.1518557,0.978581,10
3.06,-43.37811,1.162765,-39.35308,2.7046129801523504,-0.0944716502491994,0.8526452519680969,17.08511,6.73569,168.7077,0.07240178,-0.1418524,0.98155,10
3.08,-43.43392,1.353227,-39.33855,2.7844436414023903,-0.0769429748516768,0.8444029994161726,17.22044,7.880901,170.6033,0.07995073,-0.1432905,0.9822353,10
3.1,-43.32665,1.179645,-39.26839,2.862174382209198,-0.0372764961535484,0.8404351548875786,14.82133,8.878386,169.0796,0.08864252,-0.1207062,0.9832364,10
3.12,-43.2771,1.195854,-39.17142,2.9315533663668525,-0.0459483051391316,0.8316124882119729,9.178496,12.04899,171.0944,0.110479,-0.07120754,0.9876447,10
3.14,-43.26789,1.383819,-39.11097,3.000004234868908,-0.0312074502712353,0.8271680406261455,10.94966,12.534,171.2996,0.1155445,-0.08632266,0.9858488,10
3.16,-43.20213,1.211646,-39.02747,3.0669175729759868,0.0050597866751901,0.8265532644141,3.415731,15.76756,172.952,0.1386586,-0.02103873,0.9879851,10
3.18,-43.17809,1.391711,-38.94109,3.123062735750408,-0.0055628675948072,0.8210366910548936,6.027742,16.25813,173.0801,0.1440917,-0.04343255,0.9863324,10
3.2,-43.11034,1.228076,-38.8674,3.170012540953641,-0.0157801523729712,0.8138905880950471,0.5396967,19.05891,175.4502,0.1656067,0.001930408,0.9853817,10
3.22,-43.06094,1.24509,-38.79492,3.2109918433384648,-0.029615659167512,0.8066281948083516,358.7605,20.26765,176.8675,0.1755809,0.01545285,0.9840262,10
3.24,-43.02249,1.405959,-38.66539,3.2509056588205274,-0.0199758395316365,0.8028692309621972,2.681513,20.72633,177.271,0.1803346,-0.01872779,0.9830389,10
3.26,-42.92427,1.268133,-38.62718,3.277026091823287,-0.0366368258472879,0.7929176290059017,354.1885,24.84296,180.2522,0.2149334,0.0490333,0.9753098,10
3.28,-42.88762,1.265234,-38.60772,3.302553873899029,-0.0295180504631823,0.7861888119208684,355.4236,26.04573,180.5912,0.225358,0.03773675,0.9734442,10
3.3,-42.84443,1.433012,-38.50518,3.310717111125096,-0.0476409273996493,0.7731270040267502,358.6209,26.48108,180.915,0.2291093,0.009885438,0.9732937,10
3.32,-42.81148,1.252735,-38.52871,3.3049827170117707,-0.0657634644677483,0.7559906773158591,359.1703,28.57418,181.3911,0.2468412,0.004020364,0.968953,10
3.34,-42.75398,1.24296,-38.47382,3.299824885980243,-0.0595984740966373,0.742155772123458,3.730492,30.67913,182.1211,0.2637727,-0.03627776,0.9638584,10
3.36,-42.71892,1.240231,-38.43444,3.277748339090815,-0.0795452784858157,0.7230420746314685,5.873062,31.74415,182.653,0.2719174,-0.05558637,0.9606788,10
3.38,-42.66648,1.410538,-38.33332,3.24406530288313,-0.0997433451514207,0.7007530787415597,9.182128,32.24534,183.0407,0.2746661,-0.08421248,0.9578397,10
3.4,-42.61446,1.577677,-38.23409,3.211636614840116,-0.0944436275154658,0.6814857379583783,12.48685,32.77451,183.4622,0.2771749,-0.1127594,0.9541783,10
3.42,-42.62378,1.210176,-38.33166,3.156742502641917,-0.1164672562061483,0.6539927525090752,13.19652,34.87698,183.5909,0.294116,-0.1188991,0.9483337,10
3.44,-42.56575,1.386757,-38.23465,3.0929694462957134,-0.1395319155847084,0.625240101116006,16.52787,35.41693,183.9452,0.296124,-0.1472031,0.9436713,10
3.46,-42.55939,1.192016,-38.25756,3.0313828230417057,-0.1355918752357281,0.5995815892339484,15.83238,36.73792,183.8571,0.3075564,-0.1411372,0.9409313,10
3.48,-42.50001,1.372394,-38.16352,2.9512531059009666,-0.1593892734221495,0.5679598054108075,19.13483,37.29801,184.2296,0.3092959,-0.16901,0.9356412,10
3.5,-42.5089,1.176451,-38.19804,2.8739086010335857,-0.1554372039433577,0.5394964876341621,18.49262,37.39901,184.1736,0.3106872,-0.1636189,0.9361616,10
3.52,-42.47343,1.161099,-38.15623,2.7742418613726967,-0.1807382355599406,0.50406096949638,21.33653,37.16523,184.2541,0.3064352,-0.1869734,0.9330297,10
3.54,-42.41312,1.3489,-38.06654,2.6780703684381493,-0.1771910470603946,0.4721247367526127,24.59739,37.71959,184.5297,0.3076223,-0.2138962,0.926594,10
3.56,-42.41702,1.145442,-38.08084,2.5792254231212333,-0.1466685928732282,0.4450849722392878,24.37252,37.25391,184.2363,0.3046013,-0.2114358,0.9281245,10
3.58,-42.35612,1.336833,-37.99307,2.457986731005298,-0.1737296617442502,0.4106392815251576,27.62141,37.79517,184.4538,0.3055009,-0.2378986,0.9210576,10
3.6,-42.36674,1.132542,-38.01398,2.3254531498344813,-0.1994386939838547,0.37562152732254,27.88348,36.60937,184.0805,0.2964811,-0.2394508,0.9235417,10
3.62,-42.35365,1.128619,-37.99965,2.189932448706653,-0.2238440530234708,0.3440717678349001,29.95093,35.98875,183.7783,0.2901674,-0.2554705,0.920917,10
3.64,-42.28723,1.32447,-37.91386,2.052636121701042,-0.2182957339711208,0.317939795414361,33.28193,36.38787,183.6917,0.2902391,-0.2815511,0.912625,10
3.66,-42.26194,1.118551,-37.88889,1.909845662757939,-0.2403363643048571,0.2884086526941729,37.39839,35.39765,183.0684,0.2796856,-0.3130254,0.9046673,10
3.68,-42.22446,1.117108,-37.85514,1.763201021137852,-0.2601332936836896,0.2592558630576533,39.62518,35.86987,182.6831,0.2820795,-0.3291688,0.897288,10
3.7,-42.15343,1.31644,-37.77231,1.616280639779312,-0.2497664078803169,0.2354672577550625,42.98209,36.07565,182.3236,0.2809945,-0.3541204,0.8868625,10
3.72,-42.09209,1.114395,-37.7178,1.4667940723332524,-0.2666915411417881,0.2073631963495303,44.70203,37.26488,181.1624,0.2918223,-0.3633271,0.8775842,10
3.74,-42.03641,1.115685,-38.0255,1.3239583073175858,-0.2816988145133291,0.1836339476393851,37.18221,32.48184,171.777,0.2863466,-0.286296,0.9012598,10
3.76,-41.96719,1.300074,-38.31648,1.1835902522367665,-0.2946640233700225,0.1621537288008268,30.67333,29.35171,163.9302,0.2776929,-0.2191983,0.9144005,10
3.78,-41.90173,1.472274,-38.55233,1.0452514057878854,-0.2775055180848857,0.1453368106726644,25.24757,27.79525,157.7134,0.2709637,-0.1628537,0.9192567,10
3.8,-41.68499,1.114772,-38.63477,0.9092887635499496,-0.2321197249081941,0.1329055052919949,51.06061,39.00304,173.116,0.3250836,-0.3874453,0.8404191,10
3.82,-41.62914,1.107132,-38.58711,0.8003733180362529,-0.242038644926982,0.123293110300346,55.46765,40.35706,174.6864,0.3252377,-0.4221797,0.8224587,10
3.84,-41.5516,1.30766,-38.56376,0.6938899001341214,-0.2227239156813559,0.1168886451822031,57.56957,38.53935,172.1689,0.3196004,-0.4337323,0.8145506,10
3.86,-41.37854,1.112285,-38.43438,0.5996321137044376,-0.2263371154936262,0.1113589294465082,62.03118,35.01865,166.9886,0.3118619,-0.4590191,0.7944918,10
3.88,-41.3004,1.120586,-38.38275,0.5088507223156826,-0.2013891969153606,0.1086193582306673,61.35961,34.49088,166.6447,0.3099052,-0.4543467,0.7982062,10
3.9,-41.21622,1.310656,-38.34214,0.4216629107304026,-0.1497101901226188,0.108589769892017,63.85508,31.76859,163.415,0.3032231,-0.4698323,0.7869,10
3.92,-41.04307,1.163182,-38.22763,0.3557897557392513,-0.1412842118594589,0.106830668796312,55.55383,36.55938,168.7199,0.319659,-0.413097,0.821688,10
3.94,-40.96038,1.179187,-38.17279,0.2941597874883053,-0.1055608844153482,0.1068282459384049,51.88312,40.40298,171.5052,0.3400816,-0.3864176,0.8304173,10
3.96,-40.88031,1.358247,-38.11173,0.236842209071395,-0.0443252077637302,0.1086761291847251,54.85727,39.89602,170.5055,0.3376123,-0.4064594,0.818464,10
3.98,-40.78967,1.212488,-38.0832,0.1874838149224373,-0.0284596920573905,0.106185473208793,42.92299,45.70552,174.1372,0.378206,-0.3182316,0.8492233,10
4.0,-40.70153,1.386965,-38.01989,0.1446180760355808,0.0137595102740379,0.105947476250896,46.11494,45.59259,173.5555,0.3762344,-0.340452,0.8383703,10
4.02,-40.64009,1.240448,-38.02054,0.1211368078631105,0.0278991514511761,0.1874438394794353,31.80301,49.98105,175.5018,0.415735,-0.2321972,0.8664805,10
4.04,-40.52821,1.258834,-37.978,0.1039100506355961,0.0375302883798325,0.2752321497211163,19.75884,53.98207,176.7242,0.4513083,-0.1400443,0.8752795,10
4.06,-40.463,1.265442,-37.94972,0.0864999264135928,0.0987651091491727,0.3558383576862631,13.56665,55.93307,177.3141,0.4679902,-0.09337901,0.8755,10
4.08,-40.36686,1.435335,-37.88785,0.0754497365859574,0.1106575747806598,0.4360085548887085,16.87642,56.23019,177.3264,0.4690356,-0.1185174,0.8706042,10
4.1,-40.27209,1.602008,-37.82726,0.0825770349810879,0.1193035388630774,0.5203323676241025,20.18782,56.53304,177.3555,0.4696815,-0.143563,0.8649757,10
4.12,-40.21942,1.279735,-37.82887,0.089206877291442,0.129674394966392,0.6017554239788439,354.3277,61.32289,178.4846,0.5087322,0.04929441,0.8594006,10
4.14,-40.11475,1.445097,-37.76659,0.0962259455603486,0.1385408441755613,0.6730033346065403,357.8295,61.60089,178.7038,0.511741,0.02205847,0.8588566,10
4.16,-40.01185,1.60683,-37.70578,0.1134686055773332,0.1431993725069783,0.7393432178810029,1.329524,61.89188,178.9398,0.5142646,-0.005192909,0.8575034,10
4.18,-39.97194,1.29388,-37.70449,0.1201604089666599,0.1460429018913272,0.7958982137574875,352.8186,63.32275,179.3295,0.5235467,0.05637156,0.8496721,10
4.2,-39.9225,1.296118,-37.68145,0.1363238622622944,0.1455884451092702,0.8420940115211843,353.4536,63.67554,179.5563,0.5264636,0.05054556,0.8482695,10
4.22,-39.85132,1.269803,-37.6478,0.1369641230330689,0.1401962083127741,0.8815639590870479,354.0763,64.54661,180.0305,0.5332567,0.04354648,0.8443739,10
4.24,-39.74527,1.433343,-37.58803,0.1440446186326109,0.1562428975904978,0.9116866621054972,357.588,64.81348,180.3698,0.5358619,0.01604018,0.8440371,10
4.26,-39.72708,1.254382,-37.59481,0.1584766529268266,0.1700846808550606,0.9233534752744924,357.4676,65.41531,181.1604,0.5403814,0.01312289,0.8410692,10
4.28,-39.61873,1.418562,-37.53701,0.1467136039777061,0.1531434096291364,0.9322261780787652,1.040289,65.70221,181.4728,0.5422926,-0.01459714,0.8400424,10
4.3,-39.62686,1.245637,-37.54495,0.1299318472754524,0.1368683094463594,0.9388684353941584,1.4583,66.34566,181.6138,0.5469179,-0.0183554,0.8369713,10
4.32,-39.61542,1.240524,-37.53907,0.1125436649963367,0.0944510891977775,0.9336699915063402,4.02211,66.51698,182.0839,0.5474551,-0.03930613,0.8359018,10
4.34,-39.50536,1.406747,-37.48233,0.1047426715903121,0.1024284969042822,0.931614784272365,7.646184,66.84081,182.4156,0.5482573,-0.06722254,0.8333836,10
4.36,-39.51693,1.226257,-37.48456,0.08100558885865,0.0846428852191832,0.9223033137192348,10.34408,67.11879,183.203,0.5482359,-0.09047754,0.830989,10
4.38,-39.49622,1.217515,-37.47379,0.0530388875625638,0.0670595615241644,0.907163124657469,11.87386,67.44975,183.3783,0.5494518,-0.1022678,0.8285855,10
4.4,-39.38788,1.390256,-37.42028,0.0324562750465542,0.0500699385184589,0.8766563900890709,15.44586,67.81454,183.6982,0.5489039,-0.1293087,0.8244042,10
4.42,-39.44545,1.199571,-37.44488,-0.0002384553059622,-0.0222281543976306,0.8339626115736065,14.75529,67.91844,183.709,0.5502414,-0.1243783,0.8244592,10
4.44,-39.41511,1.183026,-37.4235,-0.0267260583781254,-0.0420746761143365,0.8050658541080065,17.40449,67.62968,183.9732,0.545416,-0.1447,0.823701,10
4.46,-39.30935,1.363775,-37.37183,-0.0459824234777972,-0.0606948127710639,0.7613441429876913,20.94023,68.01785,184.2769,0.5440052,-0.1710577,0.8183735,10
4.48,-39.3486,1.168031,-37.38295,-0.0729731987974817,-0.0798850840540474,0.7210858695875446,20.14804,66.72798,184.1393,0.5358479,-0.1655522,0.825255,10
4.5,-39.24417,1.35275,-37.33209,-0.0921589488973078,-0.0975752712909319,0.6664211072803568,23.6646,67.10266,184.3721,0.5340284,-0.1913947,0.8194124,10
4.52,-39.31588,1.145242,-37.35171,-0.1181816750991755,-0.1158226956335953,0.61639439158765,24.60611,64.03349,184.1268,0.5111505,-0.1992045,0.8319512,10
4.54,-39.21418,1.335999,-37.30036,-0.1414749378920845,-0.1310819666206601,0.5624253570485589,28.0956,64.36253,184.221,0.5087552,-0.224328,0.8252596,10
4.56,-39.15485,1.524908,-37.23795,-0.171140675168262,-0.1441559675387412,0.4947474590474474,30.52514,65.29853,185.4036,0.5094403,-0.2459348,0.8180831,10
4.58,-39.23642,1.126704,-37.26079,-0.2020271618752032,-0.1570162389742237,0.4290747295814627,29.25262,62.42789,184.7226,0.4921174,-0.2364359,0.8322117,10
4.6,-39.2494,1.121016,-37.2387,-0.2361388143311371,-0.1679927631257814,0.3501625799427312,30.83058,61.98001,185.1442,0.4856391,-0.2499162,0.8317265,10
4.62,-39.20932,1.114623,-37.18872,-0.2583007618223156,-0.1781539541163841,0.2725834665202704,36.25828,61.37738,184.6013,0.4739045,-0.2868381,0.8229794,10
4.64,-39.16318,1.310503,-37.12399,-0.2753664281262438,-0.1568337504798004,0.1917676008102873,38.41795,62.83097,186.007,0.476832,-0.3061894,0.8137753,10
4.66,-39.14554,1.11107,-37.11985,-0.2946780923023828,-0.1356770092202943,0.0970256411774546,40.67908,62.73129,184.0897,0.4771436,-0.3140134,0.8065697,10
4.68,-39.12026,1.110464,-37.09092,-0.2949557597036243,-0.1422464173318656,-0.0006033378826453,42.11604,63.15926,183.4915,0.4791578,-0.32085,0.8003834,10
4.7,-39.07319,1.307327,-37.02717,-0.296841635041587,-0.1177248927922042,-0.1048433615423913,44.22317,65.11626,185.0624,0.4840776,-0.338966,0.7890409,10
4.72,-39.04457,1.109555,-37.03029,-0.2891024425044426,-0.1509497901248845,-0.2191436379435023,45.35409,63.65598,182.052,0.480658,-0.3362258,0.7874671,10
4.74,-38.95416,1.106308,-36.97442,-0.2815209542014214,-0.1245376248078382,-0.3431979548543635,49.74775,63.59608,180.5185,0.4764243,-0.3596508,0.7720647,10
4.76,-38.89308,1.103744,-36.93253,-0.2727334489517359,-0.0689479717819981,-0.4230263140466466,52.39803,63.9859,179.6378,0.4765661,-0.3729294,0.7602401,10
4.78,-38.83671,1.29968,-36.87341,-0.2325416679232734,-0.0972859409301412,-0.4536942217854767,54.64676,66.64561,181.266,0.4837969,-0.3889139,0.7451027,10
4.8,-38.77985,1.493963,-36.81512,-0.1971345703888705,-0.1219157847826025,-0.446384789243119,56.84646,69.57368,183.1762,0.490725,-0.4046689,0.7295282,10
4.82,-38.55047,1.108763,-36.7669,-0.172276215050223,-0.120151297711394,-0.4170039648100418,61.998,59.49681,170.544,0.4607335,-0.4105707,0.7206151,10
4.84,-38.48694,1.298012,-36.71559,-0.1312559656809186,-0.1103940310652553,-0.3828531251115645,64.41606,62.08791,171.885,0.4675577,-0.4246362,0.7036651,10
4.86,-38.35608,1.129623,-36.68032,-0.0943955474860294,-0.1004610180323693,-0.3460748604775601,60.46355,57.99094,168.9973,0.4591045,-0.3982098,0.7288216,10
4.88,-38.2851,1.315137,-36.63206,-0.0588765169993434,-0.085035445006762,-0.3193090802445217,63.04388,59.89493,169.7778,0.464209,-0.4133077,0.712437,10
4.9,-38.21503,1.498811,-36.58419,-0.0324520161826029,-0.040461810001913,-0.2953721819858783,65.61207,62.08754,170.8862,0.4689547,-0.4282928,0.6956519,10
4.92,-38.02148,1.198185,-36.56763,-0.0032264225781331,-0.0457452791540816,-0.2701509436998535,47.71999,66.94368,174.5127,0.5199649,-0.3128887,0.7513139,10
4.94,-37.94325,1.378125,-36.52825,0.0237156317072173,-0.0257098046757368,-0.2550432284737525,50.26075,68.66896,175.2657,0.5246834,-0.3292928,0.7370647,10
4.96,-37.86624,1.556126,-36.4887,0.0396982282535782,0.0212550747648063,-0.2438525737143422,52.78934,70.51524,176.2266,0.5287479,-0.3457848,0.7225953,10
4.98,-37.76531,1.243055,-36.49346,0.0476254167462428,0.0684307567247787,-0.2377990922953978,31.36631,72.52195,176.3589,0.5760819,-0.1997647,0.7708416,10
5.0,-37.67529,1.418035,-36.45483,0.0605041626448006,0.0822279617165518,-0.2319461803337477,34.14991,74.13188,177.1318,0.5818495,-0.2198006,0.7581022,10
5.02,-37.61162,1.268821,-36.44002,0.0656890837639903,0.0714504100607583,-0.2315165162936985,13.01688,76.43391,178.0721,0.6160652,-0.07870261,0.7793204,10
5.04,-37.52096,1.443036,-36.40245,0.0652054940000983,0.1092349791801502,-0.2260606197616841,15.7337,77.87831,178.9051,0.6235688,-0.1005068,0.7696368,10
5.06,-37.43118,1.614927,-36.36657,0.0650444116439654,0.1180090630134331,-0.2191860910752634,18.42961,79.38358,179.8204,0.6306081,-0.1222351,0.7593997,10
5.08,-37.3869,1.28087,-36.36118,0.0582100280342556,0.1534692657727154,-0.2127553000806905,357.5712,81.03465,178.8932,0.6493462,0.02238448,0.7601365,10
5.1,-37.29022,1.452883,-36.32956,0.0463927749211716,0.1377975540270127,-0.2086281440755479,0.3647189,82.25348,179.7272,0.6577274,-0.0008318406,0.7532458,10
5.12,-37.15753,1.295803,-36.28963,0.0355118039000403,0.0956322232734913,-0.2061723016894623,351.6417,82.9906,179.5593,0.6605821,0.05712548,0.7471986,10
5.14,-37.07261,1.296906,-36.26958,0.0193049773350075,0.1261270601358189,-0.2004093875910984,352.4353,83.51724,179.6298,0.6643808,0.05135463,0.7444704,10
5.16,-36.96022,1.462091,-36.24738,-0.0118269179790635,0.0999725864931368,-0.1999523113295298,355.6124,84.67739,180.3026,0.6730906,0.02651823,0.738564,10
5.18,-36.93498,1.283543,-36.23363,-0.0542820201425975,0.0752077261407382,-0.2052551171669243,353.6503,84.33197,179.9019,0.6702149,0.04162446,0.7400971,10
5.2,-36.8144,1.446748,-36.21832,-0.096537361610526,0.0631363699759956,-0.2088582153408724,357.067,85.5191,180.4045,0.6787628,0.01639494,0.7339029,10
5.22,-36.82311,1.25456,-36.18785,-0.143900426871899,0.0507716602040468,-0.2085909744534246,357.4392,83.69207,181.1844,0.6671012,0.00975118,0.7445605,10
5.24,-36.69993,1.418856,-36.17408,-0.1976739030202345,0.0694684749169292,-0.2095215892167772,0.9819159,84.912,181.5799,0.6748478,-0.01562734,0.7377785,10
5.26,-36.57907,1.579443,-36.1621,-0.2617789740070959,0.0333116680312146,-0.2165210090331504,4.514217,86.15879,182.0518,0.6818568,-0.04098121,0.730206,10
5.28,-36.63015,1.240355,-36.13061,-0.3261784890585577,0.0504943521191547,-0.2189975399529613,4.028707,84.93102,182.1224,0.674133,-0.0384214,0.737541,10
5.3,-36.60151,1.237767,-36.11379,-0.4087419884124896,0.0136812190639873,-0.2264396770849748,6.179025,84.7036,182.6368,0.6716073,-0.05529777,0.7385885,10
5.32,-36.53834,1.226358,-36.07759,-0.4850593094650035,-0.0012713455242822,-0.2280820320686363,10.32866,84.4043,183.2043,0.6668958,-0.08535884,0.7391747,10
5.34,-36.41506,1.396835,-36.06363,-0.5631162253793391,-0.0152848066076839,-0.2266804678688077,13.91403,85.70639,183.5985,0.671994,-0.1099497,0.7299291,10
5.36,-36.44447,1.208734,-36.04359,-0.6508084651915542,-0.025873284101922,-0.2292198611571043,13.42226,85.2655,183.5946,0.6696283,-0.1070325,0.732792,10
5.38,-36.42081,1.199719,-36.02827,-0.7309746528554646,0.015900130960888,-0.2269799418482074,14.73104,85.12647,183.7087,0.6674155,-0.11608,0.7328773,10
5.4,-36.30059,1.376431,-36.01447,-0.8161256076996395,-0.0015370625300215,-0.2243014732588992,18.26582,86.45448,184.1043,0.6716359,-0.1397944,0.7228374,10
5.42,-36.31588,1.17561,-35.97596,-0.9154052649629952,-0.0443855368406174,-0.2265179753203279,18.72693,84.20653,184.1248,0.6567632,-0.1444398,0.7355038,10
5.44,-36.27206,1.168147,-35.95679,-0.9954680862080032,-0.0311145418085035,-0.2201407973397815,20.12176,83.65325,184.1384,0.6514957,-0.1538001,0.7374356,10
5.46,-36.15511,1.3528,-35.94128,-1.0820800098218202,-0.0460408168460597,-0.2116104542998131,23.61928,84.97474,184.4323,0.6548003,-0.1763752,0.7266228,10
5.48,-36.19592,1.152846,-35.91955,-1.1709972981811694,-0.0581958686162278,-0.2052483926224804,23.0649,82.32096,184.1267,0.6390455,-0.1736369,0.7419291,10
5.5,-36.08036,1.341505,-35.90303,-1.254258871911338,-0.071622101245203,-0.1939310647160717,26.55058,83.61611,184.3307,0.641893,-0.1955547,0.73073,10
5.52,-36.1379,1.138881,-35.88419,-1.3431691281568892,-0.1115215068054049,-0.1829346164133367,26.30742,80.25672,184.0169,0.621109,-0.1958848,0.7492247,10
5.54,-36.09248,1.128631,-35.84881,-1.406805227917638,-0.0912547357536564,-0.1633856929316213,30.05927,77.61912,183.7345,0.5983887,-0.2216855,0.7574735,10
5.56,-36.08787,1.326762,-35.82978,-1.476187748694013,-0.1274981295676251,-0.1467106653489231,30.24772,78.75537,184.3961,0.6042699,-0.2250172,0.7520075,10
5.58,-36.11865,1.119388,-35.806,-1.5376009619742073,-0.1626663979935542,-0.1339788287729426,31.9689,75.40795,184.1898,0.5795788,-0.2392189,0.7662393,10
5.6,-36.1046,1.31773,-35.78392,-1.57814310213909,-0.1691052527014131,-0.114190758589566,32.53682,76.02509,184.8491,0.5813097,-0.2455252,0.7629505,10
5.62,-36.06209,1.112491,-35.77004,-1.6023869288633348,-0.172247705953021,-0.0886436690433614,39.22707,73.63984,183.1017,0.55705,-0.2838951,0.7592437,10
5.64,-36.04859,1.311774,-35.75424,-1.618657809520787,-0.1433674382289315,-0.0628863931444385,39.67638,74.7265,183.5463,0.5622322,-0.2872632,0.753651,10
5.66,-36.03645,1.510939,-35.7391,-1.6270825569070224,-0.1708161747359347,-0.0406009878477577,40.07244,75.88573,183.9975,0.5678856,-0.2901769,0.7477906,10
5.68,-35.92019,1.112715,-35.70687,-1.6233222951013095,-0.1389448239515127,-0.0114955955838071,45.48899,72.38098,180.6502,0.5427763,-0.3151118,0.7455835,10
5.7,-35.93604,1.310584,-35.69081,-1.6086111926375477,-0.0776858117853038,0.020787434832302,45.06842,74.10606,181.5095,0.5524724,-0.3131562,0.7401236,10
5.72,-35.84312,1.104868,-35.64664,-1.568330655160639,-0.103067318439682,0.0547248814039029,50.7569,71.22221,179.0187,0.5290532,-0.3439249,0.7323678,10
5.74,-35.8273,1.303447,-35.62516,-1.517232579619205,-0.0696135338550541,0.0951201739314573,51.33253,72.82617,179.7877,0.5356781,-0.3475719,0.7248769,10
5.76,-35.81071,1.501894,-35.60409,-1.4649395998929204,-0.006566697218221,0.1333681563538968,51.90912,74.47477,180.5719,0.5423415,-0.3511463,0.717151,10
5.78,-35.56925,1.106296,-35.55085,-1.3906659646481767,0.0044739072419988,0.1762872992104549,60.3111,65.47536,171.839,0.496488,-0.3882087,0.7061425,10
5.8,-35.57652,1.305008,-35.53612,-1.3086900349021509,0.0164302120957848,0.2150097976739218,60.19614,67.6835,173.0731,0.5060958,-0.3866522,0.7004067,10
5.82,-35.46813,1.124984,-35.4883,-1.219074260075109,0.0260661719510513,0.2491984298438305,59.54776,61.83717,169.8715,0.4818557,-0.3849819,0.7192191,10
5.84,-35.32916,1.153149,-35.43074,-1.1309480091290904,0.0450796317493449,0.29253154642217,56.51567,59.64744,169.7939,0.4728617,-0.3701448,0.740197,10
5.86,-35.30664,1.348127,-35.41152,-1.0374828724954923,0.0409162529899938,0.3325152700943548,57.33325,61.12365,170.422,0.4790711,-0.3743824,0.7325332,10
5.88,-35.16426,1.18474,-35.37041,-0.9494972415508932,0.0891258759511481,0.3696652180988815,51.00061,61.94465,171.9864,0.4891486,-0.3357726,0.7565164,10
5.9,-35.16568,1.382788,-35.35427,-0.8587224033588967,0.1363657894342184,0.4017572685375148,51.12354,64.03552,173.1021,0.4994311,-0.3364121,0.7497459,10
5.92,-35.07928,1.227159,-35.32025,-0.7632450575089811,0.1076714134289415,0.4308085346006685,40.74712,66.21122,175.3882,0.5233349,-0.2707877,0.7769769,10
5.94,-34.93143,1.247332,-35.28753,-0.6817836449485659,0.1483901437828448,0.4595220004646849,30.96567,68.17005,175.697,0.5480044,-0.2006579,0.7919725,10
5.96,-34.92871,1.444489,-35.26885,-0.5984803386042143,0.1872913664864985,0.4842885467937909,31.14623,69.9599,176.6302,0.5584725,-0.203637,0.7844065,10
5.98,-34.91031,1.6384,-35.25122,-0.5136060684816055,0.221387409585956,0.5047086264945344,31.73785,71.68853,177.3695,0.5682067,-0.2086642,0.7758383,10
6.0,-34.78989,1.272488,-35.23184,-0.4373975575676931,0.2248923765303933,0.534990604149737,12.75222,73.57523,177.3982,0.597012,-0.07540451,0.7941921,10
6.02,-34.75593,1.277299,-35.21302,-0.3678186610715706,0.2034981715473605,0.5612990845123091,6.977302,74.4097,177.746,0.6043826,-0.03658618,0.7941255,10
6.04,-34.73571,1.469948,-35.18653,-0.2939074401379464,0.2287564983223557,0.5866339315321119,7.626707,75.45632,178.5823,0.6111652,-0.0450439,0.7886081,10
6.06,-34.62174,1.291388,-35.14158,-0.2199241109083791,0.2040387030990866,0.6161704802755281,353.0338,76.817,178.5449,0.619462,0.05547718,0.7825701,10
6.08,-34.60012,1.484485,-35.12302,-0.1449396667186935,0.1767862170566498,0.6409105045349337,353.6182,77.83366,179.2208,0.6269087,0.04757285,0.7770723,10
6.1,-34.53551,1.312333,-35.08253,-0.0730490424763674,0.1715545230420162,0.6686207392934582,349.9046,77.11363,179.4927,0.6205624,0.07155151,0.7791928,10
6.12,-34.42771,1.311067,-35.03606,-0.0134270160247105,0.1386899997821513,0.6915923891140441,351.9354,76.85014,179.6002,0.6197562,0.05725195,0.7816302,10
6.14,-34.40357,1.502821,-35.01721,0.0417900473720891,0.1519637855559314,0.7100663621538281,352.5901,77.86504,180.2941,0.6272182,0.04865668,0.7761541,10
6.16,-34.3945,1.289059,-34.99384,0.0838736032433784,0.1359328969445119,0.7299759530557752,351.9328,77.47643,180.292,0.6243508,0.05327623,0.7779664,10
6.18,-34.3618,1.479242,-34.97336,0.1135747101330384,0.0949501225391429,0.7473232705973638,352.8025,78.50999,180.9897,0.6319214,0.04314779,0.7724388,10
6.2,-34.31298,1.267346,-34.96161,0.154452147105701,0.1033977288360384,0.7646946676456983,356.0304,77.64777,181.1664,0.6267946,0.02060438,0.778348,10
6.22,-34.29302,1.265967,-34.91395,0.1764101615821944,0.0613070745393107,0.7846142070011153,358.9586,77.48151,181.9951,0.6258003,-0.003807542,0.7797362,10
6.24,-34.26178,1.456182,-34.88991,0.2139144020119419,0.0713074690676275,0.8021144952937638,359.8856,78.52228,182.7393,0.6326933,-0.01435387,0.774033,10
6.26,-34.22178,1.249913,-34.87242,0.2270274326182386,0.0306734578652506,0.8169187090103973,4.660678,77.88543,182.6412,0.6271276,-0.04609027,0.7775142,10
6.28,-34.20177,1.443147,-34.84919,0.2360435578173074,-0.010002044436552,0.8320291512368012,5.235229,79.05381,183.4542,0.6344259,-0.05437222,0.7710471,10
6.3,-34.21685,1.241877,-34.82687,0.2414794623443885,-0.0299456696385918,0.839987743498078,8.007712,77.79449,183.5557,0.6244057,-0.07374927,0.7773604,10
6.32,-34.1837,1.217422,-34.79654,0.2569647844345182,-0.0232443585023395,0.847835911524462,12.00203,77.52533,183.6104,0.619788,-0.101094,0.7771505,10
6.34,-34.19134,1.211004,-34.773,0.2550835500517836,-0.0435736592508039,0.8517857499691646,12.50989,77.56628,184.0486,0.619257,-0.1068718,0.7768088,10
6.36,-34.15652,1.403325,-34.74645,0.2489074547152281,-0.0620516910060074,0.8562582908840373,13.54709,78.78223,184.8061,0.625805,-0.1174947,0.7699012,10
6.38,-34.12699,1.595843,-34.71901,0.2385152010409816,-0.0815421590990758,0.856035739217134,14.42379,79.97652,185.65,0.6320313,-0.1274901,0.763167,10
6.4,-34.15714,1.181642,-34.71029,0.23880395550177,-0.0714523934977304,0.8565236563697187,17.15405,76.35636,184.2317,0.6064513,-0.1397222,0.7801744,10
6.42,-34.16603,1.173285,-34.6961,0.2110149033241466,-0.1158477399141545,0.8520747623084457,18.55513,74.86456,184.2717,0.5946847,-0.1502857,0.7867927,10
6.44,-34.11534,1.366333,-34.66854,0.1994870412289406,-0.1026827079912023,0.845503425848678,20.09738,76.05111,184.8648,0.6001834,-0.1630673,0.7795151,10
6.46,-34.16051,1.147663,-34.64093,0.1754178581827012,-0.1173443709593276,0.8370499271578522,22.96785,71.39647,184.4047,0.5651988,-0.1835394,0.7997205,10
6.48,-34.1029,1.343081,-34.61212,0.1483507277118203,-0.1295652585820708,0.830290042145907,24.81237,72.6003,184.7994,0.5704345,-0.1972034,0.791743,10
6.5,-34.13917,1.133415,-34.59797,0.1225055383956004,-0.1410639350059657,0.8192061859019439,26.45983,69.10696,184.3116,0.5446411,-0.2091234,0.8060541,10
6.52,-34.11387,1.124447,-34.55856,0.0944278191445118,-0.1502035518517174,0.8102201999246725,30.58807,66.49825,183.9092,0.5210314,-0.2385015,0.8111405,10
6.54,-34.05502,1.323168,-34.52901,0.0777332347802843,-0.1583580506825252,0.8023388880927467,32.51653,67.62967,184.0823,0.5256318,-0.2514895,0.8026581,10
6.56,-34.03875,1.118406,-34.50779,0.0692620667040282,-0.1337415970611499,0.7928470645528893,36.20237,65.20799,183.1511,0.5047725,-0.2757182,0.8050237,10
6.58,-33.96947,1.31845,-34.48134,0.0606081073617881,-0.1659202865177602,0.7800999326152702,38.40275,66.14591,182.9847,0.5079956,-0.2889295,0.7957644,10
6.6,-33.95686,1.115129,-34.46545,0.0708637505731397,-0.1371571257642201,0.7664411549727559,41.07286,64.95482,182.4585,0.4963779,-0.3066579,0.793851,10
6.62,-33.91443,1.11163,-34.41487,0.0800300861101757,-0.1652511902249208,0.7502882978252288,43.17875,64.69598,182.0503,0.4918819,-0.3197026,0.7889427,10
6.64,-33.87925,1.310043,-34.37292,0.0982537345743814,-0.1615636985459986,0.739122894591592,44.52448,67.01832,183.0786,0.5022489,-0.3294919,0.776986,10
6.66,-33.84039,1.109624,-34.33915,0.1284339042189932,-0.1561439639397571,0.728240466257394,46.52938,64.46658,180.7721,0.4877375,-0.3374004,0.7785065,10
6.68,-33.80233,1.307766,-34.29422,0.1708716394259557,-0.1527243423373906,0.717603995699962,47.98087,66.93813,181.9419,0.498026,-0.347655,0.7658116,10
6.7,-33.76796,1.504845,-34.24917,0.2099787263196857,-0.1505909819139699,0.7126888839718077,49.29426,69.61626,183.3356,0.5086384,-0.3573638,0.7528758,10
6.72,-33.60989,1.102241,-34.17686,0.2750746708084737,-0.1737499426415673,0.7181053096805954,58.18909,61.7624,175.8726,0.4632329,-0.4008967,0.7404668,10
6.74,-33.56982,1.297602,-34.13666,0.3399025288084232,-0.1376709695529401,0.7195094012605248,59.68075,64.56034,177.1965,0.4734039,-0.4092238,0.7266334,10
6.76,-33.53468,1.492159,-34.09597,0.4154929616381277,-0.1536447943768839,0.7256176428670651,61.00763,67.71076,178.9236,0.4839321,-0.4170038,0.7128211,10
6.78,-33.38251,1.121447,-34.01946,0.5016562204540316,-0.1717136829619158,0.7306817337992921,60.55336,54.63022,169.4328,0.4358592,-0.4095624,0.7427413,10
6.8,-33.32997,1.312887,-33.98368,0.5645679679393893,-0.1064605284060254,0.7297133479829698,62.40398,56.77835,169.9419,0.4450676,-0.4183499,0.7279923,10
6.82,-33.27736,1.503377,-33.94886,0.6361520192628616,-0.1161717677766785,0.7359862582551422,64.23267,59.13871,170.6819,0.4541381,-0.4269214,0.7129161,10
6.84,-33.10622,1.185205,-33.82574,0.7032709027674162,-0.0725132694311247,0.7371899585794779,50.82558,55.5736,172.6838,0.4444396,-0.3520133,0.7846935,10
6.86,-33.04486,1.203207,-33.7808,0.760369012064344,-0.007047910216734,0.7315029121478158,47.01889,57.77848,174.4818,0.4593151,-0.327529,0.792672,10
6.88,-32.98753,1.388923,-33.7469,0.8243211765554967,-0.0130821339417911,0.732951248300715,48.90003,59.86892,175.0156,0.4694265,-0.3385916,0.7791556,10
6.9,-32.93024,1.573603,-33.71427,0.877918072795687,0.0302388955055298,0.728481675986492,50.7669,62.06713,175.6775,0.4792903,-0.3494898,0.7652581,10
6.92,-32.85902,1.248375,-33.66637,0.9384731051692484,0.0228555637400297,0.7283782367448159,30.76683,61.64872,176.1664,0.5013929,-0.2111518,0.8229654,10
6.94,-32.78702,1.429034,-33.63025,0.9908440335813244,0.039373948930917,0.7239312943349603,33.01698,63.57901,176.623,0.5119816,-0.2265433,0.810186,10
6.96,-32.71531,1.608164,-33.59578,1.0306857656128663,0.0782501593103808,0.7146382445273387,35.25385,65.58034,177.1826,0.522239,-0.2418008,0.7969154,10
6.98,-32.64397,1.785802,-33.56299,1.0672861695139355,0.0635083644284376,0.7060260426447336,37.47583,67.66326,177.8525,0.532153,-0.2569196,0.78316,10
7.0,-32.61691,1.281389,-33.47583,1.1101717770353057,0.042827380453397,0.6956043582718294,1.160429,66.9162,178.2697,0.5513636,-0.0001234123,0.8340672,10
7.02,-32.58543,1.28508,-33.43911,1.1426850791935874,0.050870981015624,0.6931047416625402,357.2411,66.85564,178.4791,0.5504113,0.0273989,0.8344412,10
7.04,-32.5031,1.46199,-33.40549,1.178712057391103,0.0821662400960728,0.6880883650962684,359.6705,68.52452,178.9132,0.5629317,0.007715453,0.8264441,10
7.06,-32.41952,1.300033,-33.31182,1.2077142665783085,0.0609509034567548,0.6824416213813391,351.3287,67.26403,179.0883,0.5517536,0.06733683,0.8305361,10
7.08,-32.32582,1.472136,-33.27931,1.227487132214358,0.0887309985136625,0.6712505442496113,354.0312,68.8975,179.4321,0.5646819,0.04573323,0.82365,10
7.1,-32.30433,1.302257,-33.22377,1.2320538073284344,0.0586641137555107,0.6580958761271596,352.8445,67.28285,179.531,0.5526966,0.05421389,0.8310329,10
7.12,-32.29427,1.287301,-33.195,1.2346783133541903,0.0772309084703925,0.6387546167585025,353.3123,66.62183,179.759,0.5481435,0.04989738,0.8343458,10
7.14,-32.18989,1.454782,-33.15581,1.215502989768107,0.0681401696991994,0.6183797703075244,356.3941,68.25985,180.1417,0.5608256,0.02535011,0.8273354,10
7.16,-32.18946,1.256886,-33.0947,1.1995543552130687,0.0552136059405949,0.593823713616775,357.1907,66.16476,181.1552,0.5458596,0.01503774,0.8374574,10
7.18,-32.15526,1.25191,-33.05847,1.170665967230894,0.0463006092440084,0.5667856394495452,359.2456,66.11481,181.3885,0.5454941,-0.00109215,0.8380015,10
7.2,-32.04374,1.418405,-33.0132,1.1442203435137484,0.0342047333800088,0.5367163515384155,2.64742,67.78896,181.7958,0.5571475,-0.02790986,0.8299446,10
7.22,-32.0415,1.239489,-32.94871,1.102092287761244,0.0243551845473405,0.5111443128953974,5.967348,66.29317,182.6139,0.5449057,-0.0560243,0.8365712,10
7.24,-31.93092,1.408719,-32.90235,1.064513208608341,0.0409688956614564,0.4779960900205777,9.372236,68.01397,183.0385,0.555433,-0.08247963,0.8271196,10
7.26,-31.96259,1.227978,-32.87495,1.0101532329191625,0.0007671997637118,0.4422347883050044,10.10895,66.75517,183.1904,0.5457543,-0.08879869,0.8328429,10
7.28,-31.8533,1.400422,-32.82969,0.9579103844195632,0.0167827265305518,0.4033872873355939,13.48107,68.49827,183.5931,0.555586,-0.114495,0.8225522,10
7.3,-31.91446,1.210159,-32.81702,0.9102115297253804,0.0290041861979338,0.360753616772663,13.20607,67.06411,183.5696,0.5454876,-0.1128969,0.8296243,10
7.32,-31.80719,1.386457,-32.77142,0.84106691509258,0.0128840351479923,0.3187332248419379,16.55206,68.82634,183.9776,0.5548133,-0.1380872,0.8187238,10
7.34,-31.85471,1.184144,-32.73228,0.7646376568040907,-0.0002195978023962,0.2768303338103841,17.18133,66.10091,183.9516,0.5346213,-0.1437218,0.8311027,10
7.36,-31.75069,1.366131,-32.68491,0.699254524830113,0.0163284269601028,0.233653617509379,20.50027,67.8732,184.3174,0.5434145,-0.1682222,0.8195775,10
7.38,-31.79989,1.168945,-32.66834,0.618500742712885,-0.0246658634740819,0.1891049955997985,19.92023,65.08852,184.118,0.5242627,-0.1647456,0.8330782,10
7.4,-31.69783,1.354685,-32.62039,0.5441994767781417,-0.0668954305484365,0.1434610791236288,23.2184,66.84776,184.4129,0.5326942,-0.1886031,0.821206,10
7.42,-31.76551,1.153469,-32.61426,0.4676796329034252,-0.0802086016428167,0.1036148012348636,22.8511,63.4906,184.1124,0.5093414,-0.1868539,0.8367461,10
7.44,-31.66562,1.342995,-32.5649,0.4044419399165453,-0.0620037983526641,0.0658005575031799,26.13256,65.22582,184.3239,0.5174488,-0.2101026,0.824535,10
7.46,-31.70721,1.132789,-32.53312,0.3305233159010772,-0.1008968936016529,0.0295535858614117,27.86948,60.56107,184.0027,0.4818338,-0.2249258,0.8418822,10
7.48,-31.60908,1.327291,-32.48096,0.2763982263504032,-0.078041392231984,-0.0054690903068479,31.17088,62.23124,184.0554,0.4893153,-0.247488,0.8290436,10
7.5,-31.64086,1.124726,-32.46482,0.2124925587990329,-0.1122607558016942,-0.0391144462759114,32.03533,58.76319,183.5916,0.4638097,-0.2551009,0.8413731,10
7.52,-31.5411,1.321536,-32.41065,0.1691399265626945,-0.0857363863744603,-0.0683536354718357,35.41769,60.35873,183.5099,0.4706101,-0.2774928,0.8277901,10
7.54,-31.52104,1.117012,-32.36095,0.1279699397752831,-0.0851653629671506,-0.0945610814591235,39.63657,57.4383,182.7267,0.4448546,-0.3080031,0.8286868,10
7.56,-31.42196,1.316596,-32.31298,0.0945860494159673,-0.0830074706787779,-0.1179616422462137,42.87362,59.10316,182.2943,0.4526306,-0.3270581,0.8131791,10
7.58,-31.42247,1.115084,-32.29318,0.0618706279594309,-0.0788557419422261,-0.1382543094341581,42.98968,57.83371,181.6693,0.4451903,-0.3272531,0.8169389,10
7.6,-31.33088,1.316171,-32.25367,0.035811833901846,-0.0732409741262097,-0.1548871092075794,45.90408,59.27666,181.0599,0.4522186,-0.343137,0.8021035,10
7.62,-31.33527,1.11387,-32.22759,0.011229501025479,-0.0661525393832494,-0.1673778894106701,45.95736,57.19948,180.2251,0.4400301,-0.3436202,0.8086826,10
7.64,-31.24287,1.110323,-32.15865,-0.002440945402391,-0.0271537950199487,-0.1795196281419699,50.30265,55.38602,178.528,0.4254712,-0.370891,0.7988963,10
7.66,-31.15833,1.310712,-32.12026,-0.0005024148845973,-0.0455044358521637,-0.1819441173070566,53.04069,56.18758,177.7445,0.4290358,-0.3855366,0.7850602,10
7.68,-31.07303,1.509039,-32.08392,0.0121915444028206,-0.004832432129803,-0.1825955919347861,55.77158,57.02025,176.9316,0.4327419,-0.3995496,0.7704403,10
7.7,-30.98756,1.102793,-31.99199,0.0326493900160382,-0.0184651701323295,-0.1784653593798353,59.44911,52.49804,173.9567,0.4069862,-0.4238368,0.7662256,10
7.72,-30.82851,1.110077,-31.88151,0.0718550781462332,-0.0572530768499016,-0.1654752314122145,62.40089,45.65627,167.8468,0.3805308,-0.4396455,0.7626573,10
7.74,-30.7372,1.299843,-31.83954,0.103266442583652,-0.0100151707920185,-0.1576335214845134,65.28665,45.33457,165.8454,0.38336,-0.4539688,0.7454718,10
7.76,-30.64459,1.130164,-31.75933,0.1432603031918669,0.0350542010794908,-0.1506303303030116,60.70337,43.39074,166.7576,0.3710137,-0.4295974,0.7749251,10
7.78,-30.55215,1.315727,-31.71868,0.1884843875648689,0.0047892834969285,-0.1350944254846942,63.53838,43.00865,164.6604,0.3742394,-0.4438727,0.7581601,10
7.8,-30.46005,1.498858,-31.68011,0.218805357126159,0.0319613133498279,-0.1241946267669646,66.3543,42.32184,162.2591,0.3772208,-0.4576356,0.740748,10
7.82,-30.39185,1.179472,-31.58758,0.2554702332082716,0.0577166561028355,-0.1140216177470447,51.87812,47.16797,171.2614,0.3892828,-0.3723042,0.8084207,10
7.84,-30.2964,1.358773,-31.54524,0.2990045892138093,0.0354671570809763,-0.0962659295568748,54.83111,47.70762,170.1048,0.3939667,-0.3885805,0.7927802,10
7.86,-30.20159,1.535402,-31.50471,0.3322988055571789,0.0835471429207945,-0.0921574393246174,57.79153,48.17937,168.9098,0.3983038,-0.4045382,0.7764524,10
7.88,-30.10289,1.241074,-31.4044,0.3700894187132926,0.1523170777383779,-0.0910256733782128,31.80707,53.81849,175.3576,0.4447953,-0.2265201,0.8518669,10
7.9,-29.99762,1.415425,-31.37074,0.3924572071768621,0.1479525190095184,-0.0868321081050589,34.83235,55.31387,174.736,0.4546036,-0.244494,0.8378653,10
7.92,-29.91358,1.265901,-31.2911,0.417936528667016,0.1166815407694893,-0.0765938412744238,13.60289,58.81783,177.1417,0.4900051,-0.09097502,0.8632874,10
7.94,-29.84477,1.271929,-31.25316,0.4469489099165287,0.1555232450427151,-0.0696381948245403,7.696781,60.7131,177.4325,0.505411,-0.04660324,0.8599755,10
7.96,-29.73833,1.444387,-31.22068,0.4784569333630504,0.1894440785024185,-0.0645963011434691,10.75393,62.56298,177.2871,0.5187091,-0.06782522,0.8494757,10
7.98,-29.71093,1.278759,-31.16494,0.4936375108154598,0.1483432626812584,-0.0529302470452077,358.0489,63.48738,178.1689,0.5257456,0.02288211,0.8503217,10
8.0,-29.60398,1.449099,-31.12835,0.5117620045897651,0.1010792857981341,-0.0423160979661583,1.175929,65.26571,178.2688,0.5392945,-0.0004949016,0.8419195,10
8.02,-29.50536,1.293087,-31.02274,0.5385111349567713,0.1464071174962092,-0.0411768406937325,352.0514,65.15147,179.0662,0.5366256,0.06278053,0.8409305,10
8.04,-29.39326,1.459802,-30.98902,0.5557342142036199,0.1428052537118873,-0.0285287537834264,355.2442,67.10943,179.2347,0.5520141,0.03826325,0.8327756,10
8.06,-29.36785,1.300186,-30.93572,0.5616244971211053,0.1111392856302125,-0.0165028907173754,353.0661,66.0976,179.4559,0.5441084,0.05327296,0.8368198,10
8.08,-29.26226,1.466924,-30.89786,0.5680775873187418,0.1256621759832109,-0.0149036691161774,356.1536,67.67129,179.7479,0.5564362,0.02910028,0.8302096,10
8.1,-29.29001,1.271325,-30.86275,0.5725576246999537,0.1357438974049247,-0.0153453334996651,353.9333,66.30257,180.0065,0.546088,0.04427284,0.8360551,10
8.12,-29.18512,1.441473,-30.83612,0.5546942015786538,0.1188670149137063,-0.0161189508385453,356.8944,68.18746,180.0899,0.5603601,0.02200083,0.8278056,10
8.14,-29.17098,1.253001,-30.76773,0.548822127792171,0.1278637007045003,-0.0177003625491352,359.1444,66.40725,181.31,0.5476364,-1.273677e-05,0.8366049,10
8.16,-29.06749,1.426336,-30.74906,0.5404052478403099,0.133552326363185,-0.0218772616781834,1.991781,68.51517,181.2338,0.562642,-0.02042437,0.8264478,10
8.18,-29.09301,1.2473,-30.71645,0.511955571062225,0.11673522866255,-0.0215025420246619,3.306072,67.38604,181.7692,0.5540757,-0.03255924,0.8318236,10
8.2,-28.99207,1.422034,-30.69255,0.4763980001708994,0.1008629898681392,-0.0226494885296877,6.165825,69.39698,181.8435,0.5676492,-0.05335525,0.8213556,10
8.22,-29.00057,1.23089,-30.62713,0.4391005851067269,0.0851501186666838,-0.0262022815588651,9.782975,67.74914,182.9793,0.5533186,-0.08520839,0.828192,10
8.24,-28.90055,1.409834,-30.60954,0.3901276549753176,0.0666009379062312,-0.031069812572392,12.54381,70.0449,182.9211,0.5679967,-0.1039767,0.8153594,10
8.26,-28.93864,1.213678,-30.58313,0.3396399759961088,0.0489934056795641,-0.0382855118693603,12.75545,69.36434,183.2952,0.562642,-0.1075671,0.8187116,10
8.28,-28.84062,1.396296,-30.56915,0.3078863665974394,0.0813014520181792,-0.0453861588272603,15.44002,71.92868,183.2197,0.5786746,-0.1250326,0.8039466,10
8.3,-28.74472,1.576724,-30.55732,0.2373444414740255,0.0335578482174787,-0.0545255070853536,18.10505,74.4526,183.2772,0.5936029,-0.1423143,0.788735,10
8.32,-28.86943,1.18756,-30.51839,0.1734651400658644,0.0135372917072294,-0.0622877981631213,16.61788,70.20606,183.6335,0.5649783,-0.1362066,0.8117594,10
8.34,-28.85782,1.171787,-30.47594,0.1102444567753559,-0.0049244102596547,-0.070754094821356,19.34898,68.39553,183.8023,0.5491418,-0.1572994,0.8180246,10
8.36,-28.76354,1.361166,-30.45132,0.0444555012378566,-0.0235372319073257,-0.0778118919774097,22.09096,70.88142,183.7947,0.5636386,-0.1748472,0.8028637,10
8.38,-28.81235,1.155653,-30.42649,-0.0195361803403297,-0.0401892037007369,-0.0850651815553629,22.28068,67.87521,183.8133,0.5421333,-0.1784343,0.8171513,10
8.4,-28.71973,1.34816,-30.40085,-0.0595413439064151,-0.0017259692847764,-0.0882760688919694,25.00387,70.32869,183.7382,0.5561967,-0.1952121,0.8017612,10
8.42,-28.75086,1.133972,-30.3483,-0.1314391630429887,-0.047575888999763,-0.0947871603209602,27.29341,65.88371,183.7873,0.5216047,-0.2153552,0.8193251,10
8.44,-28.66008,1.330467,-30.31812,-0.1846817454394522,-0.0631809599865884,-0.0927866293141335,30.02692,68.29208,183.6409,0.5350601,-0.2315031,0.8035749,10
8.46,-28.67725,1.125149,-30.27963,-0.2339598254461705,-0.076490829123131,-0.0899708434522779,31.47581,65.22749,183.5343,0.511476,-0.2443584,0.8148692,10
8.48,-28.58511,1.323177,-30.24479,-0.2753025111139808,-0.0873616210566943,-0.0868257056946695,34.30783,67.64207,183.4254,0.5242798,-0.2608163,0.7983757,10
8.5,-28.59699,1.118602,-30.2091,-0.3117554625199101,-0.0962726948882358,-0.0831398482454237,37.09,64.42031,183.081,0.4979314,-0.2825894,0.806432,10
8.52,-28.49779,1.317312,-30.16893,-0.3342576930399952,-0.1036396156465603,-0.0716119304622222,40.19432,66.81154,182.9567,0.5094691,-0.3000895,0.7885829,10
8.54,-28.46619,1.114813,-30.11372,-0.3578196103396331,-0.1375111909822777,-0.0603122625171175,43.19561,64.32825,181.8232,0.4899508,-0.3194324,0.7901105,10
8.56,-28.36271,1.314604,-30.07016,-0.3650627364226713,-0.1110413987432016,-0.0482800561554288,46.47689,66.70236,181.6957,0.5002347,-0.3370206,0.7706739,10
8.58,-28.35173,1.113497,-30.03424,-0.3677002554572843,-0.0852302298478989,-0.0356048705900504,46.35221,64.48023,180.4734,0.4890381,-0.3349028,0.7784225,10
8.6,-28.24736,1.313382,-29.99079,-0.3655749061433822,-0.0881350023639856,-0.0172982897892124,49.65946,66.83051,180.3271,0.4987935,-0.3519353,0.7581982,10
8.62,-28.23608,1.109773,-29.9563,-0.357454887116944,-0.0899396239740621,0.0030141757805726,50.67958,63.3228,178.8214,0.4781172,-0.3593879,0.7669195,10
8.64,-28.13188,1.308625,-29.91421,-0.3294433852242888,-0.034023282397013,0.0271097412480449,53.97229,65.5434,178.5265,0.4872215,-0.3753154,0.7460607,10
8.66,-28.00018,1.102041,-29.81479,-0.2880635479259137,-0.032795381080326,0.0626815657062991,59.68407,59.65797,174.1595,0.4528886,-0.4091424,0.738895,10
8.68,-27.89582,1.295184,-29.77712,-0.2447680062072588,-0.0569840484621992,0.1009911845036941,62.93481,61.37915,173.3299,0.4607054,-0.4228174,0.7167377,10
8.7,-27.81191,1.108932,-29.70748,-0.1960800608850847,-0.0831035363961443,0.1401913372431265,62.66143,53.62004,168.0213,0.4315853,-0.4213499,0.7337289,10
8.72,-27.65401,1.128726,-29.60741,-0.1351415923951666,-0.0701901190407019,0.1855185601424342,60.96489,50.31097,166.8663,0.4164316,-0.4142573,0.7502734,10
8.74,-27.54824,1.312359,-29.57425,-0.0808520123806242,-0.0300906620932921,0.2192295585980912,64.0769,51.09416,164.9974,0.4249245,-0.4268026,0.7284033,10
8.76,-27.44304,1.493011,-29.5438,-0.0243280690097122,0.007816814633822,0.2507513635484177,67.1983,51.71329,163.0,0.4328742,-0.4388165,0.705638,10
8.78,-27.36532,1.178012,-29.44778,0.0335134353005952,0.0939133169453914,0.2741097642086139,52.08149,55.3742,171.3704,0.4455376,-0.3562319,0.7780026,10
8.8,-27.3064,1.19538,-29.40417,0.082631874843011,0.0852173372960269,0.3058487636368112,48.29573,57.20024,173.3185,0.4569928,-0.3331115,0.7883789,10
8.82,-27.19735,1.371259,-29.37437,0.1340372643825147,0.0739595897622771,0.3357663239250765,51.4613,59.15878,172.6995,0.4678189,-0.3484832,0.7682067,10
8.84,-27.08205,1.238977,-29.28838,0.1848640218155446,0.0880501804032958,0.363416940785743,32.06663,61.82911,175.4199,0.5028489,-0.2170385,0.8182333,10
8.86,-26.95923,1.407882,-29.25712,0.2291228963037559,0.0777884374671507,0.3888146938677193,35.61049,64.12849,175.19,0.5158707,-0.2376985,0.7993392,10
8.88,-26.83812,1.57298,-29.22943,0.2749262013629754,0.0647691703491198,0.4116044811273993,39.15921,66.5185,175.1325,0.5281498,-0.2580287,0.7793311,10
8.9,-26.85855,1.2631,-29.17181,0.320730908047246,0.1161208237611787,0.4224842227280754,13.9039,67.30818,177.2588,0.5523558,-0.08756407,0.8244379,10
8.92,-26.75308,1.271692,-29.09438,0.3429145438865331,0.0941278025858458,0.4369552172289812,2.348249,69.32318,178.0137,0.5688156,-0.006996302,0.8220273,10
8.94,-26.62737,1.437677,-29.06559,0.3677447596322465,0.1173705365394242,0.4426426329151525,5.915876,71.75764,178.2459,0.5858635,-0.03284786,0.8086212,10
8.96,-26.50367,1.599748,-29.0405,0.3884874581168356,0.117823913915997,0.4564732526989838,9.469321,74.22482,178.6332,0.6020641,-0.05864634,0.7940816,10
8.98,-26.50907,1.285073,-28.95858,0.4080240188545683,0.1158253588063446,0.4682762231159572,353.3133,72.4268,178.8188,0.5892726,0.05312999,0.8057615,10
9.0,-26.382,1.448017,-28.93124,0.4198974509150628,0.1141012561847742,0.4777904726562618,356.8813,74.80091,179.2443,0.6070015,0.02562118,0.7942075,10
9.02,-26.25718,1.607014,-28.90772,0.430290561328317,0.1099953833759052,0.4848720511739079,0.4276564,77.19555,179.8162,0.6238489,-0.001916216,0.7815347,10
9.04,-26.25448,1.28255,-28.78805,0.4207716956781624,0.0993628487632205,0.4846707252160591,353.7798,73.05232,179.8311,0.5942482,0.04447422,0.8024484,10
9.06,-26.21618,1.26988,-28.75355,0.4080055467045977,0.0874718764278381,0.4818743419226652,354.0686,73.24257,180.0711,0.5957499,0.0411552,0.8015018,10
9.08,-26.09264,1.433155,-28.72615,0.384714769311655,0.072447828534756,0.4743310975925205,357.5601,75.60604,180.5826,0.6128874,0.01370648,0.789867,10
9.1,-25.97129,1.592699,-28.70248,0.3594764904865775,0.0562593105681665,0.463755727948171,1.026517,77.99641,181.2369,0.629159,-0.01375342,0.7771501,10
9.12,-26.06521,1.250193,-28.64439,0.3340818944878307,0.0422141479993676,0.4569703138270844,359.4145,73.73541,181.4394,0.5999657,-0.003448773,0.7999111,10
9.14,-25.94037,1.414529,-28.61667,0.3072938578886384,0.0271999083972233,0.4490405294151673,2.984889,76.13975,181.949,0.6159751,-0.0309849,0.7871518,10
9.16,-25.81771,1.575027,-28.59263,0.2695920183157549,0.0133596003515695,0.4338713294568972,6.530263,78.58594,182.611,0.6310897,-0.05847294,0.773283,10
9.18,-25.9229,1.231908,-28.49643,0.230903440720108,-0.0012014356206742,0.4187473584647017,8.259597,73.03866,182.9376,0.5918702,-0.07307144,0.8024046,10
9.2,-25.91483,1.226322,-28.46554,0.2095302251575321,0.0328557409993294,0.4014019445972243,10.322,72.257,183.1994,0.5849507,-0.08902073,0.8055894,10
9.22,-25.79171,1.396531,-28.43277,0.1488076634667248,-0.0122008106295632,0.3822682542435696,13.9121,74.73933,183.6671,0.5990995,-0.115477,0.7908344,10
9.24,-25.84806,1.199631,-28.37266,0.0903852952447494,-0.0308949779332163,0.3597125272259887,14.75125,72.07655,183.7001,0.5798023,-0.1225883,0.8039539,10
9.26,-25.72838,1.375957,-28.33702,0.0326177626376722,-0.0491396217294066,0.3386033534873292,18.30869,74.58817,184.1649,0.5931951,-0.1482184,0.7883878,10
9.28,-25.60984,1.548525,-28.30459,-0.0046456270365409,-0.0143021342399374,0.3174863285923996,21.84174,77.18578,184.8073,0.6057367,-0.1736333,0.7717242,10
9.3,-25.75101,1.175615,-28.27032,-0.0764531750101071,-0.0615868420653751,0.2960239453466355,18.72782,71.70124,184.126,0.5727478,-0.1525964,0.802658,10
9.32,-25.76089,1.1682,-28.24713,-0.1464193021196527,-0.1090145277237194,0.2781876620038428,20.12724,69.77974,184.1141,0.5576926,-0.1634559,0.8107004,10
9.34,-25.64631,1.352648,-28.20706,-0.1822013000796243,-0.0748583065904686,0.2598671917500512,23.63448,72.27888,184.461,0.5703791,-0.1877267,0.7945698,10
9.36,-25.71271,1.145336,-28.15919,-0.2357417629208811,-0.095296519686479,0.2416134263392364,24.60074,66.76354,184.1071,0.5308648,-0.1970397,0.8195306,10
9.38,-25.60183,1.335761,-28.11415,-0.2973951998236872,-0.1419348334321903,0.223657265503292,28.09282,69.22527,184.3248,0.5431116,-0.2204008,0.803036,10
9.4,-25.49088,1.522652,-28.0717,-0.3338308870817599,-0.1290117021127758,0.208915477218222,31.57164,71.78778,184.7263,0.5546076,-0.2434576,0.7854649,10
9.42,-25.61857,1.128528,-28.04985,-0.3789693549548123,-0.1727518884672209,0.1997766352929049,30.04843,64.24883,183.7916,0.5060383,-0.2364084,0.8220581,10
9.44,-25.57775,1.121668,-27.99009,-0.4010059940841941,-0.1550330875180219,0.1901400614127673,34.71832,61.65859,183.3087,0.4815398,-0.2702162,0.8236598,10
9.46,-25.47217,1.319053,-27.94047,-0.4176383886200576,-0.1377677909141174,0.1830005262142195,38.13395,63.96427,183.2247,0.492602,-0.2910641,0.8062291,10
9.48,-25.48357,1.116968,-27.91249,-0.4330077896378408,-0.1476569322268783,0.1739335407035653,39.62175,61.6204,182.7554,0.4747443,-0.3025867,0.811978,10
9.5,-25.37903,1.315755,-27.86333,-0.4526968816195751,-0.1839860101375262,0.1642669638231395,43.00834,63.88577,182.626,0.4849883,-0.3222593,0.7937442,10
9.52,-25.3434,1.114318,-27.80014,-0.4510294824410708,-0.15976531065467,0.1572438209034752,44.6923,61.47343,181.2103,0.4692348,-0.331767,0.796986,10
9.54,-25.28176,1.113567,-27.75448,-0.4487053808133256,-0.1925908336124489,0.1566174273103602,46.35852,61.44688,180.4436,0.4683407,-0.3401793,0.7910239,10
9.56,-25.17947,1.313521,-27.7063,-0.4316633459416787,-0.1652407095652071,0.1554010780911792,49.67669,63.64783,180.2516,0.4777478,-0.357963,0.7715597,10
9.58,-25.07638,1.510285,-27.66024,-0.410592628647207,-0.1384431850954554,0.155000383824174,52.9964,65.99334,180.2568,0.4865406,-0.3752948,0.7511381,10
9.6,-25.07318,1.106949,-27.60867,-0.3763250831034135,-0.1400204468479008,0.1615462408656025,53.3134,60.31078,177.7929,0.456341,-0.3792084,0.7682775,10
9.62,-24.97106,1.304762,-27.56314,-0.3436735521022256,-0.1676868937610099,0.1690116744449254,56.60383,62.33129,177.4068,0.4647147,-0.395276,0.7476437,10
9.64,-24.86834,1.499464,-27.51977,-0.2938213695681826,-0.1360691499763512,0.1781148297633095,59.89905,64.50176,177.214,0.4724972,-0.4108496,0.7260942,10
9.66,-24.71087,1.108965,-27.37795,-0.2334566180730588,-0.1558484472378885,0.200640329314985,62.66656,50.82891,167.9544,0.4138313,-0.4286371,0.7438232,10
9.68,-24.63538,1.117837,-27.32326,-0.1745076646397518,-0.11705477012603,0.2142177116105803,61.82669,49.13872,167.3915,0.4058769,-0.4252292,0.7520912,10
9.7,-24.5326,1.303703,-27.28393,-0.1137966320858892,-0.0798399596101402,0.2273998245106288,64.96263,49.87421,165.6118,0.4138497,-0.4385842,0.7305451,10
9.72,-24.37754,1.161534,-27.14975,-0.0467690555418336,-0.0581227467980532,0.2486506703261684,55.7916,48.52422,168.856,0.4028634,-0.3892636,0.7832645,10
9.74,-24.27138,1.340762,-27.11343,0.0133207461282052,-0.0116589624413186,0.259273050096994,58.91467,49.59481,167.3695,0.4120815,-0.4035522,0.7629541,10
9.76,-24.16598,1.516958,-27.07992,0.0730340555516511,0.0328940815267008,0.2685733462031026,62.05088,50.59886,165.8574,0.420791,-0.4173563,0.7417386,10
9.78,-24.06161,1.690242,-27.04924,0.1250624280062533,0.0053915523474527,0.2822937216672532,65.19804,51.52279,164.3018,0.4289865,-0.4306607,0.7196451,10
9.8,-24.02437,1.228598,-26.94243,0.1820817944203114,0.0482061151286885,0.2860885837348377,37.80408,57.84742,174.8336,0.469878,-0.2626323,0.8201621,10
9.82,-23.90958,1.400023,-26.90676,0.246141752957568,0.1122462817095962,0.2870391759385433,41.1715,59.94374,174.4922,0.4817698,-0.2817666,0.8015809,10
9.84,-23.8357,1.257431,-26.81822,0.2981498412592387,0.1057637647543045,0.2972714361719815,19.98895,62.10776,176.6456,0.5121498,-0.1337476,0.8407004,10
9.86,-23.77452,1.264094,-26.77754,0.3406274002658698,0.119763209244727,0.2993411754131703,13.813,63.64299,177.2393,0.525758,-0.08953641,0.8417573,10
9.88,-23.65495,1.432182,-26.74199,0.3802500101567383,0.1330944505070597,0.3002159316495025,17.28295,65.96905,177.3118,0.5410405,-0.1133735,0.8271485,10
9.9,-23.53698,1.59658,-26.70992,0.4160356218418575,0.1428842219170969,0.3002189559382207,20.74735,68.3465,177.5362,0.555591,-0.1370644,0.8114569,10
9.92,-23.57384,1.275756,-26.63651,0.4481130040517818,0.1501507438291395,0.3018735502953946,358.3776,67.27573,178.2529,0.5536423,0.02023016,0.8324949,10
9.94,-23.45101,1.441278,-26.60103,0.479624944509097,0.1800603755118969,0.2957695187043585,1.912781,69.5762,178.5375,0.5705921,-0.006426435,0.8209651,10
9.96,-23.38715,1.291428,-26.4887,0.5064112881920089,0.2069892204238027,0.2885671502664628,352.2122,67.83914,179.1033,0.5562825,0.06070715,0.8281775,10
9.98,-23.26268,1.453236,-26.45069,0.5088631193259956,0.1603824506948582,0.2931127067638641,355.7815,70.08988,179.5279,0.5737008,0.03249619,0.8182275,10
10.0,-23.26148,1.296,-26.39131,0.5105421316018663,0.157191696468094,0.2885291847337257,353.4455,68.08942,179.5865,0.5587495,0.04938586,0.8273559,10
10.02,-23.13819,1.456723,-26.35201,0.5070558386550257,0.1534760889278984,0.2838606621990296,356.9872,70.33779,180.0922,0.5758066,0.0210267,0.8171626,10
10.04,-23.14787,1.262052,-26.27492,0.4827638854733904,0.0980385054493917,0.2853879888323192,355.7356,68.02519,180.6353,0.5591503,0.02774063,0.8282127,10
10.06,-23.02762,1.425702,-26.23553,0.4709591184746888,0.1126653112196292,0.2735204554199075,359.2542,70.2897,181.1264,0.5756579,-0.0003373185,0.8176059,10
10.08,-23.04434,1.250048,-26.19187,0.466106874255396,0.1514482043861604,0.2600151711393228,359.4247,68.6841,181.4372,0.5641328,-0.002929849,0.8255738,10
10.1,-22.92243,1.414189,-26.15228,0.425722320951396,0.1163488208612854,0.2475497769699743,3.014166,70.97623,181.9392,0.5798879,-0.03123206,0.8140963,10
10.12,-22.92311,1.237531,-26.06836,0.3697055190998646,0.0555339248942466,0.2404174880700242,6.176896,68.78742,182.6534,0.5628755,-0.05750591,0.8244609,10
10.14,-22.80124,1.404245,-26.02687,0.3406933691698417,0.0686227034465737,0.2295657832536068,9.80105,71.13597,183.1687,0.5773995,-0.08548453,0.8115165,10
10.16,-22.83688,1.226212,-25.98584,0.2829301622380211,0.0304939754966787,0.2176268209393135,10.3237,69.39497,183.2372,0.5646194,-0.08995451,0.8199549,10
10.18,-22.71647,1.396328,-25.94514,0.2206981677650459,-0.0069263440052887,0.207573219062874,13.91419,71.77212,183.7362,0.5783511,-0.1170504,0.8061063,10
10.2,-22.59749,1.562589,-25.90787,0.187048797973695,0.0284497229560616,0.1884396160966095,17.47994,74.22168,184.3994,0.5912623,-0.1439764,0.791148,10
10.22,-22.74731,1.19953,-25.87833,0.1220264250910077,0.0100395164014258,0.1702947884784817,14.75552,69.7226,183.7296,0.5631307,-0.1237563,0.8157027,10
10.24,-22.7292,1.183081,-25.81885,0.0542103496513806,-0.0060234739638594,0.1541429397127665,17.40103,68.07545,183.964,0.5486311,-0.1444137,0.8215718,10
10.26,-22.61458,1.363416,-25.77387,0.0095535567304856,0.0317593503208534,0.1356471146876621,20.94358,70.47941,184.3923,0.5612831,-0.1700784,0.8065708,10
10.28,-22.50059,1.540064,-25.73185,-0.082270999225968,-0.0117778605961266,0.1083947332530517,24.46455,72.97285,184.9944,0.5731583,-0.1955056,0.7904876,10
10.3,-22.63473,1.160641,-25.7071,-0.1773283202064997,-0.0532821819020444,0.0841496608303087,21.56729,66.51355,184.1729,0.5326547,-0.1759668,0.8246453,10
10.32,-22.52346,1.347057,-25.66006,-0.2373941357544011,-0.0144943292447058,0.0625423190567238,25.07928,68.8959,184.4908,0.5447257,-0.2005379,0.8091633,10
10.34,-22.41237,1.529888,-25.61567,-0.3198469195821878,-0.032331890670751,0.037277919972626,28.57476,71.3729,184.9843,0.5560558,-0.2248359,0.7926151,10
10.36,-22.53272,1.13259,-25.56449,-0.4174566143038221,-0.0753941205088133,0.0091217354221266,28.03573,62.56328,184.0077,0.4962357,-0.2245003,0.8330657,10
10.38,-22.51143,1.128627,-25.53082,-0.4874747411879312,-0.057974021103098,-0.0158342436138765,30.02419,61.29423,183.7646,0.4847667,-0.2388951,0.83485,10
10.4,-22.40671,1.323912,-25.47869,-0.5555379438531327,-0.0400236997145916,-0.0373784771348599,33.45773,63.55648,183.7928,0.4959709,-0.2612495,0.8186855,10
10.42,-22.3962,1.118572,-25.41009,-0.6490349151950814,-0.108477264888357,-0.0660123382365669,37.39353,59.03955,183.0772,0.4590639,-0.2913775,0.8282084,10
10.44,-22.29338,1.316737,-25.35637,-0.7044641671436671,-0.0896161894889837,-0.086173158430562,40.8004,61.20031,182.9471,0.4692437,-0.3122029,0.8110518,10
10.46,-22.18982,1.51155,-25.30475,-0.7608075793261309,-0.0965321736345142,-0.1080473272866142,44.20767,63.46909,182.9887,0.4788149,-0.3326291,0.7928793,10
10.48,-22.22606,1.114804,-25.27668,-0.8122147603069618,-0.1012086731805288,-0.1249041197619762,43.27816,59.97934,181.842,0.4594235,-0.3268147,0.8079351,10
10.5,-22.19688,1.114307,-25.24508,-0.8554648648719585,-0.1040366516379976,-0.1404923704774132,44.67591,59.27025,181.2157,0.4538382,-0.3351863,0.8059147,10
10.52,-22.09677,1.314276,-25.19163,-0.8931547435114835,-0.1048017958280313,-0.1506471934982722,48.01746,61.40917,181.0845,0.4631038,-0.3542349,0.7873545,10
10.54,-22.02769,1.109818,-25.1075,-0.9154644407861872,-0.1048218857582108,-0.1510387472167709,50.68038,57.36351,178.807,0.4376508,-0.3709406,0.7907062,10
10.56,-21.92842,1.308724,-25.05536,-0.9265947357117345,-0.0733602504456217,-0.1463488678919096,53.98476,59.32603,178.47,0.4462137,-0.3884695,0.7712255,10
10.58,-21.8284,1.504496,-25.0052,-0.9327591699735688,-0.0425922968370101,-0.1372125636275885,57.29322,61.42337,178.3127,0.4542231,-0.4055244,0.7508224,10
10.6,-21.75715,1.101998,-24.92018,-0.9383314399361532,-0.0969109221889814,-0.1176015796850991,59.67748,54.97582,174.194,0.4222124,-0.4205469,0.7568852,10
10.62,-21.69454,1.104272,-24.8686,-0.9203257698660328,-0.0877206970842323,-0.0837347275515805,61.22037,51.12283,171.3699,0.4048621,-0.4301132,0.7576823,10
10.64,-21.59533,1.294916,-24.82184,-0.898256811114063,-0.0786756182188359,-0.0462732341149645,64.42846,52.27097,170.165,0.4123386,-0.4448722,0.7366303,10
10.66,-21.44611,1.128675,-24.6849,-0.8727435353433091,-0.0730122269510966,-0.0051803332772233,60.97521,44.28687,166.8192,0.3766001,-0.4295471,0.7709575,10
10.68,-21.34468,1.312327,-24.64075,-0.8593835145897009,-0.0564417744746657,0.0314179870345374,64.08968,44.76631,164.8628,0.3845851,-0.4438192,0.7503303,10
10.7,-21.24358,1.492999,-24.59911,-0.839643929837397,-0.012963279823373,0.0691967900433181,67.20914,45.03076,162.7238,0.3921061,-0.4575706,0.7288339,10
10.72,-21.12745,1.195233,-24.46509,-0.8179690770294341,0.0288860137010698,0.1100357028894736,48.32067,52.43692,173.3233,0.4237932,-0.3430856,0.8066132,10
10.74,-21.02242,1.371082,-24.42493,-0.8067869039863442,0.0493285208586963,0.1473259007841902,51.49081,54.16799,172.6982,0.4338945,-0.3598409,0.787738,10
10.76,-20.91824,1.543906,-24.38764,-0.8099348826905781,0.0465668462046509,0.1780099426321144,54.67088,55.9697,172.1912,0.4434839,-0.3761813,0.7679695,10
10.78,-20.86155,1.238898,-24.31458,-0.8111391210470411,0.0417744051958453,0.2134570156089839,32.06837,58.24027,175.4528,0.4769152,-0.2225533,0.8336222,10
10.8,-20.74242,1.407745,-24.27342,-0.8110431071623676,0.0318660765274566,0.2536846177523801,35.61592,60.32529,175.2412,0.4889475,-0.2443307,0.8160875,10
10.82,-20.62472,1.572804,-24.23566,-0.8327745732844631,0.0411062498594669,0.2699671877569458,39.16759,62.49183,175.185,0.5003124,-0.2657842,0.7974776,10
10.84,-20.58617,1.267755,-24.12806,-0.8534243507122405,0.0495505458881549,0.2914068717024851,8.161325,64.02238,177.6271,0.5298771,-0.04937925,0.8448327,10
10.86,-20.52213,1.271671,-24.08218,-0.8947407687617979,0.0557757173773194,0.3037818447794693,2.400708,65.37532,178.0091,0.5401654,-0.00824763,0.8411189,10
10.88,-20.39986,1.437696,-24.04333,-0.9268644260161868,0.0852692098447863,0.3207793360762401,5.968261,67.58524,178.2254,0.5560377,-0.03465789,0.8293814,10
10.9,-20.2793,1.599821,-24.00801,-0.9838984486645996,0.0675134775325478,0.333943723046076,9.523778,69.82533,178.5827,0.5711501,-0.06101514,0.8165449,10
10.92,-20.30119,1.285094,-23.92555,-1.0403701566577803,0.0473398913275547,0.3539239503663349,353.3191,67.49887,178.7939,0.5540774,0.05428417,0.8303571,10
10.94,-20.17778,1.448101,-23.88642,-1.098570189111097,0.0477769696727387,0.3688852360437189,356.8908,69.65324,179.1824,0.5707114,0.02634283,0.8206715,10
10.96,-20.05628,1.607161,-23.85097,-1.169369617426273,0.0223654360293683,0.3823559089248296,0.4443758,71.82647,179.704,0.5865612,-0.0016257,0.8098916,10
10.98,-20.06846,1.282651,-23.73096,-1.231560004369039,0.0419744098907756,0.3906999018049575,353.7805,67.35071,179.8042,0.5535921,0.04609105,0.8310177,10
11.0,-20.05194,1.269974,-23.69588,-1.2947045655413292,0.0592349383136927,0.4038301931322152,354.0695,66.85734,180.0454,0.5501778,0.04295441,0.8334436,10
11.02,-19.93306,1.433293,-23.65396,-1.3785913599889263,0.0475635032090162,0.4041448399595402,357.5662,69.00153,180.5194,0.566363,0.01493532,0.8238697,10
11.04,-19.91997,1.250242,-23.57382,-1.4620611624232225,0.0360155163143802,0.4106432576482239,359.4094,66.82076,181.4172,0.5506359,-0.00250764,0.8346383,10
11.06,-19.8002,1.414618,-23.53035,-1.5450835089183128,0.0273763194420949,0.4051000508432518,2.984751,69.00514,181.8919,0.5658197,-0.03080845,0.8239527,10
11.08,-19.68213,1.575157,-23.49048,-1.6270548765290704,0.0191385158501994,0.4056438111016378,6.538889,71.22841,182.5056,0.5802241,-0.05906442,0.8121655,10
11.1,-19.77249,1.237565,-23.44103,-1.6883845389070855,0.0587974294571528,0.4110158808614237,6.171734,67.68909,182.6593,0.5549467,-0.05760343,0.8298199,10
11.12,-19.73003,1.226314,-23.36687,-1.783146761274398,0.021511268088301,0.400276436271604,10.31285,66.69684,183.2123,0.5451848,-0.09039319,0.8330206,10
11.14,-19.61194,1.396513,-23.3207,-1.8591722153332275,0.0356405636277937,0.3898923550307884,13.90333,68.96083,183.6803,0.5584692,-0.1177627,0.8200381,10
11.16,-19.66246,1.208742,-23.28821,-1.934676082396152,0.049194282534806,0.3852666917220175,13.41698,67.10767,183.596,0.5456113,-0.1145275,0.8292795,10
11.18,-19.54658,1.383039,-23.24137,-2.01169559788282,0.0343997097879831,0.3636349782936503,16.98042,69.39428,184.0732,0.5583309,-0.1413168,0.8156354,10
11.2,-19.43169,1.553571,-23.19767,-2.087329912884863,0.0217516870473876,0.3489660642292076,20.52126,71.75886,184.7115,0.5702889,-0.1679101,0.8009116,10
11.22,-19.62801,1.175892,-23.14991,-2.179053252837361,-0.0454450772892425,0.3289026415534208,18.72189,61.70163,184.0285,0.500755,-0.1573366,0.8494812,10
11.24,-19.51921,1.35846,-23.09468,-2.237598886098597,-0.0599217147016998,0.3100453686187707,22.25458,63.96541,184.3393,0.5131363,-0.1832529,0.8355357,10
11.26,-19.41068,1.537391,-23.0422,-2.2789057506514308,-0.0427036768499406,0.2958214173829807,25.77165,66.3111,184.8131,0.5248309,-0.2089224,0.820507,10
11.28,-19.61745,1.154716,-23.06062,-2.33231895347944,-0.0801489810891038,0.2721301393459869,22.17495,58.24483,184.3066,0.4709437,-0.1858226,0.8601875,10
11.3,-19.52737,1.345332,-23.00457,-2.3830956370872465,-0.1156619984673691,0.2559038725160021,25.28853,59.99129,184.5245,0.4799462,-0.2086867,0.8487207,10
11.32,-19.4371,1.533167,-22.95019,-2.4085531185864166,-0.1249152139374028,0.2326045525782878,28.39352,61.79815,184.8562,0.4884813,-0.2313469,0.8364557,10
11.34,-19.62417,1.128547,-22.95312,-2.4334256529557887,-0.1600783785119993,0.2129194607109998,29.28967,51.46183,184.0334,0.4117655,-0.2423974,0.8748989,10
11.36,-19.64751,1.124491,-22.9379,-2.454351187256797,-0.1932952343209391,0.2005700218835975,31.44122,49.48259,183.8107,0.3944622,-0.2593344,0.8775217,10
11.38,-19.56219,1.322308,-22.87431,-2.443804170533421,-0.1973812360964454,0.1832338256711505,34.62687,50.70252,183.6303,0.400043,-0.2817526,0.8663574,10
11.4,-19.47639,1.517309,-22.81181,-2.4146807344890724,-0.1694417889535582,0.1745959216180548,37.81384,51.95907,183.528,0.4052527,-0.3039071,0.8544152,10
11.42,-19.57965,1.116957,-22.82619,-2.386873037957028,-0.1975760179389932,0.1594740119399071,39.47179,46.37185,182.761,0.3630028,-0.3192491,0.8681876,10
11.44,-19.49364,1.316342,-22.75698,-2.338607665446058,-0.1934193379363261,0.1478561040040564,42.78898,47.47728,182.4435,0.3676199,-0.341839,0.8552499,10
11.46,-19.51454,1.114533,-22.72044,-2.2839348489353912,-0.1872501030231163,0.1413348919170869,44.66007,44.33798,181.1096,0.3456199,-0.3552171,0.8579773,10
11.48,-19.43146,1.314897,-22.64754,-2.22722064439102,-0.2391231428685053,0.1347613836239527,47.98908,45.40983,180.778,0.3500751,-0.3775216,0.8438322,10
11.5,-19.44551,1.112925,-22.62304,-2.144229233028278,-0.2033254018151297,0.1365508064268397,48.04766,42.81333,179.5464,0.3348664,-0.3777085,0.8497708,10
11.52,-19.36377,1.313151,-22.5498,-2.046144324880158,-0.1947107692782038,0.1435185011974753,51.35073,43.78951,179.11,0.339196,-0.3993975,0.8349757,10
11.54,-19.28158,1.10376,-22.42999,-1.933269628786904,-0.2124650421355295,0.1649568177875315,56.48943,38.94727,176.1955,0.3083282,-0.4361723,0.824846,10
11.56,-19.20164,1.299637,-22.35721,-1.8102041043589563,-0.1708105803158463,0.1849447523319631,59.74593,39.55797,175.3764,0.3120985,-0.4564765,0.8085125,10
11.58,-19.12122,1.492613,-22.28554,-1.6802684994335269,-0.1821433419472352,0.2109127543291964,63.00572,40.13333,174.5452,0.3155671,-0.4763432,0.7914167,10
11.6,-19.06705,1.10904,-22.17271,-1.5458759376759454,-0.1948556946502379,0.2395506609525135,62.64429,30.97846,167.918,0.279591,-0.4741778,0.8040499,10
11.62,-18.95394,1.128855,-22.02421,-1.4046227195500096,-0.1714275720549963,0.2661946488806923,60.95163,26.86306,166.7532,0.2557545,-0.4669194,0.8190874,10
11.64,-18.8742,1.312823,-21.95206,-1.2479173522685758,-0.1403174732095886,0.3031964135917313,64.02709,26.2599,164.6068,0.260021,-0.4858137,0.8021891,10
11.66,-18.79446,1.493954,-21.88154,-1.0882127781561106,-0.1097695051632114,0.3422284535746978,67.08791,25.2854,162.1093,0.2640398,-0.5042558,0.784557,10
11.68,-18.76315,1.178154,-21.76389,-0.9341609817714418,-0.0749548654468119,0.369173679507889,52.08231,29.37481,171.2316,0.259602,-0.4060142,0.8580678,10
11.7,-18.68339,1.356045,-21.68948,-0.7784559849439487,-0.0408000989707339,0.3982242361912096,55.20283,29.7135,170.0416,0.265234,-0.4264176,0.8430236,10
11.72,-18.60382,1.531034,-21.617,-0.6269680057634099,-0.0548649183024671,0.423967567805902,58.32598,29.95715,168.7838,0.270617,-0.4464298,0.8272213,10
11.74,-18.55271,1.239814,-21.49064,-0.4755471743598787,-0.0226129090352918,0.4405540445575204,31.99773,36.02475,175.3707,0.3075887,-0.2498916,0.9099674,10
11.76,-18.57508,1.250326,-21.48067,-0.3246862750203751,0.0085043017720267,0.4594437013701151,26.20569,37.62907,176.0168,0.321377,-0.2035408,0.9188257,10
11.78,-18.48491,1.419126,-21.39725,-0.1830446105683676,-0.0100910404292411,0.4750736572840326,29.70826,38.80273,175.7639,0.3297999,-0.2297697,0.9079239,10
11.8,-18.3953,1.584248,-21.31644,-0.0356109234532295,0.0389655110283043,0.4882545210585998,33.21582,40.00161,175.5874,0.3378615,-0.255765,0.8960561,10
11.82,-18.53553,1.268067,-21.35817,0.096324530514761,0.0397147866126308,0.4968869119961381,8.15417,41.07571,177.5674,0.3512728,-0.05913636,0.9333308,10
11.84,-18.44436,1.434959,-21.27231,0.2244844178912899,0.0164808894936203,0.5126091387019391,11.71058,42.36952,177.5985,0.3614056,-0.08756787,0.9265791,10
11.86,-18.54447,1.279211,-21.23034,0.35918180053645,0.0599350818003454,0.5207178462031781,354.4665,42.01696,178.4034,0.3574257,0.05004612,0.9325899,10
11.88,-18.45485,1.443865,-21.14112,0.4871578068749445,0.0800958661826107,0.525895287990747,358.035,43.28937,178.6092,0.3685747,0.02041302,0.9293609,10
11.9,-18.54173,1.29125,-21.11604,0.6084584763479417,0.0985740989287875,0.5334459705289971,352.2372,41.78806,179.0847,0.3553061,0.06608033,0.932262,10
11.92,-18.45431,1.452976,-21.02243,0.7067609756441247,0.0660449861659955,0.5348628557926176,355.8319,43.03544,179.4302,0.3663737,0.0356532,0.9297438,10
11.94,-18.54099,1.28282,-20.96787,0.812722081749035,0.0754340434326597,0.5312454526473744,353.7744,40.7196,179.7722,0.3472992,0.05160005,0.936179,10
11.96,-18.54877,1.270063,-20.92764,0.9104155098582548,0.084053159798894,0.5299009652574629,354.0693,40.32859,180.0182,0.3442594,0.04850654,0.9374484,10
11.98,-18.468,1.433519,-20.83382,0.9854185735569764,0.0416844990893049,0.5236454399333432,357.5739,41.5794,180.4108,0.3549281,0.01851943,0.9346471,10
12.0,-18.38767,1.593281,-20.74298,1.0711112916009018,0.0690106345298065,0.5081393282142468,1.068036,42.85201,180.8794,0.3652062,-0.01147898,0.9308485,10
12.02,-18.57151,1.245931,-20.75301,1.1450249748024492,0.0724724883965172,0.4886424310659105,1.409234,37.90239,181.5781,0.3245472,-0.01610193,0.9456895,10
12.04,-18.49297,1.410716,-20.65376,1.2105383191123171,0.0758737222377759,0.4716444043071934,5.038313,39.19867,181.9452,0.3343654,-0.04708908,0.9412657,10
12.06,-18.5486,1.238037,-20.64176,1.2821591202558211,0.1277672916061374,0.4510517096865087,6.14152,37.62992,182.5625,0.3208355,-0.05789524,0.9453561,10
12.08,-18.47165,1.405418,-20.5429,1.3186716707113244,0.1036702018286262,0.4189503516351895,9.743851,38.9526,182.9213,0.3300634,-0.08851123,0.93979,10
12.1,-18.39492,1.568997,-20.44685,1.3455116291217897,0.0796205022270271,0.3898815601186776,13.33584,40.31418,183.3698,0.3389114,-0.1190193,0.933175,10
12.12,-18.55556,1.208909,-20.50166,1.3693700029659972,0.0749946634581139,0.3516223458477299,13.42842,35.15094,183.5046,0.2963423,-0.1205776,0.9474188,10
12.14,-18.48491,1.383443,-20.40072,1.3950695509333677,0.0987940818351318,0.312049711257031,17.01393,36.50574,183.8303,0.3048975,-0.15076,0.9402589,10
12.16,-18.41416,1.554274,-20.30214,1.410677645437841,0.1218666299808653,0.2748109948096902,20.58977,37.91008,184.2531,0.3131047,-0.1807663,0.9320612,10
12.18,-18.5185,1.18327,-20.36345,1.4152389162422367,0.1170173607878136,0.2279014597670547,17.40119,34.68401,183.8914,0.2895723,-0.1543153,0.944545,10
12.2,-18.45052,1.363892,-20.26361,1.4104378990188566,0.1140849937361437,0.1843204054880352,20.95662,36.04398,184.1789,0.2977149,-0.1839176,0.9365097,10
12.22,-18.50131,1.160867,-20.25311,1.3734103447500163,0.0551541877486343,0.1329770832631696,21.57331,32.31533,184.0801,0.2667921,-0.1893773,0.9447845,10
12.24,-18.48963,1.153182,-20.20805,1.3722179259649878,0.0789488116427773,0.0857407699687824,23.05279,31.76021,184.0329,0.2611784,-0.2015083,0.9437792,10
12.26,-18.42611,1.341951,-20.10928,1.362711279126691,0.1025924280032713,0.0412523348317019,26.55727,33.0679,184.1426,0.2688357,-0.2300565,0.9347744,10
12.28,-18.46798,1.139005,-20.12288,1.3219730639573606,0.0412039348992487,-0.0129176615511759,26.27778,30.96152,184.0157,0.2520926,-0.228038,0.9400415,10
12.3,-18.4068,1.331394,-20.02477,1.3191380974224636,0.064238324831675,-0.0526438648968055,29.74666,32.25373,184.0862,0.2594972,-0.2559963,0.9304149,10
12.32,-18.44272,1.12861,-20.04617,1.296996027133169,0.0307049019862483,-0.0964514152692177,30.02272,30.12656,183.7753,0.2426422,-0.2582435,0.9343978,10
12.34,-18.40867,1.121651,-19.97497,1.2696622503517243,-0.0018169601942594,-0.1358977802369785,34.69936,29.82489,183.3251,0.2371706,-0.2951643,0.9241934,10
12.36,-18.34712,1.319202,-19.87991,1.2779635142302554,0.0517227270411699,-0.1626052379616016,38.11033,30.98989,183.173,0.2437076,-0.3214827,0.912916,10
12.38,-18.33082,1.116957,-19.86323,1.2855034935279868,0.0492974229459394,-0.1883226249487442,39.6069,31.3344,182.7668,0.246129,-0.3322463,0.907849,10
12.4,-18.2669,1.31592,-19.77108,1.2902216709425065,0.0485644076683978,-0.210081798010592,42.98966,32.44936,182.5581,0.2520542,-0.3575395,0.8954566,10
12.42,-18.25509,1.11482,-19.76602,1.2831815508825422,-0.0103097359138641,-0.2316767633323637,43.2599,32.8056,181.8383,0.2567976,-0.3577736,0.8933052,10
12.44,-18.18713,1.113564,-19.67625,1.3004615433021134,0.018824798499029,-0.2378495585102271,46.35952,33.20702,180.4532,0.2611862,-0.3782414,0.8813835,10
12.46,-18.1209,1.313682,-19.58826,1.3146523138925827,0.0473410872495481,-0.240696651329185,49.68492,34.24504,180.1694,0.2665786,-0.4018983,0.8674272,10
12.48,-18.07948,1.109796,-19.53724,1.3384647039836652,0.0466713068506064,-0.2342078162663701,50.66467,33.83603,178.8282,0.2671928,-0.4066397,0.8634064,10
12.5,-18.01108,1.308852,-19.45239,1.3592259328763938,0.0468991097279822,-0.2254015450053232,53.95876,34.75593,178.4156,0.2721298,-0.4292406,0.8485378,10
12.52,-17.95551,1.103595,-19.38647,1.4021269094389264,0.0503601663133665,-0.1931632432196868,56.48875,33.35012,176.303,0.2672709,-0.4449427,0.8390723,10
12.54,-17.82677,1.104253,-19.23276,1.4413135145643143,0.0282764133064258,-0.1574881037468714,61.21734,29.5821,171.3742,0.2561237,-0.4743814,0.8200133,10
12.56,-17.75466,1.295058,-19.15366,1.4757759348211703,0.0653174718383221,-0.1279021185921145,64.4203,29.62812,170.0294,0.2602953,-0.4945598,0.8030375,10
12.58,-17.67054,1.117764,-19.05317,1.504874585405802,0.0520123149377091,-0.0942805816811578,61.83237,26.05354,167.4258,0.2470342,-0.4763735,0.8181319,10
12.6,-17.59663,1.303773,-18.97613,1.528472034242626,0.0367359884187064,-0.0604582414231593,64.95505,25.61243,165.546,0.2513734,-0.4959288,0.8011097,10
12.62,-17.53073,1.143922,-18.89461,1.5457628412787976,0.0561525316721195,-0.0315934060532883,58.42217,26.08407,168.0137,0.2455315,-0.4522757,0.8341667,10
12.64,-17.40995,1.17783,-18.75831,1.5573291401131104,0.0799164054895423,-0.0075600912426638,52.11477,29.70914,171.3734,0.2615892,-0.4060664,0.8574022,10
12.66,-17.33239,1.355445,-18.68194,1.5623887700052856,0.1027356724533608,0.0154570231472366,55.26063,30.116,170.3441,0.2670444,-0.4268798,0.8423616,10
12.68,-17.25731,1.210957,-18.60964,1.5556586412528228,0.0769935685456534,0.0351489338003272,43.18138,34.92817,174.0938,0.2967644,-0.3361695,0.8801087,10
12.7,-17.17261,1.383809,-18.52997,1.5494456187512335,0.1212945676918286,0.047245629477858,46.54105,35.78127,173.5538,0.3029023,-0.3595075,0.8660217,10
12.72,-17.12345,1.238795,-18.49108,1.5246058100987652,0.1176356762744163,0.0515351349560937,32.12236,38.77025,175.4668,0.3290325,-0.2481603,0.9021477,10
12.74,-17.02478,1.257302,-18.39801,1.491386202015726,0.0891423549834072,0.0572876576669458,20.03829,42.11916,176.6974,0.3583902,-0.1520924,0.9167925,10
12.76,-16.9332,1.425571,-18.31693,1.454693583010804,0.12613447187071,0.0533339810314452,23.5352,43.33754,176.6648,0.3668423,-0.1789311,0.9072253,10
12.78,-16.8967,1.267987,-18.27823,1.4149567141211654,0.138234591591421,0.0532043427106416,8.149264,45.82711,177.6278,0.3896292,-0.05739621,0.9179956,10
12.8,-16.80067,1.43483,-18.19859,1.3662764914444108,0.1489753658401763,0.0497801616289059,11.69986,47.07021,177.7153,0.3990154,-0.08550702,0.9110484,10
12.82,-16.78456,1.275539,-18.16572,1.2958289301263013,0.1105716549950771,0.0393129441475856,358.4133,48.43423,178.2411,0.4099141,0.01892134,0.9118901,10
12.84,-16.68356,1.285043,-18.057,1.2492528096358977,0.1183667335606141,0.0488058368977344,353.3288,49.61124,178.782,0.4182454,0.0572645,0.9064069,10
12.86,-16.58499,1.448109,-17.9767,1.1936665636897392,0.1241330430013814,0.0553575506070702,356.9121,50.80856,179.0997,0.4286424,0.02770654,0.9030384,10
12.88,-16.54962,1.29361,-17.92473,1.143202778304908,0.1263360599906875,0.0589435988178181,352.8253,50.76644,179.3471,0.4275016,0.05896683,0.9018289,10
12.9,-16.45086,1.454775,-17.84417,1.084529872179339,0.1269639733531258,0.0590093603911052,356.4013,51.94991,179.7564,0.4377013,0.02915823,0.8985697,10
12.92,-16.46064,1.282883,-17.82774,1.0255333911491658,0.1220380611445431,0.055175902230877,353.7594,51.35787,179.8153,0.4326057,0.04975378,0.8999374,10
12.94,-16.40257,1.262095,-17.75783,0.9542338936951358,0.0914464244251888,0.0477310920731013,355.7328,51.472,180.6024,0.4340944,0.03125546,0.9000825,10
12.96,-16.30548,1.425797,-17.68036,0.9018163312649672,0.1085637370131006,0.042030774754098,359.2694,52.67291,180.9993,0.4436655,0.001844589,0.8961274,10
12.98,-16.30364,1.250093,-17.658,0.8410827116437167,0.1020148262111125,0.032660595303243,359.4227,52.35485,181.408,0.441169,-0.0008992609,0.8973261,10
13.0,-16.20453,1.414346,-17.58057,0.7759853218361876,0.0950267529606114,0.0197186443405801,3.025857,53.57935,181.8148,0.4501299,-0.03070109,0.8924326,10
13.02,-16.23327,1.23771,-17.55143,0.6857907701137416,0.0372653014014068,-0.0069470036634091,6.154229,51.91507,182.6021,0.4358653,-0.05817609,0.8981245,10
13.04,-16.13486,1.404682,-17.47264,0.6206720937686581,0.0273966364937955,-0.0242641485703731,9.784402,53.18388,183.0016,0.4438523,-0.08791502,0.8916539,10
13.06,-16.03739,1.5678,-17.3965,0.5531187382046325,0.0181533953507196,-0.0455512781400109,13.40372,54.494,183.4887,0.45133,-0.1175466,0.8841835,10
13.08,-16.11621,1.217409,-17.41318,0.483518666546989,0.0059941514708771,-0.0685650829471093,11.87699,53.05466,183.3962,0.4412897,-0.105692,0.8908984,10
13.1,-16.01886,1.389695,-17.33659,0.4125535526169548,-0.0051364113569636,-0.0951071514886361,15.47108,54.35939,183.7978,0.4484097,-0.1346704,0.8830364,10
13.12,-16.08662,1.191026,-17.33663,0.3161403256288986,-0.0709143796449409,-0.1353036754243171,16.05956,51.6888,183.7934,0.4272573,-0.139934,0.8926846,10
13.14,-15.99346,1.369581,-17.2591,0.253570165129128,-0.0584000334644636,-0.1559448700406562,19.6164,53.00724,184.1559,0.4339149,-0.168292,0.8840025,10
13.16,-15.90068,1.544537,-17.18359,0.1916219988675875,-0.0467299574905624,-0.1797581888368449,23.1631,54.38126,184.6161,0.4400941,-0.1964595,0.8743688,10
13.18,-15.98518,1.168181,-17.20751,0.1045532560138606,-0.1180471825882874,-0.220807087558803,20.13263,51.04192,184.1216,0.4182625,-0.1728861,0.8906692,10
13.2,-15.8939,1.352654,-17.13109,0.0328714533389995,-0.1360096717269783,-0.2484867187429649,23.66433,52.34933,184.3996,0.4243551,-0.2004551,0.8812093,10
13.22,-15.95716,1.145434,-17.13632,-0.0434604648328305,-0.1808341412384655,-0.2795355215101791,24.59131,47.66534,184.0927,0.3875909,-0.2087705,0.8962499,10
13.24,-15.87026,1.336033,-17.05827,-0.0994313326220821,-0.1672174281965165,-0.2988717432534511,28.09366,48.92122,184.2156,0.3932884,-0.2355549,0.8861268,10
13.26,-15.78313,1.523256,-16.98159,-0.1573620603036682,-0.1803529009956521,-0.319372813063457,31.59165,50.22948,184.433,0.398567,-0.262086,0.8750842,10
13.28,-15.85094,1.128603,-16.99509,-0.2107616255600202,-0.1915244882571784,-0.3407430446040567,30.03405,45.86642,183.7749,0.3682869,-0.2508925,0.8923508,10
13.3,-15.76611,1.323989,-16.91811,-0.2574701456410611,-0.2018081379242572,-0.355090223182575,33.48648,47.04474,183.7382,0.3733684,-0.2764697,0.8813155,10
13.32,-15.7831,1.118715,-16.89701,-0.3001894301337755,-0.2387667950406837,-0.3699415095676372,37.36872,43.12741,183.0303,0.340166,-0.3070346,0.8838013,10
13.34,-15.7001,1.317186,-16.82064,-0.3228601152491182,-0.2161117580064263,-0.3677407158160857,40.77039,44.15525,182.7648,0.344433,-0.3311947,0.8715456,10
13.36,-15.61653,1.512492,-16.74525,-0.3439090054037046,-0.2198054655839225,-0.3666957752283759,44.17429,45.21739,182.5695,0.3483503,-0.35502,0.8584307,10
13.38,-15.62787,1.114902,-16.7368,-0.3586158010404674,-0.2220227354548279,-0.3654589302417879,43.26428,44.12443,181.8035,0.3437388,-0.3471051,0.8635761,10
13.4,-15.54547,1.314838,-16.66209,-0.3696912166916626,-0.2230412084614662,-0.3596590829812249,46.62785,45.13052,181.5408,0.3474576,-0.3701753,0.8500097,10
13.42,-15.52038,1.112878,-16.61444,-0.3704449011406567,-0.2518573606649217,-0.3474670459591522,48.04856,43.07156,179.5791,0.3366718,-0.3774678,0.8490546,10
13.44,-15.43871,1.313056,-16.54121,-0.3575617284715955,-0.2213374754096913,-0.3224310115161977,51.36204,43.94336,179.163,0.3401166,-0.3994116,0.8345577,10
13.46,-15.35642,1.510241,-16.46886,-0.3369742188354307,-0.2181267520529464,-0.2934784546385887,54.67802,44.84189,178.8007,0.3432314,-0.4209688,0.8192768,10
13.48,-15.29238,1.103624,-16.38762,-0.3110096043842929,-0.2146044065859605,-0.2647087541391315,56.49268,41.85541,176.2823,0.328829,-0.4316039,0.816892,10
13.5,-15.21012,1.299381,-16.31791,-0.2762106698934765,-0.2073093323897912,-0.2278367022851855,59.7576,42.41813,175.549,0.3314839,-0.4518928,0.8007425,10
13.52,-15.04773,1.108963,-16.14914,-0.2283443629886561,-0.224140180151895,-0.180896487418475,62.64375,34.19793,167.968,0.3018638,-0.4678064,0.7959846,10
13.54,-14.96283,1.117771,-16.06611,-0.1745970053859806,-0.1831472580155922,-0.1322324785275912,61.83101,33.12001,167.3799,0.2971699,-0.4626041,0.8012643,10
13.56,-14.87973,1.303877,-15.99934,-0.1251980977625051,-0.1623796228568732,-0.0912469545040453,64.94487,32.56091,165.4331,0.2999367,-0.4812223,0.7842045,10
13.58,-14.79876,1.143988,-15.90723,-0.0732146329968306,-0.1422990298461138,-0.0517097974759681,58.42118,32.63609,167.9173,0.2931699,-0.4399506,0.8185883,10
13.6,-14.71374,1.325619,-15.84115,-0.0228136979861415,-0.1168648109530647,-0.0214789491484179,61.51926,32.26706,166.1291,0.2963626,-0.458867,0.8022768,10
13.62,-14.65749,1.177905,-15.76726,0.0280426220833027,-0.1151179258419383,-0.0042495951450538,52.11773,35.85622,171.277,0.307516,-0.3957235,0.8419641,10
13.64,-14.53316,1.211001,-15.65096,0.0832275509131195,-0.0647533480934716,0.0123077499098185,43.21102,39.60767,173.979,0.332757,-0.3294156,0.8669956,10
13.66,-14.4406,1.384002,-15.58021,0.1374168693309658,-0.0376479750204699,0.0107020162353652,46.56565,40.31195,173.3105,0.3376265,-0.3519641,0.852895,10
13.68,-14.38024,1.238914,-15.5265,0.1905103260209861,-0.0348931914610183,-0.0071497672296916,32.123,43.23809,175.3673,0.3641582,-0.2426866,0.8885156,10
13.7,-14.28099,1.408005,-15.45308,0.2449582305487381,0.01293839857977,-0.024544181428395,35.66447,44.20185,174.9905,0.370221,-0.2678064,0.8761322,10
13.72,-14.26319,1.25699,-15.423,0.2893522119228944,0.0119663949259497,-0.0543221009679355,20.10907,46.40044,176.6026,0.3924817,-0.1488982,0.9025813,10
13.74,-14.17249,1.268251,-15.33059,0.342844318700642,0.0330901558457318,-0.0840235565504061,8.14901,48.86242,177.5782,0.4138301,-0.05595864,0.9073337,10
13.76,-14.07223,1.435411,-15.25754,0.3937064286123723,0.0752938294398193,-0.1158591293138544,11.68011,50.03889,177.6132,0.4225599,-0.0834213,0.9003695,10
13.78,-14.04308,1.275608,-15.20764,0.4373851074454025,0.0691253383474205,-0.157699371304943,358.4245,51.40091,178.2236,0.4333811,0.01910858,0.9009726,10
13.8,-13.94131,1.441084,-15.13409,0.4867346146405449,0.1084318248213126,-0.1935211579382287,1.98551,52.56968,178.4109,0.4429403,-0.009393098,0.8962765,10
13.82,-13.92461,1.285058,-15.08781,0.531745372712352,0.0999796174932123,-0.2398952979221844,353.3306,52.52956,178.7739,0.4411874,0.05688705,0.8954645,10
13.84,-13.82788,1.293649,-14.98032,0.5843657800985984,0.136779099011896,-0.2786767006198738,352.8252,52.55785,179.3224,0.4415344,0.05871627,0.8950407,10
13.86,-13.72656,1.45486,-14.90314,0.6316343016395003,0.1929784977353204,-0.3215337453192148,356.4037,53.68654,179.7048,0.4512556,0.02915997,0.8918393,10
13.88,-13.72219,1.282886,-14.87045,0.6522796060328702,0.1722339251341432,-0.3749776339684998,353.7603,53.20149,179.8083,0.4470251,0.04941164,0.8928629,10
13.9,-13.62249,1.444926,-14.79468,0.6771926547334821,0.1966651399575098,-0.4242310039086034,357.2935,54.33138,180.2234,0.4564781,0.02012156,0.8894193,10
13.92,-13.64858,1.262127,-14.78725,0.6932143168654257,0.1702505570086375,-0.4883259096870371,355.7271,53.37956,180.5984,0.4490153,0.03096323,0.8927309,10
13.94,-13.58729,1.250142,-14.71074,0.719823894727825,0.1918148602407881,-0.5420870222346184,359.4171,53.23053,181.3867,0.4480138,-0.0008736458,0.8939304,10
13.96,-13.48695,1.414427,-14.63502,0.7468613837422811,0.2382278474275733,-0.5936883616946773,3.0231,54.3975,181.7695,0.4565028,-0.03051423,0.8891972,10
13.98,-13.50057,1.240316,-14.61251,0.7439328381749748,0.2099837062801627,-0.6534461487241099,4.003853,53.7778,182.0941,0.4513412,-0.03941055,0.8914809,10
14.0,-13.39969,1.406111,-14.53625,0.7438850415620708,0.2066238550751675,-0.7133977232647777,7.646351,54.97573,182.5021,0.4591324,-0.06919093,0.8855956,10
14.02,-13.44097,1.232107,-14.53219,0.7298366909817224,0.1770378928810025,-0.7732673370108518,8.228027,53.72363,182.9035,0.4489099,-0.07539779,0.8903359,10
14.04,-13.41127,1.217484,-14.47368,0.729680964101185,0.1981971730865805,-0.8241759815589405,11.87364,53.40155,183.3755,0.4440059,-0.1055252,0.8895573,10
14.06,-13.31343,1.389851,-14.39806,0.7066915772127469,0.1667637119791895,-0.8817690932401958,15.46642,54.64362,183.7521,0.450656,-0.1343747,0.8819127,10
14.08,-13.35071,1.199708,-14.39604,0.6792550345864588,0.1359137980043531,-0.9373262280513296,14.74127,53.83077,183.6956,0.4450118,-0.1288071,0.8857208,10
14.1,-13.25446,1.376183,-14.3213,0.6534524114057783,0.1270661506182564,-0.9870148342620482,18.30789,55.08981,184.0763,0.4512488,-0.157203,0.8774195,10
14.12,-13.32453,1.175852,-14.31809,0.6149498307365173,0.0928446087896001,-1.0429285884016146,18.71443,50.99527,184.0605,0.4192803,-0.1617089,0.8925135,10
14.14,-13.23281,1.358447,-14.2414,0.5975776381203379,0.1145843118575658,-1.0843430122540685,22.25421,52.24118,184.339,0.4251165,-0.1895052,0.8835757,10
14.16,-13.14132,1.537528,-14.16645,0.5586124118718292,0.0804285726400116,-1.129541419302091,25.78622,53.53971,184.7104,0.4304946,-0.2170925,0.8737081,10
14.18,-13.22838,1.153055,-14.19028,0.5085484850907906,0.0195464738932995,-1.1769411495663862,23.05804,49.48449,184.0851,0.4033621,-0.1960179,0.8922918,10
14.2,-13.22198,1.145478,-14.17012,0.4828170984740971,0.0412177277119995,-1.2056486885098985,24.58604,48.50439,184.0841,0.3941638,-0.2082986,0.8933918,10
14.22,-13.18687,1.132709,-14.10738,0.4367505061209675,0.0070728886992582,-1.240037890137102,28.03196,46.44163,183.9722,0.3745941,-0.2356968,0.894406,10
14.24,-13.10094,1.326802,-14.03027,0.4068741292770979,0.0036664335477462,-1.2587298672731406,31.51371,47.57996,183.9634,0.3794024,-0.2617582,0.8839073,10
14.26,-13.11101,1.124783,-14.00976,0.37791264475057,0.0021010815813664,-1.2727733781348056,32.06175,45.07563,183.5788,0.3602439,-0.2664432,0.8905822,10
14.28,-13.02657,1.32158,-13.93366,0.3370323932188301,-0.0570324178051247,-1.2893129946892687,35.49409,46.1426,183.4468,0.3646248,-0.2915332,0.8794318,10
14.3,-13.03618,1.118699,-13.91776,0.319962039096026,-0.0296289173751269,-1.2878959534991596,37.35834,44.03275,183.0404,0.3471239,-0.3062304,0.8811207,10
14.32,-12.96528,1.115554,-13.84394,0.2912288829705796,-0.0590809551545748,-1.289827937674168,41.82548,43.91395,182.3831,0.3423192,-0.3382463,0.8689565,10
14.34,-12.88233,1.315302,-13.76972,0.2776394664046901,-0.0569944206587494,-1.27755465437782,45.19347,44.84085,182.0781,0.3456215,-0.361525,0.8559625,10
14.36,-12.85934,1.114348,-13.73041,0.2666935491687485,-0.0536619655685814,-1.260125935492244,44.6652,44.93716,181.2038,0.349803,-0.354832,0.8562552,10
14.38,-12.77701,1.314541,-13.65705,0.2507689541107254,-0.1092101454008421,-1.2409577545393813,48.00568,45.89324,180.957,0.3530184,-0.3775541,0.8425321,10
14.4,-12.75982,1.112854,-13.63318,0.2512082783115477,-0.077688290673964,-1.207119804496527,48.03984,44.06548,179.5923,0.3439914,-0.3761053,0.8461491,10
14.42,-12.64947,1.107091,-13.52135,0.2496221701290324,-0.1041836428648091,-1.1694657666769934,53.2733,43.15306,177.7449,0.3368548,-0.4103658,0.8278265,10
14.44,-12.56711,1.305243,-13.45139,0.2673823678506968,-0.0992563806925605,-1.114077890082366,56.54784,43.80804,177.163,0.3393238,-0.4312243,0.8124912,10
14.46,-12.46826,1.102129,-13.35775,0.2874924831454744,-0.0945962435766222,-1.0547597224003835,59.64056,41.48671,174.1406,0.3306521,-0.4487322,0.8012869,10
14.48,-12.38443,1.29561,-13.29143,0.3094947117806688,-0.1452254347653019,-0.9880826626327432,62.86987,41.69938,173.096,0.332476,-0.468209,0.7847376,10
14.5,-12.30024,1.108956,-13.20392,0.3357859921651105,-0.1093948741821153,-0.9195037339231966,62.63086,35.44469,168.003,0.3103721,-0.465196,0.792786,10
14.52,-12.15679,1.128648,-13.0658,0.3719006756780116,-0.1220329357038588,-0.8397042939563646,60.96734,32.55199,166.8216,0.2958081,-0.4560304,0.8054573,10
14.54,-12.07192,1.312602,-13.00089,0.3968284358726348,-0.080126071288119,-0.77230494494095,64.04748,31.8219,164.7305,0.2981173,-0.474555,0.7888058,10
14.56,-11.9803,1.161396,-12.90906,0.4210418025262392,-0.0138298122218909,-0.7057588762849767,55.80917,34.38522,168.8625,0.3033694,-0.4196302,0.8268318,10
14.58,-11.89333,1.340906,-12.84497,0.4418793517865962,-0.0195273294607647,-0.6352091848223997,58.90411,34.1649,167.2674,0.3063244,-0.4387421,0.8112035,10
14.6,-11.82046,1.195129,-12.81265,0.4584255651457647,0.0011635089834452,-0.569240895817605,48.35558,40.80191,173.2535,0.3400458,-0.3645028,0.8451753,10
14.62,-11.74149,1.209587,-12.83079,0.4770594207643359,-0.0006182494322596,-0.4982946327161508,43.40521,42.56873,173.9543,0.3549673,-0.3263011,0.8574581,10
14.64,-11.64136,1.380888,-12.7608,0.4998090568644338,0.0433036909342517,-0.4271190180101978,46.93709,43.1933,173.256,0.3588182,-0.3497885,0.842786,10
14.66,-11.51763,1.249762,-12.75457,0.5068982019296946,0.0598530786828495,-0.3657879411560987,26.29203,48.45028,176.0561,0.4064704,-0.1935336,0.8843046,10
14.68,-11.43265,1.257381,-12.79693,0.5123198559740072,0.07474458896466,-0.3045614250150517,20.07005,50.2476,176.6381,0.4225281,-0.1454328,0.8889875,10
14.7,-11.33017,1.42577,-12.7305,0.5074396356275872,0.0866051635144052,-0.2455056516478797,23.56555,51.32708,176.5381,0.4293263,-0.1711676,0.8792863,10
14.72,-11.2945,1.268013,-12.74572,0.4896100423884086,0.0739427896242472,-0.1909614248094431,8.168707,53.82148,177.606,0.4526808,-0.05406736,0.8885806,10
14.74,-11.16082,1.275542,-12.71914,0.481186204601985,0.1061129098058832,-0.1304825479668936,358.4374,56.10849,178.2257,0.470021,0.0193133,0.8824144,10
14.76,-11.0536,1.440955,-12.65369,0.4663750416181775,0.1141817779148538,-0.0690930055289322,2.004399,57.22255,178.4119,0.4789583,-0.008718137,0.8775544,10
14.78,-10.98075,1.285026,-12.6539,0.4483339613250958,0.1199705076159215,-0.0086294326153923,353.3311,57.79421,178.7838,0.4818524,0.05603946,0.8742559,10
14.8,-10.87257,1.448102,-12.58765,0.436842232540567,0.1691296280396723,0.0536259456922751,356.9148,58.87871,179.0967,0.4911238,0.02731657,0.8706381,10
14.82,-10.77047,1.296043,-12.59565,0.3991321890062136,0.1424125763801939,0.1107440152947725,353.4427,57.49427,179.5368,0.4799512,0.0520838,0.8754199,10
14.84,-10.66384,1.456919,-12.52733,0.3699216234607876,0.1608353325335932,0.170340458491347,356.9997,58.57096,179.9231,0.4889784,0.02316164,0.8719029,10
14.86,-10.55872,1.613923,-12.4617,0.3371042681387133,0.1991414396434495,0.2227229822662695,0.5478265,59.66905,180.3754,0.497475,-0.005776913,0.8674592,10
14.88,-10.60146,1.262142,-12.4684,0.2790076938610536,0.1619800475762005,0.2637428044654979,355.7233,58.69646,180.6144,0.4899426,0.02989728,0.8709397,10
14.9,-10.49658,1.425911,-12.4028,0.2201450360647221,0.1487166258599556,0.3035761920304196,359.2529,59.7844,181.0165,0.4983897,0.001231251,0.8668834,10
14.92,-10.41627,1.245813,-12.44099,0.1509342825507287,0.1102756454112538,0.3418273502987117,1.401084,58.2682,181.6142,0.4866202,-0.01753573,0.8734147,10
14.94,-10.3097,1.410455,-12.3731,0.097172277709461,0.1217892350911819,0.3878829413518041,5.036009,59.39369,182.0079,0.4941879,-0.04682915,0.8680684,10
14.96,-10.20453,1.571228,-12.30773,0.028530517045653,0.10888026780953,0.4239294384629601,8.661354,60.55188,182.4766,0.5011989,-0.07606229,0.8617634,10
14.98,-10.27048,1.23207,-12.30564,-0.0425873564493011,0.0961319499737485,0.4575892487329698,8.225717,58.954,182.9125,0.4890616,-0.07489014,0.868928,10
15.0,-10.21056,1.226385,-12.30735,-0.1208095767296086,0.0806874428445657,0.4855921360291027,10.29836,58.66433,183.1891,0.485529,-0.091789,0.8691636,10
15.02,-10.17044,1.208835,-12.25389,-0.2105584553010797,0.038763864564407,0.5092492364336032,13.412,58.72265,183.568,0.4835567,-0.1168849,0.8669453,10
15.04,-10.06747,1.383257,-12.18731,-0.2812733125949345,0.0478191724652712,0.541192281451981,16.99121,59.92038,183.9487,0.4892157,-0.1449327,0.8588994,10
15.06,-10.0923,1.190991,-12.17936,-0.3430572424156833,0.0834270628945202,0.573184463794127,16.05509,59.12258,183.8165,0.4842042,-0.1376709,0.8631217,10
15.08,-9.990881,1.369517,-12.11364,-0.4326287104705628,0.0381184537640456,0.5896569015576032,19.60923,60.33447,184.1959,0.4894643,-0.1652543,0.8544964,10
15.1,-10.02868,1.175771,-12.11703,-0.5025042591904868,0.0474134932622839,0.6150696940932661,18.70777,58.2426,184.1044,0.4747967,-0.159091,0.8642552,10
15.12,-9.995441,1.168298,-12.11464,-0.5721413382039517,0.0559012823324527,0.6384978174595646,20.11108,56.97615,184.1109,0.4638427,-0.1702071,0.8678455,10
15.14,-9.897409,1.352888,-12.04846,-0.6421068712506974,0.0355601471052808,0.6605052310792658,23.62883,58.16511,184.37,0.4686044,-0.1969379,0.8585794,10
15.16,-9.936483,1.145456,-12.03166,-0.7099190893942731,0.0171555298303027,0.681018059889273,24.58457,54.33088,184.0946,0.4390428,-0.20523,0.8722127,10
15.18,-9.905754,1.139052,-12.00637,-0.775995896561012,-0.0025025288367862,0.6996790572568521,26.27036,53.2609,184.0128,0.4291272,-0.2182997,0.873561,10
15.2,-9.812221,1.331447,-11.9389,-0.8140286184225969,0.0574780811031341,0.7306943431086792,29.74448,54.37603,184.0682,0.4332238,-0.2438368,0.8633348,10
15.22,-9.855059,1.128711,-11.94109,-0.866090693790624,0.0334437969779762,0.7524893706982354,30.00908,51.21755,183.7472,0.4096313,-0.2469881,0.8742139,10
15.24,-9.807869,1.121749,-11.88044,-0.905806509347061,0.0418864205664352,0.7755074431793747,34.71877,49.19454,183.2738,0.3893672,-0.2825272,0.8710347,10
15.26,-9.717823,1.319455,-11.81255,-0.9496784745847168,-0.0065458142047305,0.7928902674126683,38.12825,50.15087,183.0558,0.3925359,-0.3064173,0.8594602,10
15.28,-9.714945,1.117104,-11.79408,-0.9812339621437552,-0.0236578989711745,0.8124043809028154,39.59398,48.89148,182.7081,0.3819788,-0.317441,0.8596232,10
15.3,-9.625591,1.316231,-11.72709,-1.0073109287496251,-0.0391613302966027,0.8308879819756574,42.97466,49.78517,182.4203,0.3845594,-0.3404637,0.8471218,10
15.32,-9.631416,1.114954,-11.71791,-1.017496146557543,-0.0533732948111588,0.8580598440790363,43.2487,48.7505,181.7811,0.3784011,-0.341593,0.8490171,10
15.34,-9.558263,1.113688,-11.64488,-1.0199590878830986,-0.0358885859747696,0.8840774393565518,46.3452,47.74454,180.4003,0.3707903,-0.3611356,0.8412268,10
15.36,-9.471534,1.313953,-11.57782,-1.0203255224420449,-0.0762304643373633,0.907549341144092,49.6675,48.55496,180.0372,0.3730124,-0.3829662,0.8273289,10
15.38,-9.43528,1.109933,-11.53354,-1.0061122432614795,-0.0571395422240218,0.9340296300639124,50.64199,46.94587,178.7736,0.3642259,-0.3884214,0.8272539,10
15.4,-9.348925,1.30914,-11.46782,-0.9867707630255148,-0.0954651625073529,0.9605159786987644,53.93246,47.62916,178.2746,0.3660825,-0.4093903,0.812539,10
15.42,-9.296198,1.103717,-11.41041,-0.9519095705956108,-0.0748555199611462,0.9913684752276688,56.46072,45.2392,176.2533,0.3529553,-0.4253216,0.8068994,10
15.44,-9.152408,1.104418,-11.28154,-0.9067332240631896,-0.0771094012887412,1.0277514068960496,61.21301,40.38574,171.2561,0.3326542,-0.4538075,0.7920356,10
15.46,-9.066189,1.295389,-11.21883,-0.8565973392582693,-0.0797491774022743,1.0600668516900762,64.40275,40.12761,169.758,0.3338166,-0.4726461,0.7753359,10
15.48,-8.979998,1.117919,-11.13093,-0.8051715738090958,-0.0748697213527287,1.0882095521965525,61.81794,35.82238,167.3154,0.3162463,-0.4566396,0.7939538,10
15.5,-8.893634,1.304108,-11.06886,-0.7495659650472046,-0.0704832533227165,1.1118151713249924,64.92117,35.07523,165.2803,0.3177158,-0.4749858,0.7771959,10
15.52,-8.747334,1.161319,-10.95078,-0.6839560043938032,-0.0569668386315612,1.1397649218682904,55.81957,36.448,168.8629,0.3181961,-0.4156874,0.8211953,10
15.54,-8.65847,1.340848,-10.88968,-0.6238421341832594,-0.019141666679756,1.1510780893643566,58.91346,36.17356,167.2663,0.3204956,-0.434606,0.8056669,10
15.56,-8.570121,1.517529,-10.83019,-0.5617474958787814,-0.0286422158494646,1.1564292345588143,62.00068,35.68764,165.479,0.3225097,-0.4531416,0.7894427,10
15.58,-8.499653,1.211412,-10.75122,-0.4969739891449078,0.0089006611966641,1.152040075340202,43.16684,43.58329,174.0045,0.3625933,-0.3230482,0.8551105,10
15.6,-8.436255,1.226846,-10.70353,-0.4294445979419414,0.043231605427582,1.1411836898158487,38.08529,44.76022,174.7134,0.3734439,-0.2847771,0.8674171,10
15.62,-8.322309,1.250118,-10.61359,-0.370020773263662,0.0533651251187859,1.121461999685668,26.26498,47.70889,176.0153,0.4008242,-0.1939771,0.8869244,10
15.64,-8.220115,1.418801,-10.54574,-0.3079826205334921,0.064125658425115,1.1106375157809572,29.78055,48.64938,175.7496,0.4064846,-0.2192338,0.876096,10
15.66,-8.183676,1.263409,-10.5018,-0.2451651045728815,0.0737382412996214,1.0932748261996,13.95775,51.00116,177.1932,0.4298883,-0.09916785,0.894344,10
15.68,-8.07982,1.430843,-10.43373,-0.1858472099336212,0.124117866983495,1.0782282772557077,17.50852,52.05173,177.1465,0.4369361,-0.1259232,0.8861896,10
15.7,-8.066902,1.271786,-10.3961,-0.138909987142258,0.1261725468089873,1.0679606947007616,2.456794,53.49509,177.9655,0.4502257,-0.01115289,0.892481,10
15.72,-8.034609,1.275447,-10.35474,-0.0924890164329651,0.1267701915820299,1.052554419550105,358.4615,53.8072,178.2213,0.4522097,0.01899342,0.8916757,10
15.74,-7.93013,1.440766,-10.28463,-0.0373635596839878,0.1714159757492529,1.043590108812901,2.038556,54.86806,178.4012,0.4608296,-0.009359886,0.887201,10
15.76,-7.860201,1.291307,-10.18401,0.0115288015966782,0.2348270793953132,1.034853683114355,352.2377,54.66875,179.0687,0.4576258,0.06385074,0.8865281,10
15.78,-7.75561,1.453166,-10.11135,0.0423809136211146,0.2021244577053879,1.021833708843946,355.8283,55.6938,179.3851,0.4666217,0.03468649,0.8836917,10
15.8,-7.65242,1.6111,-10.04135,0.0755038737469251,0.2147259476088024,1.013897768162479,359.4117,56.73492,179.7648,0.4751081,0.005493146,0.8799103,10
15.82,-7.70361,1.270148,-9.994192,0.095029400285863,0.1750156211792443,0.9982257699232484,354.0784,53.73782,179.9839,0.451341,0.04613972,0.8908556,10
15.84,-7.603947,1.433552,-9.920941,0.1054147008376068,0.1566444527945582,0.9854748190714276,357.5976,54.76739,180.3311,0.4598979,0.0172857,0.8877198,10
15.86,-7.505534,1.593256,-9.850243,0.112305958038707,0.13786748055136,0.9684123862718872,1.10835,55.81646,180.7417,0.4679698,-0.01157632,0.8836679,10
15.88,-7.55128,1.250345,-9.83637,0.115058719865424,0.1158983678776707,0.9467830447254988,359.3872,54.05959,181.3786,0.4544717,-0.0007039956,0.890664,10
15.9,-7.530587,1.245895,-9.798291,0.1125388733347801,0.0941741568786141,0.918828355681483,1.390201,53.7381,181.6051,0.4517238,-0.0171505,0.8919656,10
15.92,-7.482483,1.237988,-9.719111,0.1072581645100315,0.0723986831576274,0.8875964560494718,6.124049,53.1491,182.5814,0.4455337,-0.05782409,0.8933879,10
15.94,-7.383776,1.405307,-9.64272,0.1020579302947135,0.0987459532358622,0.8680489209989786,9.728925,54.24945,182.9498,0.4521937,-0.08714044,0.8875118,10
15.96,-7.410034,1.226628,-9.620139,0.0672068464427307,0.047992522638662,0.8333463057345776,10.28183,53.06321,183.159,0.4425157,-0.09240166,0.8918539,10
15.98,-7.312451,1.397269,-9.54458,0.0178170094578844,-0.0282099050855532,0.7883920188438678,13.86201,54.18229,183.5014,0.448586,-0.1211953,0.8850437,10
16.0,-7.363913,1.209113,-9.545532,-0.0097541350923238,-0.0300374354685174,0.7505123494662876,13.38154,53.03621,183.5338,0.4400145,-0.1178762,0.8898808,10
16.02,-7.336572,1.191291,-9.484991,-0.049564411522614,-0.0593802778338499,0.7134010768884216,16.02629,52.3451,183.762,0.4324276,-0.1393766,0.8902465,10
16.04,-7.243406,1.370129,-9.409461,-0.0824042893139493,-0.058548908060665,0.6768278562025439,19.55851,53.48704,184.0815,0.4377761,-0.1673788,0.8822173,10
16.06,-7.150721,1.54544,-9.335753,-0.1178534598449361,-0.058243111690052,0.6384870464505203,23.08278,54.67705,184.4849,0.4426624,-0.1951993,0.8732764,10
16.08,-7.24557,1.168385,-9.352157,-0.1374620229000016,-0.0069716329430906,0.6067180108661855,20.10851,50.61556,184.0822,0.4150275,-0.1727164,0.8922345,10
16.1,-7.155082,1.353044,-9.276126,-0.1924707707193941,-0.0650717495795407,0.5528732439223217,23.62822,51.74092,184.3082,0.4198689,-0.200142,0.8834582,10
16.12,-7.064786,1.534262,-9.201636,-0.2283708601286923,-0.0662806401145117,0.5090424176643527,27.142,52.91403,184.6183,0.4242713,-0.227354,0.8737783,10
16.14,-7.151085,1.139086,-9.196136,-0.2696476669356,-0.0947443873744475,0.4680563297351565,26.28096,46.81128,183.9915,0.3793364,-0.221978,0.8962887,10
16.16,-7.065189,1.331504,-9.118856,-0.3188130062565195,-0.1486577147722943,0.4221413408633248,29.7663,47.86318,184.021,0.3835592,-0.2483767,0.8864778,10
16.18,-6.979097,1.520615,-9.042734,-0.3479964449602012,-0.1424375989000558,0.3844592235082313,33.24925,48.95641,184.1286,0.3873902,-0.2745176,0.8757799,10
16.2,-6.892975,1.706468,-8.967907,-0.3669776059546564,-0.106567632605882,0.3538569406071703,36.72877,50.10421,184.3236,0.3908248,-0.3003756,0.8642069,10
16.22,-7.013038,1.121767,-9.002225,-0.4023957137848769,-0.156116932110361,0.3114332520646914,34.69529,43.12156,183.2884,0.3426712,-0.2872557,0.8905027,10
16.24,-6.930535,1.319398,-8.924611,-0.4162337369075922,-0.1456074567482058,0.2809851893829125,38.12583,44.03109,183.079,0.3460385,-0.3122002,0.8792145,10
16.26,-6.911224,1.115565,-8.877954,-0.4212456783930056,-0.1047825472155614,0.2534052360134869,41.83525,41.90961,182.3818,0.32706,-0.3402836,0.8747817,10
16.28,-6.878322,1.114928,-8.83509,-0.4343629303238091,-0.1499679774947412,0.2220329068330961,43.23744,41.64883,181.7936,0.3250675,-0.349491,0.8708694,10
16.3,-6.799654,1.314946,-8.757993,-0.4388115326654943,-0.1632147466890787,0.1943993163752444,46.58082,42.47456,181.5033,0.3278506,-0.3728731,0.8579403,10
16.32,-6.744693,1.112875,-8.672926,-0.4404989106551523,-0.174573053107957,0.1693037279471662,48.04245,40.30052,179.586,0.3160279,-0.3810198,0.8569759,10
16.34,-6.666935,1.313073,-8.596197,-0.4255155915351355,-0.1278501014295788,0.1551640022955489,51.35596,41.00365,179.1593,0.3186181,-0.4035406,0.8430238,10
16.36,-6.614721,1.107115,-8.526032,-0.4008778962693344,-0.1385700015749331,0.1531541044753788,53.2628,39.41894,177.7432,0.3097232,-0.4159696,0.8383988,10
16.38,-6.537154,1.305297,-8.451142,-0.3737024334632021,-0.1483412557705987,0.152660686030146,56.53832,39.9542,177.1429,0.3119009,-0.4374766,0.8234469,10
16.4,-6.464983,1.102183,-8.360765,-0.3367898573398112,-0.1003250577487395,0.1568569062518064,59.61845,36.89079,174.1224,0.2983524,-0.4568793,0.8139623,10
16.42,-6.386623,1.295745,-8.288461,-0.2870860949875771,-0.1323487216513959,0.181369294183915,62.84456,36.95369,173.0258,0.300019,-0.4771025,0.7978115,10
16.44,-6.248094,1.117857,-8.115168,-0.2310651927831377,-0.1296429532447436,0.2095638440215231,61.82541,28.70927,167.274,0.2665535,-0.4710532,0.8119297,10
16.46,-6.169679,1.304119,-8.043304,-0.1824624795420991,-0.0979502131826155,0.2285552283969583,64.92494,27.85487,165.1752,0.2685959,-0.4904142,0.7954278,10
16.48,-6.097637,1.144006,-7.944929,-0.133569044510422,-0.0677504673085419,0.2474495982165699,58.42329,28.03742,167.8541,0.2603389,-0.448476,0.8295679,10
16.5,-6.018352,1.325801,-7.872931,-0.0870811923842683,-0.0559775506964906,0.2662429072733326,61.50355,27.43461,165.9797,0.2628893,-0.4681509,0.8138397,10
16.52,-5.895214,1.1952,-7.713721,-0.0406932173503328,-0.0443034991965393,0.284842525287666,48.36407,33.55803,173.1523,0.2863018,-0.3757691,0.8647886,10
16.54,-5.813912,1.371427,-7.640774,-0.0038783625924588,0.0130906303934629,0.2945684542197682,51.51418,33.88722,172.2521,0.2899605,-0.3970104,0.8510247,10
16.56,-5.735815,1.226924,-7.563662,0.0340271189608218,0.0014847104639483,0.308793123402849,38.08319,37.10659,174.6821,0.3148009,-0.2950122,0.8903733,10
16.58,-5.643321,1.396835,-7.482607,0.0646567447731983,-0.0349582387710093,0.3187828332818732,41.62399,37.74104,174.0863,0.3192675,-0.3201631,0.8774049,10
16.6,-5.551628,1.563057,-7.403831,0.0967836433282726,-0.0026784025349587,0.3263997788427855,45.1692,38.36101,173.511,0.3233935,-0.3449779,0.8635198,10
16.62,-5.548483,1.256522,-7.373584,0.1286437638063216,0.0056144910890683,0.3387491107491207,20.19426,42.0158,176.5861,0.3576628,-0.1530783,0.9167926,10
16.64,-5.465981,1.267878,-7.273996,0.1553580391173444,0.0353398467771224,0.3469358929624532,8.22435,44.35368,177.5674,0.3778196,-0.05839774,0.9228568,10
16.66,-5.371727,1.434631,-7.191824,0.1777702608078011,0.0625433560486666,0.3535922552862768,11.79641,45.36898,177.5841,0.3855282,-0.08670385,0.9167189,10
16.68,-5.278399,1.597581,-7.112115,0.1940483553791021,0.0652799878786128,0.3587656866785162,15.36659,46.39975,177.6666,0.3928244,-0.1149114,0.9096234,10
16.7,-5.283294,1.279055,-7.068127,0.198718962102817,0.0447522649178523,0.3591028810775561,354.511,47.58825,178.4377,0.4023541,0.04930159,0.9141302,10
16.72,-5.18824,1.443628,-6.985692,0.2122611113491419,0.0704289484914081,0.363614430947554,358.0833,48.58318,178.6612,0.4111169,0.02004909,0.9113545,10
16.74,-5.094211,1.604356,-6.905834,0.224216225678382,0.0710447682972617,0.3711926727237468,1.650143,49.59087,178.9464,0.4194388,-0.009216161,0.9076231,10
16.76,-5.001418,1.76141,-6.828698,0.2314301454427072,0.0706846282855444,0.3781513108205557,5.210318,50.6191,179.2955,0.4273114,-0.03846355,0.9029408,10
16.78,-5.013832,1.282839,-6.743018,0.2382370263592267,0.1132019070836708,0.3793600498840455,353.7841,48.31066,179.7627,0.4085066,0.05031594,0.9111415,10
16.8,-4.920556,1.444674,-6.658664,0.2388708867755281,0.1513604484375204,0.3781952928029614,357.3458,49.28788,180.1262,0.416889,0.02059203,0.9086617,10
16.82,-4.899217,1.25467,-6.596588,0.2075390456245232,0.0895511943539149,0.3587216819067317,357.4081,48.4966,181.1511,0.4107732,0.01649646,0.9114017,10
16.84,-4.852112,1.249837,-6.537325,0.1938512652245399,0.1005190141227569,0.3419848125030466,359.4376,48.83199,181.3917,0.4133775,-0.0005509593,0.9104657,10
16.86,-4.758299,1.413722,-6.452439,0.162427705878305,0.0618138194742214,0.3186493326101047,3.079418,49.84267,181.7718,0.4207943,-0.03087771,0.9066265,10
16.88,-4.665536,1.573719,-6.3702,0.1168100412563239,-0.0016123728023446,0.2873986319260831,6.713548,50.88214,182.2185,0.4277416,-0.06116712,0.9017965,10
16.9,-4.732737,1.237554,-6.37549,0.0886560754885232,0.0088750179698543,0.2643396414182259,6.154279,49.24808,182.6088,0.4148429,-0.05825734,0.9080248,10
16.92,-4.639357,1.404321,-6.290611,0.0534266418084167,-0.0070319982600382,0.2387623271476636,9.80394,50.3026,183.0062,0.421281,-0.08843049,0.9025202,10
16.94,-4.546915,1.567216,-6.208234,0.0227791620689985,0.0047314868548942,0.2123944724581283,13.44452,51.39597,183.4776,0.4272475,-0.1184975,0.8960258,10
16.96,-4.633466,1.208675,-6.207997,-0.0273054884577407,-0.0353676390485609,0.1736543715205463,13.43679,49.07946,183.5666,0.4089606,-0.1192067,0.9045014,10
16.98,-4.620254,1.19979,-6.17905,-0.0617650885011414,-0.0228239531551287,0.1426657242548918,14.73959,48.86852,183.6705,0.4062812,-0.1298623,0.9041515,10
17.0,-4.530965,1.376278,-6.096345,-0.1169472990694401,-0.0626714279939876,0.0984564723473929,18.31524,49.96221,184.0161,0.4116256,-0.1587828,0.8966995,10
17.02,-4.554556,1.175744,-6.064619,-0.1605435147161414,-0.0756362378673242,0.0627280923706071,18.7302,47.73214,184.0796,0.3936577,-0.162926,0.9040766,10
17.04,-4.467902,1.358155,-5.981705,-0.1950731389521331,-0.0570099836656614,0.0305734317017766,22.2935,48.82698,184.3692,0.3985166,-0.1913672,0.8958051,10
17.06,-4.38147,1.537028,-5.900433,-0.2304087338194585,-0.0382087454036277,-0.0005174228148645,25.84978,49.97158,184.7423,0.4029514,-0.2195999,0.8866003,10
17.08,-4.295444,1.712458,-5.820957,-0.289657489705909,-0.103114238180205,-0.046435670721912,29.39671,51.17929,185.2088,0.4069582,-0.2475896,0.8764744,10
17.1,-4.441201,1.145482,-5.885184,-0.3216509668377517,-0.0844657803018656,-0.0768046404572677,24.58589,44.95249,184.0889,0.3662786,-0.2099376,0.9051809,10
17.12,-4.358541,1.33609,-5.803206,-0.3530790422266858,-0.0653659591547002,-0.1050359507385157,28.09366,45.98843,184.1938,0.3705282,-0.2371463,0.8958894,10
17.14,-4.377832,1.128734,-5.768652,-0.4017038919760919,-0.131621557215936,-0.140176773187424,30.01312,41.71005,183.7413,0.3357817,-0.2530616,0.905143,10
17.16,-4.352088,1.124866,-5.726825,-0.4298561636281693,-0.1389984824584331,-0.1674476194896499,32.03444,40.71853,183.5643,0.3261927,-0.2689635,0.9036832,10
17.18,-4.273831,1.321736,-5.645345,-0.4558574575611144,-0.1437129602168876,-0.1918784629166698,35.4582,41.61621,183.4047,0.3297621,-0.2945813,0.8932009,10
17.2,-4.195145,1.515437,-5.564737,-0.4905914112249075,-0.2052326353140379,-0.2234502787219149,38.88266,42.54228,183.3066,0.3330059,-0.3199072,0.8818594,10
17.22,-4.238482,1.117111,-5.574401,-0.5236014498929811,-0.2662720489927008,-0.2517282060577781,39.58931,39.50438,182.7104,0.3103569,-0.3261563,0.888011,10
17.24,-4.161287,1.316239,-5.493824,-0.5291806992799493,-0.2713928690701411,-0.2615366523221769,42.9763,40.29315,182.4155,0.3131635,-0.3505748,0.8760259,10
17.26,-4.083574,1.512271,-5.414004,-0.5359282089538352,-0.3027551116050738,-0.2713646607655188,46.36509,41.10321,182.1705,0.3156662,-0.3746537,0.8632135,10
17.28,-4.079448,1.113706,-5.372857,-0.5302131483558289,-0.2734510469610302,-0.2730828751912018,46.35947,38.41519,180.3981,0.3011406,-0.3727537,0.868546,10
17.3,-4.050236,1.112926,-5.332011,-0.5138469158159737,-0.214313577188924,-0.266112745139949,48.03053,37.58627,179.5625,0.2957347,-0.3841569,0.8642332,10
17.32,-3.975946,1.313194,-5.252371,-0.4983283530230871,-0.2424764705199474,-0.2565377293288428,51.33641,38.21452,179.1021,0.2982333,-0.4069709,0.8505247,10
17.34,-3.901096,1.51051,-5.173404,-0.4755876401168623,-0.2106706756914641,-0.2447769933180789,54.64443,38.84597,178.6677,0.300454,-0.4294083,0.8360466,10
17.36,-3.794788,1.102136,-5.020911,-0.4491509145768089,-0.1795581078098884,-0.2299046374074544,59.63856,33.82028,174.1296,0.2763908,-0.4622186,0.8215896,10
17.38,-3.720417,1.295632,-4.944057,-0.4077106007567497,-0.1718655523750187,-0.1951951220527338,62.88039,33.83981,173.0386,0.2781456,-0.4830334,0.8055308,10
17.4,-3.645792,1.486301,-4.868162,-0.3665461470469562,-0.1886773699074283,-0.1591005503168765,66.12061,33.70882,171.8131,0.279647,-0.5034103,0.7887595,10
17.42,-3.496625,1.12861,-4.659695,-0.3219853662458746,-0.1471407201545037,-0.1231690884099851,60.97586,24.75968,166.7673,0.2406173,-0.4709723,0.8235603,10
17.44,-3.421619,1.143921,-4.569185,-0.2692196805882238,-0.1516256312669739,-0.0723039451281085,58.43234,25.5679,167.899,0.2422233,-0.4529986,0.8350235,10
17.46,-3.346442,1.325665,-4.49323,-0.2237768135059835,-0.1027422259932637,-0.0349510752323323,61.51866,24.95929,166.0734,0.2448618,-0.4731538,0.8194329,10
17.48,-3.271461,1.504609,-4.418758,-0.1793246639649394,-0.1006979855326664,0.0033193609403377,64.59184,24.05366,163.9683,0.247284,-0.4928974,0.8031435,10
17.5,-3.21274,1.195158,-4.317428,-0.1325762907752542,-0.0489554769871226,0.038954183765839,48.36234,31.50669,173.2119,0.2705797,-0.3788831,0.8698661,10
17.52,-3.135645,1.37138,-4.24084,-0.0907338200376135,-0.0438792382667346,0.0702707428689093,51.50919,31.83597,172.3754,0.2742528,-0.4005078,0.856288,10
17.54,-3.058933,1.544714,-4.166005,-0.0539016379987435,0.0055098486431007,0.0902848378277931,54.6579,32.11006,171.5069,0.2776874,-0.4217878,0.8419899,10
17.56,-2.960981,1.249966,-4.053456,-0.020213566787293,0.0085195644062243,0.1106918703185835,26.29784,37.95535,176.0321,0.3239312,-0.2040261,0.9177396,10
17.58,-2.918231,1.257664,-4.002055,0.014137552465115,0.057104065431999,0.1310935361876096,20.07302,39.38892,176.6088,0.3365568,-0.15419,0.9249516,10
17.6,-2.831221,1.426458,-3.918297,0.0362784886889418,0.0577360154916552,0.1437412776265019,23.5358,40.30359,176.471,0.3430031,-0.1809869,0.9164525,10
17.62,-2.761424,1.271987,-3.815793,0.0567037740472759,0.0568815595149308,0.1561443331519235,2.436877,43.56326,177.9683,0.371278,-0.0131658,0.9281092,10
17.64,-2.671225,1.438567,-3.730531,0.0849064105587776,0.07740919988605,0.179060940026762,5.977972,44.53465,178.0698,0.3791721,-0.04187481,0.9237031,10
17.66,-2.581882,1.601398,-3.64771,0.1077972440338943,0.0980893295209453,0.1962340305910906,9.515826,45.51963,178.2329,0.3866695,-0.07053302,0.918353,10
17.68,-2.570389,1.285148,-3.589065,0.1279650337388966,0.1174752804232898,0.2126676394945134,353.3286,46.00139,178.7561,0.3894759,0.05779152,0.9191333,10
17.7,-2.529941,1.291095,-3.530634,0.1447702727390855,0.1327425954186377,0.2280448922708909,352.2517,45.99698,179.1063,0.3893172,0.06523263,0.9185897,10
17.72,-2.439022,1.452773,-3.441389,0.1554489066944181,0.1447495371465076,0.2359776971675833,355.8506,46.92094,179.4551,0.3976929,0.03510156,0.9167919,10
17.74,-2.401992,1.282937,-3.356685,0.1630144893086406,0.155803546231025,0.243140020386766,353.7701,46.23648,179.7929,0.3919589,0.05068419,0.9183749,10
17.76,-2.313254,1.444851,-3.268314,0.1668459178643912,0.1631198311433525,0.2492472813955456,357.3185,47.16432,180.1833,0.3999881,0.02080397,0.9162204,10
17.78,-2.225502,1.602965,-3.182661,0.1496844394361281,0.0923121028262614,0.244535726662675,0.8591101,48.11443,180.6307,0.4075934,-0.009089326,0.9131163,10
17.8,-2.138933,1.757455,-3.099879,0.1353625502374894,0.0895076337157287,0.2309868701333767,4.390639,49.09394,181.1379,0.4147678,-0.03896467,0.9090667,10
17.82,-2.231416,1.250433,-3.131631,0.1182274751451642,0.0867364032517356,0.2164480642013723,359.3674,46.97877,181.4035,0.3986052,0.0001810763,0.9170243,10
17.84,-2.142703,1.41506,-3.04478,0.0951761564318982,0.0854765441133365,0.1969765642638151,2.94102,47.94095,181.7914,0.4057159,-0.02979492,0.9135055,10
17.86,-2.148625,1.23773,-2.996498,0.076227658845407,0.1101637741441632,0.1801545271457557,6.134083,46.87071,182.6011,0.3959279,-0.05809196,0.9164422,10
17.88,-2.131694,1.23237,-2.961193,0.0377488821367764,0.0843865269734159,0.1489957034398405,8.19161,46.68694,182.8745,0.3934611,-0.07547055,0.916223,10
17.9,-2.043251,1.401259,-2.874112,-0.0035284645322275,0.0591064051862499,0.1171869932124388,11.79159,47.69987,183.2284,0.3993978,-0.1052406,0.9105787,10
17.92,-2.061956,1.208909,-2.839366,-0.0391529793138126,0.0533716850837439,0.0884693844258504,13.40099,46.85978,183.5618,0.3913929,-0.1192798,0.912282,10
17.94,-1.975614,1.383346,-2.752758,-0.0770056346855875,0.0496973430635896,0.0592746139744858,16.98157,47.90534,183.9278,0.3966722,-0.148616,0.9053882,10
17.96,-2.003929,1.191132,-2.749335,-0.1329429982546199,-0.0069295880475688,0.0175861266877111,16.0383,47.07368,183.8004,0.3909753,-0.1409397,0.9091866,10
17.98,-1.919039,1.369752,-2.66413,-0.1646609598754651,0.0150869913944982,-0.01190852196278,19.58706,48.12962,184.1541,0.3959343,-0.1697757,0.9017013,10
18.0,-1.962919,1.175883,-2.672895,-0.1862051696442521,0.0643495095937783,-0.0333023415948957,18.69406,46.06479,184.0859,0.3804832,-0.1631342,0.9097531,10
18.02,-1.939612,1.160887,-2.613578,-0.2356919746554339,0.0309521135149359,-0.0732978354972411,21.53744,44.13005,184.1343,0.3625569,-0.1863592,0.9123769,10
18.04,-1.858799,1.347582,-2.528547,-0.2690770456645451,0.0556196461733995,-0.1042708851043297,25.05103,45.15012,184.3244,0.3669344,-0.2142534,0.9039002,10
18.06,-1.77799,1.530884,-2.444886,-0.3024324392633093,0.0805488890405762,-0.1338992336045269,28.55962,46.21441,184.5912,0.3709346,-0.2419209,0.8945161,10
18.08,-1.857128,1.139033,-2.474271,-0.3559149076432245,0.0207434266268291,-0.1779032637699794,26.2762,42.02001,184.0125,0.3415041,-0.2242805,0.9113789,10
18.1,-1.778899,1.331451,-2.390002,-0.4095175386681886,-0.0379862146411247,-0.2195620557988266,29.75242,42.98313,184.0574,0.3454064,-0.2512664,0.9020508,10
18.12,-1.700437,1.520596,-2.306799,-0.4371081127655855,-0.0442325080026148,-0.2417645519319509,33.22619,43.985,184.1738,0.3489616,-0.2779945,0.8918372,10
18.14,-1.744099,1.121767,-2.287932,-0.4630065438657035,-0.0478555478908407,-0.2611379149427319,34.68293,38.36147,183.2944,0.3053932,-0.2904176,0.9039981,10
18.16,-1.712286,1.118759,-2.240393,-0.4801491941227438,-0.0490889693483498,-0.2792389305211764,37.3334,37.74977,183.029,0.2983738,-0.3108465,0.898876,10
18.18,-1.637273,1.317288,-2.157447,-0.4866111693825282,-0.0181764421447432,-0.2883193687329161,40.72849,38.50563,182.7395,0.3011866,-0.335821,0.8875577,10
18.2,-1.635773,1.115579,-2.144966,-0.4901397712855615,0.0126755252621634,-0.2943057699475751,41.80843,37.78463,182.3793,0.2954039,-0.3437924,0.8860611,10
18.22,-1.561386,1.315372,-2.06298,-0.5038712532744325,-0.0435550512220977,-0.3083025806749213,45.17496,38.4949,182.051,0.2978239,-0.3680134,0.873812,10
18.24,-1.520591,1.113697,-1.988238,-0.4967462137779141,-0.0117281137025317,-0.3053159377365101,46.34249,36.87857,180.4042,0.289466,-0.3743025,0.8725675,10
18.26,-1.478651,1.112913,-1.931532,-0.4861026524012267,0.0198564256194754,-0.2984008369231898,48.02255,36.35835,179.5725,0.2864319,-0.3855396,0.8673908,10
18.28,-1.406337,1.313179,-1.850425,-0.4727827477682835,-0.0372310689380909,-0.2829948742218495,51.32517,36.94399,179.1164,0.2887467,-0.4085439,0.8538374,10
18.3,-1.333478,1.510508,-1.769948,-0.4480515276382854,-0.034638884676832,-0.2598917367681959,54.62972,37.52994,178.6824,0.2907952,-0.4311736,0.8395184,10
18.32,-1.293642,1.103726,-1.697191,-0.4130096754662116,-0.0010000641699948,-0.2277992048491082,56.44104,34.34642,176.2699,0.2747308,-0.4430777,0.8368603,10
18.34,-1.221298,1.299629,-1.618327,-0.3665863393639049,-0.0206401381716837,-0.1776273549662446,59.69909,34.59442,175.4657,0.2764805,-0.4646412,0.8216082,10
18.36,-1.148608,1.492696,-1.540278,-0.3174672285647664,-0.0418472638242846,-0.1251332412944651,62.95753,34.76826,174.6045,0.2779795,-0.4857856,0.8056337,10
18.38,-1.020515,1.11783,-1.349956,-0.2707092915392075,0.0224954748756299,-0.0816445837274087,61.83387,24.58955,167.2458,0.2373139,-0.4786136,0.8208981,10
18.4,-0.9693484,1.128605,-1.277904,-0.2225792979681853,0.0120403223358176,-0.0307300124576161,60.97149,23.05363,166.7876,0.2282461,-0.4739805,0.8271058,10
18.42,-0.8967997,1.312629,-1.200069,-0.172801626942951,-0.0001414536087662,0.0216928687042747,64.04607,22.06419,164.628,0.2303917,-0.4940864,0.81112,10
18.44,-0.7815578,1.177869,-1.033001,-0.132944470091353,0.0645843062887552,0.0554102164150474,52.14271,26.65378,171.1857,0.2393021,-0.41048,0.8636895,10
18.46,-0.7072508,1.355752,-0.9541321,-0.0881540231580327,0.0859883643701772,0.09662968724847,55.26883,26.57053,169.9351,0.2423986,-0.4318167,0.8495425,10
18.48,-0.645632,1.210915,-0.8740683,-0.0466589198001873,0.0839269218752706,0.1343139052796265,43.25906,31.05847,173.9331,0.2673236,-0.3414795,0.889174,10
18.5,-0.5656484,1.384059,-0.7903962,-0.004359277185451,0.0795830119274508,0.1729506183695413,46.60477,31.46308,173.1989,0.2711611,-0.3653254,0.8761098,10
18.52,-0.5263262,1.23886,-0.7441475,0.0400905752326804,0.0986732495063213,0.2100256988061853,32.19204,34.26657,175.3174,0.2936342,-0.2531601,0.9140573,10
18.54,-0.4406019,1.408078,-0.6561577,0.0846595941157125,0.1165017288990922,0.2471673477306304,35.72821,34.94048,174.8744,0.2985345,-0.2795413,0.902858,10
18.56,-0.3798998,1.263451,-0.5704005,0.1212165391265973,0.0843947594642847,0.2790772885419461,14.00333,38.77997,177.1709,0.3322586,-0.1068145,0.9349622,10
18.58,-0.2935612,1.431014,-0.4818965,0.1544505573353771,0.1183886874978658,0.3055331549715271,17.54667,39.67939,177.0964,0.3389461,-0.1349286,0.9280301,10
