t,pX,pY,pZ,aX,aY,aZ,reX,reY,reZ,rtX,rtY,rtZ,ID
2.38,-42.30582,1.101693,-39.82856,2.87299470895897,-0.1191520189142769,-1.280244688082286,14.60409,356.3862,163.5981,-0.01283456,-0.130199,0.9818304,7
2.4,-42.30658,1.301527,-39.82808,2.9147661042595354,-0.0848164453797674,-1.2441988342107813,14.62031,356.3919,163.6207,-0.0127908,-0.1303285,0.981841,7
2.42,-42.28102,1.15422,-39.77562,2.9701909105893947,-0.0948636898243718,-1.2093528056330554,16.58147,1.402959,164.6223,0.03129703,-0.1412681,0.9803427,7
2.44,-42.29249,1.351324,-39.76558,3.0168150752902747,-0.0804935507259397,-1.159999121835198,16.87827,1.510331,164.9953,0.03208563,-0.1437875,0.9803668,7
2.46,-42.30394,1.548371,-39.75556,3.058053572069694,-0.0890284761202486,-1.110990391150608,17.17442,1.619891,165.3694,0.03287373,-0.1463048,0.9803748,7
2.48,-42.19217,1.168111,-39.6762,3.089739125547924,-0.0733349682486175,-1.0477882459789152,17.66109,7.404175,166.8866,0.08087846,-0.1449048,0.9785033,7
2.5,-42.14552,1.172254,-39.6279,3.1148884140347395,-0.0816600050926791,-0.9879912896984636,16.99607,10.08758,167.796,0.1021068,-0.1371264,0.9782285,7
2.52,-42.0442,1.186756,-39.54583,3.139630266575227,-0.0888683474860279,-0.9192313046194228,12.68946,16.17302,169.8382,0.1489469,-0.09659991,0.9787496,7
2.54,-41.97702,1.193554,-39.48472,3.153564138831685,-0.072398164231266,-0.836054464948039,9.737254,19.47697,170.8679,0.1746653,-0.0699656,0.9777743,7
2.56,-41.95209,1.378447,-39.41282,3.161621388017445,-0.0795442322361253,-0.7531150396519823,12.01763,19.47977,170.8827,0.1759139,-0.08947412,0.9756627,7
2.58,-41.82889,1.209678,-39.36907,3.157735344073254,-0.0633399836844857,-0.6559167175924836,3.732103,25.70987,172.9757,0.2238926,-0.01806516,0.9721457,7
2.6,-41.74628,1.21636,-39.31583,3.1486569707875667,-0.0705472396470894,-0.5636851360676642,2.458317,28.38526,174.2288,0.2458624,-0.008429878,0.9677601,7
2.62,-41.55721,1.244923,-39.20377,3.1314893653919595,-0.0773712959533501,-0.4724375064503343,358.7967,33.50085,176.8846,0.2878076,0.01788534,0.9572449,7
2.64,-41.49365,1.405467,-39.08459,3.1076585879681247,-0.0608323562227114,-0.3702388930995663,2.752722,33.50594,177.2605,0.2886302,-0.01610539,0.9568412,7
2.66,-41.32732,1.271838,-39.06823,3.0835964807294287,-0.0732094162302542,-0.2825625303747552,354.7783,38.46679,180.0442,0.3290916,0.04288282,0.9431987,7
2.68,-41.28425,1.271534,-39.09238,3.0517513964494256,-0.08613440881518,-0.196585434092877,353.8866,40.60812,180.0565,0.346533,0.04983969,0.936521,7
2.7,-41.2188,1.437232,-38.99778,3.0127218007428462,-0.074553559296762,-0.1005294758414336,357.2112,40.58128,180.4021,0.3467577,0.02160735,0.9376325,7
2.72,-41.10526,1.250236,-39.07801,2.972388435881525,-0.0898227634873122,-0.0135702619303366,359.4192,46.46367,181.4812,0.3944748,-0.0004414094,0.9188021,7
2.74,-41.02653,1.414928,-38.98458,2.924770842882923,-0.1047255307200614,0.0735545827643013,2.986331,46.47204,181.8799,0.3939399,-0.03041057,0.9186207,7
2.76,-41.07763,1.290653,-39.23021,2.8708388940055274,-0.0945362033064525,0.1705568846507148,358.0889,50.93893,180.1409,0.4299885,0.01452729,0.9026797,7
2.78,-41.11808,1.510075,-39.35236,2.810244085809699,-0.0610553896339938,0.2765994871976591,355.4793,51.23467,178.5443,0.4315356,0.04104829,0.9011442,7
2.8,-41.20726,1.249263,-39.77935,2.7396772312944204,-0.0807567362392447,0.3570524905219816,6.285094,54.9911,182.0255,0.460054,-0.05676852,0.8860219,7
2.82,-41.1828,1.242132,-39.80661,2.660164348252814,-0.100623239594321,0.4311548550702504,8.451383,56.53823,182.2829,0.4709396,-0.07429321,0.8788596,7
2.84,-41.12956,1.434685,-39.80513,2.576417131155311,-0.0940486228522354,0.5148682078447022,9.784072,56.09375,181.3814,0.4675396,-0.08090568,0.8797678,7
2.86,-41.08502,1.210804,-39.8812,2.488359665214536,-0.116616043157944,0.58109449095274,13.18439,61.93318,182.7278,0.5086484,-0.110577,0.8529629,7
2.88,-41.05261,1.199654,-39.8943,2.393441622582144,-0.138731037153062,0.643633555253234,14.76838,63.10886,182.955,0.515972,-0.122864,0.8465296,7
2.9,-40.98309,1.391428,-39.88714,2.295948458074326,-0.1329717976939931,0.7153603367263619,16.75151,62.12776,182.0368,0.5081916,-0.1338285,0.8486583,7
2.92,-40.9901,1.182232,-39.91675,2.1953321517264017,-0.1566919719101586,0.7725928332484431,17.57148,64.13116,183.3418,0.5206631,-0.1446813,0.8395059,7
2.94,-40.93834,1.164563,-39.92853,2.0902499561853194,-0.1796504368600248,0.8282780479720522,20.67797,64.87794,183.6568,0.5225901,-0.1682272,0.8329089,7
2.96,-40.85881,1.356961,-39.90099,1.9839454673697856,-0.1733056793402975,0.8928005521927993,23.28314,63.84474,183.241,0.512842,-0.1858484,0.8339906,7
2.98,-40.86264,1.148176,-39.93411,1.8707592995239697,-0.1958609695923401,0.9451185992459656,23.72092,64.93858,183.6456,0.5196051,-0.1900243,0.8287597,7
3.0,-40.83993,1.141342,-39.9395,1.7574132384757988,-0.1884785844377761,1.006147048464323,25.42229,64.96767,183.5787,0.5178481,-0.2018781,0.826158,7
3.02,-40.76072,1.337901,-39.91626,1.637167891553923,-0.2096605186220584,1.0545088460947047,27.99536,63.8608,183.0627,0.5075144,-0.2189248,0.8266146,7
3.04,-40.71642,1.140236,-40.22102,1.5197338540325136,-0.2295188982921211,1.1024906242839512,27.564,59.14148,174.462,0.4887396,-0.1838023,0.8380406,7
3.06,-40.44868,1.132545,-40.70934,1.4021103880879453,-0.2473310137983608,1.1498496131811162,33.03681,57.71349,178.1357,0.4666927,-0.2414584,0.837339,7
3.08,-40.36388,1.336859,-40.77126,1.2866507407525587,-0.2342843150965087,1.2044392668923587,34.27478,50.77893,174.3906,0.4222672,-0.2458359,0.8560873,7
3.1,-40.36172,1.118501,-40.67043,1.1732218407523174,-0.1924597117623893,1.2660852039018309,39.12835,55.64878,182.062,0.4344157,-0.3040122,0.8360019,7
3.12,-40.2609,1.115736,-40.65883,1.0608308834955311,-0.2091665856193924,1.3138520117077048,43.09579,53.81199,181.3718,0.4169504,-0.332536,0.8313568,7
3.14,-40.17763,1.317737,-40.62579,0.9514120395551036,-0.1947700427669342,1.3682454790384364,46.19199,48.12235,180.1684,0.3745065,-0.3587392,0.8401581,7
3.16,-40.12552,1.114442,-40.62849,0.8448992886227105,-0.1513381476927899,1.4291038912645817,46.30439,48.49073,179.9866,0.3776152,-0.3584509,0.838344,7
3.18,-40.04373,1.31651,-40.5869,0.7404686722315406,-0.1668357099275966,1.4818225469108477,49.46677,42.682,178.6732,0.3350236,-0.3858544,0.8441664,7
3.2,-39.98789,1.110585,-40.58311,0.6385404996883821,-0.1802761813876507,1.5372728926307406,50.6549,44.62489,178.3609,0.348789,-0.3908124,0.8337935,7
3.22,-39.93187,1.107716,-40.56563,0.5501413353858595,-0.1910219847800969,1.6043924700938783,53.29556,44.8387,177.3182,0.3504811,-0.4065152,0.8219972,7
3.24,-39.8548,1.307545,-40.51809,0.4641706843516022,-0.1718100820364239,1.6770256857284442,56.43472,38.67637,175.677,0.3084097,-0.4348189,0.8249488,7
3.26,-39.66472,1.105159,-40.43449,0.3864448286706547,-0.1770263786518087,1.7528767359962003,61.17746,37.12418,170.7599,0.3119995,-0.45876,0.8003612,7
3.28,-39.57962,1.109804,-40.38897,0.3109571642559725,-0.1530020024563359,1.833797959186512,62.59441,33.11337,167.4301,0.2965443,-0.46829,0.7979276,7
3.3,-39.51619,1.299977,-40.3276,0.2432810791146069,-0.1510710452543914,1.914822298627852,65.50475,25.36298,164.1558,0.2556136,-0.4973277,0.7963005,7
3.32,-39.41264,1.129783,-40.29419,0.1800791104311701,-0.1444091191817157,1.9950526020694124,60.8507,28.66723,166.3138,0.2704156,-0.46172,0.8145576,7
3.34,-39.25551,1.162693,-40.21198,0.1195880293413225,-0.109812923240019,2.080331061097488,55.65634,29.57378,168.4241,0.270076,-0.4262982,0.838689,7
3.36,-39.18092,1.179199,-40.16483,0.0774230746961937,-0.0932627920133032,2.1670425831920186,51.95265,31.16323,170.8895,0.2742192,-0.4013921,0.8538576,7
3.38,-39.13149,1.35901,-40.08715,0.042286045287966,-0.0726897354786373,2.25263856255009,54.87332,24.64156,168.7286,0.2326747,-0.4293814,0.8532331,7
3.4,-39.08656,1.537192,-40.00994,0.0102504333886672,-0.0260759853828958,2.344963335004495,57.61849,17.42418,165.7994,0.1905824,-0.4562767,0.8504546,7
3.42,-38.88301,1.240367,-40.02536,-0.011394072866647,-0.030355803113384,2.424411808406949,31.91112,36.26519,175.0207,0.3102932,-0.2479954,0.9091486,7
3.44,-38.82999,1.4119,-39.93037,-0.0231249409849096,-0.0108145445329285,2.494266330695255,35.27387,30.83157,173.825,0.2686911,-0.2780152,0.9130374,7
3.46,-38.75378,1.258796,-39.93451,-0.0294172349772994,0.0040882847277241,2.5692628489079103,19.84519,35.14632,176.2144,0.3026708,-0.1543629,0.9368411,7
3.48,-38.70669,1.429554,-39.83593,-0.0242040723132346,-0.0355191281551971,2.6297344571766814,23.20875,30.04078,175.2792,0.2616517,-0.1836597,0.9431424,7
3.5,-38.63974,1.269066,-39.8558,-0.0306983879355735,0.003120756421496,2.6850141139259254,7.987747,35.38074,177.2632,0.3046333,-0.05909829,0.9496226,7
3.52,-38.52978,1.276359,-39.78936,-0.0272048743923232,0.0186738836645462,2.717369511373102,358.3252,36.58226,177.9408,0.313512,0.01951296,0.949302,7
3.54,-38.49124,1.44349,-39.68032,-0.0345731374893798,0.055994665514292,2.7433344299666507,1.861968,31.83347,177.4771,0.2744815,-0.009584645,0.9612033,7
3.56,-38.42008,1.285872,-39.66845,-0.0463301858384204,0.1144261195391922,2.7635691618921205,353.309,33.61973,178.4898,0.2879425,0.05966318,0.9557778,7
3.58,-38.39219,1.450626,-39.5535,-0.0508282490085152,0.0985079955166237,2.7497433895376444,356.8826,28.91081,178.1434,0.2490745,0.03037922,0.967967,7
3.6,-38.31958,1.294247,-39.56785,-0.0710777699629279,0.1051124555628586,2.717323725526694,352.8448,31.57829,179.0725,0.2710728,0.06224235,0.9605004,7
3.62,-38.26785,1.296387,-39.55522,-0.0956999754730283,0.1081755588463439,2.668674690720283,353.4676,32.87045,179.388,0.2821757,0.05615497,0.9576547,7
3.64,-38.20776,1.460982,-39.45772,-0.1422805655708705,0.1311503064638816,2.6047737069611303,357.0249,29.12607,178.203,0.2509353,0.02906431,0.9675289,7
3.66,-38.10346,1.265393,-39.5349,-0.1976224044378236,0.1038259032639947,2.50654077744316,355.6808,33.00424,179.4953,0.2836872,0.03738075,0.9581661,7
3.68,-38.05129,1.25831,-39.52645,-0.274711697890325,0.0949488646749281,2.395522319515126,357.312,33.23086,180.0817,0.2858838,0.02227223,0.9579771,7
3.7,-37.99685,1.427835,-39.43453,-0.3537419618533572,0.1100906837683168,2.2875733664244864,0.6535498,29.56277,179.0813,0.2551636,-0.003469054,0.966848,7
3.72,-37.9027,1.244048,-39.47311,-0.4408999666315276,0.0743171202326344,2.141805873912795,3.93206,32.06942,180.9546,0.2757728,-0.03527076,0.9605744,7
3.74,-37.85043,1.241369,-39.44896,-0.5390532065700864,0.0638696576108723,1.994382680993868,6.088305,31.11859,181.4548,0.2671859,-0.05455578,0.9620973,7
3.76,-37.7935,1.413267,-39.35509,-0.6469454940855446,0.0280945211023615,1.8213406500631728,9.545795,27.36118,180.4058,0.2354011,-0.08167995,0.9683236,7
3.78,-37.74102,1.582572,-39.26197,-0.7438569345157147,0.0348992128793627,1.683528794919923,12.9256,23.4984,179.1144,0.2031796,-0.1086328,0.9726204,7
3.8,-37.71427,1.22068,-39.40881,-0.8307834295638363,0.031948846426384,1.563446942931165,11.84038,28.66416,182.1824,0.2442736,-0.1046038,0.9640215,7
3.82,-37.68419,1.211536,-39.42905,-0.8981907805216673,0.0097190842725557,1.4735479430368468,13.40816,30.30775,182.506,0.2570986,-0.1183324,0.9590654,7
3.84,-37.62454,1.389913,-39.3381,-0.962433928708612,0.015348533853721,1.3927690841687204,16.88563,26.55645,181.5023,0.2252979,-0.1458633,0.9630782,7
3.86,-37.56745,1.185662,-39.43387,-1.0269167539186128,-0.0363977489698781,1.2950414173414693,17.39112,30.0546,182.922,0.2524928,-0.1525014,0.9553903,7
3.88,-37.53065,1.178159,-39.43836,-1.0918228141991406,-0.0287775115606444,1.2140382008004815,18.71724,29.92592,183.0861,0.2504352,-0.1639029,0.9540192,7
3.9,-37.46707,1.364087,-39.35252,-1.155198383909191,0.0062939616346498,1.140144323691472,22.171,26.03188,182.0513,0.2176312,-0.1912599,0.9567504,7
3.92,-37.40934,1.155356,-39.42953,-1.2154553028049806,-0.0452722204261625,1.0396252160982715,23.0524,26.82656,183.0791,0.2219912,-0.2004022,0.9540071,7
3.94,-37.36351,1.14771,-39.42015,-1.2665714281239806,-0.0378368827176346,0.948835517768031,24.58159,25.32252,183.0969,0.2084721,-0.2134083,0.9542328,7
3.96,-37.29792,1.341444,-39.33723,-1.316738327737962,-0.0002932800992342,0.8647907869100324,27.97968,21.24091,181.8597,0.1749561,-0.2404795,0.9543139,7
3.98,-37.27442,1.135014,-39.39868,-1.3606935790598191,-0.0493231232320347,0.753039073474814,28.04858,22.35204,182.9586,0.1818464,-0.2425131,0.9526901,7
4.0,-37.20803,1.332128,-39.31646,-1.394912867065166,-0.0382790732245215,0.6517125099218495,31.42706,18.05738,181.5691,0.1473876,-0.2695157,0.9511937,7
4.02,-37.19143,1.127183,-39.38105,-1.4180834953786992,-0.0546723441906822,0.5484052034629947,32.0704,20.54144,182.5433,0.165288,-0.2755377,0.9465523,7
4.04,-37.11132,1.12109,-39.36322,-1.4419561313573173,-0.0695563279345732,0.4468790000145803,37.31064,20.74018,181.9956,0.165043,-0.3175715,0.9328452,7
4.06,-37.05383,1.119713,-39.34658,-1.4614024646257402,-0.0275257869878453,0.395783856234063,39.5064,20.55672,181.5175,0.1635127,-0.3347404,0.9267713,7
4.08,-36.98254,1.322051,-39.27395,-1.4968311005789934,-0.0419489950710766,0.4055715246068425,42.64077,15.82055,179.6188,0.1294008,-0.3596947,0.9225265,7
4.1,-36.91428,1.521787,-39.19878,-1.535802834702726,-0.055690871771596,0.4368721323946172,45.65393,10.72854,177.3138,0.09519537,-0.3841245,0.916542,7
4.12,-36.8554,1.11561,-39.26787,-1.5547432078948793,-0.0666484395443638,0.4606387897570938,46.282,21.66014,179.398,0.174804,-0.3850825,0.9027621,7
4.14,-36.78584,1.318634,-39.19681,-1.5783102973279242,-0.0746548421263711,0.4965458339166471,49.38894,16.71178,177.4396,0.1412334,-0.4102915,0.8973231,7
4.16,-36.71918,1.519193,-39.12331,-1.6060235435240937,-0.0817247287266817,0.5383871768173716,52.37244,11.29905,174.9756,0.1075033,-0.4348523,0.8902434,7
4.18,-36.66104,1.109256,-39.14948,-1.6263940865749964,-0.0877775444594255,0.5891954997969844,53.17968,17.05437,176.439,0.1462853,-0.4383189,0.8818594,7
4.2,-36.60321,1.105638,-39.10117,-1.6516441224295295,-0.0935099887204138,0.643585405663651,56.39962,17.01973,175.0007,0.1506735,-0.4612129,0.8677232,7
4.22,-36.47075,1.106304,-38.98756,-1.6678768662064645,-0.0941690657074947,0.7190352690394848,61.08033,12.99038,169.9608,0.1412289,-0.4944199,0.8474336,7
4.24,-36.41578,1.299865,-38.91156,-1.6863060814866415,-0.0649220777876861,0.7997263764140943,63.95169,6.30133,166.3948,0.1089255,-0.5195165,0.8375792,7
4.26,-36.32344,1.120306,-38.84826,-1.7095972187100283,-0.0379721032071322,0.8806201299813026,61.55848,5.955371,165.8165,0.1073809,-0.5016211,0.8481398,7
4.28,-36.27519,1.309389,-38.76917,-1.7381189086860251,-0.0292726826368627,0.9546645541267472,64.22704,358.6046,161.5916,0.07484391,-0.5263647,0.8370645,7
4.3,-36.19187,1.146655,-38.72166,-1.766765866757038,-0.0162865969352022,1.027577360541569,58.11243,4.283589,166.4999,0.08948733,-0.4781242,0.8653445,7
4.32,-36.13447,1.163662,-38.67893,-1.7899374186352777,-0.0246597985329191,1.1019306648040414,55.56762,6.202856,167.6456,0.09767304,-0.4576008,0.875574,7
4.34,-36.09351,1.345776,-38.59365,-1.8262221904591056,0.0178325546430066,1.176620214284414,58.30373,359.6686,164.245,0.06426117,-0.4828735,0.8652799,7
4.36,-35.94711,1.213475,-38.53022,-1.8645778735431413,0.0350933752139265,1.2386281286680925,42.94339,12.74096,173.0475,0.1251242,-0.3568511,0.9206882,7
4.38,-35.87938,1.229057,-38.48251,-1.9016586887063245,0.052993344251378,1.2973637463760568,37.83753,14.21284,173.8579,0.1340984,-0.3150047,0.9352154,7
4.4,-35.84307,1.401193,-38.37802,-1.945905800167897,0.0694544700612756,1.349129653406477,41.19441,9.188546,172.0633,0.09906743,-0.3446359,0.9288819,7
4.42,-35.76161,1.251333,-38.40707,-1.9714773196271176,0.0357755965771264,1.3873860130230409,26.11939,16.78335,175.2558,0.1512953,-0.2174712,0.9615152,7
4.44,-35.65859,1.264737,-38.36121,-2.0172058407944933,0.0451372034973833,1.426254825375424,13.79725,20.40067,176.522,0.1793148,-0.1128249,0.9759737,7
4.46,-35.62668,1.43398,-38.25182,-2.064022797475869,0.0560525328372838,1.4492981902487072,17.28453,16.23783,175.593,0.1452409,-0.1432802,0.9771971,7
4.48,-35.55866,1.272692,-38.2761,-2.1039609888964304,0.0624602604175813,1.470623624619698,2.367067,20.9346,177.2432,0.1820716,-0.01593613,0.9827744,7
4.5,-35.5288,1.440414,-38.16344,-2.145060401807465,0.0707684693652609,1.471255530471593,5.952158,16.90339,176.4228,0.1483087,-0.04674898,0.9870868,7
4.52,-35.41398,1.285888,-38.19926,-2.1733893289320463,0.076821476407828,1.4736578917813956,353.4177,23.73976,178.0371,0.2043581,0.05969156,0.9770622,7
4.54,-35.38691,1.450314,-38.08325,-2.199666294149964,0.0824682764961752,1.4702136313074048,357.0634,19.83563,177.4134,0.1715653,0.02912101,0.9845814,7
4.56,-35.35049,1.61255,-37.97446,-2.2173625237958072,0.0914228536500646,1.4469756427455138,0.6567218,15.90828,176.1172,0.138491,-0.000984725,0.9897677,7
4.58,-35.2782,1.298332,-38.04606,-2.220850597046349,0.088595182761902,1.4204413208381492,353.5375,20.00365,178.2267,0.1725237,0.0581865,0.9832705,7
4.6,-35.26654,1.286262,-38.03976,-2.2179820471987792,0.0898617865781939,1.3689522081918817,353.8802,20.81949,177.7026,0.1793401,0.05610754,0.9821346,7
4.62,-35.21716,1.264843,-38.00521,-2.199086618535385,0.0808786463452672,1.317548230558231,355.9149,20.62946,178.7006,0.1785323,0.03709283,0.9832231,7
4.64,-35.17904,1.431591,-37.89754,-2.1795866045705834,0.0994638344757307,1.2604803504407034,359.4662,16.45261,177.4266,0.1429422,0.007822032,0.9894654,7
4.66,-35.17458,1.253454,-37.90542,-2.1602256033647738,0.1195081732042928,1.1859457070848567,359.5908,17.40816,179.3014,0.1513059,0.004452503,0.9884618,7
4.68,-35.15642,1.24856,-37.86461,-2.1361436951739705,0.1040751019988276,1.1193201416156482,1.629062,17.16799,179.6513,0.1492862,-0.01360225,0.9886873,7
4.7,-35.12514,1.416114,-37.75259,-2.107282671435949,0.1190272721444544,1.0486205996454432,5.289564,12.5215,178.3434,0.1095889,-0.04428898,0.9928007,7
4.72,-35.11679,1.239806,-37.80004,-2.0566892305955937,0.0780049123699279,0.9523700656828424,6.400022,15.59623,180.9846,0.1349912,-0.05646743,0.9892361,7
4.74,-35.08057,1.22814,-37.77577,-2.012396215914352,0.0919349384679108,0.8607346160156819,10.56604,15.33245,181.7177,0.1314526,-0.09323344,0.9869256,7
4.76,-35.07054,1.219229,-37.74173,-1.9682750330936072,0.1336674129717859,0.7644965801618246,12.12043,14.11173,181.9622,0.1203387,-0.1068503,0.9869581,7
4.78,-35.0535,1.393816,-37.63076,-1.9147847126166937,0.085445945936447,0.6442194944863626,15.77856,8.83159,180.9807,0.07509112,-0.1374995,0.9876492,7
4.8,-35.04159,1.565874,-37.52273,-1.858156139136831,0.0401871603777067,0.5107457424852173,19.33003,3.383338,179.6225,0.02965451,-0.1677176,0.985355,7
4.82,-35.02306,1.184822,-37.65319,-1.785739844680451,0.0159389716524951,0.3896601376369091,17.63259,9.133829,182.7843,0.07494749,-0.1546467,0.9850532,7
4.84,-35.01145,1.367228,-37.54515,-1.7016221590683849,-0.0079926108832584,0.2668518533818291,21.26869,3.751241,181.9435,0.02903504,-0.1849607,0.9822596,7
4.86,-34.99865,1.169163,-37.58882,-1.619831640496261,-0.0286633936668479,0.1344163722551794,20.31532,3.753388,183.4216,0.02695866,-0.1771467,0.9835323,7
4.88,-34.99977,1.354997,-37.48185,-1.5363187860697725,-0.051245654748468,0.0101702794562879,23.94087,358.5622,182.8483,-0.01742482,-0.2070215,0.977811,7
4.9,-35.00466,1.53831,-37.37709,-1.4479929689078173,-0.0418450812816418,-0.1080843589716016,27.50173,353.1702,181.8769,-0.061737,-0.2362991,0.9692519,7
4.92,-34.96458,1.140027,-37.48691,-1.3524786282104335,-0.0897096440371745,-0.2429950173703927,26.37502,357.5628,183.5035,-0.02766878,-0.2273475,0.9728054,7
4.94,-34.9637,1.334151,-37.38777,-1.2569259398748178,-0.1074043857843372,-0.3647897416743495,29.81434,352.27,182.7972,-0.07138279,-0.2550023,0.9634356,7
4.96,-34.96608,1.526027,-37.28963,-1.156885590894201,-0.0924051653311671,-0.4798179703681517,33.17867,346.7328,181.6837,-0.1148658,-0.2819413,0.9513724,7
4.98,-34.90598,1.125643,-37.39139,-1.0580463506023348,-0.0768496004085986,-0.5995754601091452,32.07296,348.8816,183.2012,-0.1007481,-0.2722422,0.9554451,7
5.0,-34.90808,1.324457,-37.29536,-0.951009670349536,-0.0912770133669134,-0.7083231030059336,35.41393,343.3952,182.2272,-0.1433803,-0.298231,0.9416094,7
5.02,-34.88031,1.117702,-37.25701,-0.8427308932999145,-0.1323396044918172,-0.8219502507007546,39.61228,348.6901,182.4286,-0.09983348,-0.3351494,0.935348,7
5.04,-34.87984,1.318514,-37.1629,-0.726994127733005,-0.1125232478704327,-0.9130057960039988,42.90033,343.052,181.3633,-0.1414468,-0.3600422,0.9198689,7
5.06,-34.88239,1.517257,-37.06887,-0.607897213758398,-0.119478728541286,-0.9970436241157784,46.08901,337.0101,179.7777,-0.182635,-0.3839494,0.9018936,7
5.08,-34.79671,1.11524,-37.11242,-0.4888213010271869,-0.0943856014387421,-1.072853942440581,44.66874,342.6277,180.7513,-0.1421525,-0.3747286,0.9139769,7
5.1,-34.80239,1.317323,-37.01889,-0.3682333630214796,-0.1272455419159422,-1.148191601277853,47.90419,336.8038,179.5019,-0.1820019,-0.3984785,0.8955719,7
5.12,-34.7309,1.110638,-36.96074,-0.245667785218683,-0.1896094781382364,-1.2132536223286454,50.66484,337.5509,178.3401,-0.1698396,-0.4221894,0.8876652,7
5.14,-34.73146,1.107915,-36.85287,-0.1252306358498582,-0.1628552960095707,-1.259021036020318,53.27585,334.8474,177.225,-0.1839755,-0.442178,0.8745193,7
5.16,-34.74781,1.307914,-36.76345,-0.0006958022979768,-0.1926666250293946,-1.2948842888219128,56.40829,328.4961,175.4575,-0.2210264,-0.4639898,0.8525925,7
5.18,-34.71844,1.102997,-36.68769,0.1182844495250536,-0.2229471880371527,-1.3321074117624052,59.63868,329.0555,173.5236,-0.2040097,-0.4915546,0.8423141,7
5.2,-34.7456,1.298354,-36.60333,0.2387557073875132,-0.2200670020459676,-1.3431984954567548,62.68488,322.0193,171.0812,-0.2388395,-0.5119622,0.8183054,7
5.22,-34.70507,1.118716,-36.43256,0.3706516699706625,-0.2091243405039697,-1.3393948509575644,61.73265,322.6221,166.8961,-0.2177974,-0.5141954,0.8265543,7
5.24,-34.74418,1.30662,-36.35351,0.4857022321370943,-0.1675293651583489,-1.3434258594267634,64.61013,314.8444,163.6567,-0.251074,-0.5345832,0.8016777,7
5.26,-34.78506,1.492909,-36.2774,0.601370372052167,-0.1768931153825985,-1.3418479869050346,67.24269,305.7828,159.0796,-0.2836618,-0.5535738,0.7747259,7
5.28,-34.71255,1.162917,-36.21048,0.7077419812290691,-0.1304820626268376,-1.3419023529927188,55.63199,315.6779,168.2918,-0.2878066,-0.4639364,0.8327953,7
5.3,-34.70526,1.1794,-36.13943,0.8223587173172868,-0.1342831203739595,-1.3415065489920055,51.92957,318.906,170.8261,-0.2817528,-0.4338887,0.8514616,7
5.32,-34.6816,1.212556,-36.03138,0.9363235229925896,-0.1091486826868995,-1.3360569280733054,43.01129,321.8259,173.5086,-0.2841358,-0.3631083,0.8846087,7
5.34,-34.74739,1.387984,-35.95565,1.0512541408402258,-0.0831747729601208,-1.329977069373574,46.15938,315.7758,171.8164,-0.3194939,-0.3869621,0.8606534,7
5.36,-34.68155,1.240642,-35.9188,1.1595593748472917,-0.0557583161516739,-1.327801432049756,31.91591,320.6066,174.8573,-0.3121135,-0.273123,0.9084543,7
5.38,-34.67153,1.251803,-35.85051,1.24526684079669,0.0171863301975998,-1.3273170772179093,26.0499,321.7196,175.5389,-0.3109166,-0.2251881,0.9225922,7
5.4,-34.74821,1.423171,-35.77414,1.3338265365720945,0.0334823644555098,-1.330738622970399,29.38248,316.3213,174.3546,-0.3478142,-0.2528436,0.9014403,7
5.42,-34.65384,1.269715,-35.74033,1.420611773348159,0.0253214293728515,-1.3448948147175015,7.991614,321.9985,177.132,-0.3230387,-0.07399397,0.9434885,7
5.44,-34.66269,1.273176,-35.7033,1.4921686643313905,0.0659524096039433,-1.3457530881519617,2.287407,321.2324,177.5381,-0.3313477,-0.02595276,0.9430533,7
5.46,-34.68959,1.462188,-35.6693,1.5669683784547193,0.0784128764101885,-1.34527793298368,3.622465,319.0823,176.9788,-0.3484579,-0.03881258,0.9364213,7
5.48,-34.63894,1.285822,-35.63797,1.6319073932014376,0.0925273786371107,-1.3506448691633253,353.6944,323.5743,178.3753,-0.3127839,0.04781369,0.9481255,7
5.5,-34.67329,1.478273,-35.63541,1.6968915126870234,0.1024595540362623,-1.3478562693438771,354.3794,322.6495,178.9063,-0.3202478,0.04339352,0.9460164,7
5.52,-34.59212,1.311978,-35.59854,1.7647092364925268,0.0856337186257659,-1.3543042456663903,349.933,327.1635,179.5288,-0.2819003,0.08300264,0.9554148,7
5.54,-34.53697,1.316759,-35.52808,1.8104449885371563,0.1174470550707754,-1.3453607839301522,351.2534,330.799,179.9454,-0.2513787,0.07367221,0.9648802,7
5.56,-34.50616,1.518125,-35.50786,1.8516537350543285,0.09430920542059,-1.3523535434573954,351.4265,329.9829,178.7126,-0.2590334,0.06929212,0.962907,7
5.58,-34.40151,1.290582,-35.4712,1.8807415487471408,0.0730490188365412,-1.3670701076323883,352.2278,333.173,178.5325,-0.2322686,0.06295482,0.9702039,7
5.6,-34.39243,1.493873,-35.48048,1.8995307777556985,0.0660609204835859,-1.368368698656523,351.9898,331.4838,177.9766,-0.2468462,0.06334525,0.9663746,7
5.62,-34.27007,1.27738,-35.44831,1.9169372505560207,0.0597872104455345,-1.3637230673315868,356.5284,337.1302,180.5669,-0.1980138,0.03066945,0.9797186,7
5.64,-34.27194,1.473832,-35.43208,1.921074281335064,0.0848088567278098,-1.3559156261077172,357.0767,335.6786,180.112,-0.210561,0.02514178,0.9772475,7
5.66,-34.27199,1.669927,-35.41251,1.9159657830494456,0.0547431833986268,-1.3576962681924902,357.67,334.3531,179.5673,-0.2219752,0.01898653,0.974833,7
5.68,-34.19184,1.244325,-35.39654,1.9043393711221648,0.0783999447914998,-1.3502443668058923,5.258042,339.9174,183.0176,-0.1753036,-0.04056461,0.9830944,7
5.7,-34.16005,1.446684,-35.38323,1.8842505452778084,0.129635151436095,-1.3402454531509749,5.378701,338.0912,181.6946,-0.1904786,-0.04325383,0.9804585,7
5.72,-34.0055,1.237274,-35.43696,1.854041847080767,0.0926882381553867,-1.3410753231168275,9.189401,343.6996,182.4677,-0.1429877,-0.0762364,0.9862453,7
5.74,-33.99916,1.435416,-35.41829,1.817644060243248,0.1099533559578601,-1.3271913996017242,9.699154,342.1321,181.8984,-0.1561019,-0.08093952,0.983979,7
5.76,-33.99249,1.634339,-35.40439,1.770789562114956,0.1565505722757223,-1.3083478336346266,10.05337,340.601,181.3481,-0.1688371,-0.0843867,0.9816723,7
5.78,-33.91445,1.197048,-35.45657,1.7191279347871855,0.1427155229798161,-1.293919839721564,14.50041,346.5805,184.4595,-0.1206941,-0.1207337,0.9838905,7
5.8,-33.88165,1.398318,-35.43502,1.65955159994067,0.1325709336208225,-1.286348129380969,14.94387,344.513,183.1515,-0.1370868,-0.1251324,0.9816141,7
5.82,-33.78613,1.186454,-35.48475,1.5932531459946944,0.1232412777540357,-1.285720943304268,16.55852,347.4002,183.182,-0.1125205,-0.1400584,0.9827843,7
5.84,-33.71326,1.167461,-35.51674,1.5245491505238071,0.1054588246086644,-1.2628753557757646,19.56804,348.7443,183.7514,-0.1021242,-0.1658617,0.9796344,7
5.86,-33.70676,1.366626,-35.49459,1.4487972446650046,0.0617281587665224,-1.2362051807628651,20.2064,347.2089,183.3678,-0.1147399,-0.1710322,0.9773699,7
5.88,-33.67503,1.146291,-35.54229,1.3680391317320435,0.0769243448899883,-1.1950103819568725,22.725,350.0951,185.0787,-0.09325041,-0.1923376,0.9750276,7
5.9,-33.64225,1.348575,-35.52217,1.284822396294924,0.0934595627749983,-1.1609730884502891,23.18067,348.0338,183.9003,-0.1088508,-0.1962277,0.9729959,7
5.92,-33.5647,1.136503,-35.57019,1.203113524950914,0.0211642335276239,-1.137235084724165,25.71313,350.0631,183.2924,-0.09076925,-0.2191579,0.9703125,7
5.94,-33.54003,1.122808,-35.58269,1.1146188145432658,0.0365679427449188,-1.0884284476355257,30.18016,352.0149,184.5396,-0.07745861,-0.2568393,0.961701,7
5.96,-33.49616,1.326787,-35.55857,1.0253087327641035,0.0525265236115728,-1.044482790933925,30.763,349.511,182.9586,-0.09492172,-0.2617712,0.959199,7
5.98,-33.47076,1.528931,-35.54036,0.9361021347770028,0.0659787718061231,-1.005650858625942,31.18654,347.6153,181.9749,-0.1084869,-0.2654082,0.9569324,7
6.0,-33.42261,1.114385,-35.56243,0.8530769901723358,0.0476336067356458,-0.9442989218902564,37.79172,353.9731,183.632,-0.05996054,-0.3216628,0.9437868,7
6.02,-33.37843,1.113781,-35.5542,0.7720851708304757,0.0026412229741402,-0.8777160862794657,40.27696,355.7557,182.8829,-0.04341019,-0.3430708,0.937602,7
6.04,-33.34099,1.317879,-35.5066,0.6879032777696752,0.018791102867898,-0.8072229138897073,41.79219,352.949,181.2745,-0.06140392,-0.3553385,0.9321594,7
6.06,-33.2665,1.112673,-35.4873,0.619541566669958,-0.0223025300533617,-0.7399713969048021,45.41228,358.5154,180.6689,-0.01420396,-0.3858962,0.9223745,7
6.08,-33.23513,1.315646,-35.46313,0.5537119657201268,-0.0630696485984558,-0.6771936296934511,46.1713,356.1532,179.369,-0.02871736,-0.3920499,0.9194599,7
6.1,-33.17746,1.110231,-35.43661,0.4878252588312364,-0.0743068915403407,-0.5979593538958099,49.15937,359.1804,178.4805,-0.0009882272,-0.4159975,0.9093201,7
6.12,-33.11643,1.103373,-35.33663,0.4291881069950003,-0.1123917700453266,-0.5228354197434264,55.17744,1.126851,177.2505,0.01982341,-0.4627568,0.8858876,7
6.14,-33.09109,1.304964,-35.3199,0.3616540846035985,-0.0897228552954836,-0.4470820445772148,55.72144,358.7896,175.9611,0.007134493,-0.4673366,0.8836619,7
6.16,-33.00978,1.109722,-35.22886,0.3208605917762819,-0.0900928609996512,-0.3752784650187832,58.88059,358.3696,171.9082,0.02231614,-0.491116,0.8691036,7
6.18,-32.99517,1.309421,-35.2098,0.2883008569335556,-0.115379121493205,-0.3083687766199379,59.44566,356.4816,171.0744,0.01198221,-0.496143,0.8665775,7
6.2,-32.9393,1.123909,-35.10111,0.2518545752408503,-0.0810171037665887,-0.2444936543846969,59.79656,357.7195,169.9562,0.02643983,-0.49796,0.8642812,7
6.22,-32.81102,1.155575,-34.99273,0.2437371315718879,-0.0942396765093008,-0.1851067085513014,56.32034,357.4418,168.1233,0.02923927,-0.4713248,0.8777723,7
6.24,-32.79673,1.353245,-34.97123,0.2294845626827353,-0.0523534786090985,-0.1437308765078091,56.88499,355.3603,167.0592,0.0182618,-0.476866,0.8751513,7
6.26,-32.73661,1.190139,-34.89114,0.2321035924326606,-0.0596095742643514,-0.1109236083452502,49.96515,3.802293,173.2298,0.05494297,-0.4195981,0.9035296,7
6.28,-32.70438,1.388108,-34.87107,0.2419405070207401,-0.0673884986730701,-0.0831917871905796,50.54754,1.155062,171.5537,0.04052918,-0.425092,0.9014603,7
6.3,-32.59161,1.228331,-34.81923,0.2488720928120802,-0.050586123261341,-0.0653972518832297,40.83332,8.213191,173.9463,0.08539303,-0.3439197,0.9321513,7
6.32,-32.49917,1.256987,-34.76511,0.256916809619617,-0.0081888964741269,-0.0523911722918217,29.62556,14.22464,176.3263,0.1277704,-0.249727,0.9578201,7
6.34,-32.41651,1.269293,-34.74593,0.2723891281249622,0.0066679498901206,-0.0567755213492384,23.85678,15.95931,175.8676,0.1431154,-0.1996577,0.9672689,7
6.36,-32.40093,1.462745,-34.71465,0.2999684086115497,0.0225545112190111,-0.0674811958573036,24.74774,14.6415,175.4568,0.1327904,-0.2074428,0.9669644,7
6.38,-32.38746,1.657247,-34.68847,0.3208905048189017,0.033831214874529,-0.0835510778312071,25.47976,13.29565,175.0271,0.1223127,-0.2139376,0.9668038,7
6.4,-32.27197,1.289151,-34.69381,0.3433562631022897,0.0704024173402942,-0.1053088012906116,5.459178,23.34712,178.0151,0.2028834,-0.04312963,0.9778917,7
6.42,-32.21571,1.293266,-34.6892,0.3801685891092861,0.0557119203922542,-0.1386641279712357,359.7355,26.32053,178.2462,0.227614,0.00573197,0.9736285,7
6.44,-32.20544,1.48476,-34.65409,0.4074574170783589,0.0892211999895473,-0.1733453670831313,0.7806517,25.19183,178.2055,0.218146,-0.003232916,0.9757668,7
6.46,-32.04032,1.307342,-34.6283,0.4486263612142895,0.0977920742385939,-0.2138486284315597,350.9142,32.20315,178.7082,0.2755944,0.0792099,0.9579402,7
6.48,-32.03133,1.496191,-34.58599,0.497567390668455,0.1042716355299613,-0.255432470710657,352.1156,31.11292,178.8488,0.2668745,0.06891558,0.9612243,7
6.5,-31.9158,1.314834,-34.58167,0.539573366251763,0.1070230463649321,-0.302322367581568,350.713,35.07497,179.0857,0.2997151,0.07958707,0.9505547,7
6.52,-31.81422,1.3019,-34.56076,0.591478355437121,0.1071149360793192,-0.3453966752979207,351.8399,38.21882,179.5318,0.3262661,0.0685631,0.942588,7
6.54,-31.79519,1.489998,-34.51939,0.6347638210482174,0.099574133541041,-0.3953367866705752,353.0857,37.2332,179.559,0.3184307,0.05837307,0.9460186,7
6.56,-31.74129,1.285577,-34.54263,0.6748180320661175,0.1177410158489166,-0.4512848489239713,353.2247,40.75878,180.3547,0.3477963,0.05431579,0.9357013,7
6.58,-31.73065,1.478593,-34.51405,0.7096683272041493,0.0774530787171123,-0.5097288695110418,354.0016,39.80609,180.4141,0.3401389,0.0479682,0.9389118,7
6.6,-31.67056,1.275577,-34.52313,0.7343470089500626,0.096069967733255,-0.569250656641251,356.5954,43.5217,181.0958,0.3708166,0.02404502,0.9281818,7
6.62,-31.60801,1.265663,-34.51162,0.7533660282134895,0.0561695647574916,-0.6279834231217682,1.067907,46.43063,181.6047,0.3940119,-0.01408325,0.9189515,7
6.64,-31.58941,1.460838,-34.493,0.7561770249042206,0.0459330086632749,-0.6894442702344712,1.722997,45.65568,181.4903,0.3877066,-0.0189016,0.9215686,7
6.66,-31.55453,1.255022,-34.48798,0.7644396892631828,0.0337329040725757,-0.7492878725273187,5.299739,48.40635,182.5176,0.40851,-0.05115507,0.9113188,7
6.68,-31.536,1.450757,-34.46968,0.7782899223732889,0.0161751292773904,-0.8080117589079778,5.932817,47.57567,182.4267,0.4017176,-0.05587294,0.9140565,7
6.7,-31.51969,1.646234,-34.45053,0.7710671344177311,-0.0002592659325465,-0.8708867557166293,6.572257,46.78878,182.3726,0.395231,-0.06080572,0.9165593,7
6.72,-31.50348,1.217004,-34.4509,0.7612001542873679,-0.0481397078316779,-0.93342338773504,11.67083,53.03556,183.3898,0.4412768,-0.1040723,0.8911123,7
6.74,-31.48528,1.414389,-34.43698,0.7353842046170112,-0.0375611213893674,-0.984098534918556,12.23318,52.26421,183.3069,0.4349925,-0.1082568,0.8936525,7
6.76,-31.47047,1.611571,-34.42208,0.7050317790260339,-0.0861595333722001,-1.0353147444892563,12.78605,51.49411,183.2876,0.428643,-0.1126359,0.8961387,7
6.78,-31.44474,1.187571,-34.4648,0.6808205178085633,-0.1370563407856669,-1.0841610640155253,15.61071,56.06641,184.0826,0.4610635,-0.1363841,0.8762162,7
6.8,-31.43576,1.385447,-34.44765,0.6523993764368625,-0.0983649109345147,-1.1206654377539094,16.06968,55.41388,184.2919,0.4554284,-0.1409005,0.8784649,7
6.82,-31.42658,1.583107,-34.43026,0.6106512030472651,-0.1493356788279815,-1.1593283877153358,16.56944,54.76359,184.5008,0.4497429,-0.1457208,0.8806196,7
6.84,-31.38293,1.15085,-34.45573,0.5631880475369324,-0.1400685387787401,-1.1855032313561944,21.51274,58.74479,184.0177,0.4758686,-0.179433,0.8588213,7
6.86,-31.38007,1.143035,-34.37164,0.5129783118289208,-0.099450259532195,-1.2012248283588498,23.1701,58.71515,183.9741,0.4739131,-0.1915795,0.8567215,7
6.88,-31.36502,1.342828,-34.36494,0.4589560566622341,-0.1481227753274652,-1.2168108292775974,23.60525,57.97734,183.8961,0.4680344,-0.194938,0.8590973,7
6.9,-31.34942,1.542536,-34.35793,0.4095948378446916,-0.1343283498540788,-1.21922783311396,24.11211,57.2318,183.7987,0.4620376,-0.1987782,0.8613319,7
6.92,-31.3133,1.125078,-34.3723,0.3647155660797367,-0.1788827647758687,-1.2198327242712512,29.39774,59.15607,183.6874,0.4701073,-0.2359196,0.844816,7
6.94,-31.29069,1.325369,-34.3623,0.3175416756467268,-0.1904243850715361,-1.2077239554274826,30.18933,58.39655,183.5771,0.4636771,-0.2419153,0.8463723,7
6.96,-31.26806,1.525524,-34.35217,0.2781270305842391,-0.16822259407576,-1.1862416512861724,30.9837,57.62972,183.4538,0.4572064,-0.2479199,0.8478448,7
6.98,-31.24543,1.725541,-34.34188,0.2395878391436467,-0.2035110343703896,-1.1623092320591013,31.78054,56.85504,183.3167,0.4506959,-0.2539311,0.8492333,7
7.0,-31.11677,1.113585,-34.34518,0.2104502848971008,-0.2390578072658416,-1.132827619134817,41.1141,62.85545,181.8698,0.4832663,-0.3075534,0.8018444,7
7.02,-31.0765,1.111985,-34.27101,0.1923800012839001,-0.2433613369620435,-1.0928914196325064,41.99437,63.88995,181.4338,0.490128,-0.3102133,0.794521,7
7.04,-31.04379,1.313346,-34.26064,0.1812450808244001,-0.2158339423036742,-1.04539812832739,43.0532,63.19909,181.2444,0.4840077,-0.317803,0.7943617,7
7.06,-30.90652,1.109189,-34.24234,0.1804350854902114,-0.2462776056305999,-0.9968390331260232,48.82111,64.55175,178.978,0.4893582,-0.3450654,0.7679078,7
7.08,-30.86284,1.310138,-34.2295,0.1816984062825795,-0.2163650058612011,-0.9423841461752938,50.24153,63.72678,178.6319,0.4822351,-0.3548234,0.7662471,7
7.1,-30.7462,1.104856,-34.2115,0.1943970956260945,-0.2427397405933844,-0.8830249775342685,54.76126,64.25952,176.5647,0.483719,-0.3751335,0.7443052,7
7.12,-30.66735,1.104674,-34.1986,0.2109619936921229,-0.209391805599998,-0.8187218096389461,57.92834,63.6543,174.5152,0.4805558,-0.3889031,0.7303017,7
7.14,-30.62136,1.303015,-34.18662,0.2465170689026701,-0.196776909358803,-0.7591907226068058,59.39689,62.53384,173.8591,0.472885,-0.3987203,0.7276425,7
7.16,-30.39752,1.124306,-34.15334,0.2891664777613068,-0.1847910769948687,-0.6937583067209818,60.14821,58.09029,168.2162,0.4628918,-0.3926554,0.7275749,7
7.18,-30.31294,1.136322,-34.14095,0.3335578195225497,-0.164968503446823,-0.6348205285914004,59.29974,57.37191,167.7718,0.4610083,-0.3870817,0.7327709,7
7.2,-30.26678,1.330035,-34.12685,0.386022196742696,-0.146414110885921,-0.5707159793586198,60.72585,55.95771,166.7838,0.4534789,-0.3968474,0.7296409,7
7.22,-30.05349,1.188993,-34.11151,0.4528436949975551,-0.1187444433195064,-0.5172763298539955,50.373,62.2401,171.831,0.492458,-0.3300832,0.757062,7
7.24,-30.00646,1.379916,-34.09705,0.5106132358008835,-0.0684716616438501,-0.4725899785803422,51.81793,61.19855,171.2087,0.4853461,-0.339899,0.7549101,7
7.26,-29.88153,1.223777,-34.10462,0.5744065822971285,-0.0679773888584903,-0.4301900324178369,41.42491,66.87409,174.2715,0.5295108,-0.269018,0.7698429,7
7.28,-29.82741,1.411905,-34.08895,0.6398870492472915,-0.0184711881241967,-0.3929051977093385,43.06873,66.01598,173.8224,0.5225807,-0.2800623,0.7681512,7
7.3,-29.72977,1.252754,-34.11446,0.7105592064115935,0.0254041497522532,-0.3524434110966803,30.34308,70.8361,175.4814,0.5673123,-0.1910632,0.7799513,7
7.32,-29.66854,1.438406,-34.09917,0.7626624801313047,0.0458179596655123,-0.3232500822834714,32.1673,70.09559,175.124,0.5609307,-0.2031284,0.7791495,7
7.34,-29.54718,1.27793,-34.13095,0.8131815397471245,0.0644336135210186,-0.2987349374508712,12.15077,76.7126,177.183,0.6189182,-0.06780086,0.7779127,7
7.36,-29.48499,1.462668,-34.11636,0.8612018120770326,0.1058739074647499,-0.2713149024719614,13.99165,76.1245,177.0319,0.6142057,-0.08001558,0.7792729,7
7.38,-29.42245,1.28694,-34.13296,0.9085139844707424,0.094999520482933,-0.2475864796582554,0.6094379,80.00552,177.9007,0.6427823,0.007702521,0.7658116,7
7.4,-29.35965,1.47113,-34.11941,0.963885996829044,0.0774291897491154,-0.2220419363404007,2.456659,79.56092,177.8557,0.6398969,-0.004501739,0.7679341,7
7.42,-29.30027,1.295464,-34.13618,1.0156392661022666,0.0897614532724414,-0.1934230835927435,352.6391,82.6105,178.3364,0.6579397,0.05777819,0.7501904,7
7.44,-29.23589,1.478577,-34.12379,1.068069276093535,0.1247995585392809,-0.1594215478023937,354.5119,82.30505,178.3736,0.6567334,0.04537317,0.7524684,7
7.46,-29.11234,1.312392,-34.13892,1.116208567464135,0.1057930314730956,-0.1309895584012821,350.9294,84.75661,179.24,0.6715102,0.06286699,0.736735,7
7.48,-29.05086,1.494729,-34.12428,1.148719417635372,0.1352329697844601,-0.1005516156921046,352.6972,84.53037,179.4413,0.6709601,0.05040173,0.7387378,7
7.5,-29.01584,1.300435,-34.14126,1.1715104128970628,0.1094811179859163,-0.0794648996532823,351.9482,85.75479,179.7281,0.6786288,0.05305922,0.7311144,7
7.52,-28.95351,1.482387,-34.12518,1.1857284911868908,0.1330630829785336,-0.0537810171588324,353.7585,85.43481,179.9731,0.6773674,0.04015699,0.7336277,7
7.54,-28.90481,1.271366,-34.14894,1.1851165147979388,0.1322218018487065,-0.0335618821670715,355.5858,86.60658,181.1278,0.685594,0.02128001,0.7268984,7
7.56,-28.84455,1.454697,-34.13194,1.1895314699999004,0.1272802983608362,-0.0145838433009597,357.3711,86.09123,181.3739,0.6825527,0.008581752,0.730378,7
7.58,-28.82391,1.262625,-34.13975,1.177553702548677,0.1261884003360829,0.0050830282976859,359.4922,86.83394,181.5668,0.6872758,-0.006178301,0.7262546,7
7.6,-28.76379,1.446475,-34.12098,1.1724912822575106,0.1207489193520048,0.0252630651477625,1.29314,86.12796,181.8173,0.6825546,-0.0190711,0.7305756,7
7.62,-28.76992,1.254019,-34.136,1.1460499088225835,0.118340825601453,0.0433270662937568,4.156978,86.94395,182.5338,0.686797,-0.04151553,0.7256081,7
7.64,-28.73709,1.240834,-34.13503,1.119471784419663,0.1426674985600116,0.0641788362223074,8.338946,87.02852,183.0892,0.6850421,-0.07121863,0.7243704,7
7.66,-28.68008,1.428123,-34.1198,1.081674357618117,0.1095692947647612,0.0783085384557917,10.06423,86.22487,183.2563,0.6787039,-0.08335004,0.72861,7
7.68,-28.62358,1.614568,-34.10421,1.0482145550416209,0.1320663071444678,0.0956897408821504,11.79303,85.42384,183.4069,0.6721817,-0.09550855,0.7326344,7
7.7,-28.67396,1.210591,-34.12916,1.0010595214343303,0.0978817970886638,0.1072842726940104,12.84413,86.67618,183.5497,0.6791487,-0.1024353,0.7247835,7
7.72,-28.65016,1.191877,-34.12726,0.9549418976787712,0.0321885533496687,0.116376481457963,15.52292,86.15373,183.8273,0.6730506,-0.1211877,0.7264229,7
7.74,-28.59348,1.383731,-34.11558,0.9170839294147553,0.0553100758674274,0.1289797969009143,17.27686,85.37946,183.9393,0.6661458,-0.1333753,0.7297686,7
7.76,-28.60698,1.17467,-34.11898,0.8870712745227567,0.0749314619923344,0.1429492829414558,18.31965,84.30149,184.0359,0.6579594,-0.141276,0.7352358,7
7.78,-28.55157,1.368447,-34.10749,0.8399821395669909,0.0071201065849474,0.1495954658349925,20.05675,83.52445,184.1188,0.6507738,-0.1533756,0.7382126,7
7.8,-28.49644,1.561436,-34.0956,0.7891965227414666,0.0007570623136436,0.1627834362596667,21.79557,82.74629,184.1896,0.6434211,-0.1655023,0.7409632,7
7.82,-28.55223,1.148653,-34.11216,0.7497668616142836,-0.0055618077229887,0.1768118325316265,22.91157,81.51544,184.0648,0.6341178,-0.1730413,0.7465184,7
7.84,-28.49548,1.345202,-34.10205,0.7105841041037819,-0.0717214389345421,0.1870602362983318,24.71614,80.70987,184.0555,0.6263503,-0.1853727,0.7488282,7
7.86,-28.43886,1.540952,-34.09161,0.6783638769411375,-0.0460706039481288,0.2041010443197146,26.5272,79.89175,184.0161,0.6183896,-0.1976836,0.7509044,7
7.88,-28.45868,1.125155,-34.09975,0.6590621732127668,0.009373981487001,0.2117901004897531,30.5748,77.48669,183.6408,0.5968509,-0.2247176,0.757221,7
7.9,-28.39896,1.324752,-34.09065,0.6344526431564002,-0.0220076901753114,0.2147834249506832,32.50201,76.5939,183.4624,0.5880691,-0.2375001,0.758348,7
7.92,-28.34019,1.116696,-34.09404,0.6229640591180661,-0.0823702425927487,0.2166125610339344,38.35569,75.94225,182.7868,0.5746501,-0.2730193,0.7492667,7
7.94,-28.28267,1.115144,-34.09333,0.6206975337790483,-0.0522739772551917,0.2229043709687852,40.88169,75.77952,182.4272,0.5695069,-0.2877446,0.7438778,7
7.96,-28.20828,1.31623,-34.08324,0.6296743980560002,-0.022866589628936,0.2302159967629977,43.27657,74.72633,182.0452,0.5587791,-0.3031015,0.7426714,7
7.98,-28.16261,1.11416,-34.08523,0.6399027789751788,-0.0820665654517613,0.2340233192427918,44.10087,75.36589,181.17,0.563515,-0.3028806,0.7358221,7
8.0,-28.07721,1.315378,-34.072,0.6621586687560597,-0.1432540259453844,0.238743480008182,46.85563,74.2687,180.747,0.5518412,-0.3205745,0.7330498,7
8.02,-27.95564,1.10995,-34.06667,0.6806895189854969,-0.0885356649316702,0.2464144735495388,50.35659,73.67171,178.7365,0.5462841,-0.3344981,0.7214571,7
8.04,-27.86375,1.310015,-34.05252,0.7228989906465828,-0.0916764132726377,0.2434033426249513,53.30978,72.33411,178.0453,0.533525,-0.3531183,0.7168834,7
8.06,-27.75339,1.104021,-34.04296,0.7756607411219973,-0.1213824468400159,0.2400266265981212,56.2734,71.56188,176.1874,0.5280333,-0.3652078,0.7058202,7
8.08,-27.65981,1.300864,-34.02754,0.8214109163679377,-0.0918929752200946,0.2358816375703343,59.28065,69.89314,175.1519,0.5145582,-0.3839595,0.6998093,7
8.1,-27.54227,1.10499,-34.01361,0.8733336700367662,-0.0641897021514969,0.2316875745318452,61.04068,66.89725,171.2121,0.5058898,-0.3861118,0.695218,7
8.12,-27.44815,1.297079,-33.99633,0.9268077416015617,-0.0576352027552402,0.2237722570149323,64.02283,64.56068,169.4706,0.492066,-0.404717,0.6878882,7
8.14,-27.24113,1.12969,-33.96889,0.98040195110817,-0.0218061239021796,0.2158303848722793,60.79182,60.55158,166.7782,0.4822799,-0.3839921,0.7105846,7
8.16,-27.14685,1.315028,-33.94815,1.0386581745032015,0.0116045674810656,0.2079219563937915,63.672,57.69425,164.4417,0.4686578,-0.4023008,0.7028435,7
8.18,-27.03092,1.162802,-33.93561,1.0908969800513404,0.0278474259188212,0.1925007569351802,55.59905,61.2305,168.8307,0.4874146,-0.3556234,0.7345521,7
8.2,-26.93616,1.34395,-33.91219,1.1383756159789185,0.0468445734062737,0.1734986274246637,58.49254,58.91373,167.009,0.4744513,-0.3741349,0.7276765,7
8.22,-26.75381,1.213031,-33.90462,1.1902351054686728,0.063368323239852,0.1545271434687443,42.91465,68.0059,173.9418,0.535773,-0.2753311,0.7596623,7
8.24,-26.65313,1.38852,-33.87819,1.226406656661465,0.081586151447574,0.1269500271049182,46.02239,66.60786,173.0686,0.5242147,-0.295563,0.7548843,7
8.26,-26.56022,1.240542,-33.89131,1.2652814696138903,0.0965304771194328,0.0993337003665626,31.89012,70.91701,175.2904,0.5665166,-0.2006586,0.7759879,7
8.28,-26.45035,1.41173,-33.86306,1.2947675624264994,0.156667937638759,0.0748511912932734,35.2488,69.79552,174.6814,0.5561944,-0.2227631,0.7727981,7
8.3,-26.3425,1.579776,-33.83446,1.313199685478848,0.142325405327275,0.0414028107613582,38.59703,68.57928,173.9618,0.5453634,-0.2446669,0.7688869,7
8.32,-26.3164,1.264215,-33.87261,1.3171411090329936,0.1518817758415394,0.0103318947034116,13.81081,75.29314,177.1296,0.6085525,-0.07998097,0.7839641,7
8.34,-26.19083,1.272729,-33.86203,1.32172865773643,0.1579645699005004,-0.0206581674666965,2.279254,78.18343,177.9167,0.6306154,-0.003972914,0.775628,7
8.36,-26.07641,1.440331,-33.83202,1.3187636407892795,0.1642445523819004,-0.049868080176993,5.75893,77.39754,177.8535,0.6250614,-0.02750267,0.7787334,7
8.38,-26.01613,1.279434,-33.83393,1.3154460740240173,0.1664171835799151,-0.0783588333071456,354.4198,79.50433,178.3882,0.6381205,0.0464035,0.7682683,7
8.4,-25.89916,1.444575,-33.80156,1.3111093116784174,0.215021855155012,-0.1015778288217594,357.9766,78.72042,178.4486,0.6338519,0.02223464,0.7731345,7
8.42,-25.75642,1.293852,-33.79123,1.293078247863872,0.1894898904793901,-0.1313625071753774,352.8325,80.12122,179.2514,0.6420129,0.05203596,0.764114,7
8.44,-25.63824,1.45545,-33.7548,1.2700896526022651,0.1853833342498076,-0.1590460433759721,356.4214,79.32519,179.4403,0.6378293,0.02715273,0.7695293,7
8.46,-25.6013,1.282908,-33.7621,1.2461639416416532,0.1774370251414549,-0.1851450896026536,353.7682,80.10126,179.7344,0.642415,0.04309742,0.7644236,7
8.48,-25.48535,1.445303,-33.72508,1.198469933520084,0.1665901878877709,-0.2118690506909315,357.317,79.30736,179.9548,0.6379637,0.01827639,0.7697107,7
8.5,-25.48403,1.262157,-33.74812,1.15030743051938,0.1520888536881028,-0.2373263411373223,355.7505,80.35641,180.5414,0.6448503,0.02528054,0.7633948,7
8.52,-25.36884,1.426195,-33.71264,1.0976724508591738,0.1389586173634987,-0.2616636226667257,359.3027,79.57217,180.7502,0.6399282,0.0004865618,0.7683828,7
8.54,-25.30653,1.24601,-33.72935,1.0374281851418965,0.0988348356249577,-0.2869596714035305,1.415049,81.21438,181.5709,0.6506302,-0.01829543,0.7591707,7
8.56,-25.18921,1.411175,-33.69522,0.9792607653159676,0.1131095320266373,-0.3052771807672352,5.044635,80.45354,181.7985,0.644582,-0.04372206,0.7631068,7
8.58,-25.18607,1.237751,-33.71238,0.9210103026340136,0.1225141453606157,-0.3225050149155937,6.183354,81.31004,182.5565,0.64948,-0.05541884,0.7581372,7
8.6,-25.06841,1.405034,-33.67927,0.8415984316924874,0.1075049922180012,-0.3415496343975537,9.831851,80.56857,182.7766,0.6424292,-0.08095952,0.7611589,7
8.62,-25.09865,1.226386,-33.70196,0.7638682554766763,0.0905078718891779,-0.3599329875815211,10.33606,81.54139,183.1368,0.6482679,-0.08599359,0.755578,7
8.64,-24.98215,1.397036,-33.67105,0.6973033274247693,0.1243843334645195,-0.3727134612313847,13.95815,80.81271,183.3359,0.6404359,-0.1112116,0.7577967,7
8.66,-24.98776,1.19966,-33.69829,0.6114845042517207,0.1054165600452576,-0.3887554195106144,14.76347,82.64719,183.6615,0.6514218,-0.117358,0.7470983,7
8.68,-24.87325,1.376438,-33.6709,0.5173620431763939,0.0590168972063285,-0.4056244890560903,18.35024,81.94033,183.8795,0.642831,-0.1422355,0.7485024,7
8.7,-24.90261,1.183172,-33.69236,0.4273363667080607,0.0106130312914662,-0.4216936333776964,17.40363,82.47747,183.9238,0.6473334,-0.1360082,0.7462923,7
8.72,-24.83881,1.168181,-33.69082,0.3427068300822089,-0.0094031415422643,-0.4337677394176609,20.14631,81.73409,184.094,0.6390845,-0.1551955,0.7481856,7
8.74,-24.72722,1.353044,-33.66711,0.2684077591128466,0.0022358228110515,-0.4429047350703872,23.68516,81.01054,184.2097,0.6295332,-0.1792835,0.7485561,7
8.76,-24.61684,1.534716,-33.64293,0.1996198623334302,0.0120530807218809,-0.4505048900030912,27.22402,80.27413,184.2785,0.6193594,-0.2031839,0.7481762,7
8.78,-24.68681,1.145487,-33.67781,0.1466870930427566,0.076515220139706,-0.4543316296159148,24.598,79.89401,184.0497,0.621181,-0.1853682,0.7534087,7
8.8,-24.66214,1.139052,-33.67788,0.0686571181435167,0.0273866540278118,-0.4615287582379563,26.28999,79.34831,183.9771,0.6152444,-0.1965064,0.7541066,7
8.82,-24.5539,1.331895,-33.65832,-0.0015020828137415,-0.0219229480631807,-0.467320440775766,29.75671,78.53189,183.8648,0.6046497,-0.2193077,0.7533141,7
8.84,-24.5252,1.124862,-33.6699,-0.0553322887926714,-0.0407492796112415,-0.4698192092134148,32.07945,77.18364,183.5311,0.5925467,-0.2343289,0.7561352,7
8.86,-24.41846,1.322122,-33.65274,-0.1068029901175333,-0.0862580914290322,-0.4724501938995384,35.50517,76.24194,183.2083,0.5809826,-0.256238,0.7542233,7
8.88,-24.31211,1.516504,-33.635,-0.1491593899494159,-0.1316168883309964,-0.4735949180235792,38.9249,75.2326,182.7985,0.5688775,-0.2778988,0.7515981,7
8.9,-24.32364,1.117195,-33.66111,-0.1709116962480328,-0.0889359686113825,-0.4704448865726691,39.63113,76.32616,182.6548,0.5749847,-0.2799307,0.7443541,7
8.92,-24.21254,1.115057,-33.66395,-0.1989366438027509,-0.132846673017061,-0.4693480001850245,43.27316,76.82715,181.7183,0.5731581,-0.2975356,0.7316922,7
8.94,-24.10814,1.315508,-33.65026,-0.216536545997442,-0.1156851061750535,-0.464396115504841,46.61556,75.70493,181.2045,0.5602387,-0.3183251,0.7276689,7
8.96,-24.00391,1.513225,-33.63598,-0.2225843232480762,-0.1257324237851695,-0.4582685304447995,49.94888,74.46136,180.5547,0.5468197,-0.3388203,0.7229861,7
8.98,-23.97141,1.112994,-33.65296,-0.2206900604351584,-0.1343572124490741,-0.4501978570153628,48.06614,75.83614,179.5077,0.5626355,-0.3188725,0.7194201,7
9.0,-23.86815,1.313622,-33.63979,-0.2073378848407081,-0.1418659945380194,-0.4398766578480364,51.36623,74.5698,178.8401,0.5493931,-0.3392787,0.7143343,7
9.02,-23.76504,1.51158,-33.62604,-0.1877068532052845,-0.1483842430790367,-0.4280150967633096,54.65432,73.13758,177.9939,0.5356708,-0.3593768,0.7086141,7
9.04,-23.5566,1.102211,-33.62675,-0.1490165904040243,-0.1510898282292128,-0.414298287046952,59.67995,72.80384,174.0356,0.5349047,-0.373165,0.6818545,7
9.06,-23.44293,1.104456,-33.61847,-0.1068209302326592,-0.1536893895274338,-0.3990187853674616,61.21578,70.01901,171.2314,0.5242136,-0.3780633,0.6805459,7
9.08,-23.3428,1.295752,-33.60426,-0.060351143905093,-0.1492537946258525,-0.3827874115162428,64.37669,67.70999,169.4834,0.5100273,-0.3973144,0.6726564,7
9.1,-23.24336,1.484551,-33.58954,-0.0113322600064442,-0.1449811155875335,-0.3649394611015184,67.4977,64.84986,167.1767,0.4954137,-0.4162197,0.6641936,7
9.12,-23.09966,1.128927,-33.59441,0.0531356690822781,-0.1304136687229146,-0.3474910252242562,60.94439,64.06159,166.7163,0.5037749,-0.3741608,0.6946533,7
9.14,-22.99952,1.313291,-33.5785,0.1187932959528992,-0.1165859774443615,-0.328542674935214,63.97269,61.1479,164.2787,0.4897447,-0.3927834,0.6865439,7
9.16,-22.90046,1.495154,-33.56213,0.1705899042259364,-0.0984792973303192,-0.3139192657067529,66.93169,57.557,161.1575,0.4753119,-0.4110701,0.6778599,7
9.18,-22.68869,1.195589,-33.57556,0.2231968368209789,-0.0812474703497908,-0.2983164941218126,48.29024,70.99455,173.1593,0.5487881,-0.300819,0.7274216,7
9.2,-22.59849,1.209991,-33.58283,0.2728674403747142,-0.0177696005182615,-0.2806767115827115,43.32326,72.96361,173.8794,0.567636,-0.2668691,0.7344816,7
9.22,-22.48305,1.381759,-33.5631,0.31655304679941,-0.0254428102721321,-0.2721308144459247,46.82301,71.53598,172.9207,0.555266,-0.2886606,0.7288339,7
9.24,-22.33176,1.250071,-33.60176,0.350424728370756,-0.0112217718633227,-0.2648702614345524,26.22049,78.35414,175.988,0.6210315,-0.1541905,0.7495138,7
9.26,-22.21385,1.418759,-33.5828,0.383544069716641,0.0017324423759202,-0.2575335888752335,29.75296,77.40501,175.5576,0.6116298,-0.1767853,0.7474567,7
9.28,-22.09816,1.583961,-33.56335,0.4163826619710695,0.0584891087050318,-0.2444154041270509,33.27886,76.38812,175.0402,0.6016176,-0.199202,0.744645,7
9.3,-22.0641,1.268049,-33.60476,0.4348837525141436,0.0424783689674372,-0.2383318417445261,8.14289,82.82607,177.534,0.6608061,-0.03903736,0.7468842,7
9.32,-22.01218,1.271889,-33.61179,0.45142734519436,0.0242306872603739,-0.2326881171778856,2.376664,84.55181,177.925,0.6727244,-0.003164814,0.7393812,7
9.34,-21.89202,1.438474,-33.59437,0.4774707650703051,0.0728741317590239,-0.2177239374361166,5.9473,83.80386,177.8715,0.6675605,-0.02621667,0.7425153,7
9.36,-21.76437,1.285272,-33.61349,0.4985978163819138,0.0743907085452001,-0.2074282082629208,353.3208,87.02097,178.7101,0.6867992,0.04998231,0.7244225,7
9.38,-21.64277,1.448755,-33.59465,0.5092014541300336,0.0516866127501255,-0.1997740162303785,356.9111,86.26801,178.8319,0.6832228,0.02663422,0.7296417,7
9.4,-21.52377,1.608557,-33.57529,0.5242987848225549,0.075007526794701,-0.187434445323003,0.5017138,85.5245,178.9064,0.678951,0.003265312,0.7341087,7
9.42,-21.49262,1.296036,-33.60818,0.526583839712953,0.0451186336792328,-0.1816471398648538,353.4677,87.60378,179.4859,0.6908513,0.04422022,0.7207348,7
9.44,-21.40708,1.269998,-33.61374,0.5205547710721947,0.0604000099036608,-0.1734625955394788,354.0809,88.31396,179.9828,0.6956921,0.03714591,0.7164825,7
9.46,-21.28849,1.433658,-33.59401,0.5087867778822459,0.0734074669600481,-0.1669285906255524,357.6065,87.55753,180.2149,0.6917518,0.01378282,0.721831,7
9.48,-21.26705,1.254564,-33.61779,0.4847280067852169,0.060639291884403,-0.1628665596366332,357.4483,88.36802,181.1019,0.6969136,0.009266268,0.7167451,7
9.5,-21.14729,1.418927,-33.59961,0.4442613170551306,0.0236994666625853,-0.1634882377382371,1.030438,87.62724,181.3001,0.6921687,-0.01434271,0.7215908,7
9.52,-21.08242,1.24047,-33.61465,0.4171166457061885,0.037323135739945,-0.1575160394332684,4.021348,88.87389,182.0377,0.6991369,-0.03748967,0.7139058,7
9.54,-21.01426,1.237893,-33.61191,0.373734277772086,0.0005107457345248,-0.1576526815954686,6.162229,88.78944,182.5525,0.6975575,-0.05395613,0.7141649,7
9.56,-20.89368,1.405335,-33.59477,0.3350267191235492,0.0146979288160541,-0.1524526930072909,9.795148,88.08404,182.7724,0.6909603,-0.07810804,0.717432,7
9.58,-20.77546,1.56917,-33.57711,0.2923799173216959,0.0276873896410631,-0.1494126831239484,13.42941,87.38444,182.9492,0.6836432,-0.1021708,0.7199421,7
9.6,-20.84725,1.217482,-33.60489,0.2338828543087046,0.0122171599510463,-0.1469099419874187,11.89705,88.74246,183.3195,0.6931016,-0.0941956,0.7127758,7
9.62,-20.72835,1.390138,-33.58976,0.1580742109086474,-0.0278397842356637,-0.1489170664577388,15.51414,88.055,183.5147,0.6853439,-0.1181193,0.7149687,7
9.64,-20.61145,1.559289,-33.5741,0.1023457351484302,-0.0154725574501632,-0.1453927154503729,19.13222,87.36759,183.6678,0.676879,-0.1419131,0.7164146,7
9.66,-20.6715,1.183184,-33.60482,0.0279299009322384,-0.0568738754231956,-0.147015076715661,17.41745,88.65201,183.8938,0.6866058,-0.1317183,0.7103142,7
9.68,-20.63987,1.175833,-33.60565,-0.0291383895633368,-0.0419453401367708,-0.1426774567743347,18.73433,88.23836,184.0297,0.6823377,-0.1409216,0.7118664,7
9.7,-20.52538,1.358783,-33.59433,-0.0864793098346687,-0.0271343618658995,-0.1403130044524507,22.28633,87.54922,184.1485,0.6732851,-0.164024,0.7128292,7
9.72,-20.51447,1.153085,-33.6024,-0.1517153842702332,-0.0416362815610099,-0.136257346745058,23.07853,85.95721,184.0368,0.6623771,-0.1697854,0.7211794,7
9.74,-20.40224,1.342097,-33.59212,-0.2079688405696536,-0.0238909093653087,-0.1304543218394789,26.60219,85.21834,184.0141,0.6524985,-0.1922981,0.7212611,7
9.76,-20.29088,1.527992,-33.58127,-0.2625046645118218,-0.0058132009091409,-0.1262159602534804,30.12365,84.45351,183.9379,0.6419838,-0.2146087,0.7206303,7
9.78,-20.1806,1.710826,-33.56987,-0.3371963609801853,-0.0731182934686559,-0.1265605758115286,33.64282,83.65399,183.8023,0.6308432,-0.2367008,0.7192873,7
9.8,-20.29118,1.128796,-33.59338,-0.3826467015596764,-0.0543436461581207,-0.1201519932057193,30.05391,82.16905,183.6848,0.628088,-0.2157298,0.7330677,7
9.82,-20.18223,1.324719,-33.58404,-0.4119285914848287,-0.0056320140583035,-0.111882383263544,33.51044,81.2998,183.4137,0.6169872,-0.2372046,0.731765,7
9.84,-20.13119,1.118803,-33.59086,-0.4469155339255117,-0.0426157417571731,-0.1091258057782393,37.39927,80.19846,182.9796,0.6035298,-0.2610215,0.7296753,7
9.86,-20.07004,1.117289,-33.59567,-0.4717703809179308,-0.0469362864615578,-0.1041492170286328,39.60247,80.20406,182.6185,0.5999858,-0.2728956,0.7244706,7
9.88,-19.96424,1.316956,-33.58897,-0.49188234728309,-0.0490304284571407,-0.1000362897449891,42.95841,79.13119,182.0902,0.5874774,-0.293038,0.7214923,7
9.9,-19.85861,1.513853,-33.58168,-0.5075351232974239,-0.0522940462809435,-0.0969923183004644,46.30498,77.95065,181.4399,0.5744418,-0.3129073,0.7178562,7
9.92,-19.86387,1.114594,-33.60168,-0.5144632041694825,-0.0555789501282665,-0.0918389003315622,44.67772,80.11162,181.0813,0.5924661,-0.2965264,0.7102515,7
9.94,-19.75903,1.315342,-33.5944,-0.5165741234281929,-0.026617493874131,-0.0846447908578138,48.00993,78.99873,180.5413,0.579567,-0.3166532,0.706108,7
9.96,-19.64793,1.110042,-33.60209,-0.5132279115939942,0.0021370938347809,-0.0778330311552828,50.676,78.91999,178.6871,0.5781478,-0.3238097,0.6946328,7
9.98,-19.54461,1.309668,-33.59542,-0.4927929511933575,-0.0581623330239537,-0.0740398697146611,53.95697,77.59541,177.9242,0.5646999,-0.3433901,0.6892877,7
10.0,-19.44652,1.103828,-33.59896,-0.4586404245757736,-0.0578773318510775,-0.0670348382577517,56.49094,77.35539,176.1481,0.5626318,-0.3507432,0.6773894,7
10.02,-19.34467,1.300118,-33.5923,-0.4201340925034051,-0.0569753591580911,-0.0603068984734793,59.72182,75.70376,175.0502,0.5486357,-0.3697928,0.6709384,7
10.04,-19.11315,1.109185,-33.59116,-0.3599895349294768,-0.1090914923590771,-0.0555636040412403,62.6368,69.69002,167.8184,0.5306153,-0.3723964,0.6656483,7
10.06,-19.01226,1.298084,-33.58291,-0.3126955930852577,-0.0738072019368873,-0.0490118749106027,65.72386,66.84415,165.4551,0.5162713,-0.3906765,0.6576042,7
10.08,-18.88526,1.128909,-33.58305,-0.265334226737312,-0.0112456681135996,-0.0420029924118159,60.94215,66.87209,166.7174,0.5206591,-0.3654146,0.6821027,7
10.1,-18.78449,1.313315,-33.57225,-0.2113093062555731,-0.0217181685903759,-0.03890641462156,63.96565,63.99792,164.2845,0.5066581,-0.3835202,0.6742027,7
10.12,-18.5659,1.178265,-33.57624,-0.1442241225801548,-0.0543780884373017,-0.0394824019747366,52.06925,70.80885,171.177,0.5465332,-0.3166509,0.710647,7
10.14,-18.46334,1.356522,-33.56316,-0.0818799732594659,-0.0096686539587296,-0.0373916949028814,55.1582,68.92672,169.7276,0.5337384,-0.3352796,0.7044154,7
10.16,-18.34629,1.211397,-33.57917,-0.0203008756010136,-0.0120743067741532,-0.0414840347479357,43.13939,74.82258,173.8981,0.5797287,-0.261524,0.7257369,7
10.18,-18.23604,1.384903,-33.56454,0.0434682654478599,-0.0170190236330467,-0.0460643097371917,46.45806,73.45699,172.973,0.567885,-0.2818365,0.7206678,7
10.2,-18.1276,1.555398,-33.54943,0.0918957552556449,0.0441763847427433,-0.0468464987498968,49.75817,71.91883,171.8645,0.5555313,-0.3018859,0.7149419,7
10.22,-18.06025,1.249844,-33.60029,0.1353948778692211,0.0587760359128865,-0.0538064417458956,26.25335,79.87413,175.9741,0.6309028,-0.1520656,0.7411335,7
10.24,-17.92787,1.263826,-33.61479,0.1775038017827144,0.0727079238760977,-0.0615918827686128,13.86749,83.37413,177.1581,0.6622305,-0.07375427,0.7391078,7
10.26,-17.80949,1.43191,-33.60042,0.2120115229717263,0.1280663822804768,-0.0616551409504815,17.38175,82.60885,176.9552,0.6552664,-0.09613553,0.7396758,7
10.28,-17.69333,1.596527,-33.5855,0.2332051069217735,0.1112908484164107,-0.0683774476757541,20.89227,81.81454,176.6977,0.6476643,-0.1184171,0.7395145,7
10.3,-17.65656,1.275814,-33.6176,0.2518861820538254,0.0926614883644714,-0.0757981569082932,358.3966,86.86139,178.161,0.6871578,0.02119119,0.7261963,7
10.32,-17.53604,1.441714,-33.60321,0.2794168494552049,0.1409580967231948,-0.0750026995784933,1.956976,86.15294,178.168,0.6829865,-0.001555498,0.7300566,7
10.34,-17.41792,1.604028,-33.58826,0.3141326862587565,0.1430790154969689,-0.0775405413123451,5.516205,85.44275,178.131,0.6781343,-0.02429458,0.7331804,7
10.36,-17.29818,1.293894,-33.62232,0.3361633453497878,0.1191819425800826,-0.0821607600446938,352.8277,88.80491,179.2385,0.6980116,0.04932736,0.7133189,7
10.38,-17.2257,1.296137,-33.62315,0.3533710949653856,0.1406829242316456,-0.0811676693021024,353.4508,89.01743,179.5027,0.6996899,0.04377241,0.7121466,7
10.4,-17.10373,1.457265,-33.60449,0.3656865615206033,0.1595157627982005,-0.0801646900778978,357.0197,88.29207,179.74,0.69621,0.02024016,0.7173636,7
10.42,-17.04367,1.262196,-33.6282,0.3506672480529638,0.1014807419631618,-0.0876314104792372,355.7404,89.54729,180.5558,0.7039409,0.02296784,0.7092691,7
10.44,-16.92434,1.426262,-33.61167,0.3448974372055153,0.1117884951256841,-0.0877646582414755,359.2856,88.83314,180.7843,0.6998705,-0.0003369546,0.7142099,7
10.46,-16.80752,1.586801,-33.59465,0.3297847546065633,0.1002134853974131,-0.0892342449488508,2.832361,88.13303,180.9687,0.6951057,-0.02363497,0.7184332,7
10.48,-16.81958,1.246054,-33.62677,0.311712217769752,0.0888508437077729,-0.0911159256926001,1.405428,89.77975,181.5647,0.7055089,-0.01832366,0.7084635,7
10.5,-16.78604,1.240718,-33.63008,0.2856983896593583,0.0780880460402271,-0.0907936350397955,3.98759,90.03951,182.0374,0.7063733,-0.0371567,0.7067609,7
10.52,-16.66523,1.407231,-33.6154,0.2572299597209668,0.0680281254565059,-0.0908407771040673,7.609672,89.36115,182.2655,0.7005339,-0.0610441,0.7102545,7
10.54,-16.6359,1.226511,-33.62915,0.2180273224383686,0.0561007443688833,-0.0901391515446041,10.30891,90.18119,183.1502,0.7033502,-0.08279125,0.7046164,7
10.56,-16.51649,1.397278,-33.61609,0.1840744845503505,0.07104293359066,-0.0878152675285495,13.91241,89.5271,183.3691,0.6961694,-0.1065019,0.7069951,7
10.58,-16.39917,1.564529,-33.60247,0.1471447253265363,0.0853983244409967,-0.0860680742483941,17.51707,88.87643,183.5487,0.6882773,-0.1300958,0.7086425,7
10.6,-16.48357,1.199775,-33.62899,0.0786523298276886,0.0200293119543666,-0.0893732208681203,14.75709,90.32687,183.6329,0.7000252,-0.1127965,0.7017837,7
10.62,-16.4723,1.191084,-33.63304,0.0293382188049224,0.0044349342698823,-0.0884034248594272,16.06918,90.57372,183.7488,0.7000696,-0.1213003,0.6995277,7
10.64,-16.356,1.370032,-33.62355,-0.0208615735900874,-0.008611396034193,-0.08823973287629,19.63721,89.93482,183.9389,0.6917954,-0.1445115,0.7008757,7
10.66,-16.36355,1.168292,-33.63362,-0.0723276630888429,-0.022136943049205,-0.0890859168664679,20.14222,89.05202,184.0594,0.6855795,-0.1490455,0.7058496,7
10.68,-16.24955,1.353213,-33.6256,-0.125324097512433,-0.0381461680722216,-0.0869284355557828,23.68267,88.38773,184.1438,0.6764889,-0.1716967,0.7064405,7
10.7,-16.13668,1.534931,-33.61699,-0.1648640166671204,-0.0232600631282019,-0.0833384077923193,27.22275,87.71016,184.1846,0.6667334,-0.1941707,0.7063278,7
10.72,-16.22708,1.139177,-33.63216,-0.2032117937635194,-0.0080216247783707,-0.0801178307374854,26.28259,85.16306,183.9386,0.6527773,-0.189948,0.721896,7
10.74,-16.11707,1.332088,-33.62484,-0.2436767186112503,-0.0204154237527869,-0.0767028150497219,29.75028,84.39992,183.7909,0.6425637,-0.2115439,0.7212909,7
10.76,-16.00767,1.522011,-33.61696,-0.2890041659762321,-0.0583176595503237,-0.0745357648210003,33.21437,83.59823,183.583,0.6317452,-0.2329299,0.7199959,7
10.78,-16.05133,1.124932,-33.62806,-0.3320167182308939,-0.0944697765609983,-0.0731392416735658,32.07961,82.0891,183.5022,0.6244199,-0.2275763,0.7300441,7
10.8,-15.94324,1.32225,-33.62086,-0.3729898897913757,-0.1321731341040638,-0.0726676848090974,35.50388,81.20393,183.1544,0.6132063,-0.2484644,0.7282854,7
10.82,-15.83546,1.516676,-33.61309,-0.3972163230000771,-0.144131594770233,-0.0715233136615545,38.92209,80.25177,182.7227,0.6014257,-0.2691134,0.7258434,7
10.84,-15.79632,1.11564,-33.63626,-0.4170737684819472,-0.1537360032407786,-0.07094829528019,41.85841,81.16558,182.3379,0.6019638,-0.2836317,0.7139523,7
10.86,-15.73115,1.115042,-33.63802,-0.4277627699920598,-0.1609963437808288,-0.0707895218357475,43.2491,81.1162,181.7321,0.6001546,-0.2890887,0.7098164,7
10.88,-15.6262,1.315476,-33.63195,-0.4271139041345944,-0.1361172337681708,-0.0690523738205595,46.58107,80.07565,181.2343,0.5875776,-0.3090681,0.7059299,7
10.9,-15.52137,1.513185,-33.62532,-0.4286517386719293,-0.1682238810691089,-0.0690587659503787,49.90473,78.92104,180.6093,0.5744839,-0.3287652,0.7014134,7
10.92,-15.50919,1.112989,-33.64126,-0.4255264027231504,-0.1997835033363053,-0.0693904070527899,48.05617,80.06522,179.5147,0.5888005,-0.3092816,0.6982139,7
10.94,-15.40516,1.313604,-33.63559,-0.3874607043772169,-0.2023728711537268,-0.0676103681122572,51.35379,78.87727,178.858,0.575828,-0.3289141,0.6932639,7
10.96,-15.30122,1.511542,-33.62938,-0.3436367191803084,-0.2311197544657024,-0.0664933869109907,54.64032,77.53088,178.0315,0.5623569,-0.3482517,0.6877045,7
10.98,-15.1131,1.102219,-33.64,-0.2971154993827212,-0.2001672693828118,-0.0631935135199182,59.66613,76.84899,174.0439,0.5586431,-0.3611998,0.6626266,7
11.0,-15.01783,1.10444,-33.63949,-0.2471142125607373,-0.1704618740003272,-0.0597929038987121,61.20909,74.21277,171.2465,0.5487299,-0.3652125,0.6609828,7
11.02,-14.91674,1.295735,-33.63269,-0.1761135174027142,-0.1593372266126868,-0.0590447539837777,64.37063,71.98605,169.5126,0.5346826,-0.3837085,0.6532809,7
11.04,-14.69188,1.128792,-33.63614,-0.1026562627680647,-0.1485164371379664,-0.0580391231522847,60.96489,68.18131,166.7208,0.5283676,-0.3614325,0.6760269,7
11.06,-14.59014,1.313035,-33.62746,-0.0430899937482762,-0.1298420970026379,-0.0582346815430518,64.01215,65.34333,164.2917,0.5144396,-0.37941,0.6680268,7
11.08,-14.48947,1.494738,-33.61831,0.0175431235326035,-0.1112382237369559,-0.0582835156668926,66.9921,61.8319,161.1835,0.5000874,-0.3970623,0.6594676,7
11.1,-14.35424,1.178245,-33.63271,0.0749077900392207,-0.0425237909572968,-0.0570178662578664,52.06885,71.92193,171.201,0.5533451,-0.3137395,0.7053717,7
11.12,-14.17098,1.211272,-33.64485,0.1397236635454599,-0.0428834631038377,-0.0661624037841326,43.16505,76.37098,173.9237,0.589382,-0.2582533,0.7178254,7
11.14,-14.06037,1.384729,-33.63271,0.1886389077254839,0.0018792100795304,-0.0733789478257538,46.48738,75.06257,173.0327,0.5777315,-0.2783689,0.7127002,7
11.16,-13.96325,1.239159,-33.66063,0.2373922483650752,0.0440260999541258,-0.0811917436684783,32.084,79.50592,175.3051,0.6227634,-0.1871032,0.7310129,7
11.18,-13.84525,1.408732,-33.64841,0.273767814048423,0.0614725527376118,-0.0916807214639883,35.59801,78.5005,174.7186,0.6126904,-0.2087079,0.7276299,7
11.2,-13.72935,1.574864,-33.63564,0.3092765401066173,0.0782173049969618,-0.102945352210356,39.10283,77.40137,174.0247,0.6020126,-0.2301063,0.7235197,7
11.22,-13.6596,1.268056,-33.68687,0.3450794658017935,0.0460606851373755,-0.1190876080692886,8.156482,85.72734,177.538,0.6794971,-0.03753872,0.7299104,7
11.24,-13.53908,1.435174,-33.67504,0.382017037028926,0.0587161830115475,-0.1275705794389683,11.71939,85.02931,177.4139,0.6737748,-0.06006412,0.7315095,7
11.26,-13.42085,1.598717,-33.66264,0.4141502234486318,0.0936831520385484,-0.1320516474772421,15.27965,84.31345,177.2429,0.6673818,-0.08252214,0.7323722,7
11.28,-13.37276,1.279218,-33.69236,0.4360342449747001,0.0814487125180679,-0.1394744163103292,354.4693,88.66586,178.3872,0.697458,0.0443299,0.7148622,7
11.3,-13.25117,1.444122,-33.67992,0.4549743949005784,0.0668507397853296,-0.1468790359841909,358.046,87.98692,178.4539,0.6942466,0.02163559,0.719409,7
11.32,-13.13203,1.605389,-33.66691,0.4694036635555958,0.0747322115704297,-0.1512001482781952,1.622189,87.31294,178.4782,0.690339,-0.001074172,0.723226,7
11.34,-13.00716,1.29602,-33.70078,0.4750491439231279,0.0547813818786636,-0.157812119869396,353.4673,89.83628,179.476,0.704757,0.0435698,0.7071427,7
11.36,-12.95053,1.283223,-33.70225,0.4769790401394698,0.0331004062139942,-0.1643937157788491,353.7449,90.03671,179.7277,0.7061862,0.04024513,0.7059172,7
11.38,-12.83035,1.445866,-33.68695,0.4601530190736214,0.0292576020592214,-0.1681392433870066,357.2722,89.34744,179.9495,0.702862,0.01723607,0.710928,7
11.4,-12.71274,1.60494,-33.67115,0.4463614546801489,0.0491733413487408,-0.169540009106071,0.8009593,88.67322,180.1286,0.6988494,-0.005783786,0.715234,7
11.42,-12.75283,1.254771,-33.71257,0.4106338247783567,0.0198815021990909,-0.1745288869201546,357.4216,90.42046,181.1144,0.7096375,0.008950165,0.7041407,7
11.44,-12.63315,1.419369,-33.69883,0.3745580032041888,0.0182448919075655,-0.1759993329368194,0.9791262,89.74756,181.3299,0.7054039,-0.01424272,0.7086592,7
11.46,-12.58878,1.240523,-33.71848,0.3351416852731075,0.016922799675497,-0.1779266016202747,4.002903,91.17622,182.045,0.713342,-0.03717623,0.6997186,7
11.48,-12.46692,1.406783,-33.70617,0.2734245102431951,-0.0353602378515573,-0.1823695242106362,7.645812,90.53197,182.2841,0.7077251,-0.06104322,0.7030551,7
11.5,-12.47937,1.232277,-33.71943,0.2278015089082019,-0.0138995900163557,-0.180517460934654,8.232955,91.21113,182.8469,0.7112299,-0.06790882,0.6988481,7
11.52,-12.35877,1.401363,-33.70851,0.1688537993742567,-0.0182795576247675,-0.1786483948161423,11.85279,90.58184,183.0643,0.7046948,-0.0915121,0.7014592,7
11.54,-12.35093,1.208894,-33.72302,0.0988834014206838,-0.0485041786591153,-0.17873353068551,13.42235,91.6457,183.5243,0.7094332,-0.103305,0.6943542,7
11.56,-12.23266,1.383691,-33.71416,0.0403385979111836,-0.0259858564385445,-0.1755264361325226,17.01114,91.03742,183.7436,0.7018706,-0.1266268,0.6960471,7
11.58,-12.11619,1.555052,-33.70474,-0.039503323802408,-0.0561776956395974,-0.1740175353852002,20.60095,90.43132,183.9268,0.6935989,-0.1498129,0.6970286,7
11.6,-12.20057,1.18332,-33.72467,-0.1205345890363389,-0.0850549616928724,-0.1734689576833865,17.39503,91.01707,183.8843,0.7011552,-0.1298108,0.6960021,7
11.62,-12.13597,1.168332,-33.7268,-0.1953453084863674,-0.0897337340818189,-0.1690022314562469,20.13949,89.92307,184.046,0.690946,-0.1482017,0.700609,7
11.64,-12.02194,1.353316,-33.72102,-0.262244774446691,-0.092953452684177,-0.1635135783647454,23.6744,89.28699,184.1187,0.6820616,-0.1705692,0.7010926,7
11.66,-11.90902,1.535102,-33.71468,-0.3277008083996109,-0.0934798697176564,-0.1584927004917071,27.20881,88.63766,184.1493,0.672511,-0.1927616,0.700883,7
11.68,-11.98223,1.145587,-33.72765,-0.3912221176407782,-0.0932188189409621,-0.151628907601844,24.58885,87.44961,184.0252,0.6695229,-0.1775042,0.7108278,7
11.7,-11.87082,1.336703,-33.72254,-0.4520796886349119,-0.0903631491364038,-0.145159403141414,28.08284,86.75394,183.9476,0.6598052,-0.1991942,0.7104537,7
11.72,-11.76011,1.52476,-33.71688,-0.5287702635461975,-0.1438520717579633,-0.1398666305745681,31.57445,86.02874,183.8177,0.6494586,-0.2206851,0.7093932,7
11.74,-11.77957,1.124924,-33.72662,-0.5749692871893123,-0.1391883463620095,-0.1325841578955886,32.07834,83.74154,183.5138,0.6348615,-0.2253137,0.7209828,7
11.76,-11.72204,1.121951,-33.72803,-0.6166071008564729,-0.1322179873044011,-0.1259522165746425,34.68458,83.12436,183.2063,0.6267861,-0.2406634,0.7194752,7
11.78,-11.61479,1.320153,-33.72475,-0.6654414383736265,-0.1825807900609767,-0.122220848292188,38.07434,82.21356,182.7812,0.6153585,-0.2607835,0.7172701,7
11.8,-11.50777,1.515516,-33.72094,-0.6869064425553791,-0.1453096714014238,-0.1165815419286886,41.45697,81.22408,182.263,0.6033731,-0.2806579,0.7144057,7
11.82,-11.5283,1.115677,-33.74176,-0.7154041951576127,-0.1646028527184128,-0.1126886020921258,41.83908,82.62905,182.3231,0.6111108,-0.28063,0.706221,7
11.84,-11.42207,1.315857,-33.73904,-0.7365672010641549,-0.2117804787048844,-0.1107822446945494,45.20019,81.61464,181.8037,0.5986803,-0.300339,0.7026544,7
11.86,-11.34079,1.113787,-33.75146,-0.7421824071878843,-0.1706727058202271,-0.105218115466096,46.36379,82.30086,180.3446,0.6040141,-0.2982312,0.6929644,7
11.88,-11.23599,1.314437,-33.74862,-0.7389694378898122,-0.1571229275699871,-0.1001061362498818,49.6821,81.21746,179.769,0.5913094,-0.3177384,0.6883785,7
11.9,-11.18003,1.110058,-33.757,-0.7298006563629038,-0.1422451316236294,-0.0954797978307953,50.65345,81.31667,178.693,0.5925854,-0.3177789,0.6824698,7
11.92,-11.07654,1.309691,-33.75462,-0.7136917479563847,-0.1859357199857216,-0.0926072530091977,53.92834,80.06522,177.938,0.579453,-0.3368124,0.6770835,7
11.94,-10.87439,1.102263,-33.76316,-0.6645401458458672,-0.1687884737076949,-0.0881596440564322,59.64804,78.41977,174.0334,0.56775,-0.3562893,0.6549402,7
11.96,-10.76068,1.104472,-33.76393,-0.6105345671041165,-0.1517919430723356,-0.0838717535312039,61.1996,75.5565,171.236,0.5564975,-0.3608729,0.6545063,7
11.98,-10.65951,1.295812,-33.75985,-0.5482945630637472,-0.1885207527894016,-0.0811768561145322,64.35441,73.34975,169.4883,0.5425355,-0.379012,0.6468582,7
12.0,-10.55896,1.484647,-33.75529,-0.49448922847548,-0.1382264848703185,-0.0760918410453825,67.4711,70.60667,167.1979,0.5281253,-0.3968265,0.6386679,7
12.02,-10.33844,1.144144,-33.78016,-0.4256438122948086,-0.1058379621231261,-0.075135363044601,58.39643,72.18069,167.9092,0.5528699,-0.3378649,0.6712244,7
12.04,-10.23664,1.326186,-33.77514,-0.3537415511378111,-0.0742690199919048,-0.0742102990933588,61.44649,69.79585,165.9052,0.5395108,-0.3555126,0.6638697,7
12.06,-10.11145,1.178135,-33.78536,-0.2977917382239194,0.006664795034375,-0.0718594783459378,52.08166,75.09664,171.2463,0.5725281,-0.3052626,0.6898561,7
12.08,-10.00815,1.356278,-33.77882,-0.2385326388417034,0.0165890732703091,-0.0763453089964265,55.1813,73.35106,169.8846,0.5600458,-0.3233475,0.683668,7
12.1,-9.906225,1.531808,-33.77178,-0.1765420615144246,0.0240056253481346,-0.0812272032394805,58.25185,71.31788,168.2283,0.5471146,-0.3411632,0.6769237,7
12.12,-9.753175,1.239346,-33.83542,-0.1210379290338021,0.0563330484673721,-0.0894009800689099,32.05947,83.4662,175.3508,0.6476115,-0.1799479,0.7091924,7
12.14,-9.635695,1.409179,-33.83039,-0.0755584307984409,0.1090197837314204,-0.094706416095101,35.54398,82.52246,174.8173,0.6377528,-0.2008154,0.7060049,7
12.16,-9.520264,1.575645,-33.82473,-0.0306135830298294,0.1588090848774119,-0.1006880342455236,39.01938,81.49313,174.185,0.6272805,-0.2214813,0.70213,7
12.18,-9.473368,1.263542,-33.86319,0.0046761939489955,0.182044924480791,-0.1060599180929546,13.92031,87.68474,177.1432,0.6895372,-0.07023351,0.7136182,7
12.2,-9.352979,1.431291,-33.85868,0.038861172726692,0.2042931684656691,-0.112064401750918,17.4672,86.98235,176.9307,0.6829689,-0.09189903,0.7140125,7
12.22,-9.222947,1.275711,-33.88115,0.0678912059698784,0.1778257893177035,-0.1218901050522456,358.425,91.11444,178.1573,0.7136357,0.02110187,0.7001979,7
12.24,-9.126771,1.279127,-33.88499,0.1025114607708906,0.2182678182436115,-0.122543222048689,354.4891,91.78561,178.3968,0.7166705,0.04348966,0.6956133,7
12.26,-9.004416,1.443938,-33.87912,0.1345609104616969,0.2552698668779446,-0.1230777697924434,358.0716,91.13754,178.4755,0.7137703,0.02127755,0.7000516,7
12.28,-8.930658,1.291273,-33.89194,0.1533222213443361,0.2199380928952931,-0.1283622157127633,352.2434,92.23316,179.0514,0.7186885,0.05283702,0.6919858,7
12.3,-8.806579,1.453228,-33.88279,0.1802117309691947,0.2527977585306181,-0.1272953725921652,355.8531,91.5717,179.2423,0.7160867,0.02996568,0.6970419,7
12.32,-8.773901,1.296049,-33.90002,0.1876550909248275,0.2322563396542924,-0.1305957925827234,353.4552,92.49452,179.5057,0.7209763,0.04258617,0.6905916,7
12.34,-8.689089,1.270085,-33.90861,0.1926863948833027,0.2097792658189808,-0.1341530826349606,354.0766,93.05099,179.9869,0.7247074,0.0356326,0.6871171,7
12.36,-8.569126,1.433737,-33.89946,0.1934707614695666,0.2526138617286015,-0.1310947282558414,357.5996,92.39356,180.2306,0.7215908,0.01304652,0.6920002,7
12.38,-8.549992,1.254608,-33.92062,0.1802042123132174,0.2470690606179935,-0.1302228875023479,357.4375,93.02576,181.101,0.7254622,0.008418086,0.6878319,7
12.4,-8.428968,1.418957,-33.91301,0.1642952445174943,0.2411392170910941,-0.1299577070722692,1.018611,92.38452,181.3079,0.7215211,-0.01438941,0.6922416,7
12.42,-8.430885,1.2458,-33.92592,0.1266453298401223,0.1839304432439759,-0.133241813895327,1.425398,93.40362,181.5645,0.7275538,-0.01846517,0.6858021,7
12.44,-8.348952,1.237893,-33.93278,0.1100590705288552,0.2010974548337719,-0.1292457346757327,6.149889,93.7094,182.5575,0.7275714,-0.05293313,0.6835697,7
12.46,-8.227136,1.4053,-33.92656,0.0910197855323713,0.2165018679478403,-0.1259120415120165,9.78199,93.10533,182.7917,0.7217203,-0.07623624,0.6864881,7
12.48,-8.237891,1.226555,-33.93261,0.0534152615733899,0.204853894127044,-0.1207432039543601,10.3049,93.41981,183.1302,0.7229979,-0.08135692,0.6844527,7
12.5,-8.117702,1.397327,-33.9274,0.0140993806991607,0.1943060961433605,-0.1162690712183991,13.91152,92.82726,183.3338,0.7162719,-0.1043741,0.6866351,7
12.52,-8.161161,1.20899,-33.93731,-0.0227933464947585,0.180038328447115,-0.1105631379751592,13.4121,93.73091,183.5123,0.7219704,-0.1020144,0.6813289,7
12.54,-8.106785,1.191176,-33.94251,-0.0699745399425106,0.1409934494589305,-0.1060305799221223,16.05014,93.86212,183.7548,0.7198671,-0.1189815,0.6791688,7
12.56,-7.990339,1.37017,-33.93979,-0.1015501299401148,0.1568699838570892,-0.0986772000952287,19.60628,93.29039,183.9561,0.7120381,-0.1415497,0.6803603,7
12.58,-8.011337,1.175907,-33.94422,-0.153295614711348,0.1188568784917251,-0.0926276939453121,18.7127,92.69919,184.0383,0.7095418,-0.1373031,0.6847953,7
12.6,-7.896595,1.358916,-33.94191,-0.2049762447675163,0.0820374640831216,-0.0874899962806257,22.2474,92.11443,184.1736,0.7011625,-0.1595177,0.6855096,7
12.62,-7.939604,1.160926,-33.9463,-0.2489904719469622,0.0697119517489067,-0.079688324337285,21.54866,91.11676,184.0915,0.6962583,-0.1558468,0.6921648,7
12.64,-7.887282,1.145535,-33.94884,-0.2908948066694223,0.0601242023971581,-0.0714934845792241,24.58344,89.84364,184.0542,0.6841902,-0.1750513,0.6967239,7
12.66,-7.775768,1.336581,-33.94757,-0.3305245986891936,0.0528043828366762,-0.0639231904281683,28.07519,89.19364,184.0096,0.6746871,-0.19644,0.6963353,7
12.68,-7.788665,1.132843,-33.94966,-0.3838885799759676,-0.0111593344373933,-0.0575283284976375,28.00842,87.74113,183.926,0.666063,-0.197386,0.7048148,7
12.7,-7.67906,1.327441,-33.94874,-0.4072440735493254,0.0105418317386181,-0.0492586680078934,31.46038,87.02087,183.742,0.6559294,-0.2181524,0.7038098,7
12.72,-7.698202,1.124964,-33.95179,-0.4426297572347862,-0.0241401696140012,-0.0424296638624603,32.04994,85.81894,183.5096,0.6478869,-0.2221362,0.7093948,7
12.74,-7.609846,1.118851,-33.95693,-0.4759998146860208,-0.0863778440953289,-0.0388458705888172,37.36033,84.82808,182.9732,0.6326028,-0.2529604,0.7047671,7
12.76,-7.502815,1.317805,-33.95773,-0.4865051944073247,-0.0609002972544076,-0.0342145356677416,40.74177,83.90452,182.5028,0.6208987,-0.2725044,0.7021062,7
12.78,-7.476762,1.115698,-33.97305,-0.4949544498411692,-0.0622376927301067,-0.0306379672741634,41.83047,84.7486,182.3129,0.6241121,-0.2763787,0.694796,7
12.8,-7.370667,1.315907,-33.97452,-0.4983637543353026,-0.0619751194425098,-0.0278096987249032,45.18311,83.75917,181.7849,0.6118131,-0.2955907,0.6913289,7
12.82,-7.353595,1.114551,-33.98277,-0.5078389303223685,-0.1200964588751406,-0.0269016161976027,44.66708,84.67256,181.1028,0.6202292,-0.2868781,0.6861864,7
12.84,-7.237966,1.113013,-33.99174,-0.4870731153056987,-0.1195529325921856,-0.0247332671525493,48.04123,83.88151,179.5069,0.6117784,-0.3001604,0.6782427,7
12.86,-7.133825,1.31365,-33.99323,-0.4612360594413689,-0.1179568191544588,-0.0233180011256877,51.33105,82.75156,178.8436,0.5990291,-0.3189779,0.673432,7
12.88,-7.051325,1.107249,-34.00215,-0.4230387400235448,-0.1152588202569088,-0.0216603584910366,53.27874,82.60139,177.642,0.5967543,-0.3246331,0.6652763,7
12.9,-6.948411,1.305865,-34.00321,-0.3804495886184167,-0.1121785863911469,-0.0207668850773989,56.53147,81.26136,176.7656,0.5834489,-0.3430671,0.6594602,7
12.92,-6.836456,1.102318,-34.01189,-0.3243193867347352,-0.1052475370897576,-0.0200141636030961,59.62823,80.23486,174.0175,0.5781505,-0.3505196,0.6458868,7
12.94,-6.635429,1.109092,-34.02063,-0.2512836925885196,-0.1224473125213277,-0.0212461268908272,62.62973,74.21317,167.893,0.5562514,-0.3578357,0.6444697,7
12.96,-6.534043,1.297941,-34.01976,-0.189878159373866,-0.081359809653392,-0.0211278480726608,65.72359,71.53413,165.6073,0.5422483,-0.3753063,0.6364627,7
12.98,-6.407018,1.128819,-34.02759,-0.1247426539329964,-0.0606910833861326,-0.0227434505238219,60.95372,71.28914,166.7285,0.5465028,-0.3513685,0.6615207,7
13.0,-6.305221,1.313152,-34.02472,-0.0576648705978464,-0.040641706261098,-0.0246950317470373,63.9884,68.53062,164.3173,0.5327779,-0.3686349,0.6536525,7
13.02,-6.128826,1.177922,-34.05616,0.0089229768505039,-0.0701483272258793,-0.0298856750260805,52.11751,77.52187,171.2698,0.5868688,-0.2987437,0.6775323,7
13.04,-6.02517,1.355977,-34.05333,0.0690795285136559,-0.0450609495275147,-0.0364016952746233,55.22695,75.842,169.9526,0.5744975,-0.3165481,0.6713741,7
13.06,-5.922885,1.531408,-34.04997,0.1309232454381553,-0.0215133017301827,-0.0431759058195959,58.30925,73.88316,168.3498,0.5616662,-0.3340892,0.6646708,7
13.08,-5.805602,1.22802,-34.09169,0.1828225826305729,0.0020936830402537,-0.0525732104843879,37.91473,82.67137,174.7127,0.6352322,-0.2148546,0.6994749,7
13.1,-5.690783,1.399331,-34.08881,0.2356307773563653,0.0240764163221485,-0.0623682579503146,41.32437,81.60872,174.0133,0.6245581,-0.2347997,0.6952491,7
13.12,-5.601971,1.257635,-34.1301,0.2826163425890654,-0.0033541221057641,-0.0776577654846866,20.03963,87.76611,176.5721,0.6860613,-0.1049307,0.7058381,7
13.14,-5.484113,1.426513,-34.12822,0.3227711115496687,0.0347016963258781,-0.0829699089206394,23.51389,87.04533,176.2878,0.678626,-0.1258329,0.7049727,7
13.16,-5.368317,1.591996,-34.12569,0.360190133006336,0.0695038641497424,-0.0880843495479961,26.98429,86.28474,175.9458,0.6705472,-0.1466107,0.7034324,7
13.18,-5.328032,1.272076,-34.15508,0.3841543559277627,0.0304210895387578,-0.0975124839662786,2.405917,91.50589,177.917,0.716328,-0.001628384,0.6972113,7
13.2,-5.20716,1.43891,-34.15357,0.4087652393747452,0.0364916861186906,-0.1015123850985988,5.953445,90.88882,177.8669,0.7121636,-0.02318206,0.6998442,7
13.22,-5.113016,1.285018,-34.17258,0.4352764509185003,0.01881633468863,-0.1075868848958219,353.3411,93.49705,178.7496,0.7266465,0.04772606,0.6844662,7
13.24,-4.989422,1.448273,-34.16732,0.4568173436970849,0.0459243163605839,-0.1086410611300943,356.941,92.87025,178.9217,0.7241313,0.0252104,0.6890815,7
13.26,-4.868356,1.607804,-34.16142,0.4654906790660115,0.046813041726554,-0.1104626073623711,0.541442,92.25576,179.0542,0.720883,0.002675521,0.6929918,7
13.28,-4.821257,1.295969,-34.18768,0.4695523171115874,0.0459900798187112,-0.1114074037266714,353.4656,93.7006,179.4925,0.7282038,0.0422029,0.6829728,7
13.3,-4.697395,1.456895,-34.18032,0.4582622249213153,0.0394320793584716,-0.1124568987389498,357.0518,93.0709,179.7265,0.7255156,0.01942847,0.6877207,7
13.32,-4.690586,1.261803,-34.20482,0.4402903148148115,0.0070239228946234,-0.1161751614847261,355.7805,94.21856,180.5309,0.7322649,0.02166299,0.6800087,7
13.34,-4.568394,1.425293,-34.19974,0.4307299471246794,0.0202649856074054,-0.1160733560443274,359.3784,93.60036,180.7449,0.728969,-0.001025249,0.6844947,7
13.36,-4.448709,1.585146,-34.19404,0.4070743921402655,0.0115203251048037,-0.1153186880590038,2.97732,92.99545,180.9203,0.7249354,-0.02370622,0.6882803,7
13.38,-4.466199,1.245967,-34.21735,0.3794604425442679,0.0022000156609521,-0.1146982376643777,1.404204,94.34975,181.5573,0.733196,-0.01829516,0.6797714,7
13.4,-4.343433,1.410981,-34.21258,0.3429663324879035,-0.0072524623110017,-0.1116123219911715,5.046773,93.75521,181.7844,0.7286305,-0.04144587,0.683314,7
13.42,-4.353914,1.232281,-34.22623,0.2959828331271023,-0.0427338908650521,-0.1098588685190371,8.228914,94.51293,182.8316,0.7310795,-0.06678153,0.678064,7
13.44,-4.232521,1.401303,-34.22319,0.2632936109038886,-0.0284681873101163,-0.105440929295085,11.85684,93.94302,183.0392,0.7249802,-0.08973535,0.6804761,7
13.46,-4.113287,1.56673,-34.21953,0.2139406879853676,-0.0405543493814918,-0.1002808570343001,15.48555,93.37849,183.2124,0.7181364,-0.1125895,0.6821819,7
13.48,-4.183654,1.208812,-34.23194,0.1612747956274123,-0.0516576198456042,-0.0954206220102191,13.43881,94.47975,183.5146,0.7263804,-0.1017626,0.6765842,7
13.5,-4.064342,1.383459,-34.22967,0.1032260371227588,-0.0651604840954789,-0.0898753693124598,17.04687,93.93159,183.7279,0.7192009,-0.1246055,0.6780642,7
13.52,-4.053736,1.183279,-34.23938,0.0356117361558084,-0.1050728129640029,-0.0852963879991275,17.39938,93.99876,183.894,0.7190099,-0.1276595,0.6775289,7
13.54,-4.002184,1.175888,-34.24122,-0.0100797025891675,-0.09065415459331,-0.0790996521062448,18.7237,93.37058,184.0308,0.7135371,-0.1367702,0.6806118,7
13.56,-3.88671,1.358772,-34.24059,-0.0656900642332943,-0.1018561071700653,-0.0721327935129085,22.27852,92.81383,184.1612,0.7053057,-0.1589249,0.6811757,7
13.58,-3.909835,1.160901,-34.24456,-0.1217286255037665,-0.1113215769894635,-0.0655028980847376,21.56583,91.67336,184.082,0.6996012,-0.1553605,0.6887501,7
13.6,-3.795993,1.347903,-34.24422,-0.1780312570607659,-0.1216514407868096,-0.0583523537898909,25.09959,91.08382,184.1116,0.6908017,-0.1770809,0.6887771,7
13.62,-3.837509,1.145582,-34.24848,-0.2473334895590224,-0.158210141802541,-0.0516286223076578,24.59039,90.28615,184.0329,0.6868974,-0.1744783,0.6940457,7
13.64,-3.778076,1.132845,-34.25076,-0.2920455672496749,-0.1370155614650095,-0.0445948189844367,28.02342,88.64121,183.9282,0.6715493,-0.1963546,0.6995444,7
13.66,-3.667561,1.327343,-34.25148,-0.3367142680058322,-0.1419665511956217,-0.0380501442428311,31.50124,87.95249,183.7485,0.6615421,-0.2170958,0.6984014,7
13.68,-3.667852,1.124963,-34.25455,-0.3871950182667756,-0.1734892386728228,-0.0324211178907409,32.05719,86.58234,183.5082,0.652588,-0.2210588,0.7050493,7
13.7,-3.559324,1.322246,-34.25568,-0.4163887623387957,-0.1454758762000821,-0.0272763649803025,35.47981,85.79742,183.1725,0.6419094,-0.2410695,0.7031989,7
13.72,-3.560306,1.118867,-34.2613,-0.4563162789788236,-0.1743055448322787,-0.0245653711510067,37.35356,85.46631,182.9714,0.6365361,-0.2518038,0.7012426,7
13.74,-3.465984,1.115682,-34.27848,-0.4735205115274514,-0.1719721073194822,-0.0234784923317938,41.82431,85.82156,182.324,0.6305774,-0.2742695,0.6889576,7
13.76,-3.359816,1.315861,-34.28166,-0.4831659686799804,-0.1376427914924103,-0.0224803108460092,45.17889,84.87071,181.8094,0.6184373,-0.2933008,0.6854252,7
13.78,-3.324044,1.114552,-34.29099,-0.496385822779915,-0.1606789649841164,-0.0229975798773161,44.66146,85.59315,181.1056,0.6257277,-0.2848481,0.6812012,7
13.8,-3.218869,1.315245,-34.29315,-0.4929966272501526,-0.1239794682497486,-0.0222176997762124,47.98798,84.63194,180.5998,0.6134623,-0.3039032,0.6769707,7
13.82,-3.189675,1.11302,-34.30228,-0.4796748295983818,-0.1458726543130734,-0.0243045403849055,48.03579,84.66244,179.5071,0.6163986,-0.2982484,0.6740726,7
13.84,-3.040747,1.107235,-34.31467,-0.4490675366426609,-0.1086640405048028,-0.0262518901741231,53.27298,83.81499,177.6571,0.6037384,-0.321381,0.6589777,7
13.86,-2.93778,1.305827,-34.31766,-0.4155724349820292,-0.0426169553279821,-0.0278717163486339,56.52745,82.51822,176.7978,0.5905614,-0.3396014,0.6531274,7
13.88,-2.807206,1.102317,-34.32899,-0.3689660876811192,-0.0614222416818579,-0.032097982493247,59.6303,81.27538,174.016,0.5839905,-0.3472906,0.6405986,7
13.9,-2.705417,1.296275,-34.332,-0.315828672317953,-0.0213756287395817,-0.0357248705960815,62.82806,79.45072,172.6106,0.5701288,-0.3648975,0.6335522,7
13.92,-2.58843,1.109125,-34.34181,-0.2478000488808055,-0.0315265665346738,-0.04332818775248,62.61687,75.09589,167.8848,0.5612522,-0.3547499,0.6401901,7
13.94,-2.397031,1.128809,-34.35365,-0.1786886438434001,0.0155515494722437,-0.0500390758601323,60.95098,72.59469,166.7255,0.5540182,-0.3470471,0.6552528,7
13.96,-2.295265,1.313188,-34.35334,-0.1223825862813456,0.0881715560759899,-0.0557930747322945,63.98019,69.86447,164.3133,0.5403775,-0.3639861,0.6474286,7
13.98,-2.17049,1.1616,-34.36639,-0.0608525534451211,0.0882160838011796,-0.0652846386802457,55.7883,73.50336,168.7548,0.5630098,-0.3212346,0.6773102,7
14.0,-2.067483,1.341569,-34.36452,-0.0047184104908637,0.1163471596443435,-0.0761743578634845,58.83282,71.31682,166.8578,0.5501253,-0.3383337,0.6703382,7
14.02,-1.980256,1.195373,-34.38158,0.0601259575047457,0.1229820766768785,-0.09250387630932,48.33631,78.96708,173.1383,0.5979926,-0.2807074,0.6873157,7
14.04,-1.806649,1.227159,-34.41634,0.1154952284686606,0.1740282347764151,-0.1042493141312617,38.0318,82.53497,174.6458,0.6343395,-0.2155139,0.699807,7
14.06,-1.687815,1.397386,-34.41471,0.1639165442355754,0.176860600765728,-0.1196561863433132,41.55331,81.45171,173.8717,0.6235102,-0.2358337,0.6951738,7
14.08,-1.623298,1.250103,-34.4448,0.2130134114451286,0.1768203325755733,-0.1354661448376886,26.2534,85.82259,175.97,0.6685131,-0.1429165,0.7073932,7
14.1,-1.503911,1.418906,-34.44303,0.2489914075368431,0.1966982052857461,-0.1474674194940126,29.77548,85.0325,175.5366,0.6599927,-0.1638,0.7050411,7
14.12,-1.430279,1.268036,-34.47547,0.2734257786989585,0.1920728528875698,-0.1605435083707975,8.201292,90.34865,177.5343,0.7083602,-0.0351774,0.7018935,7
14.14,-1.309052,1.435161,-34.47417,0.300430344680101,0.2313701190505104,-0.1672343624933026,11.76296,89.7427,177.4148,0.7032632,-0.05677059,0.7031521,7
14.16,-1.19005,1.5987,-34.47222,0.3253894176122228,0.2226073948054984,-0.1770886234762301,15.32232,89.12045,177.2544,0.6974717,-0.07830086,0.7037097,7
14.18,-1.144811,1.279194,-34.50031,0.3421679940178191,0.1886385753079004,-0.187413356691966,354.4995,93.23866,178.3864,0.7254333,0.04317597,0.6864744,7
14.2,-1.072865,1.284898,-34.50686,0.3679379656434666,0.2227871140624043,-0.1923534903398289,353.3526,93.75165,178.7581,0.728174,0.04752626,0.6828505,7
14.22,-0.9169667,1.293649,-34.52286,0.3773698753001494,0.2083462264842114,-0.1986812781728604,352.8335,94.38367,179.2902,0.7319219,0.04700519,0.6784885,7
14.24,-0.7927517,1.455029,-34.5172,0.3822317776916865,0.2118389718752548,-0.2027728306747578,356.4296,93.77882,179.5308,0.7295885,0.02427746,0.6831646,7
14.26,-0.7549859,1.283,-34.53297,0.3830224296897655,0.2140566183686323,-0.20639977360893,353.766,94.52766,179.7507,0.7333178,0.03849621,0.6777049,7
14.28,-0.6329851,1.445287,-34.52722,0.3648155998648476,0.1642942371619199,-0.2125079895133517,357.3159,93.92698,180.0017,0.7307189,0.01597302,0.682277,7
14.3,-0.6337211,1.262224,-34.54675,0.3536856984849225,0.1819013622662079,-0.2138535007063788,355.7299,94.7916,180.5445,0.735648,0.02172355,0.676322,7
14.32,-0.5253116,1.250229,-34.56229,0.3204748999158955,0.1495486596058788,-0.2164052010505992,359.4164,95.25271,181.3426,0.7387455,-0.005222952,0.6738637,7
14.34,-0.4029337,1.41478,-34.55949,0.295007303386669,0.1440703848794911,-0.2157226576392004,3.035417,94.6782,181.572,0.734804,-0.02803111,0.6776239,7
14.36,-0.3850994,1.240433,-34.57001,0.2664411705257913,0.138206878568837,-0.2150091491095906,4.00569,95.314,182.0321,0.7381408,-0.03663568,0.6735083,7
14.38,-0.2620366,1.406539,-34.56764,0.2155886513660954,0.0807155778111185,-0.2143623916868078,7.66344,94.75961,182.2669,0.7331749,-0.05976526,0.6764623,7
14.4,-0.2759846,1.232237,-34.57753,0.1821171707025932,0.0959571637344163,-0.2098696951299157,8.228024,95.35829,182.8436,0.7360555,-0.06658593,0.6726564,7
14.42,-0.2029011,1.217636,-34.58486,0.122226548431612,0.0590256615607832,-0.2055191975444632,11.86839,95.65599,183.3265,0.7348362,-0.09077593,0.6697037,7
14.44,-0.08305269,1.390323,-34.58486,0.0705496464401387,0.0457349236634632,-0.1992653634231711,15.47373,95.13024,183.5412,0.7281704,-0.1133908,0.6713603,7
14.46,-0.09611937,1.199844,-34.59203,0.0171334677437248,0.0334485475958155,-0.1934067824194398,14.74384,95.61061,183.6385,0.7316367,-0.1094618,0.6687825,7
14.48,0.0217939,1.37668,-34.59275,-0.0578136061969781,-0.0330670816370113,-0.1872990180164926,18.32372,95.09461,183.8471,0.7244042,-0.1318628,0.6699381,7
14.5,-0.01094568,1.183354,-34.59838,-0.1061035470417405,-0.0217976290778207,-0.1795852886195792,17.38272,95.12267,183.8964,0.7256373,-0.1267123,0.6704574,7
14.52,0.05305123,1.16837,-34.60365,-0.1775332185431732,-0.0660301107783039,-0.1710335870759181,20.12488,94.03187,184.0612,0.7156176,-0.1445715,0.675415,7
14.54,0.1675036,1.35327,-34.60587,-0.2330872490041989,-0.0535103462376012,-0.1614037103246826,23.66136,93.49381,184.1566,0.7072991,-0.1662439,0.6756408,7
14.56,0.1547799,1.153165,-34.60902,-0.2786788051841112,-0.0134742782104657,-0.1518036823607289,23.05349,92.33438,184.0471,0.7014877,-0.1632616,0.6832553,7
14.58,0.267599,1.342147,-34.6113,-0.3485900634158868,-0.0581442476060361,-0.1417851485255905,26.56818,91.76148,184.0461,0.6926011,-0.184527,0.682928,7
14.6,0.2397461,1.139184,-34.61426,-0.4080472347558264,-0.0732672197262081,-0.1311708418065249,26.26826,90.69552,183.96,0.6868451,-0.1835391,0.6895937,7
14.62,0.2528589,1.132887,-34.61641,-0.4677982539916898,-0.1152561781594577,-0.1217451782236,27.98689,90.02528,183.9345,0.6800007,-0.1944064,0.6914375,7
14.64,0.362424,1.327453,-34.61963,-0.5022668014412494,-0.0983125769461096,-0.1126248375773109,31.43426,89.36998,183.7641,0.6702257,-0.2147243,0.6902875,7
14.66,0.3935216,1.12188,-34.62619,-0.5365384332043898,-0.1074791393476387,-0.104725881205371,34.6833,87.72263,183.2419,0.6550744,-0.2335372,0.6938118,7
14.68,0.4410819,1.118869,-34.63146,-0.5670226294923947,-0.1151067126703621,-0.0978092677850206,37.34263,87.20033,182.9747,0.6470897,-0.2487147,0.6915568,7
14.7,0.548093,1.317812,-34.63666,-0.5898752747400872,-0.1217993245643329,-0.0921890829795728,40.72218,86.33817,182.5095,0.6356962,-0.2677469,0.6888165,7
14.72,0.5542442,1.115686,-34.65207,-0.6178683952363322,-0.1555807521074303,-0.087184776152549,41.82285,87.37847,182.3216,0.6398886,-0.2711093,0.6803249,7
14.74,0.65755,1.114534,-34.666,-0.6246495193833137,-0.1296365681402036,-0.0825045068691707,44.65963,87.51925,181.1154,0.637069,-0.2806236,0.6706144,7
14.76,0.7626833,1.315205,-34.67146,-0.6237328965499994,-0.1313041056820795,-0.0779895770780969,47.98701,86.59469,180.6217,0.6249123,-0.2993444,0.6664195,7
14.78,0.8105736,1.113021,-34.68219,-0.617676082206385,-0.1320775896267051,-0.0741350131522438,48.03695,86.39912,179.5055,0.6265447,-0.2940142,0.6646467,7
14.8,0.9147138,1.313655,-34.68826,-0.5963338997845644,-0.0755647029011387,-0.0700121828223805,51.32683,85.32841,178.8441,0.6140291,-0.3122852,0.6598058,7
14.82,1.054364,1.103842,-34.70953,-0.5572395608581101,-0.1066617291942875,-0.0699603381176752,56.44719,85.54565,176.1846,0.6095797,-0.3270318,0.6357303,7
14.84,1.156387,1.300128,-34.71723,-0.5031053154926943,-0.0793222853412773,-0.0695951488289043,59.67475,84.08134,175.1254,0.5960773,-0.3444704,0.6294705,7
14.86,1.258125,1.493844,-34.72445,-0.4516500294069899,-0.0232464543429855,-0.0683733421821548,62.88442,82.32916,173.7716,0.5820796,-0.3616126,0.6226811,7
14.88,1.423,1.109159,-34.74459,-0.3889367089872971,-0.0475811240178356,-0.0696601650392017,62.62273,77.35267,167.8407,0.5738711,-0.3468868,0.6288385,7
14.9,1.524456,1.298072,-34.75035,-0.3294079596592101,-0.0382199381848029,-0.0705176125772233,65.70992,74.67728,165.4951,0.559885,-0.3635619,0.6210085,7
14.92,1.707581,1.144072,-34.78013,-0.255100602694796,-0.0505206314751491,-0.0739092161579,58.41017,76.939,167.8766,0.5803218,-0.3225469,0.647536,7
14.94,1.809636,1.326159,-34.7845,-0.1811878502468076,-0.0089318176251733,-0.0761270735804311,61.45647,74.62296,165.8509,0.5671307,-0.3391318,0.6403345,7
14.96,1.91059,1.5057,-34.78834,-0.118322093739417,0.0099800823598,-0.0802289266555096,64.45361,71.80798,163.3219,0.553487,-0.3554361,0.6326156,7
14.98,2.04147,1.195299,-34.81503,-0.0540936370630983,0.0275956901227473,-0.0845409292435581,48.34894,82.15195,173.1422,0.6168278,-0.2723044,0.6704046,7
15.0,2.128256,1.209786,-34.83502,0.0018149514396562,0.0461605393546711,-0.0914716214561108,43.39171,83.9305,173.8656,0.635128,-0.2412375,0.6766608,7
15.02,2.290799,1.23905,-34.87297,0.0624473957014871,0.0417011661757783,-0.1026746286785913,32.13035,87.32088,175.3107,0.6710569,-0.1728905,0.6867939,7
15.04,2.409624,1.408586,-34.87754,0.1262654597171876,0.0826410545392585,-0.1115247110026818,35.64667,86.44488,174.7432,0.6615064,-0.1929107,0.6833842,7
15.06,2.476856,1.257171,-34.90528,0.179689046270861,0.1416350692748271,-0.1152528819351115,20.10607,90.25211,176.5428,0.701178,-0.1020556,0.6906691,7
15.08,2.596717,1.425467,-34.9099,0.2180931599674805,0.1277969884079179,-0.1225185017009975,23.63855,89.57764,176.2313,0.6939665,-0.1226131,0.6895408,7
15.1,2.638183,1.268026,-34.9316,0.2621252854298672,0.1587254875399547,-0.1252546288259237,8.214189,93.03822,177.5264,0.7246358,-0.03365016,0.685064,7
15.12,2.68766,1.271846,-34.94338,0.3030703185376791,0.1863592085648286,-0.1280081537501249,2.456443,94.59032,177.9198,0.7348315,-0.001199029,0.6776685,7
15.14,2.809281,1.438421,-34.94877,0.3475602881705529,0.1888766545984096,-0.1303002613160826,6.026347,94.03049,177.8774,0.7310624,-0.02230217,0.6800323,7
15.16,2.93176,1.285196,-34.97776,0.388485501234676,0.1893844075724509,-0.1320410770310189,353.3352,96.7608,178.7044,0.7458227,0.04704367,0.663508,7
15.18,3.013162,1.291167,-34.98764,0.425146573485518,0.185045512632128,-0.1333873412976665,352.2539,97.08992,179.0638,0.7473735,0.05082568,0.6609119,7
15.2,3.137817,1.453056,-34.98938,0.4675842884417514,0.2450355605803851,-0.1299102634356632,355.8656,96.51311,179.2741,0.745481,0.02873913,0.6655202,7
15.22,3.168645,1.296013,-35.00713,0.4873646379681233,0.2298480328327505,-0.1284644752246251,353.4515,97.32819,179.5098,0.7494566,0.04092969,0.6595716,7
15.24,3.25349,1.269971,-35.02098,0.4980398288015834,0.2366876253299769,-0.1237394353305756,354.0796,97.83849,179.9916,0.7527758,0.03399079,0.6562482,7
15.26,3.373931,1.43361,-35.02259,0.4925876160049021,0.1922264591676724,-0.1227545161647656,357.6025,97.26687,180.2433,0.7503603,0.0122326,0.6606946,7
15.28,3.390901,1.254636,-35.0431,0.4844133243138668,0.1718744693998777,-0.1190867521867824,357.4294,97.82176,181.101,0.7536056,0.007502073,0.6568741,7
15.3,3.512266,1.418964,-35.04632,0.4721494803734898,0.1509390969077444,-0.115665702486126,1.010278,97.26658,181.316,0.7503498,-0.01444444,0.6608827,7
15.32,3.50904,1.245821,-35.05685,0.4589566919235882,0.1298374417393724,-0.1094431324849969,1.41277,98.18983,181.5657,0.7555571,-0.01839771,0.6548244,7
15.34,3.59001,1.237904,-35.06891,0.444067162370098,0.1351489561575181,-0.1005650382221112,6.135943,98.46552,182.5561,0.7553154,-0.05180822,0.6527936,7
15.36,3.712067,1.405285,-35.07343,0.403744710639188,0.0892619291909702,-0.090950681298124,9.767898,97.9484,182.798,0.7500866,-0.07421977,0.6553888,7
15.38,3.700642,1.226592,-35.07689,0.3750400992114405,0.0934809715692233,-0.0797034397835876,10.28934,98.20624,183.1307,0.7509596,-0.07925105,0.6536707,7
15.4,3.821003,1.397334,-35.08225,0.317230755344141,0.0454343775608774,-0.0674986262125196,13.89562,97.70116,183.3426,0.7448273,-0.1013646,0.6555718,7
15.42,3.776613,1.209048,-35.08673,0.2765804852751441,0.048290748606321,-0.0540549594586474,13.40037,98.52068,183.5135,0.7498201,-0.09917771,0.6505713,7
15.44,3.830769,1.191139,-35.09521,0.2182048569889958,0.0246998864647088,-0.0381298826562979,16.05488,98.63299,183.7576,0.7475033,-0.1156025,0.6486176,7
15.46,3.947216,1.370121,-35.10254,0.1581902082990933,0.0026720356784876,-0.0227101430809621,19.61071,98.14928,183.9669,0.7402192,-0.1372624,0.6495728,7
15.48,3.926009,1.175903,-35.10385,0.0915472556020386,-0.0202189455669826,-0.0049422275115587,18.71196,97.50633,184.0412,0.7376339,-0.1332731,0.6544392,7
15.5,4.040735,1.358891,-35.1114,0.0227237259923487,-0.0411397294214964,0.0132445588998191,22.24634,97.01,184.1853,0.7297857,-0.1545709,0.6549515,7
15.52,3.997232,1.153276,-35.10896,-0.0468283337307751,-0.0640807973432526,0.0345944377483347,23.02609,94.70463,184.0378,0.7155229,-0.1605278,0.6686168,7
15.54,4.109234,1.342364,-35.11618,-0.1098310459266249,-0.0552402418713709,0.0576961336975303,26.51958,94.15544,184.0294,0.7068238,-0.1811611,0.6683453,7
15.56,4.220469,1.528354,-35.12286,-0.1910763104730837,-0.1022833999278974,0.0809671041411981,30.01182,93.58792,183.9821,0.6974569,-0.2016155,0.6674355,7
15.58,4.157023,1.132906,-35.1232,-0.2542909784104865,-0.0907643905169625,0.1052602430496305,27.99673,91.93377,183.9238,0.6914226,-0.1919176,0.6799905,7
15.6,4.18592,1.128889,-35.12608,-0.3176333273798353,-0.0792703052717727,0.1302514863201551,29.98728,91.1336,183.6877,0.6835718,-0.2032177,0.6818368,7
15.62,4.274677,1.121917,-35.13636,-0.38192141035434,-0.096332977786883,0.1527247462104046,34.66889,89.74138,183.2312,0.667245,-0.2300605,0.6821706,7
15.64,4.382113,1.320027,-35.1448,-0.4333805584336339,-0.1100835317971678,0.1728219406814179,38.06492,88.96649,182.8402,0.6564267,-0.2490053,0.6799095,7
15.66,4.413293,1.117261,-35.15731,-0.4814276052114334,-0.1219000446877477,0.1926943311186368,39.58772,89.00903,182.6407,0.6538103,-0.2566476,0.676349,7
15.68,4.519699,1.316834,-35.16628,-0.5148973157690255,-0.0754871118182194,0.212931481618396,42.95411,88.14201,182.1479,0.6422093,-0.2751406,0.673246,7
15.7,4.539064,1.115097,-35.17945,-0.5510203349156184,-0.085415649417838,0.2292529295827039,43.24059,88.92568,181.7174,0.6471536,-0.2726964,0.6672863,7
15.72,4.574779,1.114521,-35.18562,-0.5821547421113507,-0.093792573632248,0.2450546094080357,44.65033,89.10217,181.1241,0.6462726,-0.2770524,0.6617914,7
15.74,4.679669,1.315179,-35.19381,-0.5936727221075417,-0.0442190805890533,0.2618628273514884,47.97388,88.21176,180.64,0.6342397,-0.2954564,0.6576123,7
15.76,4.786469,1.110053,-35.21286,-0.5996681867111235,0.0329546787628967,0.2794766104316855,50.64314,87.67279,178.7091,0.6294932,-0.3014352,0.6486388,7
15.78,4.890056,1.309646,-35.22164,-0.5976684301106947,-0.0073477376866301,0.2890233869254306,53.92323,86.55544,177.9784,0.6167529,-0.3192578,0.6433252,7
15.8,4.993545,1.506575,-35.22997,-0.5819163181890599,0.0117163527315487,0.2980579080246155,57.19202,85.26434,177.0663,0.6034904,-0.3367985,0.6374615,7
15.82,5.186578,1.104368,-35.26133,-0.546846866897853,-0.022782357105168,0.3012392164466728,61.19233,83.07953,171.31,0.5980374,-0.3366312,0.6168638,7
15.84,5.287858,1.295638,-35.26995,-0.5123307573771596,-0.0227835998907844,0.3038007855676365,64.35717,81.05257,169.6357,0.584298,-0.3534724,0.6094632,7
15.86,5.388568,1.484381,-35.2781,-0.4746692155519443,-0.0227751521870752,0.3056549941181439,67.4883,78.5209,167.4517,0.5700805,-0.3700143,0.6015576,7
15.88,5.544158,1.128644,-35.30017,-0.4345161725777544,-0.0259438847085288,0.3069782780741885,60.9733,76.31807,166.7346,0.5749409,-0.3347512,0.6368503,7
15.9,5.632423,1.14398,-35.31065,-0.4005719867257151,-0.0198336801415279,0.3047548775502555,58.42778,77.00827,167.854,0.5807412,-0.3223157,0.6470443,7
15.92,5.820379,1.177942,-35.33341,-0.3644728359768445,-0.0138915327286131,0.3022036715443992,52.12433,80.27813,171.1981,0.6031621,-0.2904448,0.66299,7
15.94,5.924529,1.356016,-35.33752,-0.3389441285372949,0.0398161121078297,0.3028960426090519,55.23396,78.62424,169.8097,0.5909968,-0.3073865,0.6567642,7
15.96,6.035508,1.211096,-35.36506,-0.3081091462383905,0.0238918857046084,0.2944877069154179,43.20509,84.12865,173.9165,0.6365324,-0.2398849,0.6761864,7
15.98,6.147442,1.384434,-35.36905,-0.2818475925559167,-0.0170696460282351,0.2834469626354172,46.53999,82.97113,173.0328,0.6254035,-0.2584277,0.6710107,7
16.0,6.218146,1.238935,-35.40325,-0.2577633961865515,0.0114131231510236,0.2757930644643123,32.15835,87.29279,175.2971,0.6708693,-0.1730365,0.6868768,7
16.02,6.359819,1.25742,-35.43495,-0.2334444838270202,0.0163210586618792,0.2666507107657754,20.09843,90.57404,176.5425,0.7031229,-0.1016009,0.6887058,7
16.04,6.478627,1.426055,-35.4404,-0.2174482473958525,0.0421819758215563,0.2631216819634305,23.59854,89.9274,176.235,0.6961066,-0.121882,0.6874835,7
16.06,6.595395,1.59122,-35.44514,-0.2044231894074839,0.0658426963767655,0.2604128908101977,27.09593,89.24119,175.8741,0.6884236,-0.1420503,0.6855964,7
16.08,6.62891,1.271982,-35.47369,-0.1875104252298858,0.1321724991742924,0.2619418735199623,2.456744,94.43993,177.9114,0.7339415,-0.001183956,0.67863,7
16.1,6.750089,1.438727,-35.4792,-0.1873891795245157,0.100595136412317,0.2586650078551633,6.012255,93.90581,177.8633,0.7303279,-0.0221839,0.680827,7
16.12,6.869063,1.601881,-35.48399,-0.1780841286025394,0.1154219904855047,0.2593402886898825,9.566129,93.36462,177.7812,0.7259991,-0.04315595,0.6823512,7
16.14,6.990838,1.291526,-35.52062,-0.162819396675331,0.1069814392630476,0.2588272725110547,352.2313,96.80876,179.0087,0.7457141,0.05142547,0.6627576,7
16.16,7.114581,1.453827,-35.52377,-0.1602091682053237,0.0723640205251697,0.2585512200628708,355.8199,96.26329,179.1668,0.7439883,0.02975092,0.6671573,7
16.18,7.2358,1.612396,-35.52618,-0.1611375859471704,0.0833614825215131,0.2642769456908018,359.4089,95.72968,179.2904,0.7415189,0.008052094,0.6708838,7
16.2,7.354261,1.767403,-35.52789,-0.1606033144160907,0.1156405334705816,0.2732249430034121,2.997911,95.20364,179.3807,0.7383087,-0.01364846,0.673934,7
16.22,7.299639,1.269991,-35.55581,-0.1884116501611583,0.0709275810502684,0.2749711476067329,354.0977,97.30516,179.9754,0.7497148,0.0341728,0.6597555,7
16.24,7.420889,1.433362,-35.55703,-0.2062653355868255,0.0728508419086212,0.2805620267974351,357.6443,96.76086,180.2174,0.747438,0.01223518,0.6640111,7
16.26,7.465699,1.250347,-35.58472,-0.2224385594769038,0.1012592434855023,0.2894286707434217,359.3995,97.77077,181.3437,0.753374,-0.005388317,0.6574669,7
16.28,7.513934,1.245891,-35.58977,-0.2613725815770122,0.0536720980490839,0.2923854227292874,1.399103,97.94477,181.5782,0.7541552,-0.01840221,0.6564385,7
16.3,7.637128,1.410781,-35.5927,-0.3007161520848525,0.0319144614630363,0.296853563432581,5.045998,97.43375,181.8325,0.7501698,-0.04104481,0.6595856,7
16.32,7.657415,1.232201,-35.59943,-0.3415162435160557,0.0108921321884187,0.302829758424993,8.227497,97.74226,182.8483,0.7498867,-0.06584287,0.6572006,7
16.34,7.779244,1.401084,-35.60329,-0.3661433975507273,0.0378652021396181,0.3113431731588481,11.86256,97.25832,183.0793,0.7443255,-0.08832862,0.6592382,7
16.36,7.752013,1.217712,-35.60119,-0.4131838765843649,0.0122571873975366,0.3155478803228337,11.86141,97.24512,183.3118,0.7440699,-0.08983836,0.6594444,7
16.38,7.871877,1.390417,-35.60532,-0.4611283855127113,-0.0115932852568102,0.3210503277691803,15.46679,96.77011,183.5157,0.7377352,-0.1120498,0.6608574,7
16.4,7.813758,1.199951,-35.60019,-0.4909471220694252,0.0147852715594653,0.3276523286317641,14.73622,96.81892,183.6167,0.7386765,-0.1084923,0.6610205,7
16.42,7.9317,1.376818,-35.60437,-0.5454867931124969,-0.0396685532062232,0.329302616161943,18.31668,96.35089,183.8069,0.7317596,-0.1305162,0.6619275,7
16.44,7.891644,1.175965,-35.59666,-0.5855425060795856,-0.0662074989340332,0.330123010594316,18.71773,95.4379,184.0128,0.7257278,-0.1348951,0.6676182,7
16.46,8.007221,1.358872,-35.60105,-0.6150978516769763,-0.0611843608121123,0.332225111438313,22.27238,94.95807,184.1307,0.7179784,-0.1565137,0.6678336,7
16.48,7.951057,1.161025,-35.5919,-0.643756595392595,-0.0560052535238845,0.3354501675247263,21.48637,93.3888,184.1422,0.7098634,-0.1536092,0.6783298,7
16.5,8.051362,1.349297,-35.58822,-0.6792017940815318,-0.0794544146307453,0.3338823574027696,24.57192,93.13553,184.4156,0.7033941,-0.1735196,0.6772054,7
16.52,8.005689,1.138902,-35.56895,-0.712112879821756,-0.1001486454187592,0.3332110501235563,25.73702,90.24914,184.4201,0.6842705,-0.1836642,0.6934212,7
16.54,8.099641,1.332223,-35.55727,-0.7194740547742167,-0.0634617474599728,0.33194805660548,28.68826,89.87383,184.795,0.676373,-0.2038474,0.6925367,7
16.56,8.071673,1.128233,-35.552,-0.742601740072746,-0.1118863592244058,0.3262745012430752,29.41726,87.73217,184.1357,0.6632245,-0.2071207,0.7032299,7
16.58,8.161055,1.32437,-35.54035,-0.7710558839737316,-0.1869845583075942,0.3193762631611729,32.25478,87.34933,184.4001,0.6551852,-0.2262247,0.7016609,7
16.6,8.2502,1.518513,-35.52842,-0.7700844346300653,-0.1746157148555738,0.311717397617242,35.09494,86.96606,184.6465,0.6467116,-0.2451765,0.6996571,7
16.62,8.186962,1.118122,-35.53826,-0.7564172254762684,-0.1885920835090019,0.2990082277853618,36.9274,85.12206,183.3072,0.6345599,-0.2516863,0.7045332,7
16.64,8.249431,1.11497,-35.5459,-0.7349433839459312,-0.1696480211130406,0.2869021619532086,41.51022,85.57361,182.6208,0.6290764,-0.2745288,0.6915854,7
16.66,8.342575,1.314671,-35.53893,-0.7088130434418718,-0.1505692162022811,0.2751827638568889,44.49107,84.87313,182.5809,0.6180996,-0.2933933,0.6886735,7
16.68,8.434167,1.512125,-35.52999,-0.678402049886796,-0.159213766408301,0.260433252926358,47.44047,84.1097,182.5551,0.606442,-0.3122867,0.6856166,7
16.7,8.419103,1.113091,-35.54872,-0.6481239724502776,-0.1945119898914154,0.2448922393732671,46.12888,85.44628,180.6583,0.6225602,-0.2913888,0.677433,7
16.72,8.513507,1.313308,-35.54371,-0.600140225988836,-0.1693369986344371,0.2304822207015151,49.17351,84.39629,180.501,0.6094419,-0.3109036,0.6748729,7
16.74,8.607029,1.511312,-35.53765,-0.5229134739875543,-0.1714059178907253,0.2142872574016232,52.19343,83.28139,180.2655,0.5959545,-0.3301212,0.6718139,7
16.76,8.700292,1.707162,-35.53094,-0.4413723593392593,-0.1723251902005949,0.1986346767238069,55.2084,82.06335,179.9102,0.5820229,-0.3490791,0.6682409,7
16.78,8.81527,1.102112,-35.5774,-0.3562826129288785,-0.1149865234955453,0.1851760153236998,59.55542,82.28409,174.2653,0.5890488,-0.3449726,0.6364793,7
16.8,8.91394,1.296045,-35.57809,-0.2676758265792172,-0.0602643853765366,0.1724786162291014,62.70498,80.33813,173.1054,0.5737677,-0.3637427,0.6312043,7
16.82,9.110819,1.11786,-35.61123,-0.1655317821919166,-0.1153338556873599,0.1573434168154097,61.81305,75.87367,167.3252,0.5689889,-0.344399,0.6377081,7
16.84,9.213307,1.128657,-35.62476,-0.0745924028170976,-0.0837170706793321,0.1469300282464072,60.95448,74.59689,166.8441,0.5650225,-0.3409878,0.6458568,7
16.86,9.306962,1.314231,-35.62553,0.0318972063950997,-0.0977593933296446,0.1351274425052464,63.7709,71.98981,164.7215,0.5514144,-0.3572368,0.6396195,7
16.88,9.397787,1.497891,-35.62396,0.1371440006918769,-0.1360079753837381,0.1228166683095999,66.49716,68.8716,162.1801,0.5372428,-0.3734911,0.6334044,7
16.9,9.495988,1.178955,-35.65669,0.2344135465499335,-0.0960685979794066,0.1146187494314983,51.96963,77.83231,171.3248,0.5888453,-0.2972117,0.6765922,7
16.92,9.592372,1.358745,-35.65352,0.344752946023847,-0.0758035539421646,0.1008947491045537,54.87003,76.11723,170.1032,0.5763894,-0.3142321,0.6717221,7
16.94,9.687735,1.536211,-35.64964,0.4425200259299935,-0.0341820463316642,0.09186839615516,57.75159,74.14835,168.6291,0.5634689,-0.3311019,0.6663796,7
16.96,9.816752,1.240824,-35.70665,0.5326257344163141,-0.0399533894568406,0.0785074287048752,31.91609,84.71817,175.3984,0.6554436,-0.176988,0.7024512,7
16.98,9.87915,1.251367,-35.71998,0.6203682066361216,0.0003299377336749,0.0709068736750921,26.12457,86.23952,176.0357,0.6711469,-0.1418417,0.7052708,7
17.0,9.990596,1.422288,-35.7149,0.6950180689667109,-0.0073569297252002,0.0589326445560045,29.4297,85.28958,175.6992,0.6617815,-0.1621228,0.7044846,7
17.02,10.07751,1.27115,-35.73743,0.7771296719887857,0.0080220658271246,0.0501835614809547,7.860196,89.79234,177.5864,0.7050309,-0.03371119,0.7055457,7
17.04,10.18528,1.442246,-35.73029,0.8514749479212866,0.0454394924641352,0.0483979383155217,11.04339,88.84531,177.5089,0.6980273,-0.05356115,0.70925,7
17.06,10.29149,1.610432,-35.72248,0.9202267474587332,0.0803062482145249,0.0497784224519053,14.23201,87.88987,177.372,0.6904857,-0.07337891,0.712302,7
17.08,10.39569,1.775856,-35.71386,0.9759362824327782,0.0432227193305113,0.0459345189296271,17.41903,86.91219,177.1773,0.6823686,-0.09314071,0.7147482,7
17.1,10.41035,1.286348,-35.74487,1.0385077175888493,0.0751640519846231,0.0492117255766375,353.2263,91.50816,178.6617,0.7145703,0.04956915,0.6969675,7
17.12,10.52433,1.452535,-35.73322,1.0944248598741717,0.104097599279959,0.0562338455499258,356.5807,90.4594,178.7539,0.7093495,0.02872666,0.7041416,7
17.14,10.62396,1.297306,-35.74705,1.1347283454482933,0.0569628627623317,0.0558166599135656,353.3316,91.3836,179.4632,0.7141834,0.04397226,0.6975228,7
17.16,10.66798,1.284914,-35.74461,1.1598465660081996,0.0535467511340341,0.0596552259518006,353.5883,91.16502,179.7223,0.7130444,0.04086839,0.698881,7
17.18,10.77801,1.450628,-35.72565,1.176941808399368,0.0499688540239353,0.0671876976455863,356.8528,89.87666,179.9187,0.7060649,0.01993988,0.7076142,7
17.2,10.88455,1.613712,-35.70578,1.1703337215198393,-0.0039952068881542,0.0704755458478469,0.08986726,88.60173,180.0388,0.6984258,-0.0007975757,0.7156822,7
17.22,10.82811,1.257024,-35.74953,1.1560634573717663,-0.0596492742651936,0.0771344221866696,357.1896,90.46507,181.0125,0.7098823,0.01099818,0.7038383,7
17.24,10.93787,1.424746,-35.73399,1.149363319025528,-0.070234930175162,0.0835269212310043,0.4880224,89.26772,181.1217,0.7025042,-0.009907716,0.7115999,7
17.26,11.04561,1.589436,-35.71759,1.125225183909894,-0.1047796207664357,0.0899337449516357,3.79428,88.08283,181.1596,0.6945209,-0.03082696,0.7186398,7
17.28,11.02057,1.238565,-35.75218,1.104873943103332,-0.0880528528297904,0.1033532516652755,6.063432,90.48317,182.5126,0.7081013,-0.05277792,0.703788,7
17.3,11.04041,1.233199,-35.75566,1.0873961489218478,-0.0471907131035384,0.1205132937688793,8.116304,90.57219,182.7891,0.7074254,-0.06702714,0.7028193,7
17.32,11.15661,1.403374,-35.74142,1.0328887232220911,-0.0829937488896994,0.1312495341547537,11.64704,89.41186,182.92,0.6977731,-0.08992175,0.7086478,7
17.34,11.27058,1.570235,-35.72614,0.9864770572125134,-0.0669526535180253,0.1457174212632841,15.17881,88.24393,182.9791,0.6873916,-0.1127165,0.7137207,7
17.36,11.19831,1.200176,-35.75981,0.9328066109560154,-0.0516124330311009,0.163455966105773,14.70352,90.40572,183.6032,0.7005901,-0.1122422,0.7013158,7
17.38,11.31311,1.377448,-35.74778,0.867762316435162,-0.064885094334923,0.1737516567256785,18.25129,89.26438,183.7369,0.6896121,-0.1354214,0.7058838,7
17.4,11.42616,1.551482,-35.73475,0.7838606311781011,-0.1027663216067087,0.1840936241034256,21.79993,88.10705,183.7975,0.6779078,-0.1584491,0.7096936,7
17.42,11.37282,1.168528,-35.76516,0.720889516990703,-0.0850291984369397,0.1956999197986757,20.11692,88.17685,184.0135,0.6802609,-0.1493601,0.7110488,7
17.44,11.41693,1.161139,-35.76684,0.6375945924668314,-0.1222650884165723,0.2050521231515265,21.53332,87.09981,184.0376,0.6716676,-0.1591549,0.716108,7
17.46,11.52816,1.348437,-35.75738,0.5734202277430698,-0.1011691789684014,0.2149693698733372,25.04469,85.90355,183.9828,0.6592573,-0.1817152,0.7192184,7
17.48,11.63835,1.532688,-35.74696,0.4883479510979129,-0.1350244279427579,0.2236498795576542,28.55299,84.66718,183.8431,0.6461685,-0.2040785,0.7215725,7
17.5,11.55266,1.139311,-35.77103,0.4256882390958687,-0.1102398714174311,0.2324590543072426,26.26157,84.32123,183.9201,0.6475198,-0.190655,0.726678,7
17.52,11.66137,1.332312,-35.76222,0.345050417118335,-0.1408509487444671,0.238488679828329,29.73169,83.05595,183.7194,0.6342246,-0.2127604,0.7287136,7
17.54,11.76942,1.522398,-35.75247,0.2865874215611939,-0.1104141990443676,0.2427806321531935,33.19571,81.72987,183.4202,0.6202905,-0.2346414,0.7299981,7
17.56,11.74475,1.121951,-35.77846,0.2228362057199959,-0.1362614564428657,0.2421098423443464,34.67915,81.0797,183.2201,0.6138302,-0.2438353,0.7305745,7
17.58,11.78921,1.118938,-35.78257,0.1793323844926333,-0.1014938823696399,0.2412372485172857,37.32915,80.62542,182.9547,0.606439,-0.2597504,0.7275203,7
17.6,11.89449,1.318028,-35.77653,0.1275041522690552,-0.1228196115444979,0.2353309428667405,40.70609,79.12231,182.42,0.5913425,-0.2806878,0.7273299,7
17.62,11.9726,1.115153,-35.80239,0.0793163067569042,-0.1430453516513473,0.2279913214117277,43.24593,80.60403,181.6927,0.5970827,-0.2898838,0.7124207,7
17.64,12.07676,1.315742,-35.79705,0.0564309437488472,-0.1334332523203411,0.2191515859247408,46.58735,79.02248,181.1016,0.5814108,-0.3106884,0.7110008,7
17.66,12.18081,1.513656,-35.79079,0.03946404720195,-0.120119875180228,0.2104360458955909,49.91433,77.28233,180.3281,0.565187,-0.3311856,0.7088898,7
17.68,12.20477,1.113093,-35.81237,0.026110500310998,-0.1048317202653623,0.20089485191325,48.03208,78.90455,179.4815,0.5818428,-0.3116313,0.7041327,7
17.7,12.27127,1.110138,-35.81565,0.0162927080520205,-0.0910492437310159,0.1901619296775925,50.61094,78.73991,178.6781,0.5772302,-0.3238055,0.6957101,7
17.72,12.37278,1.309933,-35.80975,0.0282432066998161,-0.0778191004996739,0.1794804297742978,53.86696,76.92388,177.8478,0.561092,-0.3441972,0.6926753,7
17.74,12.57116,1.102333,-35.81673,0.0433889773305522,-0.0634195392699931,0.1682622085804146,59.59924,75.60306,174.0305,0.551605,-0.364446,0.668867,7
17.76,12.67124,1.296414,-35.80943,0.0615313270880535,-0.051281031130201,0.156279392366148,62.79453,73.14202,172.543,0.534708,-0.3844424,0.6638869,7
17.78,12.77079,1.488044,-35.80128,0.102261256391666,-0.1223315330678881,0.1408088438835655,65.9515,70.1782,170.5386,0.5173297,-0.4040764,0.6582959,7
17.8,12.86966,1.677254,-35.79232,0.1396841684715513,-0.1021597036062439,0.1307588557322416,69.05237,66.49136,167.7989,0.4994865,-0.4233314,0.652099,7
17.82,13.04203,1.12883,-35.80481,0.1773490567193425,-0.0819088837498422,0.1217805555607132,60.94972,65.45506,166.6192,0.5124888,-0.369458,0.688152,7
17.84,13.14153,1.31343,-35.79167,0.2143896998184815,-0.0533057637291023,0.114591409176076,63.95403,61.98818,164.0098,0.4957073,-0.3887978,0.6821482,7
17.86,13.34119,1.178045,-35.7981,0.2491668530906263,0.001495524994859,0.1108966724836948,52.13012,69.32995,171.0846,0.537473,-0.3205918,0.7171819,7
17.88,13.43011,1.1953,-35.79808,0.2837302253044926,0.0092487111644203,0.1018049820467776,48.36479,71.92462,173.0724,0.554773,-0.2985937,0.722492,7
17.9,13.53149,1.372047,-35.78001,0.3191707742993945,0.0144318888197063,0.0943664809151467,51.47505,69.87713,171.8985,0.5397401,-0.3186517,0.7190276,7
17.92,13.71636,1.239048,-35.81749,0.3576175620678139,0.0454709822493244,0.0851110462340312,32.17427,76.72046,175.2326,0.6048228,-0.1922909,0.7456149,7
17.94,13.83255,1.408751,-35.798,0.3952767657665901,0.0751692366264475,0.0776536077431933,35.68485,75.18729,174.5405,0.5916185,-0.2148466,0.7444892,7
17.96,13.90345,1.257239,-35.82225,0.4247355481382375,0.0547456762521343,0.0654501332552204,20.14616,79.43222,176.5018,0.6329481,-0.1152741,0.7535988,7
17.98,14.02012,1.425759,-35.8011,0.4484484735712732,0.1008656216847143,0.0640204217518061,23.66733,78.14241,176.1122,0.621936,-0.1381928,0.7550419,7
18.0,14.06616,1.268067,-35.82651,0.4753795799314519,0.1682821643384111,0.0672253727437697,8.243088,82.18944,177.5004,0.6566314,-0.03985208,0.7504659,7
18.02,14.21392,1.275632,-35.83147,0.4898700249782264,0.1639143224142977,0.0580909387407215,358.4802,84.65128,178.1472,0.6730376,0.02068922,0.7393125,7
18.04,14.33295,1.441463,-35.80921,0.5045205045892707,0.2047938793877002,0.0557915317582748,2.055516,83.51016,178.1165,0.6659706,-0.00243526,0.7455812,7
18.06,14.44938,1.60375,-35.78608,0.515477495776675,0.2419882120419837,0.0559580664014891,5.62847,82.36347,178.0141,0.658197,-0.0255502,0.751044,7
