pX,pY,pZ,aX,aY,aZ,reX,reY,reZ,rtX,rtY,rtZ,t,ID
-43.9719,0.2300003,-36.95188,6.354922221447396,-0.1461480804514916,2.930338530203045,3.134215,359.9434,358.5629,0.02735181,-0.0001508712,-0.01252288,2.57999994233251,10
-43.94333,0.4300005,-36.94489,6.767511530029971,-0.259667712048693,3.021456501339188,3.96966,0.2925913,357.1245,0.03455984,0.00342003,-0.02516445,2.59999994188547,10
-43.84044,0.2833332,-37.14907,7.09183548893138,-0.1604114027325137,3.098372966038312,0.9485142,4.681877,358.8906,0.007874518,0.04092247,-0.01001129,2.61999994143844,10
-43.82242,0.4833332,-37.13631,7.440897006136254,-0.512981927546221,3.192584883025681,1.752219,5.064728,357.9335,0.01447634,0.04444681,-0.01868813,2.6399999409914,10
-43.80437,0.6833333,-37.12399,7.694744153122755,-0.6234702415075138,3.264838379489568,2.544328,5.436936,356.9779,0.02091855,0.04798504,-0.02738648,2.65999994054437,10
-43.78633,0.8833333,-37.11167,7.856944856335801,-0.5172101245434582,3.31456124105803,3.342425,5.795719,356.0267,0.02735738,0.05151347,-0.03608095,2.67999994009733,10
-43.77974,0.2833333,-37.08319,7.984298198253121,-0.858804127021089,3.349332705521832,1.228079,13.4974,0.5442185,0.0112005,0.1174563,0.003456637,2.6999999396503,10
-43.78413,0.4833333,-37.05994,8.022619817176377,-0.9543434322932742,3.3592827958627254,2.452068,13.92199,1.097632,0.02239859,0.1209569,0.0069127,2.71999993920326,10
-43.73228,0.2833332,-37.01554,7.976401512728302,-0.8291615956108531,3.3444322809107803,1.689816,20.4505,0.07400841,0.01462633,0.1774897,-0.001982149,2.73999993875623,10
-43.72317,0.4833333,-36.98722,7.95235646945698,-1.1478604352047523,3.333450709762751,3.379497,20.86029,0.1594292,0.0292519,0.1809174,-0.003970596,2.75999993830919,10
-43.71408,0.6833335,-36.95892,7.84238508758056,-1.216531985479438,3.2935919012175745,5.070982,21.27304,0.2562673,0.04389039,0.1842994,-0.005969599,2.77999993786216,10
-43.63592,0.2833332,-36.908,7.65272571730128,-1.060510132035594,3.22007062623441,2.897922,27.68344,0.05126306,0.02465912,0.2391531,-0.005615318,2.79999993741512,10
-43.61321,0.4833327,-36.86246,7.43072235282051,-1.34439751810759,3.1230674708357427,5.797352,28.09368,0.1221066,0.04931597,0.242352,-0.01124166,2.81999993696809,10
-43.59052,0.6833326,-36.81694,7.135538848359239,-1.3742848740369014,2.989025346003274,8.698299,28.50974,0.2142104,0.07395802,0.2453888,-0.01686647,2.83999993652105,10
-43.44664,0.2833333,-36.73593,6.773753704693554,-1.17550588792867,2.8191390170158925,4.285164,37.56314,0.1936059,0.03593921,0.3216758,-0.0104385,2.85999993607402,10
-43.40369,0.4833333,-36.67415,6.444328236392906,-1.4126626037354622,2.647802833776325,8.572927,37.99201,0.4178227,0.07185575,0.3243319,-0.02089092,2.87999993562698,10
-43.36077,0.6833335,-36.6124,6.052689659336501,-1.3918464016958674,2.441066911540922,12.86063,38.44375,0.677912,0.1076846,0.3265246,-0.03132014,2.89999993517995,10
-43.26721,0.2833337,-36.58441,5.702906730199757,-1.565268418659405,2.235556899117966,3.996613,43.83841,0.2577492,0.03318831,0.372998,-0.01093146,2.91999993473291,10
-43.22223,0.4833333,-36.53078,5.2937306708064185,-1.479115154538083,1.9985178512781587,7.991611,44.27094,0.5450109,0.06633446,0.3755705,-0.02186142,2.93999993428588,10
-43.17808,0.683333,-36.48546,4.834144244073109,-1.1587202697336512,1.7328403901630622,11.61363,44.53115,0.5502451,0.09543976,0.376502,-0.0339137,2.95999993383884,10
-42.97233,0.2833338,-36.5113,4.3312438734749605,-0.6283721343111177,1.4432577443325556,4.083229,50.92979,354.7471,0.01244073,0.4307077,-0.05664699,2.97999993339181,10
-42.84875,0.4833334,-36.53309,3.892235306332502,-0.7650654154552163,1.1636526483029428,8.71662,50.80742,349.4161,0.02890094,0.4322611,-0.1155336,2.99999993294477,10
-42.50686,0.2833333,-36.55466,3.4214309933155604,-0.6347959634944625,0.8654729874689409,3.279131,54.90866,359.9843,0.02532652,0.4608562,-0.01331269,3.01999993249774,10
-42.45799,0.4833335,-36.52182,3.0197397101259256,-0.6897729062599578,0.5822415352363706,6.644189,54.94832,359.9095,0.05104963,0.4606138,-0.0274343,3.0399999320507,10
-42.40914,0.6833333,-36.48899,2.5956497751677503,-0.476183850231159,0.2824547990615045,10.00856,54.98384,359.8365,0.07672374,0.4599738,-0.04152796,3.05999993160367,10
-42.29755,0.2833333,-36.44883,2.1603109226456496,-0.0193626943377368,-0.0306483464057123,3.379345,58.68176,0.04612069,0.02590073,0.4897811,-0.01409761,3.07999993115664,10
-42.24754,0.4833335,-36.41739,1.7257799026903982,0.656402086204386,-0.3529239184631976,6.757775,58.73211,0.09540763,0.05177276,0.4894921,-0.02817837,3.0999999307096,10
-42.19756,0.6833335,-36.38594,1.3626756246945249,0.4340191331973458,-0.6548156940414174,10.13534,58.78581,0.1481771,0.07759377,0.4887775,-0.04223085,3.11999993026257,10
-42.04414,0.2833333,-36.32382,0.8893647735036581,0.6359574586581553,-0.7142175360555072,3.367186,63.15486,0.2196247,0.02603295,0.5233753,-0.01375272,3.13999992981553,10
-41.9934,0.4833332,-36.2938,0.493277807512662,0.4131106414987784,-0.7308599724204399,6.733283,63.22043,0.4434649,0.05203683,0.5230358,-0.02748976,3.1599999293685,10
-41.94267,0.6833331,-36.26379,0.0925784276156278,0.1913091502201164,-0.730091377609611,10.09823,63.29987,0.6731163,0.077989,0.5222427,-0.04119937,3.17999992892146,10
-41.84232,0.283333,-36.2263,-0.3040643833550405,-0.0838082772153017,-0.7104956902780302,3.391656,65.41978,0.2978193,0.0263042,0.5400824,-0.01380597,3.19999992847443,10
-41.79064,0.4833328,-36.19693,-0.6724239855413998,0.4937809306594346,-0.6870238806542872,6.782037,65.49234,0.6004061,0.052578,0.5397031,-0.02759571,3.21999992802739,10
-41.73898,0.6833328,-36.16757,-0.9015679246846277,0.1663936593212874,-0.6162278002482893,10.17237,65.58362,0.9095644,0.07880609,0.538847,-0.04136629,3.23999992758036,10
-41.59181,0.2833335,-36.11152,-1.1381377485502495,0.3202439333060639,-0.5574678579548902,3.404797,67.46225,0.3387327,0.02634743,0.5549757,-0.01403944,3.25999992713332,10
-41.53921,0.4833334,-36.08327,-1.2481060638881942,0.0493081011502662,-0.4608530552849359,6.808466,67.53839,0.6818911,0.05266263,0.5545644,-0.02806789,3.27999992668629,10
-41.48611,0.6833332,-36.06023,-1.3032016318685322,-0.2205822220036724,-0.3570513226907366,10.12073,67.77115,0.7443169,0.07682958,0.5548757,-0.04380548,3.29999992623925,10
-41.39419,0.2833329,-36.02914,-1.37313453391193,0.1764999242946198,-0.2714191540031834,3.308956,67.93983,0.02661455,0.02407423,0.5585191,-0.01593995,3.31999992579222,10
-41.34168,0.4833329,-36.01139,-1.2536415146433413,-0.0912986754645922,-0.1454333315173954,6.478758,68.18549,359.8426,0.04602718,0.5597022,-0.03280997,3.33999992534518,10
-41.28933,0.683333,-35.99491,-1.0858575679732283,-0.3580518970725419,-0.0413382217753053,9.61438,68.41261,359.6078,0.06738868,0.5604308,-0.04993237,3.35999992489815,10
-41.15085,0.2833336,-35.94883,-1.0031096444206895,0.0421663031828914,-0.0028767355845076,3.156199,68.69162,359.6867,0.02119618,0.5640324,-0.01779355,3.37999992445111,10
-41.09751,0.483334,-35.93372,-0.818325286555627,-0.222496718106904,0.0132355641976573,6.317066,69.20748,359.3959,0.04236185,0.567266,-0.0356228,3.39999992400408,10
-40.95407,0.2833333,-35.88739,-0.5987836034093093,-0.4861144668319414,-0.028526737239801,3.199035,69.14835,359.8881,0.0224297,0.5672737,-0.01664355,3.41999992355704,10
-40.90237,0.4833331,-35.87118,-0.3953573562775929,-0.0827603426859073,-0.0904171363602657,6.299493,69.49358,359.7061,0.04368806,0.5692037,-0.03342047,3.43999992311001,10
-40.85083,0.683333,-35.85553,-0.0200495611713762,-0.3442868300878373,-0.1615405000743592,9.380472,69.81512,359.5168,0.06465115,0.5706155,-0.05023828,3.45999992266297,10
-40.80149,0.8833329,-35.83886,0.3963436753686551,-0.6047673928499566,-0.2788516335263864,12.36237,70.25304,359.449,0.08531247,0.5724556,-0.06586207,3.47999992221594,10
-40.66106,0.2833333,-35.79381,0.6700650594228819,-0.1982771195272691,-0.3577496397534929,3.166892,69.09794,359.9191,0.02235935,0.5669097,-0.01625209,3.4999999217689,10
-40.60897,0.483333,-35.77556,0.9386243438043352,-0.4566682405910837,-0.3714978995798859,6.329007,69.56254,359.8441,0.04456533,0.5696364,-0.03260572,3.51999992132187,10
-40.47229,0.2833334,-35.72938,0.8802184473382226,-0.2338217593570788,-0.3389166755083792,3.139419,67.9446,359.8767,0.02211656,0.5586065,-0.01619874,3.53999992087483,10
-40.42143,0.4833334,-35.71294,0.8147948903973514,-0.0088847963280324,-0.3169146700616707,6.192696,68.37408,359.6661,0.04304667,0.5612038,-0.03275764,3.5599999204278,10
-40.37116,0.6833333,-35.69748,0.8554812287932947,-0.4744408664193544,-0.261225892373595,9.195546,68.72684,359.4339,0.06339006,0.5629438,-0.04930966,3.57999991998076,10
-40.32095,0.8833331,-35.68235,0.816362545035382,-0.2453213426737143,-0.2270517844139945,12.18978,69.07385,359.2025,0.08353797,0.5643276,-0.06589358,3.59999991953373,10
-40.18404,0.283333,-35.63599,0.8711281639098303,-0.4409877500494392,-0.1654612788358349,3.216987,67.36066,359.7769,0.02227904,0.5543847,-0.01718552,3.61999991908669,10
-40.13147,0.4833329,-35.6188,0.9136053870195652,-0.6356085924067034,-0.116746045282376,6.37421,67.65016,359.5347,0.0439292,0.5559813,-0.0343164,3.63999991863966,10
-39.99749,0.283333,-35.57558,0.8278018145020596,-0.1632571211650807,-0.1162115789559194,3.448087,68.36442,359.7491,0.02365886,0.5616254,-0.01871344,3.65999991819263,10
-39.93991,0.483333,-35.55726,0.731043476914536,0.2845274700008542,-0.1277092694690225,6.897338,68.65847,359.5158,0.04729713,0.5631311,-0.03740645,3.67999991774559,10
-39.8837,0.683333,-35.54146,0.7265051565064198,-0.1972328449814591,-0.1073357877105891,10.22346,68.81576,359.1877,0.0695174,0.56334,-0.05617189,3.69999991729856,10
-39.82751,0.8833328,-35.52567,0.6546240528311955,0.0167277063508332,-0.108327272838828,13.5514,68.95666,358.8652,0.09168655,0.5630763,-0.07489221,3.71999991685152,10
-39.69124,0.2833336,-35.47715,0.575320723371803,0.2338249857560659,-0.1210481986546696,3.502274,70.00747,359.81,0.02407985,0.5734026,-0.01888699,3.73999991640449,10
-39.63269,0.4833336,-35.45925,0.612744299478436,-0.2385262900808347,-0.0975241097737935,7.005574,70.19809,359.6318,0.048143,0.574075,-0.03775382,3.75999991595745,10
-39.50292,0.283333,-35.41253,0.5310752225587834,-0.015157173000037,-0.1184177618645563,3.574069,70.72221,359.9343,0.02509991,0.5784606,-0.01851488,3.77999991551042,10
-39.44371,0.4833333,-35.39291,0.439096869533941,0.2113482377854699,-0.1533465868053056,7.147808,70.92381,359.8817,0.0501748,0.5790854,-0.03700429,3.79999991506338,10
-39.38451,0.6833333,-35.37329,0.3953700057841658,-0.2515945433037484,-0.166513432643832,10.72073,71.12386,359.8413,0.07519387,0.5791438,-0.05545251,3.81999991461635,10
-39.19995,0.2833333,-35.30359,0.3029163218431421,-0.0188157149654444,-0.1941255834548272,3.564393,71.59176,0.06300808,0.02554698,0.5846024,-0.0177447,3.83999991416931,10
-39.14339,0.4833331,-35.28548,0.2118036213201364,0.2170992148090816,-0.2199386604998068,6.967752,71.5462,0.01908534,0.04940031,0.5834883,-0.03538848,3.85999991372228,10
-39.08732,0.6833331,-35.26799,0.2350452053268128,-0.2364343687549722,-0.1977999762888487,10.33274,71.43868,359.9459,0.07283404,0.581478,-0.05295349,3.87999991327524,10
-38.96587,0.2833332,-35.22646,0.1594267228103731,0.0057522578259944,-0.2062194108261437,3.361032,71.96259,359.7463,0.02243106,0.5873195,-0.01902033,3.89999991282821,10
-38.9087,0.4833333,-35.21244,0.1845617550524565,-0.1758026576960933,-0.1723365804806604,6.721143,71.97977,359.4933,0.04483596,0.5868359,-0.03801824,3.91999991238117,10
-38.85154,0.6833333,-35.19842,0.0970829551145513,0.1249261330945362,-0.1740184985308914,10.08121,71.9821,359.24,0.06720556,0.5858449,-0.05697715,3.93999991193414,10
-38.67567,0.2833336,-35.14689,0.0032708729522354,0.4287914552466253,-0.1766727097072902,3.384817,72.53521,359.7575,0.02256076,0.5913485,-0.01917622,3.9599999114871,10
-38.61798,0.4833338,-35.13298,-0.0883260793266558,0.6835225622322377,-0.177009157784397,6.773941,72.47009,359.5196,0.04517915,0.5902612,-0.0382971,3.97999991104007,10
-38.56031,0.6833335,-35.11907,-0.069003566577102,-0.0169026664949658,-0.1364915574206477,10.16195,72.39016,359.2758,0.06775304,0.5886558,-0.05737887,3.99999991059303,10
-38.45493,0.2833331,-35.08386,-0.1501434216481953,0.1918307023242621,-0.1280323537102177,3.375202,72.70901,359.8089,0.02272991,0.5925612,-0.01879962,4.019999910146,10
-38.39844,0.4833331,-35.07146,-0.1372686984644033,-0.0231753445937812,-0.0878316173924886,6.67228,72.49535,359.512,0.04441712,0.5904695,-0.03783707,4.03999990969896,10
-38.34213,0.683333,-35.05959,-0.2281123712020019,0.2441012743556885,-0.0836795240442143,9.949671,72.25748,359.1748,0.06581014,0.5878696,-0.05692229,4.05999990925193,10
-38.18686,0.2833336,-35.00783,-0.3224265903584964,0.5145140810748967,-0.0815467464048467,3.331136,74.01512,359.7936,0.02212657,0.6017069,-0.01893307,4.07999990880489,10
-38.13041,0.4833337,-34.99624,-0.4105680065766677,0.7357926512838231,-0.0776030034504984,6.618667,73.85332,359.5294,0.04368337,0.5999749,-0.03795896,4.09999990835786,10
-37.9799,0.2833334,-34.94926,-0.3928879998861205,0.0019137998593544,-0.031723943553743,3.275918,74.4904,359.8643,0.02203796,0.6050065,-0.01824187,4.11999990791082,10
-37.92477,0.4833336,-34.93742,-0.4613689917022796,0.1771941519711741,-0.0196114904447455,6.495157,74.2671,359.6588,0.04336912,0.6028372,-0.03656794,4.13999990746379,10
-37.86977,0.6833336,-34.92585,-0.4385277478027234,-0.0712651855519359,0.0247111268459292,9.703428,74.02432,359.4269,0.06453511,0.6001578,-0.05489241,4.15999990701675,10
-37.81475,0.8833338,-34.91416,-0.5013742797391743,0.1625586681985652,0.0354878061679855,12.91428,73.76704,359.1847,0.08570649,0.5970076,-0.0731503,4.17999990656972,10
-37.67032,0.2833334,-34.86289,-0.5611418064887701,0.3995190094032652,0.0415009051667141,3.232959,73.89209,359.8953,0.02199588,0.6008438,-0.01768531,4.19999990612268,10
-37.61614,0.4833332,-34.8498,-0.4840758567416543,-0.0529694452529138,0.1047396926989776,6.421833,73.46967,359.7315,0.04348901,0.597277,-0.03537622,4.21999990567565,10
-37.56196,0.6833334,-34.83724,-0.4024382554022025,-0.5300247568115043,0.1663189339745443,9.602235,73.06562,359.5181,0.06475708,0.5934719,-0.05319013,4.23999990522861,10
-37.39896,0.2833333,-34.78116,-0.4041302355323353,-0.1266708276346044,0.1900162735780739,3.262189,72.59991,359.8823,0.0223322,0.5917959,-0.0176786,4.25999990478158,10
-37.34394,0.4833335,-34.76676,-0.3343051502008123,-0.3881984558411878,0.2479529547817733,6.513834,72.35345,359.719,0.04441438,0.5894352,-0.03551183,4.27999990433455,10
-37.28892,0.6833335,-34.75295,-0.3443142714110152,-0.1684880727329348,0.2688823250784935,9.755744,72.13252,359.5089,0.06621977,0.5868775,-0.05351176,4.29999990388751,10
-37.18584,0.2833336,-34.71272,-0.3514269161786743,0.0533133212353939,0.2834104091712497,3.273552,71.16713,359.9651,0.02305255,0.5816593,-0.01686805,4.31999990344048,10
-37.13152,0.4833339,-34.69606,-0.2297085481347451,-0.415379480849161,0.3482417843919485,6.525362,71.08215,359.8612,0.04560785,0.5803999,-0.03406695,4.33999990299344,10
-37.07723,0.6833338,-34.67975,-0.2545750578737298,-0.1893967752560362,0.3454868478744828,9.770591,71.01004,359.733,0.06797823,0.5788244,-0.05134923,4.35999990254641,10
-36.92477,0.2833339,-34.62389,-0.2821463418300283,0.038676855909062,0.3321344677352407,3.272385,69.68277,359.9563,0.02321682,0.5710825,-0.01662534,4.37999990209937,10
-36.87101,0.4833339,-34.60598,-0.3040409138824813,0.2165708913171299,0.3116010903784136,6.515944,69.7385,359.8489,0.04587546,0.5708426,-0.03357098,4.39999990165234,10
-36.72293,0.2833329,-34.55322,-0.3078736777572572,0.1585512841128538,0.3031347865855096,3.251522,68.88142,359.9118,0.02296278,0.5653434,-0.01667993,4.4199999012053,10
-36.6697,0.4833329,-34.53659,-0.311452075734806,0.1313709842715809,0.2894157198585745,6.437957,69.08219,359.7049,0.0447958,0.5662199,-0.03395581,4.43999990075827,10
-36.6165,0.6833329,-34.52018,-0.2259038535431443,-0.3451617392677671,0.3125279429771836,9.618778,69.28333,359.4973,0.06649242,0.5667379,-0.05125494,4.45999990031123,10
-36.56336,0.8833328,-34.50386,-0.2773105845956465,-0.1259736202756112,0.2861276760489382,12.79792,69.47379,359.2961,0.08810754,0.5668108,-0.06852122,4.4799998998642,10
-36.41876,0.2833333,-34.45291,-0.3329591226755539,0.0963507736038594,0.2528411655084852,3.20853,67.66494,359.8479,0.02251689,0.5565786,-0.01668912,4.49999989941716,10
-36.36701,0.4833333,-34.4367,-0.2496597100223425,-0.3707730714348868,0.2797099768937805,6.304087,67.90488,359.5832,0.043582,0.5578219,-0.03372237,4.51999989897013,10
-36.22943,0.2833334,-34.38985,-0.2265213080722716,-0.1421752222807106,0.2763181847632552,3.062654,65.61272,359.6972,0.02103026,0.5416655,-0.01669865,4.53999989852309,10
-36.17974,0.4833336,-34.37376,-0.2045116537025819,0.0895590254677395,0.2683117398050463,6.034338,65.6676,359.3562,0.04118372,0.5416924,-0.03325292,4.55999989807606,10
-36.1304,0.6833336,-34.3581,-0.1033302783948926,-0.3681560229609262,0.3030545687217589,8.977173,65.67661,359.0003,0.06103607,0.5411599,-0.04974416,4.57999989762902,10
-36.08119,0.8833336,-34.34258,-0.1153131092631767,-0.1301505667871614,0.2909890022919157,11.9117,65.65762,358.6375,0.08077362,0.5402029,-0.06618544,4.59999989718199,10
-35.94726,0.2833331,-34.2926,-0.1273593268792616,0.1109912675953596,0.2785386288189109,3.296006,65.66891,359.629,0.02240968,0.5420648,-0.01831277,4.61999989673495,10
-35.89412,0.4833331,-34.2771,-0.1180763132384825,0.1428764044657828,0.2998537557404397,6.430231,65.56976,359.176,0.0432624,0.5409591,-0.03640412,4.63999989628792,10
-35.76682,0.2833331,-34.23152,-0.1210112433789696,0.2056010284227702,0.3173493955058006,3.249711,66.08898,359.6094,0.0219105,0.5451487,-0.01831812,4.65999989584088,10
-35.71272,0.4833334,-34.21723,-0.1280447244056297,0.2458487419348817,0.3347162232238148,6.408597,66.08268,359.0977,0.04256893,0.5447436,-0.03706616,4.67999989539385,10
-35.65888,0.6833336,-34.20345,-0.0655281154398856,-0.4300095953042309,0.40668048933669,9.544163,66.04721,358.5634,0.06293803,0.5439271,-0.05580998,4.69999989494681,10
-35.4883,0.2833333,-34.13704,-0.1061318750860138,-0.1977539316164017,0.4365998968674027,3.201099,66.85513,359.649,0.02162386,0.5507362,-0.01794247,4.71999989449978,10
-35.43488,0.4833333,-34.12243,-0.1457263689068675,0.0365927602679012,0.4680286251076602,6.341407,66.91891,359.216,0.04237727,0.5508056,-0.03619379,4.73999989405274,10
-35.38157,0.6833332,-34.10802,-0.0561993563601603,-0.4195551246916026,0.5845164190640979,9.473362,66.96083,358.7754,0.06299601,0.5504726,-0.05443372,4.75999989360571,10
-35.26802,0.283333,-34.05932,-0.0943395964911779,-0.1810273219885154,0.6502074879444919,3.169605,67.40006,359.8023,0.02205219,0.5546715,-0.01677955,4.77999989315867,10
-35.21606,0.4833328,-34.0435,-0.1373314056966634,0.0595910943185035,0.7122308459088025,6.26469,67.3496,359.4924,0.04302061,0.5538461,-0.03397842,4.79999989271164,10
-35.16425,0.6833332,-34.02838,-0.1235295685613024,-0.3902842839024564,0.820790121578522,9.33677,67.32759,359.145,0.06361613,0.5529697,-0.05130319,4.8199998922646,10
-35.00154,0.2833329,-33.96247,-0.1646682562569736,-0.1454841392001601,0.8962447882056317,3.262052,68.13382,359.7974,0.02258821,0.5599746,-0.01740781,4.83999989181757,10
-34.94964,0.4833328,-33.94692,-0.2009649665231698,0.1014064271860475,0.9662071098542596,6.350538,68.2847,359.5171,0.04348162,0.5605775,-0.0345704,4.85999989137053,10
-34.89819,0.6833326,-33.932,-0.1190180890784482,-0.3421965537160422,1.1130559451793651,9.404528,68.4165,359.2212,0.06398614,0.560758,-0.05168864,4.8799998909235,10
-34.84674,0.8833326,-33.91708,-0.1484000944205412,-0.0911238973094999,1.2037632614875342,12.46031,68.53484,358.9297,0.08445352,0.560544,-0.06877445,4.89999989047647,10
-34.71748,0.2833333,-33.85965,-0.1758756797200078,0.1620394167824683,1.2814219069485304,3.334179,68.9079,359.8985,0.02348779,0.5655252,-0.01718887,4.91999989002943,10
-34.66671,0.4833331,-33.84373,-0.181657603519973,0.2049012993584321,1.4014500720607934,6.370461,68.82623,359.6959,0.04434203,0.5644024,-0.03358801,4.9399998895824,10
-34.53997,0.2833331,-33.79134,-0.1990308518033856,0.2775571238653039,1.5004951937378124,3.224604,68.84816,359.8166,0.02230429,0.5651264,-0.01722575,4.95999988913536,10
-34.48969,0.4833333,-33.77626,-0.2197474112864696,0.3266912946889326,1.5819124660168775,6.216534,68.62329,359.5703,0.04267645,0.5630287,-0.03365736,4.97999988868833,10
-34.44025,0.6833336,-33.76195,-0.1681979380864504,-0.3413262047056098,1.7112919362374868,9.148917,68.34898,359.2911,0.06251845,0.5603231,-0.04990005,4.99999988824129,10
-34.26374,0.2833336,-33.68801,-0.2231842170684004,-0.1022757868897133,1.782008251791229,3.117382,69.28442,359.8644,0.02170633,0.5682658,-0.01643544,5.01999988779426,10
-34.21193,0.4833339,-33.67087,-0.2772240071497798,0.1378200546399351,1.8344795509059184,6.238558,69.0505,359.7146,0.04342127,0.5660396,-0.03288969,5.03999988734722,10
-34.16095,0.6833341,-33.65574,-0.2972498200875755,0.166568656664199,1.940249356651126,9.274143,68.94399,359.4642,0.06400958,0.5644562,-0.04959913,5.05999988690019,10
-34.04226,0.2833333,-33.60032,-0.3227383144692588,0.2240660170887772,2.021027185925078,3.055552,69.1992,359.9095,0.02149784,0.5676533,-0.0157894,5.07999988645315,10
-33.99168,0.4833335,-33.58269,-0.3446948096945483,0.2569961524520676,2.0809598266155653,6.110322,69.07784,359.8126,0.04297742,0.5662311,-0.03156276,5.09999988600612,10
-33.94112,0.6833338,-33.56506,-0.2055774675471902,-0.428270968155256,2.2435114394232585,9.164293,68.95055,359.7087,0.06442329,0.5644069,-0.04730921,5.11999988555908,10
-33.77186,0.2833333,-33.47898,-0.1626309333457811,-0.207514784636852,2.3392203412713464,3.084769,67.89366,0.02183948,0.02243508,0.5582168,-0.01487272,5.13999988511205,10
-33.722,0.4833334,-33.45823,-0.1215906275282492,0.0132412788335315,2.4090702115532103,6.168931,67.78168,0.03782692,0.04484996,0.5567898,-0.02973043,5.15999988466501,10
-33.67215,0.6833329,-33.4375,-0.0740675892854447,0.0216043748702031,2.4935563223981845,9.254399,67.67019,0.05022943,0.06725302,0.5549603,-0.04455567,5.17999988421798,10
-33.56073,0.2833335,-33.36861,-0.0343490051900445,0.0576705424112402,2.55012509214119,3.210441,66.59923,0.1929673,0.02433747,0.5487615,-0.01397253,5.19999988377094,10
-33.51058,0.4833335,-33.34326,0.0057727851806852,0.0681239041913672,2.58422744135369,6.424191,66.50225,0.3827291,0.04868659,0.5472887,-0.02793415,5.21999988332391,10
-33.46045,0.6833335,-33.31792,0.0583889608236809,0.0796233299994265,2.6561525219809567,9.637438,66.41538,0.5684457,0.07299121,0.5453844,-0.04187022,5.23999988287687,10
-33.2976,0.2833331,-33.21759,0.0935135302449943,0.1188266523152912,2.6950459719589013,3.328265,63.27721,0.1328076,0.025332,0.5243094,-0.01424717,5.25999988242984,10
-33.24674,0.4833331,-33.18944,0.1193826674498907,0.1324172248868437,2.706427316949725,6.656677,63.17576,0.2608431,0.05064601,0.5228083,-0.02847517,5.2799998819828,10
-33.19589,0.6833331,-33.16129,0.0717649498258197,0.7873674765695278,2.654547615867539,9.98435,63.08111,0.3839614,0.07590996,0.5208662,-0.04267505,5.29999988153577,10
-33.09437,0.2833332,-33.08931,0.1332992907029151,0.539431092088302,2.6693964668738666,3.324532,60.87659,0.09466366,0.02542826,0.5063761,-0.01398377,5.31999988108873,10
-33.04448,0.4833333,-33.05967,0.1889967714368161,0.2946302074093185,2.657138414160688,6.648225,60.77212,0.1842153,0.05083099,0.5048918,-0.02794531,5.3399998806417,10
-32.9946,0.6833333,-33.03004,0.1143125465130907,0.7188926105128002,2.5627212743002232,9.971136,60.67213,0.2683156,0.07618356,0.5029832,-0.04187974,5.35999988019466,10
-32.84574,0.2833336,-32.92599,0.1559536674027057,0.4803648324639865,2.546754277922606,3.294377,57.62569,359.9723,0.02506968,0.4817571,-0.01406552,5.37999987974763,10
-32.79692,0.4833339,-32.89566,0.1887647599092794,0.2449733160606151,2.5033120447157984,6.587728,57.51081,359.9379,0.05011135,0.480304,-0.02811516,5.39999987930059,10
-32.7481,0.6833339,-32.86534,0.2211797462230471,-0.0416433715723522,2.438862409999832,9.879904,57.39317,359.8971,0.07510547,0.4784552,-0.04213284,5.41999987885356,10
-32.58202,0.2833333,-32.74639,0.3021540866123473,-0.1137764779934408,2.413593730684898,3.248534,53.77967,359.8636,0.02474224,0.4521245,-0.01388073,5.43999987840652,10
-32.53487,0.483333,-32.71485,0.37333671641316,-0.158205725105929,2.3611365794643824,6.495865,53.65589,359.7201,0.04945777,0.45071,-0.0277461,5.45999987795949,10
-32.48774,0.683333,-32.68332,0.3522803635381528,0.251944769634787,2.2447233755761395,9.741869,53.52298,359.5684,0.07412595,0.4489337,-0.0415847,5.47999987751245,10
-32.37752,0.283333,-32.59344,0.3954173280481186,-0.0017410133866968,2.170541322493662,3.207458,50.44352,359.7931,0.02454935,0.426001,-0.01355876,5.49999987706542,10
-32.33206,0.4833332,-32.56061,0.4371408621641954,-0.2533363512025224,2.0799445583888847,6.413456,50.31429,359.5786,0.04907167,0.4246201,-0.02710259,5.51999987661839,10
-32.28661,0.6833332,-32.52779,0.3338348459986662,0.1630857176830908,1.9091254789427337,9.618027,50.172,359.3553,0.0735486,0.422906,-0.04062081,5.53999987617135,10
-32.12147,0.2833333,-32.39669,0.3352245717003086,-0.0843287569021021,1.823072636906044,3.368023,48.81387,359.7654,0.02591551,0.4130901,-0.01400657,5.55999987572432,10
-32.0745,0.4833335,-32.36109,0.3275002134518061,-0.3296529233175832,1.7224875726917048,6.734572,48.68158,359.5227,0.05180115,0.4116708,-0.02799704,5.57999987527728,10
-32.02753,0.6833335,-32.32549,0.2380372410349132,0.0930412684665367,1.5672591852553772,10.09962,48.53378,359.2701,0.07763501,0.4098952,-0.04195911,5.59999987483025,10
-31.84115,0.2833336,-32.17791,0.2644860411645808,-0.1481005463145293,1.5067091423064838,3.535544,49.61473,359.8023,0.02727835,0.4194168,-0.01450845,5.61999987438321,10
-31.79186,0.4833336,-32.14059,0.2829675121272998,-0.3871519951669342,1.435898443571226,7.069814,49.4851,359.5963,0.05452416,0.41794,-0.02899959,5.63999987393618,10
-31.74259,0.6833335,-32.10329,0.1600722988896308,0.0418145995115818,1.2811849907009003,10.60382,49.34138,359.38,0.08171952,0.4160647,-0.04346441,5.65999987348914,10
-31.60958,0.2833332,-31.99826,0.0317475785805392,0.4472594934633613,1.1201764392396285,3.564383,50.15501,359.8528,0.02762415,0.4236747,-0.01434467,5.67999987304211,10
-31.56015,0.4833332,-31.96043,-0.0243576821013853,-0.0757937838998398,1.0289315987780334,7.127652,50.0303,359.6977,0.05521589,0.4221874,-0.028671,5.69999987259507,10
-31.51073,0.6833332,-31.92261,-0.1517404871827601,0.097918646297205,0.880871114787606,10.68955,49.89468,359.5332,0.08274628,0.4202918,-0.04296553,5.71999987214804,10
-31.32608,0.2833335,-31.77382,-0.2087075933286648,-0.1510634234247366,0.7808198809413547,3.592906,50.93018,-0.00312487,0.02829154,0.4297505,-0.01350341,5.739999871701,10
-31.27734,0.483334,-31.73439,-0.2628242298236536,-0.3969090710306612,0.6787429718032385,7.184982,50.81937,359.9876,0.05655172,0.4282508,-0.02698435,5.75999987125397,10
-31.22861,0.6833338,-31.69496,-0.4405758820085417,0.0263084781951286,0.4929102497448276,10.77611,50.70699,359.9711,0.08474904,0.4263312,-0.04043536,5.77999987080693,10
-31.1799,0.8833337,-31.65555,-0.6143398491338594,0.4270494030701635,0.3079256782673774,14.36614,50.59207,359.9472,0.1128548,0.4239938,-0.05384248,5.7999998703599,10
-31.02909,0.2833334,-31.53209,-0.72086300411436,-0.0996629921927384,0.1621331958172369,3.561937,51.0682,0.0608577,0.02827207,0.430825,-0.01291746,5.81999986991286,10
-30.98138,0.4833331,-31.49225,-0.8745789171849836,0.0714363040714862,-0.0251955179614284,7.122789,50.96383,0.1157253,0.05650888,0.4293384,-0.0258149,5.83999986946583,10
-30.93368,0.683333,-31.45242,-1.0122514578994242,0.2477624461393458,-0.2012218326963548,10.68269,50.862,0.1645439,0.08468286,0.427438,-0.03868347,5.85999986901879,10
-30.7731,0.2833331,-31.31783,-1.0191224907827916,-0.2632689592239663,-0.2989910216491509,3.636002,51.86096,0.09879708,0.02890771,0.4370354,-0.01309764,5.87999986857176,10
-30.72422,0.4833328,-31.27733,-1.124406302420713,-0.0764891532522294,-0.4690643223773669,7.271149,51.76059,0.1913602,0.057778,0.4355182,-0.02617859,5.89999986812472,10
-30.67535,0.6833326,-31.23685,-1.2132339176468605,0.1155170151948319,-0.6248892387009128,10.90605,51.66528,0.2782921,0.08658659,0.433563,-0.0392325,5.91999986767769,10
-30.50098,0.2833333,-31.09836,-1.1392915598620093,-0.3798336517773329,-0.6947010473141262,3.628996,51.7941,0.1041111,0.02888061,0.4365104,-0.01301238,5.93999986723065,10
-30.45231,0.4833335,-31.05781,-1.189697266411681,-0.1773722635936097,-0.8503610065082654,7.257092,51.69457,0.2021098,0.05772371,0.4349988,-0.02600765,5.95999986678362,10
-30.40366,0.6833337,-31.01728,-1.22923032491817,0.0303165335217543,-0.9907334515676424,10.88429,51.60043,0.2946239,0.08650027,0.4330517,-0.0389734,5.97999986633658,10
-30.29279,0.2833336,-30.9212,-1.1569937118403608,-0.4493520917803295,-1.0758436378772736,3.584462,52.68386,0.1651154,0.0286667,0.4434692,-0.01258701,5.99999986588955,10
-30.24477,0.4833336,-30.88104,-1.143855675784181,-0.231208924586021,-1.2052081151631029,7.16818,52.59031,0.3246605,0.05729715,0.4419684,-0.02515797,6.01999986544251,10
-30.19676,0.6833335,-30.8409,-1.112104778037704,-0.0078389285760018,-1.3102172712203668,10.75109,52.50608,0.4798071,0.08586309,0.4400353,-0.03770052,6.03999986499548,10
-30.0469,0.2833333,-30.70975,-0.8796845820927786,-0.4718268283803407,-1.3179534687473726,3.526824,53.64302,0.243471,0.02842004,0.4509396,-0.0119897,6.05999986454844,10
-29.99983,0.4833331,-30.66989,-0.7686550701429411,-0.2380031577509839,-1.4111435227080058,7.053033,53.55685,0.4820416,0.05680498,0.4494534,-0.02396442,6.07999986410141,10
-29.95278,0.683333,-30.63005,-0.645152987161719,0.0010473432621954,-1.480787804223219,10.5785,53.48487,0.7174091,0.08512712,0.4475403,-0.03591298,6.09999986365438,10
-29.79647,0.2833331,-30.49545,-0.3126803987069735,-0.4472597329500055,-1.4456505156358332,3.467763,53.02153,0.2724257,0.02813639,0.446096,-0.01137939,6.11999986320734,10
-29.75097,0.483333,-30.45529,-0.1401480214599146,-0.1977553885707424,-1.518572944404205,6.93458,52.93799,0.5404978,0.05623691,0.4446373,-0.02274131,6.13999986276031,10
-29.70548,0.6833329,-30.41515,0.0262677262614516,0.0569757809652895,-1.5749977959122887,10.40065,52.87029,0.8061093,0.08427775,0.4427702,-0.03407662,6.15999986231327,10
-29.66001,0.883333,-30.37502,0.194109318631277,0.2646634800507337,-1.6080739697781254,13.86599,52.81833,1.070921,0.112233,0.4404966,-0.04537727,6.17999986186624,10
-29.54978,0.2833333,-30.27114,0.4228604446259609,0.2395739408678592,-1.6378272876509214,3.414863,52.88833,0.2583964,0.02768197,0.4450665,-0.01125074,6.1999998614192,10
-29.50495,0.4833333,-30.23164,0.6390813538894378,0.2484602600980191,-1.6475309310822617,6.828767,52.80357,0.5120702,0.05532803,0.4436309,-0.02248707,6.21999986097217,10
-29.39662,0.2833333,-30.14472,0.9826758511949194,-0.1888693184097312,-1.5752916696303068,3.369754,52.30661,0.1797646,0.02708326,0.440542,-0.01155229,6.23999986052513,10
-29.35198,0.4833335,-30.10634,1.1503954528236626,0.0726579011283048,-1.609308800430281,6.738448,52.21476,0.354069,0.05413099,0.4391291,-0.02309219,6.2599998600781,10
-29.30735,0.6833333,-30.06796,1.295261666362677,0.3404568062346177,-1.6269280774590271,10.1065,52.13261,0.5243416,0.08112445,0.4373365,-0.03460927,6.27999985963106,10
-29.26274,0.883333,-30.0296,1.4253332334511375,0.5622579560995016,-1.622264063813038,13.47383,52.05984,0.6917105,0.1080399,0.4351661,-0.04609314,6.29999985918403,10
-29.16646,0.2833333,-29.96248,1.6904895659404744,-0.1679621966350412,-1.519469950521735,3.324554,51.98523,0.09753451,0.02644683,0.4380485,-0.01194823,6.31999985873699,10
-29.12177,0.4833333,-29.92547,1.8179228469451305,0.014113411314961,-1.4915390713486545,6.647999,51.88641,0.1889576,0.05285932,0.4366574,-0.02388571,6.33999985828996,10
-29.0771,0.6833332,-29.88846,1.9260354882280808,0.2024617938900549,-1.4436952836158596,9.970648,51.79222,0.2753308,0.07921982,0.4348995,-0.03579963,6.35999985784292,10
-28.93253,0.2833333,-29.79593,2.175777280445672,-0.2955021865642525,-1.2791196768855215,3.276726,52.70016,-0.0001330861,0.02561978,0.4436732,-0.01269125,6.37999985739589,10
-28.88701,0.4833331,-29.76135,2.269108499725768,-0.0946090627544942,-1.206178631091248,6.552517,52.59316,359.9936,0.05121116,0.4422965,-0.02536891,6.39999985694885,10
-28.8415,0.6833328,-29.72678,2.333749191996848,0.1125565868725576,-1.1194876789485697,9.827035,52.48491,359.9802,0.0767477,0.4405589,-0.03802738,6.41999985650182,10
-28.66648,0.2833336,-29.63239,2.5374945159608906,-0.3665893625957688,-0.89199469626924,3.229576,52.66274,359.9043,0.0248854,0.4434068,-0.01324785,6.43999985605478,10
-28.62063,0.4833333,-29.5996,2.558449585942409,-0.1468788690224295,-0.7719778390183869,6.458074,52.54796,359.8019,0.04974411,0.4420479,-0.02648168,6.45999985560775,10
-28.57479,0.6833333,-29.56683,2.5397021101741544,0.0791038483315682,-0.6501385343561452,9.685375,52.42651,359.6922,0.07455546,0.4403385,-0.03969098,6.47999985516071,10
-28.44221,0.2833335,-29.504,2.490244512911765,0.259088002951327,-0.5216896453665427,3.192729,52.85189,359.8446,0.02434418,0.4449014,-0.0136116,6.49999985471368,10
-28.39614,0.4833335,-29.47257,2.464599564075737,0.2073397074938113,-0.3484029605910557,6.384233,52.73253,359.6824,0.04866247,0.4435552,-0.02720879,6.51999985426664,10
-28.35008,0.6833335,-29.44116,2.4021742891762266,0.1906126301316597,-0.1774038091163099,9.574448,52.60318,359.5123,0.07293575,0.4418648,-0.04078093,6.53999985381961,10
-28.14151,0.2833333,-29.34869,2.3125879756957666,0.155590612906774,-0.0038929098363524,3.529739,56.29931,359.8446,0.02651562,0.4715888,-0.01572477,6.55999985337257,10
-28.08866,0.4833332,-29.31681,2.2229938042100805,0.1289324450242363,0.1791533217185801,7.058231,56.17875,359.6815,0.05299881,0.4701045,-0.03143094,6.57999985292554,10
-28.03583,0.6833332,-29.28495,2.0938042851514105,0.1372956644193955,0.3495880471326629,10.58659,56.04671,359.5079,0.07942791,0.4681733,-0.04711836,6.5999998524785,10
-27.80619,0.2833333,-29.18361,1.935268548650637,0.1273643419920206,0.5121022168063476,3.560097,59.81334,359.8951,0.02647012,0.4983725,-0.0162807,6.61999985203147,10
-27.75154,0.4833331,-29.15403,1.78515457272648,0.1257965503180224,0.6806522493012572,7.119219,59.69757,359.7815,0.05290333,0.4968542,-0.03255201,6.63999985158443,10
-27.69689,0.6833329,-29.12445,1.5921236303058244,0.1592503496897304,0.8229641232526035,10.67709,59.5736,359.6595,0.07927784,0.494857,-0.04878748,6.6599998511374,10
-27.64227,0.8833328,-29.09489,1.3670655838651165,0.1744094539990883,0.9436283163607726,14.23363,59.44024,359.528,0.1055681,0.4923832,-0.06497101,6.67999985069036,10
-27.44482,0.2833333,-29.01429,1.2124323052996644,-0.5223569105147937,1.1180769579364451,3.594353,62.24536,0.005717122,0.02687318,0.5166166,-0.0161672,6.69999985024333,10
-27.38933,0.4833333,-28.98504,0.9579701517880572,-0.3068281031718263,1.1948241357625662,7.187975,62.14048,0.0045389,0.05371299,0.5150714,-0.03231755,6.7199998497963,10
-27.21008,0.2833336,-28.904,0.6847065357464537,-0.0850268303840441,1.2472038220346704,3.563352,62.79703,0.07716183,0.0268889,0.5207176,-0.01562359,6.73999984934926,10
-27.15537,0.4833336,-28.87442,0.4788796070068528,-0.0693459549569496,1.3391359853208904,7.125628,62.69913,0.1487027,0.05374426,0.5191833,-0.03122417,6.75999984890223,10
-27.10069,0.6833335,-28.84485,0.2487771306025799,-0.0196894395205845,1.396906341649203,10.687,62.60491,0.2147166,0.08053987,0.5171478,-0.04679029,6.77999984845519,10
-27.04601,0.8833337,-28.8153,0.0062647468391539,0.0106271043683778,1.4255381601239918,14.24742,62.51369,0.2755764,0.1072496,0.5146136,-0.06230673,6.79999984800816,10
-26.85848,0.2833333,-28.72019,-0.0679598457554888,-0.6720258750527142,1.5582242998919114,3.593792,62.59018,0.07495827,0.02713394,0.5191728,-0.01572937,6.81999984756112,10
-26.80339,0.4833335,-28.69021,-0.2137628345853528,-0.4434295501947577,1.6213241000441627,7.186641,62.49251,0.1439249,0.05423319,0.5176299,-0.03143847,6.83999984711409,10
-26.74831,0.6833335,-28.66024,-0.3635744776750762,-0.2096061483231209,1.6526832213414266,10.7789,62.3984,0.2074174,0.08127416,0.5155787,-0.04711307,6.85999984666705,10
-26.55032,0.2833333,-28.54471,-0.5048292843873412,-0.0228264159657355,1.6580051033597345,3.642147,60.6181,0.0577901,0.02768915,0.5043952,-0.01560224,6.87999984622002,10
-26.49541,0.4833333,-28.51267,-0.6092349944217972,-0.0688243594682459,1.680128280642336,7.283355,60.51919,0.1094279,0.05534264,0.5028484,-0.03118396,6.89999984577298,10
-26.44051,0.683333,-28.48065,-0.7123278338798471,-0.0808462156998531,1.6705249182523545,10.92362,60.42271,0.1552237,0.08293259,0.5007947,-0.04672955,6.91999984532595,10
-26.23641,0.2833333,-28.33424,-0.8013911457067522,-0.1122075797520061,1.6354183473220374,3.605683,59.86495,0.1049913,0.0277209,0.4987068,-0.01490442,6.93999984487891,10
-26.18291,0.4833333,-28.3011,-0.8667485542726574,-0.1362522039006497,1.6256965311645644,7.210483,59.77079,0.2042525,0.05540632,0.4971827,-0.02978951,6.95999984443188,10
-26.12942,0.6833333,-28.26798,-0.9304690671512574,-0.1263208710191655,1.583123609397845,10.81437,59.68214,0.2984856,0.0830288,0.495167,-0.04464054,6.97999984398484,10
-26.07594,0.8833331,-28.23486,-0.9796740582913976,-0.1357297252139653,1.514412148035305,14.41716,59.59863,0.3890915,0.110563,0.4926629,-0.05943632,6.99999984353781,10
-25.90982,0.2833333,-28.10786,-0.930661222387812,-0.1378205898036328,1.522246866828464,3.545455,59.81316,0.1954831,0.02766577,0.4983022,-0.01394573,7.01999984309077,10
-25.85805,0.4833333,-28.07384,-0.8692588036555442,-0.1059356343991188,1.502318860792922,7.090181,59.72772,0.3860296,0.05529707,0.4968045,-0.0278737,7.03999984264374,10
-25.8063,0.683333,-28.03983,-0.7829298076158864,-0.0933906028886908,1.4616511481345604,10.63416,59.65353,0.573022,0.08286753,0.494831,-0.04177082,7.0599998421967,10
-25.62358,0.2833333,-27.90132,-0.8542117775882332,0.5667865569738086,1.3339945325129428,3.4839,58.97474,0.2470243,0.02752099,0.491946,-0.01308728,7.07999984174967,10
-25.57371,0.4833332,-27.86633,-0.7701604008692833,0.3303497268861837,1.291504233055008,6.967149,58.89404,0.4895849,0.05500857,0.4904797,-0.02615805,7.09999984130263,10
-25.52383,0.6833332,-27.83135,-0.6712532908555318,0.1033212674908121,1.2277169706899542,10.44923,58.8278,0.7301934,0.0824371,0.4885593,-0.03919261,7.1199998408556,10
-25.32524,0.2833335,-27.68106,-0.7584263516618215,0.5516280596997185,1.066553149573675,3.428755,57.65465,0.2465143,0.02724639,0.4818982,-0.01254131,7.13999984040856,10
-25.27698,0.4833337,-27.64545,-0.682901424709911,0.3434173928495226,1.007773239931911,6.856443,57.57392,0.489185,0.05445955,0.4804644,-0.02506107,7.15999983996153,10
-25.22873,0.6833336,-27.60986,-0.6046133547650427,0.144615575838244,0.9298839506893302,10.28349,57.50731,0.729116,0.08161635,0.4785994,-0.03755466,7.17999983951449,10
-25.09472,0.2833331,-27.50788,-0.5127068998754396,-0.0991385168583425,0.8407464408232705,3.387554,55.99904,0.1688376,0.02678937,0.4692201,-0.01257589,7.19999983906746,10
-25.04734,0.4833333,-27.47243,-0.3996817594854747,-0.1221373302298456,0.8156499319729562,6.773993,55.91139,0.3328668,0.05354495,0.4678163,-0.02513447,7.21999983862042,10
-24.99997,0.6833333,-27.43699,-0.293525230110415,-0.1111605062056069,0.7732549565662232,10.15973,55.83291,0.493038,0.08024625,0.4660037,-0.03766766,7.23999983817339,10
-24.81091,0.2833331,-27.29264,-0.331982299440309,0.3606677412327069,0.6597562885939716,3.339424,53.86224,0.08987796,0.02633297,0.4527062,-0.0124981,7.25999983772635,10
-24.76475,0.4833331,-27.25705,-0.371887079930147,0.8152468203825138,0.538167316285115,6.67761,53.76778,0.1747569,0.05263421,0.4513367,-0.02497732,7.27999983727932,10
-24.71861,0.683333,-27.22147,-0.2663466547615982,0.3475999928561425,0.5176370403140105,10.01499,53.67763,0.2547725,0.07888337,0.4495847,-0.03743175,7.29999983683228,10
-24.51431,0.2833333,-27.06581,-0.1567534241457089,-0.1372964323612651,0.4937019307113388,3.29034,51.7644,359.9659,0.02569986,0.43635,-0.01280046,7.31999983638525,10
-24.46882,0.4833331,-27.03079,-0.1919331215690327,0.2655358268414044,0.3963725461273313,6.579675,51.65937,359.9256,0.05137117,0.4350129,-0.02558679,7.33999983593822,10
-24.42335,0.6833331,-26.99578,-0.0684511366125093,0.0108040961810673,0.4177973715000753,9.867604,51.55122,359.8789,0.07698963,0.4333182,-0.03834719,7.35999983549118,10
-24.37788,0.8833328,-26.96078,0.0535170846382229,-0.23556442222775,0.4383449490216335,13.15454,51.43916,359.8253,0.1025378,0.4312676,-0.05107236,7.37999983504415,10
-24.20528,0.2833333,-26.82853,0.0129412897338063,0.1923571535723874,0.3643317820712326,3.24014,49.43121,359.8791,0.02524108,0.4179742,-0.0127786,7.39999983459711,10
-24.16094,0.4833333,-26.7934,0.141282876005512,-0.0372846581595666,0.4207134319735282,6.479091,49.31925,359.7518,0.05045453,0.4166703,-0.02554312,7.41999983415008,10
-24.11662,0.6833335,-26.75828,0.2587059903891067,-0.2585628677017317,0.4722417791615001,9.716801,49.19921,359.617,0.07562001,0.4150339,-0.03828328,7.43999983370304,10
-23.92947,0.2833333,-26.61402,0.1966708192813762,0.1944484891196681,0.3907778205735255,3.194628,46.73543,359.7836,0.02483951,0.3965242,-0.01278921,7.45999983325601,10
-23.88627,0.4833331,-26.5786,0.1258595281466412,0.6302107517024981,0.3056744904170969,6.387914,46.61591,359.5602,0.04965258,0.3952519,-0.02556476,7.47999983280897,10
-23.84308,0.683333,-26.54319,0.1895515187308625,0.143745879599806,0.3258483422510494,9.579736,46.48294,359.3284,0.07441944,0.393672,-0.03831632,7.49999983236194,10
-23.63594,0.2833333,-26.38404,0.2475067211311739,-0.3599681380537064,0.3468413083779325,3.530248,47.96802,359.7912,0.02740261,0.4063394,-0.0141843,7.5199998319149,10
-23.58765,0.4833333,-26.34551,0.1751538322251953,0.0240456346251806,0.2650746075030596,7.059145,47.84746,359.5747,0.05477185,0.4049571,-0.02835146,7.53999983146787,10
-23.53939,0.6833335,-26.307,0.2556830889205486,-0.2495038128751582,0.3031437858274728,10.58782,47.71224,359.3481,0.08208976,0.4031897,-0.04249537,7.55999983102083,10
-23.49115,0.8833334,-26.2685,0.3291579389476382,-0.5146896124489823,0.3409375593600856,14.11641,47.56089,359.1099,0.1093331,0.4010386,-0.05660095,7.5799998305738,10
-23.31554,0.2833334,-26.13557,0.2494779653616525,-0.1055855880525721,0.2621612650977383,3.560533,49.63349,359.8467,0.02763662,0.4195521,-0.01425237,7.59999983012676,10
-23.26643,0.4833331,-26.09742,0.169102366646026,0.2862692657031583,0.1857908272274677,7.120003,49.51834,359.6857,0.05523921,0.41815,-0.02849088,7.61999982967973,10
-23.21734,0.683333,-26.05927,0.301147042281169,-0.2441027458590926,0.2737851279955343,10.67808,49.39199,359.5159,0.08278025,0.4163444,-0.04269772,7.63999982923269,10
-23.02594,0.2833333,-25.91254,0.2499813394252079,-0.0714361452565877,0.2239938529950116,3.595172,51.06715,359.9738,0.02820667,0.4308343,-0.01372689,7.65999982878566,10
-22.97682,0.4833332,-25.87351,0.1872340431190871,0.1116843002801216,0.167457743631143,7.189547,50.96426,359.9415,0.05638093,0.4294119,-0.0274349,7.67999982833862,10
-22.92772,0.6833334,-25.83449,0.1241067835069174,0.2529884834918676,0.1128792271735896,10.7828,50.85836,359.9023,0.08449127,0.4275678,-0.04111221,7.69999982789159,10
-22.72106,0.2833333,-25.67491,0.0960273078850058,0.1667418921412472,0.0837289720062166,3.556027,51.93612,0.07442963,0.02817891,0.437641,-0.01300222,7.71999982744455,10
-22.67298,0.4833331,-25.63567,0.0628866757250072,0.1196981164306718,0.0530433479742811,7.110899,51.84299,0.1435778,0.05632205,0.4362276,-0.02598421,7.73999982699752,10
-22.62492,0.6833329,-25.59644,0.0362703136503625,0.058541400188296,0.0297358072511464,10.66486,51.75341,0.2075091,0.0844029,0.4343951,-0.03893751,7.75999982655048,10
-22.57687,0.883333,-25.55723,0.0022953129098617,0.0099297354062729,-0.0003131963851359,14.21785,51.66679,0.2665628,0.112394,0.4321457,-0.05184962,7.77999982610345,10
-22.4008,0.2833336,-25.42341,-0.0380862010891185,0.0005210078804267,-0.0342137290220172,3.624477,52.79816,0.09789305,0.02870606,0.4443741,-0.01329598,7.79999982565641,10
-22.35142,0.4833336,-25.38385,-0.0731032064398355,-0.0230004041386604,-0.0629667628916337,7.248111,52.70776,0.1902326,0.05737552,0.4429316,-0.02657497,7.81999982520938,10
-22.30205,0.6833338,-25.3443,-0.120053281099743,-0.033977440294197,-0.1002448178001778,10.87142,52.62243,0.2774261,0.08598289,0.4410465,-0.03982767,7.83999982476234,10
-22.11006,0.2833336,-25.19768,-0.1793064918180178,-0.0057511086584948,-0.1454069436083891,3.638017,53.22392,0.1071414,0.02879819,0.4476932,-0.01338333,7.85999982431531,10
-22.0603,0.4833336,-25.15822,-0.2389765165769368,0.0083623964823138,-0.1893388298607767,7.275187,53.13471,0.2088059,0.05755933,0.4462444,-0.02674937,7.87999982386827,10
-22.01054,0.6833335,-25.11878,-0.2871808491080827,-0.0449528646874672,-0.2229098489796435,10.91146,53.05127,0.3057062,0.08625408,0.4443465,-0.04008475,7.89999982342124,10
-21.80243,0.2833336,-24.95989,-0.335583844558851,-0.112382052211535,-0.2568748486224557,3.590182,54.91379,0.1835619,0.02853479,0.4608098,-0.01302266,7.91999982297421,10
-21.75298,0.4833336,-24.92131,-0.3816597901767018,-0.1406083160697647,-0.2873209951507185,7.179617,54.83201,0.3623047,0.05703339,0.4593663,-0.02602878,7.93999982252717,10
-21.70355,0.6833335,-24.88274,-0.4132817103526243,-0.1829479593581389,-0.3051996647609591,10.76823,54.76089,0.5375556,0.08546743,0.4574718,-0.03900555,7.95999982208014,10
-21.65413,0.8833337,-24.84418,-0.4394449477811974,-0.2127421117651113,-0.3206887079834004,14.35571,54.70012,0.7103522,0.1138059,0.4551286,-0.05194116,7.9799998216331,10
-21.47979,0.2833333,-24.71156,-0.4594887940569947,-0.2033333410289521,-0.3317750118808362,3.527996,55.98518,0.2509627,0.02820875,0.4690743,-0.01251513,7.99999982118607,10
-21.43119,0.4833332,-24.67354,-0.4616352143087781,-0.2080374556791648,-0.3297511050758359,7.05533,55.90977,0.4976829,0.05638248,0.4676475,-0.02501469,8.01999982073903,10
-21.38261,0.6833331,-24.63553,-0.4676553698310499,-0.2001970495892963,-0.332836330457777,10.58189,55.84917,0.7419932,0.08449407,0.4657764,-0.03748662,8.039999820292,10
-21.19266,0.2833333,-24.48993,-0.4784788312911558,-0.1531535982174564,-0.3406411243638025,3.467332,56.01682,0.2864583,0.02788352,0.469318,-0.01200104,8.05999981984496,10
-21.14526,0.4833333,-24.45201,-0.4832568644203583,-0.1202234179886148,-0.3449214460715772,6.933714,55.94459,0.5692821,0.05573182,0.4679151,-0.02398382,8.07999981939793,10
-21.09788,0.6833334,-24.4141,-0.4711330511794962,-0.1547219193049634,-0.3374422018339977,10.3993,55.88916,0.8502028,0.08351991,0.4660821,-0.0359407,8.09999981895089,10
-21.05051,0.8833334,-24.3762,-0.4575729566047108,-0.2033335988969752,-0.3288082054198256,13.86415,55.85057,1.13125,0.1112232,0.4638209,-0.04786134,8.11999981850386,10
-20.81344,0.2833332,-24.19454,-0.4388822466487667,-0.2127419135726273,-0.3155415925336982,3.411923,54.79215,0.2246978,0.02733323,0.4598823,-0.01195825,8.13999981805682,10
-20.76704,0.4833333,-24.15705,-0.4044188734911209,-0.2362631376791063,-0.2894502445286235,6.822713,54.71434,0.4452079,0.05463104,0.4585129,-0.0238996,8.15999981760979,10
-20.72065,0.6833333,-24.11958,-0.3719620707410698,-0.2472399707635743,-0.2644729299453168,10.23282,54.64925,0.6629006,0.08187246,0.4567364,-0.03581663,8.17999981716275,10
-20.67427,0.8833334,-24.08212,-0.3400717151793628,-0.2190137543844242,-0.2385560000384359,13.64215,54.59673,0.8793153,0.1090332,0.4545548,-0.04769831,8.19999981671572,10
-20.50871,0.2833332,-23.95614,-0.2980565985376948,-0.2049004709578458,-0.2037491658388965,3.356167,53.06458,0.1289557,0.02670226,0.4464808,-0.01207477,8.21999981626868,10
-20.46323,0.4833333,-23.91919,-0.2627700601198235,-0.1782425948320678,-0.175861357595231,6.711071,52.97838,0.2530921,0.05337023,0.4451475,-0.02413337,8.23999981582165,10
-20.41776,0.6833334,-23.88226,-0.2352613352945702,-0.1123816415392841,-0.1547568461245347,10.06521,52.8989,0.3731634,0.07998492,0.4434329,-0.03616779,8.25999981537461,10
-20.23676,0.2833333,-23.74442,-0.2048229857894377,-0.0606335273734427,-0.1325175585370814,3.304214,51.35383,0.00827797,0.02601502,0.433114,-0.01242715,8.27999981492758,10
-20.1918,0.4833333,-23.70835,-0.1607282506530261,-0.0763144215308144,-0.1012105422619242,6.60746,51.25726,0.01098526,0.05200068,0.4318125,-0.02484036,8.29999981448054,10
-20.14685,0.6833335,-23.67229,-0.1190528838444926,-0.1061086611424801,-0.0729928110475413,9.909348,51.16011,0.007902172,0.07793179,0.430153,-0.03722914,8.31999981403351,10
-19.95121,0.2833333,-23.5224,-0.0759346496132415,-0.0967000113255145,-0.0442946960976513,3.253671,49.51187,359.9076,0.02544329,0.4186057,-0.01262022,8.33999981358647,10
-19.90696,0.4833335,-23.48681,-0.0209814840218882,-0.1014046700249889,-0.0073020035198965,6.506186,49.40697,359.8091,0.05085832,0.4173342,-0.02522646,8.35999981313944,10
-19.86273,0.6833337,-23.45123,0.0276943549637955,-0.0935642081798732,0.0232360433389331,9.757539,49.29567,359.7039,0.07622475,0.4157271,-0.0378085,8.3799998126924,10
-19.8185,0.8833336,-23.41565,0.0714902332570588,-0.0465208626558861,0.0493490574849388,13.00748,49.17706,359.591,0.1015205,0.413786,-0.05035526,8.39999981224537,10
-19.65332,0.2833333,-23.2893,0.1207033001963928,-0.0135904712540431,0.0789320953444949,3.20532,46.78454,359.8009,0.02497987,0.3969128,-0.01269767,8.41999981179833,10
-19.61016,0.4833333,-23.25357,0.1556044217480838,0.0318846096346295,0.0969234689621458,6.409317,46.67117,359.5953,0.04993272,0.3956753,-0.02538172,8.4399998113513,10
-19.56702,0.6833332,-23.21786,0.1750800871956315,0.1165626895458397,0.1034299322150289,9.61195,46.54536,359.3817,0.07483916,0.394128,-0.03804198,8.45999981090426,10
-19.383,0.2833335,-23.07741,0.1895367087411621,0.1871277039115288,0.1065121346169988,3.451193,47.37131,359.7956,0.02685996,0.4015848,-0.01372945,8.47999981045723,10
-19.3362,0.4833333,-23.03927,0.2093820314855996,0.1902634681156138,0.1142077876242133,6.901093,47.25636,359.584,0.05368832,0.4002706,-0.02744314,8.49999981001019,10
-19.28942,0.6833333,-23.00113,0.3058072227522039,0.1792867361746516,0.1817049955058429,10.34993,47.12748,359.3632,0.08046256,0.3985929,-0.04113073,8.51999980956316,10
-19.08968,0.2833332,-22.84903,0.3854776221166034,0.2075130374934375,0.2382145862796676,3.549052,49.1505,359.8391,0.02757765,0.4157276,-0.01415473,8.53999980911613,10
-19.04095,0.4833333,-22.81069,0.4594511941288459,0.2216264296427506,0.2921492341591545,7.097517,49.0393,359.6706,0.05512483,0.4143696,-0.02829855,8.55999980866909,10
-18.99224,0.6833333,-22.77236,0.3690610467780928,0.8885986190990935,0.222763883502207,10.64463,48.9165,359.4934,0.08261118,0.4126143,-0.04241128,8.57999980822206,10
-18.94354,0.8833335,-22.73404,0.4114888393754814,0.664184006781013,0.2534210462220692,14.1903,48.78083,359.306,0.1100101,0.4104635,-0.05647921,8.59999980777502,10
-18.77622,0.2833334,-22.60715,0.4454401528471354,0.4544050195402508,0.2789189841490831,3.581244,50.6247,359.9333,0.02799844,0.4273603,-0.01388564,8.61999980732799,10
-18.72714,0.4833335,-22.56845,0.4821883412371228,0.2049002901884201,0.307670946472431,7.161603,50.52267,359.8601,0.05596364,0.4259831,-0.02775451,8.63999980688095,10
-18.67808,0.6833335,-22.52976,0.4573677598840486,0.1813787839952322,0.2896666533182639,10.7408,50.41508,359.7798,0.08386617,0.4241908,-0.04159234,8.65999980643392,10
-18.49557,0.2833333,-22.38968,0.4135963790530343,0.1970599791438296,0.2581205080096325,3.573361,51.79246,0.06466525,0.028294,0.4365143,-0.01310953,8.67999980598688,10
-18.44725,0.4833333,-22.35026,0.3621113118766761,0.1986282523166685,0.2213814234062319,7.145751,51.70313,0.1243294,0.0565538,0.4351326,-0.02619871,8.69999980553985,10
-18.39895,0.6833336,-22.31086,0.4831506855360672,-0.5075467736879371,0.3150298116439884,10.71717,51.61681,0.17889,0.08475021,0.4333287,-0.0392587,8.71999980509281,10
-18.19922,0.2833332,-22.15812,0.454957913507048,-0.2972446726733622,0.2978917721029859,3.596414,52.6664,0.09117264,0.02847597,0.4433497,-0.01320692,8.73999980464578,10
-18.15025,0.4833331,-22.11884,0.417318033171691,-0.076488884233167,0.2736440933508319,7.191903,52.57987,0.1770467,0.0569154,0.4419543,-0.02639703,8.75999980419874,10
-18.1013,0.683333,-22.07957,0.3818793787548706,0.1024503915061588,0.2509503046596428,10.78675,52.49801,0.258004,0.08529181,0.4401242,-0.03956017,8.77999980375171,10
-18.05235,0.883333,-22.04031,0.3345732545635389,0.0538390281509468,0.2187259228895257,14.38065,52.42033,0.3347821,0.1135759,0.4378618,-0.05268057,8.79999980330467,10
-17.8845,0.2833333,-21.91344,0.2776401765427181,0.0444305753939364,0.1794842726734664,3.642236,53.18862,0.1082221,0.02883944,0.4474172,-0.01338251,8.81999980285764,10
-17.83471,0.4833333,-21.87389,0.2228109008556664,0.0209089435772037,0.1420734070209448,7.283576,53.10421,0.2112398,0.05764126,0.4460032,-0.02674774,8.8399998024106,10
-17.78493,0.6833333,-21.83434,0.153546269023197,0.0099326572426411,0.0941254528030093,10.924,53.02567,0.3098085,0.08637641,0.4441395,-0.04008224,8.85999980196357,10
-17.60143,0.2833333,-21.69548,0.0703473377815466,0.0381590024686854,0.0367657338790863,3.604609,54.49411,0.1576744,0.02859079,0.4575628,-0.01317643,8.87999980151653,10
-17.5518,0.4833333,-21.65676,-0.0148467776004377,0.0522719968391467,-0.0211591167579001,7.208361,54.41457,0.3105913,0.05714459,0.4561536,-0.02633594,8.8999998010695,10
-17.50219,0.6833333,-21.61805,0.0817408182505374,-0.6413581637882447,0.0589798270634318,10.81127,54.34411,0.4598813,0.08563345,0.4542932,-0.03946584,8.91999980062246,10
-17.30261,0.2833332,-21.46647,0.0366168586522412,-0.4185112528032397,0.0336824076602546,3.544019,55.96603,0.2385978,0.02828366,0.4689275,-0.01267125,8.93999980017543,10
-17.25367,0.4833333,-21.42846,-0.007996173788646,-0.1852102557425843,0.0083988399515959,7.087286,55.8941,0.4730839,0.05653138,0.4675299,-0.02532678,8.95999979972839,10
-17.20475,0.6833332,-21.39045,-0.0400777611406688,0.0062741896756438,-0.0081166661057601,10.62979,55.8363,0.7052769,0.08471669,0.4656842,-0.03795419,8.97999979928136,10
-17.15584,0.8833332,-21.35246,-0.0762188881284746,-0.0297929207389163,-0.0305346057054123,14.17109,55.79256,0.9368004,0.1128093,0.4633926,-0.05054079,8.99999979883432,10
-16.90945,0.2833333,-21.16449,-0.1133385632845254,-0.0266568916974014,-0.055285614962603,3.477394,56.2062,0.2878881,0.02794694,0.4707741,-0.01207745,9.01999979838729,10
-16.8618,0.4833333,-21.1266,-0.1402836809542638,-0.0376338934414942,-0.0741032552262588,6.954137,56.13877,0.5721337,0.05585973,0.4694012,-0.02414006,9.03999979794025,10
-16.81417,0.6833333,-21.08873,-0.1764172461365447,-0.0360657215863954,-0.1015482274095802,10.4297,56.08835,0.85508,0.08371028,0.4675946,-0.03617276,9.05999979749322,10
-16.76655,0.8833332,-21.05087,-0.2212166927657008,0.0047053624350225,-0.1362933823657393,13.9045,56.05502,1.138515,0.1114754,0.4653559,-0.04816872,9.07999979704618,10
-16.59282,0.2833334,-20.91877,-0.2639182871916272,0.0313632828165283,-0.1700951062483184,3.418542,55.41472,0.2515905,0.02742803,0.4646899,-0.01192574,9.09999979659915,10
-16.54619,0.4833334,-20.88133,-0.293741272989779,-0.0094080367708127,-0.1947077466601783,6.835994,55.34396,0.4994154,0.05482053,0.4633484,-0.02383491,9.11999979615211,10
-16.49956,0.6833333,-20.84391,-0.2393558700623224,-0.064292094167359,-0.1540451652269716,10.25276,55.28766,0.7451084,0.08215626,0.4615936,-0.03571954,9.13999979570508,10
-16.3104,0.2833333,-20.69953,-0.1924161711058438,-0.0799733994325726,-0.1178267910849442,3.368135,53.65637,0.1521703,0.02682409,0.4510864,-0.01207892,9.15999979525805,10
-16.26461,0.4833332,-20.6626,-0.1417452438089963,-0.1097679088473684,-0.0776985888606702,6.735113,53.57675,0.2999321,0.05361429,0.4497794,-0.02414186,9.17999979481101,10
-16.21884,0.6833333,-20.62569,-0.2363809093960576,0.5132967894557638,-0.1470297785208458,10.10129,53.50533,0.4441921,0.08035018,0.4480841,-0.0361804,9.19999979436398,10
-16.01473,0.2833333,-20.46957,-0.1954272332957174,0.2449744566038958,-0.1179339021442587,3.316318,51.90709,0.03907499,0.02616722,0.4374501,-0.01235727,9.21999979391694,10
-15.96959,0.4833333,-20.43338,-0.150040727459725,-0.0087125877929673,-0.0865940512547744,6.631716,51.81767,0.07301836,0.05230478,0.4361757,-0.02470058,9.23999979346991,10
-15.92446,0.683333,-20.39719,-0.2709001510550273,0.4181630024721713,-0.1808834070551057,9.945861,51.72957,0.1019215,0.07838802,0.4345371,-0.03701892,9.25999979302287,10
-15.87934,0.883333,-20.36102,-0.2425211477846858,0.1937482099078292,-0.1650773691102181,13.25907,51.64222,0.1259128,0.1043979,0.4325359,-0.04930286,9.27999979257584,10
-15.70586,0.2833333,-20.22984,-0.2153833695965428,-0.0160306832459538,-0.15110259487545,3.265788,50.22873,359.9278,0.02553412,0.4242703,-0.01266491,9.2999997921288,10
-15.66123,0.4833333,-20.1944,-0.1786368190169671,-0.2655350426094383,-0.1308570539885494,6.53049,50.13008,359.8498,0.05103997,0.4230263,-0.02531585,9.31999979168177,10
-15.61662,0.6833334,-20.15896,-0.1034860184935908,-0.2890566339164994,-0.0816280532446178,9.793773,50.02619,359.7654,0.07649387,0.4214396,-0.03794237,9.33999979123473,10
-15.429,0.2833336,-20.01534,-0.0339265807853461,-0.2733754448661326,-0.0376055211548411,3.216115,47.39619,359.8151,0.02504749,0.4018,-0.01275584,9.3599997907877,10
-15.38549,0.4833336,-19.97976,0.0409802208322336,-0.2718073111685322,0.0094974187147371,6.430966,47.2884,359.6239,0.05006807,0.4005909,-0.02549762,9.37999979034066,10
-15.342,0.6833336,-19.94419,-0.0283526937559983,0.3826198199451699,-0.0512438821597207,9.644504,47.16898,359.4251,0.07504193,0.3990662,-0.03821544,9.39999978989363,10
-15.13749,0.2833336,-19.78701,0.0359358257156099,0.145659816321076,-0.012499551335928,3.37156,47.0922,359.795,0.02625436,0.3993615,-0.01339148,9.41999978944659,10
-15.09191,0.4833335,-19.74959,0.1037291897955796,-0.0766645227614397,0.0292436016580701,6.741847,46.98209,359.5832,0.05247895,0.3981096,-0.0267677,9.43999978899956,10
-15.04634,0.6833335,-19.71218,0.0059455741722906,0.3815735763679127,-0.0530911406568641,10.11076,46.85847,359.3631,0.07865067,0.3965127,-0.04011691,9.45999978855252,10
-15.0008,0.8833333,-19.6748,0.0560222463504871,0.1885210562306831,-0.0232139764385088,13.47955,46.72012,359.1328,0.1047572,0.394572,-0.05343252,9.47999978810549,10
-14.82362,0.2833332,-19.54157,0.1035969453157115,0.010104304740534,0.0065779780791679,3.537118,48.80126,359.8268,0.02748128,0.4129597,-0.0141259,9.49999978765845,10
-14.77513,0.4833332,-19.50322,0.1597947248628788,-0.2080379252428986,0.0447794792891542,7.073034,48.6935,359.6464,0.0549289,0.4116443,-0.02823587,9.51999978721142,10
-14.72665,0.6833332,-19.46489,0.1588404563629719,-0.2001973743636198,0.0404827359184309,10.6088,48.57342,359.4572,0.08232433,0.4099362,-0.04232278,9.53999978676438,10
-14.5347,0.2833333,-19.31978,0.1425949973665847,-0.15315389851174,0.0261822377800591,3.56779,50.37862,359.893,0.02777229,0.4254303,-0.01409379,9.55999978631735,10
-14.48552,0.4833334,-19.28156,0.1222290077196319,-0.1202233477718489,0.0102218884733638,7.13459,50.2772,359.7792,0.05551052,0.424094,-0.02817257,9.57999978587031,10
-14.43636,0.6833333,-19.24335,0.108913121132705,-0.1547216784248664,0.0009352333178647,10.70019,50.16768,359.658,0.08318723,0.4223473,-0.04222019,9.59999978542328,10
-14.3872,0.8833333,-19.20515,0.089631806284558,-0.2033331737632053,-0.0129072093196285,14.2645,50.04897,359.5281,0.1107752,0.4201922,-0.05622283,9.61999978497624,10
-14.14786,0.2833335,-19.02249,0.0674190895577133,-0.2127417841159101,-0.0277783972724066,3.577542,51.97274,0.05854326,0.02828273,0.4379295,-0.01321801,9.63999978452921,10
-14.09929,0.4833335,-18.98326,0.0536174092339312,-0.2362634524349067,-0.0352428489456606,7.15425,51.88734,0.1123733,0.05653263,0.4365797,-0.02641562,9.65999978408217,10
-14.05074,0.6833334,-18.94404,-0.1115365710810607,0.3930739935739821,-0.155291434417613,10.73004,51.80459,0.1612983,0.0847196,0.4348053,-0.03958388,9.67999978363514,10
-14.0022,0.8833333,-18.90483,-0.0855040274395815,0.1310244217568645,-0.1325577197416301,14.30487,51.72393,0.2055764,0.1128159,0.4326085,-0.05270981,9.6999997831881,10
-13.83455,0.2833333,-18.77873,-0.0587043177153354,-0.1163893814131748,-0.1084002163919937,3.597338,52.82101,0.08904051,0.02845707,0.4445583,-0.01326557,9.71999978274107,10
-13.78544,0.4833332,-18.7396,-0.209526550817598,0.316759425511633,-0.2172860261586411,7.193787,52.73883,0.1730411,0.05687794,0.4431967,-0.0265145,9.73999978229403,10
-13.73635,0.6833329,-18.70048,-0.2041850237859286,0.098617120171498,-0.2094903360393019,10.78956,52.66125,0.2524326,0.08523578,0.4413989,-0.03973584,9.759999781847,10
-13.55201,0.2833333,-18.56108,-0.2038160372944233,-0.1048890691837836,-0.2050962997601075,3.642814,53.38323,0.1084481,0.02882206,0.4489342,-0.01343197,9.77999978139997,10
-13.50208,0.4833333,-18.52168,-0.1966380456333691,-0.3481207216125372,-0.1952945183799226,7.284742,53.30328,0.2119838,0.05760669,0.4475529,-0.02684661,9.79999978095293,10
-13.45216,0.6833334,-18.4823,-0.1562836948945545,-0.3653698162866916,-0.1577428968605563,10.92574,53.22929,0.3113686,0.08632463,0.44572,-0.04023033,9.8199997805059,10
-13.25169,0.2833335,-18.33069,-0.1241998773327139,-0.3434159951355899,-0.1246648238316225,3.604792,54.66142,0.1573129,0.0285715,0.4588598,-0.0132217,9.83999978005886,10
-13.20194,0.4833334,-18.29211,-0.0882285076528592,-0.3355751210501063,-0.0870589716213849,7.208756,54.58628,0.3101555,0.05710639,0.4574833,-0.02642649,9.85999977961183,10
-13.15221,0.6833334,-18.25355,-0.2079174630608573,0.3251244852655792,-0.1658131467312795,10.81185,54.52026,0.4596488,0.08557618,0.4556543,-0.0396015,9.87999977916479,10
-13.10249,0.8833333,-18.215,-0.1767567781773689,0.0944367973311846,-0.1329648811550807,14.41387,54.46302,0.6066831,0.1139506,0.4533749,-0.05273471,9.89999977871776,10
-12.9359,0.2833332,-18.08971,-0.1390837408928362,-0.1216151603749776,-0.0948607948181265,3.543789,56.11729,0.2382146,0.02826357,0.4700924,-0.01271058,9.91999977827072,10
-12.88686,0.4833331,-18.05183,-0.2762537264487985,0.3428953581139938,-0.1887975160959154,7.086848,56.04983,0.4726292,0.05649169,0.4687283,-0.0254053,9.93999977782369,10
-12.83784,0.6833329,-18.01396,-0.2510269158406846,0.1561149746398449,-0.1641580173356569,10.6291,55.99654,0.7049865,0.08465711,0.4669149,-0.03807205,9.95999977737665,10
-12.65539,0.2833333,-17.87568,-0.2249430599471562,-0.01602956430781,-0.1409490849964338,3.482425,56.37579,0.2792937,0.02793231,0.4720798,-0.01220561,9.97999977692962,10
-12.60748,0.4833332,-17.83801,-0.1867368543880019,-0.2278995069147547,-0.1108754445097819,6.964197,56.312,0.5551515,0.05583065,0.4707377,-0.02439628,9.99999977648258,10
-12.55958,0.6833333,-17.80035,-0.1126292084269007,-0.2137865543607277,-0.0536213120876318,10.44476,56.26475,0.8297876,0.08366636,0.4689595,-0.03655726,10.0199997760355,10
-12.36159,0.2833332,-17.64963,-0.0453404990390122,-0.1604707626449123,-0.0027503889723732,3.427685,55.86747,0.270515,0.02752848,0.4681769,-0.01192553,10.0399997755885,10
-12.31471,0.4833332,-17.6122,0.0260860948205792,-0.1212679690456129,0.0500503975250623,6.854285,55.80278,0.5377306,0.05502155,0.4668613,-0.02383381,10.0599997751415,10
-12.26785,0.6833333,-17.57478,-0.0596413282241403,0.5707936508708675,-0.0151372014623074,10.28015,55.75381,0.8033535,0.0824571,0.4651266,-0.03571726,10.0799997746944,10
-12.221,0.8833333,-17.53737,-0.0057058483718481,0.371468602651286,0.0251354068552824,13.70523,55.72063,1.0693,0.1098108,0.4629747,-0.04756519,10.0999997742474,10
-12.05495,0.2833334,-17.41228,0.0470401655634642,0.1867795250173279,0.0662121626664014,3.380374,54.21628,0.1701779,0.02693135,0.4554336,-0.01211867,10.1199997738004,10
-12.00882,0.4833334,-17.37542,0.1094368240816265,-0.0376352827054742,0.1161708253768036,6.759636,54.14267,0.3362325,0.05382849,0.4541519,-0.02422199,10.1399997733533,10
-11.9627,0.6833333,-17.33857,-0.0359836157924142,0.6042467386662191,0.0096538383206468,10.13813,54.07843,0.4993099,0.0806711,0.4524751,-0.03630068,10.1599997729063,10
-11.91659,0.8833333,-17.30173,0.0113068437875778,0.3547419282079243,0.0448106848037959,13.51583,54.02336,0.660454,0.1074357,0.4504049,-0.04834452,10.1799997724593,10
-11.70292,0.2833332,-17.14048,0.0521315170530733,0.1198729512993036,0.0740444421673984,3.325246,52.04796,0.04549138,0.02624654,0.4385522,-0.0123733,10.1999997720122,10
-11.65764,0.4833333,-17.10421,0.0973096594275446,-0.1547215464417376,0.1052818079409902,6.649125,51.96356,0.08615948,0.05245977,0.4373087,-0.02473068,10.2199997715652,10
-11.61237,0.6833334,-17.06795,0.1768018780856515,-0.2033330660858826,0.1625509158743501,9.972112,51.88092,0.1221967,0.07862136,0.435698,-0.03706376,10.2399997711182,10
-11.42357,0.2833333,-16.92523,0.2467227038905317,-0.2127415697195569,0.2115857141187405,3.268749,50.42011,359.9305,0.0255467,0.4257804,-0.01269647,10.2599997706711,10
-11.37882,0.4833333,-16.88987,0.3178780031655108,-0.2362628663949775,0.2604332879813444,6.536417,50.32603,359.8557,0.05106508,0.4245683,-0.02537878,10.2799997702241,10
-11.33408,0.6833334,-16.85452,0.2386905801556356,0.3930744174009881,0.1967252329160818,9.802669,50.22691,359.7745,0.07653111,0.4230115,-0.03803709,10.2999997697771,10
-11.13128,0.2833333,-16.6996,0.2880594211607992,0.13102500222127,0.2260856156757871,3.217026,47.55802,359.8155,0.02503816,0.403092,-0.01279116,10.31999976933,10
-11.08767,0.4833333,-16.66413,0.3353465955370325,-0.1163886984113801,0.2527653122278561,6.432792,47.45456,359.6249,0.05004922,0.4019159,-0.02556841,10.339999768883,10
-11.04407,0.6833335,-16.62866,0.2104305733952021,0.3167598239874243,0.1500645192836192,9.6472,47.33955,359.427,0.07501301,0.4004229,-0.0383215,10.359999768436,10
-11.00048,0.8833334,-16.59321,0.2266220708940132,0.0986174195946045,0.1519327818280729,12.86002,47.21204,359.2207,0.09990978,0.3986149,-0.0510368,10.3799997679889,10
-10.8246,0.2833332,-16.46008,0.2333828181536663,-0.1048893769701787,0.1467179237512841,3.371482,47.22643,359.7948,0.02623736,0.4004347,-0.0134235,10.3999997675419,10
-10.77893,0.4833332,-16.42278,0.2413585289023831,-0.3481216933219753,0.1425753523540915,6.741654,47.1207,359.5831,0.0524445,0.3992167,-0.02683161,10.4199997670949,10
-10.73328,0.6833332,-16.38548,0.2810639443051048,-0.3653708037644121,0.163757476872945,10.11047,47.00149,359.3633,0.07859881,0.3976528,-0.04021272,10.4399997666478,10
-10.54073,0.2833332,-16.24043,0.307503304374169,-0.3434168961055554,0.1764713897239698,3.537368,49.00792,359.828,0.02746224,0.4146003,-0.01416646,10.4599997662008,10
-10.49211,0.4833333,-16.20224,0.3317414158741796,-0.3355758984002325,0.1891041002827673,7.073519,48.90458,359.6492,0.0548906,0.413317,-0.02831686,10.4799997657537,10
-10.44351,0.6833333,-16.16406,0.204635764034335,0.3251236701064237,0.0895031858966941,10.60956,48.78903,359.4617,0.0822669,0.4116392,-0.04244431,10.4999997653067,10
-10.23511,0.2833331,-16.00678,0.2917805464755458,0.0944365438190402,0.1516935656769771,3.567848,50.54735,359.8927,0.02775092,0.4267617,-0.01413711,10.5199997648597,10
-10.18582,0.483333,-15.96871,0.365605137850518,-0.1216149566069675,0.2055560627802783,7.134717,50.45018,359.779,0.05546787,0.4254575,-0.02825911,10.5399997644126,10
-10.13654,0.683333,-15.93064,0.2575943535657927,0.3428960374568474,0.1240681381473827,10.70033,50.34496,359.658,0.08312283,0.4237416,-0.04234967,10.5599997639656,10
-10.08728,0.8833328,-15.89259,0.1400240514245778,0.796430224571465,0.0362519405508248,14.26474,50.23061,359.5286,0.1106896,0.4216159,-0.0563953,10.5799997635186,10
-9.912149,0.2833332,-15.75931,0.1596269669012828,0.3340101096459544,0.0500771164847346,3.59025,51.86002,0.05143772,0.0283683,0.4370456,-0.01329439,10.5999997630715,10
-9.863409,0.4833333,-15.71994,0.1745640967604949,-0.139386825035035,0.0612885560677778,7.179707,51.77823,0.09844773,0.05670426,0.4357256,-0.02656772,10.6199997626245,10
-9.814682,0.6833332,-15.68058,0.0535306497096357,0.2812166760460994,-0.026664198328639,10.76824,51.69871,0.1406972,0.08497677,0.4339788,-0.03981142,10.6399997621775,10
-9.765968,0.8833331,-15.64124,0.0888808911123861,0.0505291626953284,0.0018394527688929,14.35579,51.62088,0.1783923,0.1131577,0.4318073,-0.05301229,10.6599997617304,10
-9.542025,0.2833333,-15.4727,0.1197583192970093,-0.1655224975043141,0.027597706723629,3.587158,53.00052,0.0970677,0.02838803,0.4459594,-0.01320785,10.6799997612834,10
-9.493026,0.4833333,-15.43372,0.1582716561265984,-0.4212997784602401,0.0595818879141951,7.17345,52.92331,0.1892499,0.05673951,0.4446329,-0.0264007,10.6999997608364,10
-9.44404,0.6833333,-15.39475,0.1849725440289216,-0.4510938477570463,0.0835393257513992,10.75883,52.85128,0.2773966,0.08502723,0.4428714,-0.03956404,10.7199997603893,10
-9.243138,0.2833333,-15.24295,0.2004297727839272,-0.4416852400178681,0.0991474761232691,3.639794,53.54638,0.1105448,0.02878762,0.4502051,-0.0134448,10.7399997599423,10
-9.193161,0.4833333,-15.2037,0.2168757703411135,-0.4463898048045962,0.1155216252023603,7.278695,53.47086,0.2164653,0.05753791,0.4488563,-0.02687228,10.7599997594953,10
-9.143198,0.6833332,-15.16445,0.0742244967692409,0.2017648430923063,0.0139467920760161,10.91671,53.4015,0.3185626,0.08622203,0.4470553,-0.04026888,10.7799997590482,10
-9.093252,0.8833331,-15.12522,-0.0622568051855463,0.6984550801740803,-0.082345692987694,14.55427,53.33786,0.4173909,0.1148141,0.444804,-0.05362426,10.7999997586012,10
-8.925741,0.2833334,-15.00032,-0.0091414702272185,0.1676296464592238,-0.0368164537158204,3.603666,54.81459,0.1577511,0.02854684,0.4600464,-0.01325196,10.8199997581542,10
-8.875911,0.4833335,-14.96189,-0.1384112306713616,0.3466033724953588,-0.1273411628738525,7.206487,54.74381,0.3113071,0.05705706,0.4587022,-0.02648697,10.8399997577071,10
-8.826094,0.6833334,-14.92346,-0.2683157759437611,0.5427914386942652,-0.2178404249880454,10.80844,54.68221,0.4618127,0.08550242,0.4569046,-0.03969208,10.8599997572601,10
-8.642653,0.2833334,-14.78591,-0.2363603609766658,0.0636089982870364,-0.1891705012856537,3.543704,56.30997,0.2391451,0.02824534,0.4715747,-0.01275058,10.879999756813,10
-8.593501,0.4833333,-14.74818,-0.1955664724488679,-0.4260622796581103,-0.1538816455401441,7.086658,56.2468,0.4747461,0.05645516,0.4702412,-0.02548531,10.899999756366,10
-8.544363,0.6833333,-14.71046,-0.2925929187313452,-0.0212448872439563,-0.2203916196313855,10.62879,56.19791,0.7085994,0.08460245,0.468457,-0.03819178,10.919999755919,10
-8.345143,0.2833334,-14.56008,-0.2133913208208113,-0.2672304875798842,-0.1580910883884172,3.482449,56.55546,0.2794117,0.02791381,0.4734605,-0.01224858,10.9399997554719,10
-8.297114,0.4833334,-14.52255,-0.1281837178957792,-0.4980924521334903,-0.0933437903400999,6.964212,56.49587,0.555648,0.0557936,0.4721492,-0.02448209,10.9599997550249,10
-8.249096,0.6833333,-14.48504,-0.2015410471845715,-0.0479040323243394,-0.1468423624830652,10.44479,56.45289,0.8309098,0.08361105,0.4704003,-0.0366861,10.9799997545779,10
-8.201091,0.8833332,-14.44754,-0.2692284815197485,0.3917951235934741,-0.1965754777901782,13.92455,56.42662,1.107044,0.111343,0.4682157,-0.04885265,10.9999997541308,10
-7.954887,0.2833334,-14.26128,-0.1936833659408936,-0.0839716940189178,-0.1412752967598702,3.424762,55.76988,0.257462,0.02746285,0.4674281,-0.0119908,11.0199997536838,10
-7.907991,0.4833334,-14.22399,-0.2977816336950711,0.1500608861249004,-0.2199938407812887,6.848415,55.70826,0.5118303,0.05489065,0.4661475,-0.02396403,11.0399997532368,10
-7.861108,0.6833333,-14.1867,-0.4014323305485812,0.4013080460048204,-0.2977156464847024,10.27135,55.66159,0.7646967,0.08226149,0.4644492,-0.03591234,11.0599997527897,10
-7.814238,0.8833333,-14.14943,-0.3512570290782664,-0.0228151519245736,-0.259657976392047,13.69345,55.62994,1.017852,0.1095506,0.4623353,-0.047825,11.0799997523427,10
-7.64023,0.2833333,-14.01863,-0.2979255728383325,-0.4574270088008576,-0.2170544589328731,3.369798,53.99561,0.1537981,0.02680758,0.4537246,-0.01215221,11.0999997518957,10
-7.594222,0.4833333,-13.98194,-0.3814523336152398,0.002449159924986,-0.2760142750799605,6.738367,53.92475,0.3036481,0.05358066,0.4524812,-0.02428857,11.1199997514486,10
-7.548228,0.6833333,-13.94525,-0.4564550734630401,0.4518361793191044,-0.3287497756662443,10.10614,53.86229,0.4505441,0.08029965,0.4508469,-0.03640039,11.1399997510016,10
-7.358774,0.2833333,-13.80254,-0.3157079627174717,-0.0142427664536943,-0.2231108118079099,3.316819,52.27028,0.04022922,0.02613627,0.4402962,-0.01243303,11.1599997505546,10
-7.313412,0.4833333,-13.76661,-0.1680294074057053,-0.4908105275494308,-0.1134716789414369,6.632704,52.18956,0.07583497,0.05224286,0.4390863,-0.02485194,11.1799997501075,10
-7.268061,0.6833333,-13.73069,-0.2124277438084822,-0.0728900736494326,-0.1466656444812439,9.947268,52.11031,0.1068879,0.07829455,0.4375094,-0.03724575,11.1999997496605,10
-7.063791,0.2833334,-13.57658,-0.0809399803432056,-0.3057727471832907,-0.050346109410329,3.266247,50.61654,359.9287,0.02549836,0.4273306,-0.01274529,11.2199997492135,10
-7.018932,0.4833333,-13.54143,0.0461882532433799,-0.5235319062896071,0.0414844922062069,6.531418,50.52644,359.8522,0.05096845,0.4261504,-0.02547653,11.2399997487664,10
-6.974084,0.6833333,-13.50628,-0.0022433228704308,-0.0602407895816701,0.0016553733307222,9.795202,50.43124,359.7697,0.07638678,0.4246249,-0.03818329,11.2599997483194,10
-6.929249,0.8833333,-13.47114,-0.0549200408726262,0.3925613004560921,-0.0420906562857403,13.05787,50.33021,359.6808,0.1017356,0.4227554,-0.05085518,11.2799997478724,10
-6.884426,0.9766704,-13.436,0.0328681092204767,-0.0701024525342237,0.0158456938710678,16.31946,50.22248,359.5846,0.1269947,0.420544,-0.06348237,11.2999997474253,10
-6.678562,0.2833334,-13.28104,0.1206122475143711,-0.5432550187566536,0.0725315670592365,3.210372,47.17074,359.7887,0.02493466,0.4000047,-0.0128971,11.3199997469783,10
-6.634961,0.4833333,-13.24569,0.078127503544163,-0.1219194879405493,0.0333511082283823,6.419452,47.06936,359.5715,0.04984244,0.3988668,-0.02578015,11.3399997465312,10
-6.591373,0.6833332,-13.21035,0.193021591222755,-0.3513873230862201,0.1107677671995883,9.627186,46.95493,359.3469,0.07470375,0.3974154,-0.03863901,11.3599997460842,10
-6.406664,0.2833332,-13.07144,0.3049746261376973,-0.5657315370853218,0.1863109278600827,3.452284,47.78812,359.7929,0.02680903,0.4049121,-0.01385238,11.3799997456372,10
-6.359552,0.4833332,-13.03366,0.2647706978319277,-0.0990253695965491,0.1494893777595916,6.903282,47.68593,359.5793,0.05358636,0.4036974,-0.02768841,11.3999997451901,10
-6.312455,0.6833332,-12.99588,0.2263098850597633,0.3571918763729604,0.1148911204595748,10.35326,47.56982,359.3575,0.08030971,0.4021159,-0.04149789,11.4199997447431,10
-6.111806,0.2833333,-12.84543,0.403247929653463,-0.1020569490207727,0.2421526404521419,3.549482,49.59991,359.8391,0.02752546,0.4192893,-0.01426407,11.4399997442961,10
-6.062779,0.4833333,-12.80746,0.3972142534833849,0.1484932848899208,0.2343210840269165,7.098425,49.50168,359.6714,0.05502059,0.4180295,-0.0285171,11.459999743849,10
-6.013765,0.6833333,-12.7695,0.3806703941399094,0.4162579581031856,0.2200969008848208,10.64606,49.39204,359.4959,0.08245504,0.4163689,-0.04273881,11.479999743402,10
-5.964765,0.8833331,-12.73156,0.3647416145002857,0.6489666447708904,0.2077498924152419,14.19233,49.26978,359.3111,0.1098025,0.4143091,-0.05691544,11.499999742955,10
-5.796868,0.2833334,-12.60623,0.4875879809132937,-0.0594033215320399,0.2981317287491443,3.581346,51.10232,359.9339,0.02794318,0.4311224,-0.01399828,11.5199997425079,10
-5.747479,0.4833334,-12.56793,0.3792561953688582,0.1554637116963477,0.2166785117584186,7.16182,51.01327,359.862,0.0558531,0.4298425,-0.02797981,11.5399997420609,10
-5.698103,0.6833334,-12.52963,0.2633973798541982,0.3875452781400542,0.1303924385482719,10.74116,50.91886,359.7839,0.08370061,0.4281435,-0.04192998,11.5599997416139,10
-5.514674,0.2833333,-12.39108,0.2954448153741014,-0.0557435613144542,0.1535565053360166,3.573502,52.28783,0.06540629,0.02824102,0.4403971,-0.01322646,11.5799997411668,10
-5.466024,0.4833333,-12.35206,0.3236611866830845,-0.5095213361399201,0.1747685721656591,7.146023,52.21148,0.1266059,0.05644787,0.4391117,-0.02643257,11.5999997407198,10
-5.417387,0.6833333,-12.31306,0.2071974929327105,-0.0688106707707189,0.0903673486864082,10.71759,52.13832,0.1835486,0.08459169,0.4374002,-0.03960922,11.6199997402728,10
-5.368765,0.8833332,-12.27406,0.2556127911274104,-0.2789031215972056,0.1279489473635813,14.28822,52.06789,0.2365736,0.1126454,0.4352645,-0.05274369,11.6399997398257,10
-5.135833,0.2833334,-12.09959,0.2984865499197373,-0.4738719405616607,0.1615833096715864,3.608559,53.44651,0.1066697,0.0285408,0.4494323,-0.01332738,11.6599997393787,10
-5.086325,0.4833334,-12.06063,0.1756843808662833,0.012209620393643,0.0728851250276161,7.216219,53.37441,0.2089604,0.05704502,0.448126,-0.0266378,11.6799997389317,10
-5.036834,0.6833334,-12.02168,0.0523992345871255,0.4878021392589592,-0.0157712431800884,10.82333,53.30819,0.3073922,0.08548642,0.4463758,-0.03992132,11.6999997384846,10
-4.827256,0.2833334,-11.86426,0.152589968064805,0.0479285734320422,0.0616689810953712,3.633394,53.87387,0.110105,0.02869758,0.4527544,-0.01350514,11.7199997380376,10
-4.777147,0.4833333,-11.82537,0.0580397439112516,0.31785394738424,-0.0052256432275292,7.265892,53.80241,0.215845,0.05735803,0.451437,-0.02699299,11.7399997375906,10
-4.727051,0.6833332,-11.78648,-0.0493276021563984,0.604993987928762,-0.0807653714555645,10.89747,53.73713,0.3180239,0.08595254,0.4496664,-0.04044984,11.7599997371435,10
-4.676972,0.8833331,-11.74761,-0.1576957409939798,0.8570778167287908,-0.156213887581945,14.52838,53.67761,0.4171881,0.1144538,0.4474445,-0.0538647,11.7799997366965,10
-4.500933,0.2833334,-11.61696,-0.1176207214361149,0.1680827673592531,-0.1213463498557256,3.588646,55.56787,0.1846845,0.02845271,0.4658647,-0.01317042,11.7999997362494,10
-4.451086,0.4833334,-11.57894,-0.0726413979215729,-0.4300126035612551,-0.0808859996779833,7.176457,55.50367,0.3656317,0.05686898,0.4645509,-0.02632415,11.8199997358024,10
-4.401252,0.6833334,-11.54093,-0.203458025007857,-0.0344989650434346,-0.1694749806985207,10.7634,55.45043,0.5442321,0.08522104,0.4627814,-0.03944825,11.8399997353554,10
-4.209312,0.2833333,-11.3977,-0.1642617369135526,-0.2902762151597402,-0.1341894084145298,3.527843,56.69016,0.2525015,0.02813642,0.474495,-0.01267598,11.8599997349083,10
-4.160273,0.4833332,-11.36025,-0.1175175663861671,-0.531417592523461,-0.0940541400836654,7.054936,56.63223,0.5018305,0.05623776,0.4731954,-0.02533623,11.8799997344613,10
-4.111248,0.6833332,-11.32281,-0.2205842200433037,-0.0919964552732,-0.1646642924175054,10.58121,56.58941,0.749863,0.08427729,0.4714461,-0.03796859,11.8999997340143,10
-4.062234,0.8833331,-11.28539,-0.3157427008522189,0.3364477751040063,-0.2302105858260112,14.10623,56.56181,0.9984698,0.1122256,0.4692494,-0.05055968,11.9199997335672,10
-3.822965,0.2833333,-11.10597,-0.1861373504392174,-0.1510620501904129,-0.1324330588501219,3.4612,56.66343,0.2885418,0.02777691,0.4742906,-0.0121168,11.9399997331202,10
-3.775262,0.4833333,-11.06861,-0.2347130495142622,0.0707393200819362,-0.1676338117202291,6.921216,56.60871,0.5745195,0.05551768,0.4730181,-0.02421459,11.9599997326732,10
-3.727573,0.6833333,-11.03125,-0.288932494331398,0.3092672664419076,-0.2076862521449225,10.38048,56.57109,0.8596977,0.08319961,0.4713122,-0.03628678,11.9799997322261,10
-3.679898,0.8833333,-10.99391,-0.3380499497316034,0.512251243516047,-0.2444898159507413,13.83889,56.55077,1.146182,0.1107972,0.4691748,-0.04832219,11.9999997317791,10
-3.513204,0.2833334,-10.86983,-0.2449502689304394,-0.2263312950726923,-0.1762861925565459,3.406942,55.51946,0.2207335,0.02720224,0.4655074,-0.01214186,12.0199997313321,10
-3.466363,0.4833334,-10.83303,-0.2833078900631134,-0.0421648035413911,-0.2036233889736021,6.812741,55.45855,0.4381801,0.05436932,0.4642678,-0.02426765,12.039999730885,10
-3.419537,0.6833335,-10.79625,-0.3159375558627029,0.158728144552217,-0.2257181406623871,10.21776,55.41029,0.6538289,0.08148031,0.4626172,-0.0363685,12.059999730438,10
-3.237357,0.2833333,-10.65992,-0.1883792485049644,-0.3162369512684089,-0.1298398386885022,3.355026,53.82189,0.1288221,0.02661248,0.4523815,-0.01224751,12.079999729991,10
-3.191413,0.4833333,-10.62359,-0.2122939483762503,-0.0818906391296171,-0.1460400174538136,6.70882,53.75282,0.2538552,0.05319142,0.4511762,-0.0244787,12.0999997295439,10
-3.145483,0.6833333,-10.58726,-0.2329695344597733,0.1691821413323525,-0.1602653035043868,10.0618,53.69064,0.3758336,0.07971716,0.4495848,-0.03668546,12.1199997290969,10
-2.948016,0.2833333,-10.43946,-0.0762124572022163,-0.2556031098363345,-0.0468472105778534,3.303922,52.09185,0.008472952,0.0259329,0.438907,-0.0125918,12.1399997286499,10
-2.902603,0.4833333,-10.40397,0.0875372459881721,-0.6913650554854266,0.0704944732654695,6.606881,52.01238,0.01236106,0.05183657,0.4377341,-0.02516949,12.1599997282028,10
-2.857202,0.6833333,-10.36848,0.0485171115482985,-0.2331266663416654,0.0374917351600583,9.908502,51.93253,0.01147686,0.07768607,0.4361983,-0.03772244,12.1799997277558,10
-2.811813,0.8833332,-10.333,0.0129082526491129,0.2141346815066228,0.0064213223794968,13.2092,51.85176,0.005868726,0.1034639,0.4343013,-0.05024055,12.1999997273088,10
-2.567292,0.2833334,-10.14983,0.2045521207042798,-0.2545579355402022,0.1379271035018128,3.249116,49.60025,359.8768,0.02528466,0.4193129,-0.01286731,12.2199997268617,10
-2.522709,0.4833333,-10.11477,0.2030513365589455,-0.0139392672891525,0.1254314166929546,6.497097,49.50985,359.7483,0.05054162,0.4181769,-0.02572051,12.2399997264147,10
-2.478138,0.6833334,-10.07971,0.1891289534401986,0.2434060795869005,0.1033118121021496,9.743895,49.4114,359.6136,0.07575039,0.4167052,-0.03854914,12.2599997259676,10
-2.433578,0.8833333,-10.04465,0.1733424882009416,0.4652074663244717,0.0794509310298163,12.98919,49.30411,359.4717,0.1008887,0.4148994,-0.05134119,12.2799997255206,10
-2.26007,0.2833333,-9.914502,0.2998275072012512,-0.2545576534534912,0.1545304571798738,3.197158,47.05116,359.7856,0.02483173,0.3990503,-0.01284962,12.2999997250736,10
-2.216676,0.4833332,-9.87926,0.2779171989443833,-0.0515737472930567,0.1212104272810936,6.393023,46.95359,359.5656,0.04963671,0.3979488,-0.02568531,12.3199997246265,10
-2.173295,0.6833333,-9.844028,0.2529183821752456,0.1681367179670698,0.0864412644635317,9.587534,46.8429,359.3384,0.07439555,0.3965372,-0.03849705,12.3399997241795,10
-1.979343,0.2833333,-9.699425,0.3862924580058362,-0.2880108776749658,0.1640272747747122,3.53033,48.4721,359.7955,0.02735588,0.4103516,-0.01427106,12.3599997237325,10
-1.930775,0.4833333,-9.661258,0.3482559397468281,-0.0348471885418339,0.1168538550439572,7.059399,48.37369,359.5846,0.05467845,0.4091373,-0.02852491,12.3799997232854,10
-1.882229,0.6833333,-9.623105,0.3021743604619588,0.2350431925452907,0.0659979370599064,10.58835,48.26114,359.3651,0.08194965,0.4075338,-0.04275595,12.3999997228384,10
-1.833704,0.8833332,-9.58497,0.2589269808540425,0.4693895072976107,0.0196581880979129,14.11731,48.13321,359.1353,0.1091463,0.4055427,-0.05694823,12.4199997223914,10
-1.592216,0.2833333,-9.405949,0.4315445182318047,-0.2378306839429,0.1273502736403786,3.563567,50.75705,359.8753,0.02762614,0.4284196,-0.01430915,12.4399997219443,10
-1.542649,0.4833333,-9.368338,0.3749686596619258,-0.0223017286742875,0.068209091768435,7.126152,50.66622,359.7442,0.05521762,0.4271774,-0.02860503,12.4599997214973,10
-1.493095,0.6833333,-9.330738,0.3048155912414793,0.2099536933493873,0.0020127888641034,10.68751,50.56628,359.6062,0.08274782,0.4255226,-0.04286928,12.4799997210503,10
-1.443556,0.8833333,-9.293149,0.2322842184252669,0.406665049560958,-0.0630718214677346,14.24758,50.45621,359.4598,0.1101901,0.4234571,-0.05708798,12.4999997206032,10
-1.275626,0.2833333,-9.167822,0.2941152269505432,-0.3381901140719917,-0.0347943371794192,3.592564,52.14098,0.01454594,0.02821234,0.4392571,-0.01366183,12.5199997201562,10
-1.226266,0.4833333,-9.129175,0.2173445855734964,-0.160296039373897,-0.1040844308657176,7.184369,52.06363,0.02470129,0.05639254,0.4379958,-0.02730383,12.5399997197092,10
-1.176919,0.6833332,-9.09054,0.1412609296321257,0.0343245933784807,-0.1695164808990732,10.77516,51.98624,0.03002166,0.0845093,0.4363049,-0.04091519,12.5599997192621,10
-0.9929059,0.2833333,-8.953695,0.2199751476037493,-0.4469130625837654,-0.1262556578471025,3.561785,53.11841,0.08199474,0.02811769,0.4468863,-0.01325569,12.5799997188151,10
-0.9440317,0.4833333,-8.915286,0.1418338297935639,-0.218839209094616,-0.1943598173629013,7.122434,53.04758,0.1597623,0.05619863,0.4456291,-0.02649357,12.5999997183681,10
-0.8951713,0.6833332,-8.876888,0.0638198645673726,0.025961107490656,-0.2587473119834307,10.68217,52.98105,0.2337989,0.08421738,0.4439422,-0.03970212,12.619999717921,10
-0.6933082,0.2833333,-8.728108,-0.0024502196056699,0.2352174613239188,-0.3110642021647622,3.635646,54.04123,0.1078199,0.02868627,0.4540556,-0.01357372,12.639999717474,10
-0.6430225,0.4833333,-8.689364,-0.0333664089087186,0.2231952873745132,-0.345054042513123,7.270381,53.97324,0.2114906,0.05733536,0.4527644,-0.02713001,12.6599997170269,10
-0.5927558,0.6833333,-8.650633,-0.0734570121979618,0.2566484821502466,-0.3814548382450802,10.90485,53.91129,0.3115441,0.0859226,0.4510177,-0.0406597,12.6799997165799,10
-0.5425033,0.8833331,-8.611912,-0.1108000328082801,0.2822610893702024,-0.411642047816902,14.53839,53.85507,0.4089577,0.1144153,0.4488179,-0.0541447,12.6999997161329,10
-0.2923171,0.2833333,-8.429862,0.0334580698057318,-0.3935969080232466,-0.3114362708762632,3.622417,55.24422,0.1436123,0.02858469,0.4633709,-0.013544,12.7199997156858,10
-0.2417879,0.4833333,-8.391811,-0.0559616931648085,-0.1467057764182058,-0.3788652848621474,7.243955,55.17994,0.2833909,0.05713247,0.4620759,-0.02707062,12.7399997152388,10
-0.1912729,0.6833333,-8.353771,-0.1537345813738306,0.1169120306756068,-0.447428058302461,10.86458,55.12406,0.4203928,0.08561468,0.4603195,-0.04056638,12.7599997147918,10
-0.1407734,0.8833332,-8.31574,-0.2478863859796038,0.3449856343986673,-0.5086905932148555,14.48428,55.07631,0.5553504,0.1140018,0.4581036,-0.05402016,12.7799997143447,10
0.03486854,0.2833333,-8.190781,-0.1882636014579983,-0.3685072992334308,-0.4609082346981763,3.560169,57.26571,0.2323102,0.02823549,0.4789077,-0.01310686,12.7999997138977,10
0.08494988,0.4833333,-8.153824,-0.2701604116654308,-0.1592508786681056,-0.5124430982808086,7.119535,57.20984,0.4615141,0.0564352,0.4776201,-0.02619722,12.8199997134507,10
0.1350169,0.6833333,-8.116878,-0.3428665295843389,0.0667322296695729,-0.5538850474843473,10.67804,57.16796,0.6893452,0.08457181,0.4758705,-0.03925849,12.8399997130036,10
0.3263816,0.2833334,-7.980898,-0.2404117468120503,-0.3831429266629225,-0.4733889817140673,3.497418,57.95561,0.2777357,0.0278692,0.484179,-0.01266478,12.8599997125566,10
0.3755502,0.4833333,-7.944448,-0.3010049216378978,-0.1237067885501994,-0.5093954711023159,6.994104,57.90378,0.5527436,0.05570415,0.4829106,-0.02531397,12.8799997121096,10
0.4247073,0.6833333,-7.908008,-0.3586985946717371,0.1524559178095621,-0.5407444074838414,10.48957,57.86859,0.8270813,0.08347579,0.4811907,-0.03793383,12.8999997116625,10
0.4738504,0.8833332,-7.871577,-0.4026486270969438,0.3930745403238808,-0.5598501708342134,13.98416,57.85021,1.102789,0.1111614,0.4790214,-0.05051459,12.9199997112155,10
0.7124028,0.2833333,-7.702744,-0.2208033224729551,-0.3078733611879649,-0.4211819293721879,3.434709,57.70496,0.280057,0.02742754,0.4822738,-0.01232207,12.9399997107685,10
0.7604657,0.4833333,-7.666626,-0.2585345935706886,-0.0860720146987129,-0.4407183297088464,6.868255,57.65321,0.557573,0.05481942,0.4810337,-0.02462641,12.9599997103214,10
0.8085151,0.6833332,-7.630518,-0.3004312637279067,0.1524559000375764,-0.4600043445502288,10.30103,57.61795,0.8343884,0.08215401,0.4793597,-0.03690501,12.9799997098744,10
0.8565507,0.8833331,-7.594421,-0.3358737022185796,0.3554397309284237,-0.4714863164391492,13.73297,57.59935,1.112505,0.1094066,0.4772537,-0.04914683,12.9999997094274,10
1.022205,0.2833333,-7.479563,-0.2332823942179098,-0.3831429755358824,-0.3840334296240781,3.382407,56.24378,0.1765155,0.02675441,0.4711029,-0.01255285,13.0199997089803,10
1.069579,0.4833333,-7.444244,-0.2603194507241526,-0.1989764473280813,-0.3880949511848328,6.763613,56.18272,0.3495525,0.05347395,0.4698979,-0.02509034,13.0399997085333,10
1.11694,0.6833333,-7.408936,-0.2797367016419776,0.0019166491267597,-0.3839464165895947,10.14403,56.13155,0.5204143,0.08013923,0.4682835,-0.03760236,13.0599997080863,10
1.298009,0.2833333,-7.283181,-0.1405451960934924,-0.473048292321524,-0.2699343952353716,3.329392,54.69436,0.07657327,0.02611049,0.4591699,-0.01275188,13.0799997076392,10
1.344663,0.4833333,-7.248552,-0.1500178645571455,-0.2387020455209143,-0.2626456588410093,6.657499,54.62453,0.1491056,0.05218781,0.4579981,-0.02548831,13.0999997071922,10
1.391303,0.6833332,-7.213933,-0.1532531975466953,0.0123707700494393,-0.2498333980876506,9.984747,54.55846,0.2181417,0.07821376,0.4564406,-0.03819951,13.1199997067451,10
1.43793,0.8833332,-7.179325,-0.1395372090323086,0.2278996223450761,-0.2242900701614418,13.31112,54.49578,0.2840448,0.1041662,0.454499,-0.05087493,13.1399997062981,10
1.666255,0.2833333,-7.021294,-0.0912956948766186,0.2221498401390149,-0.1814955517735654,3.274822,52.65355,359.9347,0.0253578,0.4433236,-0.01318326,13.1599997058511,10
1.71239,0.4833333,-6.987577,-0.0494892177371779,0.2618754266580937,-0.1427313842778526,6.548585,52.57171,359.8646,0.05068739,0.4421872,-0.02635191,13.179999705404,10
1.758513,0.6833333,-6.953868,-0.0035413302861564,0.2937604256213955,-0.1008139124996176,9.820924,52.48519,359.7889,0.07596465,0.4406905,-0.03949526,13.199999704957,10
1.961039,0.2833333,-6.811891,0.2222314408367753,-0.3758250599806902,0.0640789206858878,3.218953,49.8334,359.8177,0.02480264,0.4211739,-0.01327531,13.21999970451,10
2.006022,0.4833333,-6.778124,0.2132313207016021,-0.1226614027325909,0.0598810296281309,6.436679,49.74199,359.63,0.04957834,0.4200755,-0.02653615,13.2399997040629,10
2.050992,0.6833333,-6.744367,0.1928683569267906,0.1472288243306601,0.0474290714863414,9.653138,49.63926,359.4357,0.07430761,0.4186455,-0.03977197,13.2599997036159,10
2.095952,0.8833332,-6.71062,0.1715066115958214,0.3815749691165898,0.0338931546522571,12.86798,49.52434,359.2337,0.09896977,0.4168857,-0.05296866,13.2799997031689,10
2.270378,0.2833333,-6.589442,0.2870813105261578,-0.3256454085555342,0.11339025450813,3.371296,49.48472,359.7954,0.02596861,0.4184045,-0.01393217,13.2999997027218,10
2.317466,0.4833333,-6.553953,0.2560241836637553,-0.1101165366584403,0.0907376454238129,6.74133,49.39086,359.5851,0.05190735,0.4172625,-0.02784839,13.3199997022748,10
2.364542,0.6833333,-6.518474,0.2228242199917485,0.122138798334775,0.0671624664407284,10.11006,49.2837,359.3673,0.0777939,0.415759,-0.04173658,13.3399997018278,10
2.555985,0.2833333,-6.385831,0.1979961952259277,0.3188501705759801,0.0499876197240736,3.537424,51.2423,359.8279,0.0271811,0.4322539,-0.01469975,13.3599997013807,10
2.606055,0.4833333,-6.349556,0.1997816249856052,0.2942828949864996,0.0500706436448119,7.073699,51.15074,359.6498,0.05432894,0.4310438,-0.02938277,13.3799997009337,10
2.656101,0.6833333,-6.313295,0.1898119227360064,0.3151910943184819,0.0433200778161131,10.60989,51.04713,359.4638,0.08142512,0.4294223,-0.0440418,13.3999997004867,10
2.706134,0.8833332,-6.277044,0.1790233358353168,0.3282587055719828,0.0371918372600479,14.14472,50.93036,359.2687,0.1084359,0.4273917,-0.05865468,13.4199997000396,10
2.944683,0.2833333,-6.111541,0.3323090719874972,-0.3601442883106298,0.1449717503863876,3.574894,53.23682,359.93,0.02761233,0.4478453,-0.01452095,13.4399996995926,10
2.995415,0.4833333,-6.075219,0.2599034948073866,-0.1257981403884673,0.0960800619257806,7.148954,53.15499,359.8547,0.05519147,0.4466078,-0.02902607,13.4599996991456,10
3.046132,0.6833333,-6.038908,0.1760415377458644,0.1252745891097204,0.0395187503183942,10.72188,53.06765,359.7734,0.08270904,0.4449365,-0.04349887,13.4799996986985,10
3.096835,0.8833332,-6.002606,0.0916906075914703,0.3408033676167718,-0.0173372242921017,14.29367,52.97394,359.6854,0.1101383,0.4428332,-0.05792527,13.4999996982515,10
3.260857,0.2833334,-5.887994,0.1370129021115653,-0.3852342450480414,0.0141111533172706,3.571406,54.36186,0.06325343,0.02797217,0.4565647,-0.01374376,13.5199996978045,10
3.310878,0.4833333,-5.850813,0.0473049907902423,-0.1885227164307876,-0.0446523939013654,7.14187,54.29293,0.1228155,0.05591122,0.4553212,-0.02746635,13.5399996973574,10
3.360884,0.6833333,-5.813642,-0.0400708675357188,0.0249153804335059,-0.1012595223841255,10.71139,54.22718,0.1785838,0.08378802,0.4536364,-0.04115838,13.5599996969104,10
3.542301,0.2833333,-5.688001,0.0226712252374952,-0.4375046806533451,-0.0542930007972946,3.595495,55.27944,0.09195764,0.02816351,0.4636595,-0.01384299,13.5799996964633,10
3.592984,0.4833333,-5.650982,-0.0674978011539444,-0.1906134472949754,-0.1107875367829822,7.190059,55.21345,0.1799139,0.0562911,0.4624003,-0.02766842,13.5999996960163,10
3.64365,0.6833333,-5.613975,-0.1558493458357182,0.073004354310429,-0.1658445404262423,10.78394,55.15245,0.2642789,0.08435622,0.4606865,-0.04146547,13.6199996955693,10
3.694302,0.8833332,-5.576977,-0.2310852994334409,0.3010782988374453,-0.2118083369753907,14.37689,55.09611,0.3458595,0.1123303,0.4585202,-0.05521788,13.6399996951222,10
3.923484,0.2833333,-5.418321,-0.0962815152202285,-0.4124145063833457,-0.1105752469324361,3.636656,56.01237,0.1161542,0.02849046,0.4693018,-0.01400509,13.6599996946752,10
3.974999,0.4833333,-5.381199,-0.1671512483094437,-0.2031580625576264,-0.1489774008273894,7.272401,55.94909,0.2284704,0.05694396,0.4680223,-0.02799218,13.6799996942282,10
4.026499,0.6833333,-5.344088,-0.2378325373708341,0.0228249505605406,-0.1865710748717868,10.90722,55.89248,0.3378184,0.08533191,0.466272,-0.04194706,13.6999996937811,10
4.232691,0.2833333,-5.201433,-0.1365656866538094,-0.4270501932270238,-0.1002748411388374,3.589854,57.73435,0.1870867,0.02821798,0.4824984,-0.01369269,13.7199996933341,10
4.283934,0.4833333,-5.165276,-0.2205958999002417,-0.1676140415239586,-0.1409623024804438,7.178854,57.67786,0.370935,0.05639987,0.4812227,-0.02736796,13.7399996928871,10
4.335161,0.6833333,-5.129129,-0.3100816387531573,0.1085486794715553,-0.1854349484329049,10.76696,57.6326,0.5529479,0.08451798,0.4794746,-0.04101242,13.75999969244,10
4.386375,0.8833332,-5.092989,-0.3932903942437775,0.3491673176670397,-0.2259623713033764,14.3539,57.59843,0.7342237,0.1125416,0.477256,-0.05461395,13.779999691993,10
4.557107,0.2833333,-4.975374,-0.3233757503020618,-0.3517805671182332,-0.1598118007704081,3.527955,58.85408,0.2532306,0.02789602,0.4910216,-0.01319996,13.799999691546,10
4.607518,0.4833333,-4.939789,-0.3899832952068536,-0.1299792028569958,-0.1872794017440835,7.055125,58.80375,0.5037696,0.05575728,0.4897617,-0.02638341,13.8199996910989,10
4.657915,0.6833332,-4.904215,-0.4464644569023397,0.1085487306966894,-0.2098160224881731,10.58144,58.76867,0.7534983,0.08355727,0.4880363,-0.03953785,13.8399996906519,10
4.7083,0.8833332,-4.868649,-0.4820356546122246,0.3115325814503452,-0.2202997393421526,14.10648,58.74901,1.004293,0.1112668,0.4858476,-0.05264948,13.8599996902049,10
4.92487,0.2833333,-4.718359,-0.4834626309180283,0.2933319238868843,-0.2021100626006466,3.461226,58.85396,0.2893781,0.027544,0.4910219,-0.0126393,13.8799996897578,10
4.973958,0.4833333,-4.68283,-0.4861426079887261,0.3205953527126966,-0.1874085187029961,6.921254,58.80681,0.5766427,0.05505236,0.4897895,-0.02525906,13.8999996893108,10
5.02303,0.6833333,-4.647311,-0.4796462129140444,0.3400073721503712,-0.1689994842619722,10.38048,58.7769,0.863588,0.0825023,0.4881082,-0.03785201,13.9199996888638,10
5.216344,0.2833333,-4.512632,-0.3027898419186545,-0.3293088636908542,-0.0274899387892348,3.407257,57.70458,0.2211624,0.02696999,0.4822888,-0.01265638,13.9399996884167,10
5.264552,0.4833332,-4.477639,-0.3406606456828696,-0.0774160765905228,-0.0351328490738467,6.813333,57.6511,0.4394818,0.05390504,0.4810892,-0.02529598,13.9599996879697,10
5.312745,0.6833332,-4.442655,-0.3827089201450944,0.1897259764571129,-0.047173235910749,10.21861,57.61039,0.6564755,0.08078458,0.4794636,-0.03790945,13.9799996875226,10
5.360925,0.8833331,-4.407682,-0.418808875366687,0.4199095661193963,-0.0566928756970184,13.62304,57.58247,0.8736456,0.1075848,0.4774138,-0.05048587,13.9999996870756,10
5.520778,0.2833333,-4.296608,-0.3250221836218081,-0.2792044886462059,0.0225711968405306,3.354924,55.90403,0.1273596,0.02637879,0.468502,-0.01273986,14.0199996866286,10
5.568022,0.4833333,-4.261984,-0.3561713437213116,-0.0584923898444184,0.0084745189821244,6.708605,55.84227,0.2513911,0.05272456,0.4673391,-0.02546256,14.0399996861815,10
5.615252,0.6833333,-4.22737,-0.3804248628358273,0.1761530436265065,-0.0090402700975391,10.06145,55.78741,0.3727931,0.07901758,0.465776,-0.03815984,14.0599996857345,10
5.7905,0.2833333,-4.104758,-0.3874322260133418,0.3725906875665217,-0.022419583506529,3.303923,54.04771,0.006181885,0.02570514,0.4541712,-0.01305037,14.0799996852875,10
5.837118,0.4833333,-4.070862,-0.3963612948833086,0.3577591662497219,-0.061667020943068,6.606876,53.97546,0.008193436,0.05138129,0.453042,-0.02608611,14.0999996848404,10
5.883725,0.6833333,-4.036973,-0.4028211528468643,0.3844933639926777,-0.1067838098937992,9.908504,53.90277,0.00589747,0.07700407,0.4515371,-0.03909575,14.1199996843934,10
5.930319,0.8833333,-4.003094,-0.396320578742058,0.3996683963568597,-0.1495108513635314,13.20917,53.82917,-0.000725698,0.1025555,0.4496582,-0.05206925,14.1399996839464,10
6.150837,0.2833333,-3.84699,-0.2726491060891849,-0.2815640133849858,-0.1382742844581259,3.248938,51.30369,359.8721,0.02507141,0.4327559,-0.01327812,14.1599996834993,10
6.196489,0.4833333,-3.813323,-0.3436616353389503,-0.0444144884371217,-0.2646853626775516,6.496735,51.22027,359.7392,0.05011524,0.4316659,-0.02654156,14.1799996830523,10
6.242127,0.6833333,-3.779665,-0.4096371213243763,0.2053275467514119,-0.390959416275787,9.743377,51.12861,359.6006,0.07511145,0.4302293,-0.03977977,14.1999996826053,10
6.437973,0.2833333,-3.637981,-0.3689232868791547,-0.2169786214343004,-0.4723782958740934,3.196991,48.51054,359.7805,0.02464614,0.4106909,-0.01320548,14.2199996821582,10
6.482305,0.4833333,-3.60392,-0.5015066139691031,0.0654333069655098,-0.6723219090233044,6.392717,48.41983,359.5556,0.04926585,0.409637,-0.02639663,14.2399996817112,10
6.526623,0.6833333,-3.569868,-0.6323336812256759,0.360249629662951,-0.869373470431654,9.587117,48.31577,359.3239,0.07383985,0.4082637,-0.03956315,14.2599996812642,10
6.570932,0.8833332,-3.535827,-0.751754511386503,0.6154703855124641,-1.0557966336011522,12.77989,48.19751,359.0844,0.09834892,0.4065728,-0.05268988,14.2799996808171,10
6.741843,0.2833333,-3.41278,-0.8501205245552494,0.6210171417766518,-1.2240226758322934,3.529397,49.55026,359.7881,0.02718587,0.4189103,-0.01458321,14.2999996803701,10
6.791187,0.4833333,-3.375637,-0.9862259193982544,0.5629158986959658,-1.4345159642943002,7.057547,49.45851,359.5701,0.05433863,0.4177445,-0.02914882,14.3199996799231,10
6.84051,0.6833333,-3.338508,-1.1061942774236595,0.5461580693523236,-1.6269604825951165,10.5856,49.35226,359.3441,0.08144093,0.4161815,-0.04368978,14.339999679476,10
6.889812,0.8833332,-3.301396,-1.2005992060134218,0.5177462648337102,-1.7943918513690602,14.11365,49.23029,359.1082,0.1084691,0.4142226,-0.05819119,14.359999679029,10
7.103786,0.2834214,-3.146101,-1.1959060097218703,-0.2091134460753373,-1.8956395161824815,3.563261,51.51287,359.8675,0.0274991,0.4343684,-0.01455136,14.379999678582,10
7.153922,0.4834214,-3.109252,-1.3548078430241848,-0.0171826642125181,-2.097499513882602,7.125557,51.42863,359.7291,0.05496433,0.4331768,-0.02908803,14.3999996781349,10
7.204044,0.6834214,-3.072414,-1.4898406846078809,0.187866195505537,-2.2714065899205877,10.68662,51.3349,359.5842,0.08236859,0.4315666,-0.04359243,14.4199996776879,10
7.395422,0.2953712,-2.930455,-1.5100763820799283,-0.2788998128716969,-2.3642587984382644,3.59282,52.66921,0.00819622,0.02812649,0.4433925,-0.01384235,14.4399996772408,10
7.445203,0.4953712,-2.892346,-1.6682359814785102,-0.040138416498921,-2.540448724336089,7.184873,52.59848,0.01252653,0.05622143,0.4421826,-0.02766374,14.4599996767938,10
7.494971,0.6953712,-2.854248,-1.801932954317019,0.2119520304490922,-2.6887030458034573,10.77589,52.52739,0.01238814,0.08425302,0.4405389,-0.04145401,14.4799996763468,10
7.544724,0.8953711,-2.816161,-1.9030441930070128,0.4193397787559636,-2.8031502238038373,14.36589,52.45537,0.007653927,0.1121939,0.4384635,-0.05519973,14.4999996758997,10
7.701111,0.308134,-2.703745,-1.8603026952468331,-0.2602896232515829,-2.819714168975544,3.38428,53.98972,359.9129,0.02596714,0.4537325,-0.01408023,14.5199996754527,10
7.749505,0.508134,-2.671498,-1.9158708917562317,-0.0254740273760754,-2.889832201965256,6.712618,54.26752,359.7852,0.05124849,0.4553839,-0.02836575,14.5399996750057,10
7.797736,0.708134,-2.639485,-1.9411814737539408,0.218396336705699,-2.9260315330765305,10.02712,54.5343,359.6667,0.07635266,0.4566112,-0.04261309,14.5599996745586,10
7.845944,0.9081339,-2.607492,-1.927981408241564,0.373304469915441,-2.922662676390189,13.34053,54.79639,359.5624,0.1013801,0.4574475,-0.05681828,14.5799996741116,10
8.014314,0.3198877,-2.511159,-1.9647137063858189,0.4137675691754645,-2.952495296520998,3.129702,56.87669,359.8345,0.02332556,0.4760694,-0.01427412,14.5999996736646,10
8.06152,0.5198877,-2.483613,-1.9651521961503955,0.4863491427628079,-2.944434707989524,6.259142,57.25109,359.6894,0.04662422,0.4784969,-0.02853083,14.6199996732175,10
8.108877,0.7198877,-2.455791,-1.921893553651346,0.5386656824701289,-2.893385879459575,9.404352,57.61963,359.5741,0.070044,0.4805455,-0.04275031,14.6399996727705,10
8.24424,0.3279375,-2.387024,-1.828078157536499,0.4229181423219906,-2.7948975506011937,2.892275,59.40227,359.8471,0.02126055,0.4953469,-0.01366319,14.6599996723235,10
8.289158,0.5279375,-2.363366,-1.801805728681085,0.2904379028531975,-2.7421998372633456,5.800742,59.65229,359.7131,0.04265315,0.4968411,-0.02733577,14.6799996718764,10
8.334217,0.7279376,-2.339504,-1.7421003716471637,0.2059633633131393,-2.6528425149440134,8.719838,59.89926,359.598,0.0641231,0.4980218,-0.04098373,14.6999996714294,10
8.465222,0.3351631,-2.281033,-1.641869860284439,0.1165958621762522,-2.5224953043616845,2.746192,63.25691,359.9185,0.02003046,0.5242726,-0.01317192,14.7199996709824,10
8.508935,0.5351631,-2.259994,-1.5802001744130187,0.0425877111945229,-2.416243596421629,5.522464,63.26673,359.869,0.0404177,0.5239194,-0.02623808,14.7399996705353,10
8.552646,0.7351632,-2.238944,-1.489683387727407,0.0186560475276037,-2.280726910792393,8.296563,63.27406,359.8188,0.06076046,0.5232588,-0.03928634,14.7599996700883,10
8.596333,0.935163,-2.217844,-1.3638371807395837,-0.0081310766689545,-2.112408600594595,11.0692,63.27774,359.7613,0.08102407,0.5222881,-0.05235792,14.7799996696413,10
8.64003,0.9870365,-2.196769,-1.1961597858338688,-0.0965035346216601,-1.9078012586738111,13.84012,63.2795,359.7076,0.1012466,0.5210154,-0.06536005,14.7999996691942,10
8.7541,0.3442562,-2.14774,-1.0599620759807529,-0.1886812294731875,-1.7114543242541869,2.805709,65.50921,359.9885,0.0205351,0.5408819,-0.01332993,14.8199996687472,10
8.79832,0.5442562,-2.127504,-0.8991172506776408,-0.2282892115339389,-1.4942632205267865,5.584462,65.79436,0.003853011,0.04092107,0.542487,-0.02643017,14.8399996683002,10
8.84265,0.7442562,-2.107557,-0.7081415251189256,-0.2682998893609488,-1.2535757844493247,8.363353,66.14046,0.01290413,0.06116778,0.5442071,-0.03969548,14.8599996678531,10
8.947206,0.3503637,-2.055804,-0.4815090236423121,-0.3616853118899046,-0.9867918978903538,2.852972,66.07632,0.1442684,0.02155525,0.5450019,-0.01251722,14.8799996674061,10
8.991139,0.5503637,-2.034164,-0.2741004422126689,-0.4659719346377,-0.7194989084159134,5.653946,66.51458,0.2664921,0.04251585,0.5476348,-0.02510466,14.899999666959,10
9.034953,0.7503636,-2.012821,-0.0600648111242687,-0.5149964074456914,-0.4493318386852726,8.440008,66.98582,0.3989106,0.0632831,0.5501207,-0.03771197,14.919999666512,10
9.155665,0.3572052,-1.947705,0.1659163819334601,-0.5617857513109618,-0.1740773769586526,3.121287,65.57269,0.1241394,0.02348274,0.5412819,-0.01383755,14.939999666065,10
9.202789,0.5572051,-1.92574,0.3831974580794206,-0.6030792280340159,0.0839795604752374,6.096324,66.28733,0.1743205,0.04535435,0.5458983,-0.02780115,14.9599996656179,10
9.249351,0.7572051,-1.90475,0.5855113270232106,-0.5887777579249276,0.3243791078994176,9.02087,67.08253,0.2242232,0.06662373,0.5506969,-0.04182597,14.9799996651709,10
9.295827,0.9514449,-1.883878,0.7784649046806535,-0.5720165761227441,0.548804461117612,11.93856,67.89548,0.3109648,0.0877758,0.5551724,-0.05583557,14.9999996647239,10
9.438865,0.4043288,-1.808533,1.1367404209829406,-1.2564130482094096,0.8724266246129007,2.857767,66.45934,359.9879,0.02080085,0.5478283,-0.01375306,15.0199996642768,10
9.484517,0.6043288,-1.788437,1.350004699117969,-1.0214995970814975,1.080747132700012,5.713922,67.25424,0.01537495,0.0415762,0.5530919,-0.0274906,15.0399996638298,10
9.530221,0.8043287,-1.768276,1.539465142511558,-0.7596141350011589,1.2617504932604806,8.572621,68.04762,0.08793203,0.06237342,0.5579247,-0.04118587,15.0599996633828,10
9.575845,0.9608697,-1.748204,1.711308416250633,-0.5229630029953791,1.4181292018992178,11.42621,68.85735,0.1992928,0.08308797,0.5624279,-0.05485459,15.0799996629357,10
9.6748,0.4617654,-1.702644,1.8716202623242992,-0.5092595380680439,1.5523331420529098,3.133144,66.35991,359.9584,0.02268241,0.5470741,-0.01526531,15.0999996624887,10
9.725079,0.6617655,-1.681023,2.0484914433075367,-0.5965965047560283,1.7059650351875095,6.265724,67.14907,359.9599,0.04534076,0.5522107,-0.03051433,15.1199996620417,10
9.775342,0.8617654,-1.659407,2.191286800637668,-0.6276371855276122,1.8240059421163024,9.397479,67.94348,0.004982036,0.06795871,0.5569029,-0.04573772,15.1399996615946,10
9.825056,0.9723569,-1.638344,2.306287401748911,-0.6557607457789973,1.9094333768347336,12.48943,68.80025,0.07905884,0.09013918,0.5615544,-0.06088868,15.1599996611476,10
9.952705,0.3631898,-1.571871,2.443679773211281,-0.6732356230738935,2.010456596107912,3.161835,62.84255,359.8124,0.02268995,0.521166,-0.01577905,15.1799996607006,10
10.00313,0.5631899,-1.549212,2.5385981902151986,-0.6346142049565738,2.07245270717932,6.325153,63.67385,359.6706,0.04535504,0.5268326,-0.0315403,15.1999996602535,10
10.05354,0.7631899,-1.52656,2.5981529366420304,-0.5933628077648934,2.099396315014312,9.489295,64.50278,359.5742,0.06797688,0.5320627,-0.04727102,15.2199996598065,10
10.19214,0.3567964,-1.44738,2.5264554071222136,0.1086666440739039,2.0539530095643914,3.438148,62.68808,359.8077,0.02474839,0.5199839,-0.01703725,15.2399996593595,10
10.24685,0.5567963,-1.422408,2.6298715782350044,-0.077308683967328,2.106936691745521,6.877811,63.51579,359.6649,0.04946665,0.5255302,-0.03405354,15.2599996589124,10
10.30155,0.7567962,-1.397444,2.683667042719785,-0.2319470559489213,2.120841027273612,10.3186,64.34151,359.5714,0.07413448,0.5305681,-0.05103305,15.2799996584654,10
10.35621,0.9513631,-1.372494,2.696245303922643,-0.4098564496628682,2.1007495939106997,13.7613,65.17126,359.5277,0.0987386,0.5350922,-0.06796771,15.2999996580184,10
10.47841,0.3491015,-1.292394,2.856208073355443,-1.1330286541034318,2.1607081999597786,3.545487,63.35369,359.8438,0.02561095,0.5249119,-0.01740477,15.3199996575713,10
10.53476,0.5491016,-1.266668,2.884584745359522,-0.8790049123861317,2.150295074878086,7.092707,64.18114,359.7385,0.05119498,0.53036,-0.03479092,15.3399996571243,10
10.59109,0.7491015,-1.24095,2.865058807843674,-0.5997812867965597,2.1059828953705595,10.64008,65.00916,359.6844,0.07672028,0.5352656,-0.05213675,15.3599996566772,10
10.6474,0.9491014,-1.215239,2.806693023794168,-0.3479466510264269,2.033896798342464,14.18684,65.84425,359.6823,0.1021609,0.5396241,-0.06942452,15.3799996562302,10
10.83231,0.3387187,-1.082932,2.6464426618205863,0.4230367846991043,1.9017060853896288,3.585022,64.25883,359.9687,0.02634429,0.5315804,-0.01686707,15.3999996557832,10
10.8887,0.5387187,-1.055833,2.636205473766825,0.2040163636424365,1.8595014644643144,7.16941,65.09473,359.9903,0.05265898,0.5369485,-0.03370908,15.4199996553361,10
10.94507,0.7387186,-1.028743,2.584779671805938,0.0127138409787995,1.7865610171329682,10.75209,65.93945,0.0652225,0.07891208,0.5417572,-0.0505114,15.4399996548891,10
11.13597,0.3299658,-0.9063098,2.409989325478689,0.5064921755346915,1.6365518552911384,3.552846,64.64899,0.08462617,0.02659027,0.5344372,-0.01595207,15.4599996544421,10
11.19114,0.5299658,-0.8780203,2.3515315426557795,0.3604133747255412,1.556497025109408,7.102819,65.49318,0.2225358,0.05314776,0.5397835,-0.0318768,15.479999653995,10
11.24631,0.7299657,-0.849739,2.248388729071687,0.2400177217183304,1.4466945705368448,10.64936,66.35341,0.4148652,0.07964405,0.5445768,-0.04776455,15.499999653548,10
11.45988,0.3204376,-0.7150776,2.1110120980128717,0.097472736728685,1.313901743588916,3.622743,65.49409,0.1216447,0.02715932,0.5406322,-0.01620596,15.519999653101,10
11.51632,0.5204375,-0.6865124,2.005349352798582,0.1284979245977389,1.2034063274195224,7.242306,66.33959,0.297026,0.05428255,0.5458908,-0.03239021,15.5399996526539,10
11.57275,0.7204375,-0.6579562,1.8526665243696687,0.2021178182446051,1.0633794719109666,10.85845,67.20406,0.5283108,0.08134515,0.5505691,-0.04853927,15.5599996522069,10
11.62916,0.9204374,-0.6294083,1.6639064740504814,0.2643840246400836,0.9008767793331824,14.46966,68.09505,0.8190643,0.1083147,0.5546628,-0.06463227,15.5799996517599,10
11.68555,0.9840912,-0.6008686,1.4501731749252933,0.3135196059843801,0.7231518708153238,18.07487,69.02099,1.174079,0.1351631,0.5581684,-0.08065221,15.5999996513128,10
11.89769,0.3078383,-0.4632375,1.3844525209161826,0.2349334776288261,0.6439094404266031,3.627797,66.86588,0.1628974,0.02719839,0.5506464,-0.01625392,15.6199996508658,10
11.95459,0.5078384,-0.4353487,1.2747506721069417,0.1886834605537847,0.5422044894127899,7.251771,67.71118,0.3796612,0.05436027,0.5558094,-0.03248582,15.6399996504188,10
12.01148,0.7078383,-0.407468,1.1325167744840172,0.1205210308794461,0.4255746512597994,10.87109,68.57816,0.6528751,0.08145708,0.5603804,-0.04867868,15.6599996499717,10
12.2083,0.2992176,-0.2914298,0.969867472382866,0.0835304783449339,0.3022329618060544,3.57335,68.69129,0.2383162,0.02691505,0.5638549,-0.01587399,15.6799996495247,10
12.26467,0.4992177,-0.2645008,0.852552309743011,0.0461515859752152,0.2183751101254434,7.141754,69.54082,0.5300456,0.05379438,0.5689394,-0.03172686,15.6999996490777,10
12.32104,0.6992177,-0.2375799,0.7110545582476107,0.0514996287917614,0.1250432457918774,10.70435,70.41631,0.8782697,0.08061073,0.5734339,-0.04754242,15.7199996486306,10
12.37738,0.8992177,-0.2106637,0.5568278922545797,0.0458414619546347,0.0297721443991925,14.25984,71.32529,1.286924,0.1073331,0.5773345,-0.06330498,15.7399996481836,10
12.62684,0.2879172,-0.06527112,0.2954553635623629,0.7034068857729346,-0.1277583999288687,3.504891,69.75764,0.3077323,0.02662253,0.5715058,-0.01528553,15.7599996477365,10
12.68216,0.4879172,-0.0386778,0.2287361766132587,0.4727433566747936,-0.1593076325450166,7.003849,70.60965,0.6681156,0.05321078,0.5765468,-0.03055111,15.7799996472895,10
12.73747,0.6879172,-0.01209098,0.1443069971039392,0.2594892124917191,-0.1959105363829134,10.49555,71.4912,1.084618,0.07973582,0.58101,-0.04577936,15.7999996468425,10
12.9616,0.2833332,0.1164855,0.0532254585378524,0.0154214331884137,-0.2300025146314224,3.439602,69.77178,0.3231897,0.02623063,0.5716146,-0.01485245,15.8199996463954,10
13.01577,0.4833332,0.1429171,0.0571686613631765,0.0028098827917676,-0.21490508167278,6.872622,70.622,0.6980572,0.05242564,0.5766665,-0.02968293,15.8399996459484,10
13.06992,0.6833331,0.1693412,0.0452537822039413,0.0321170270427937,-0.2029655021022214,10.29865,71.50191,1.127882,0.07856312,0.5811601,-0.04448051,15.8599996455014,10
13.12405,0.8833331,0.1957576,0.0287278743080712,0.0496833614139864,-0.1865278493982012,13.7166,72.41862,1.617108,0.104618,0.5850917,-0.05923082,15.8799996450543,10
13.17818,0.9766704,0.2221665,0.0188547262098826,0.0018490617434648,-0.1579320066837799,17.12529,73.38014,2.171379,0.1305657,0.5884581,-0.07391974,15.8999996446073,10
13.39925,0.2833334,0.3539472,0.0984533494037194,-0.0459492377214569,-0.0993917692012928,3.386873,68.07211,0.2066846,0.02549815,0.5594249,-0.01504649,15.9199996441603,10
13.45253,0.4833334,0.3797376,0.1615635601062273,-0.0517656400443613,-0.045565550679075,6.769,68.90723,0.462961,0.05096168,0.5645508,-0.03007329,15.9399996437132,10
13.5058,0.6833333,0.4055206,0.2199437743108916,-0.0692054839645118,0.011057465401066,10.14605,69.76424,0.7714012,0.07637107,0.5691484,-0.04506784,15.9599996432662,10
13.70132,0.2833334,0.5203567,0.1238410835973589,0.5789213438057912,-0.0364781791383406,3.330646,66.14786,0.09717517,0.02481497,0.5454693,-0.01514902,15.9799996428192,10
13.7536,0.4833333,0.5457766,0.1719488898548338,0.33878404389308,0.0093598570572472,6.658156,66.97048,0.2423823,0.04959749,0.5506875,-0.03027767,15.9999996423721,10
13.80586,0.6833332,0.5711895,0.2171901706922732,0.1161617721977509,0.0542211234157281,9.982284,67.80787,0.4372252,0.07432886,0.5554075,-0.04537464,16.0199996419251,10
14.01878,0.2833333,0.6940715,0.0811219611151958,0.5881757152786198,-0.0223008294641442,3.279725,64.48623,359.9785,0.0241042,0.5332989,-0.01542598,16.0399996414781,10
14.0704,0.4833333,0.7187388,-0.0578058044758424,1.0529244357827918,-0.1002805228277237,6.558463,65.29591,0.003422336,0.04818035,0.5385909,-0.03083406,16.059999641031,10
14.12202,0.6833332,0.7434014,0.0071531718577517,0.6052365057486544,-0.050019367108566,9.835218,66.11291,0.07527882,0.07220443,0.5434099,-0.04621039,16.079999640584,10
14.17362,0.883333,0.7680571,0.0674699836331989,0.1498955818319135,-0.0026153094681138,13.10968,66.94284,0.1958637,0.09615932,0.5477521,-0.06154186,16.099999640137,10
14.43693,0.2833333,0.9211919,0.1348765805244447,-0.2050183730969432,0.0492346377908821,3.225005,61.24699,359.831,0.02346439,0.5092278,-0.01560254,16.1199996396899,10
14.4875,0.4833334,0.9460326,0.2038622096091025,-0.2482906661360744,0.0862930211674282,6.451066,62.04081,359.7066,0.04690193,0.5146487,-0.03118707,16.1399996392429,10
14.53805,0.6833334,0.9708665,0.2601382730098063,-0.2482058365293419,0.1147844089503884,9.677604,62.83308,359.6265,0.07029343,0.5196301,-0.04674053,16.1599996387959,10
14.5886,0.8833333,0.9956928,0.315474268075377,-0.2582078222873586,0.1421082427160915,12.90369,63.62896,359.5916,0.09361829,0.5241688,-0.06224617,16.1799996383488,10
14.77762,0.2833333,1.107718,0.2136351812069286,0.3988962137828097,0.0698180125688572,3.373945,61.20703,359.8231,0.02455273,0.5089121,-0.01631552,16.1999996379018,10
14.83055,0.4833332,1.133751,0.2448959903201029,0.1695769577494794,0.0864322395310215,6.749096,61.99664,359.6925,0.04907636,0.5142535,-0.03261147,16.2199996374547,10
14.88346,0.6833332,1.159777,0.2745492013867903,-0.0402254862469884,0.1019562443956485,10.12477,62.78456,359.608,0.07354824,0.5191174,-0.04887262,16.2399996370077,10
14.93635,0.883333,1.185791,0.3144769112224708,-0.2849555145427796,0.1238941498277568,13.50159,63.57633,359.5701,0.09795541,0.5234991,-0.06508988,16.2599996365607,10
15.17835,0.2833333,1.327457,0.144702145002455,0.3548927633169912,0.0175118377621195,3.534132,63.1072,359.867,0.02566994,0.5230772,-0.01712519,16.2799996361136,10
15.23425,0.4833332,1.353673,0.1684759302785217,0.109551490668596,0.0365675013976511,7.069319,63.8973,359.7821,0.05130882,0.5282509,-0.03423452,16.2999996356666,10
15.29012,0.6833332,1.379879,0.1880209151809992,-0.1149809587988572,0.0541183358968879,10.60508,64.6889,359.7459,0.0768947,0.5328903,-0.05130805,16.3199996352196,10
15.50688,0.2833332,1.504771,0.0127369205961755,0.352701337254549,-0.0448451284729234,3.577321,64.56376,359.9602,0.02620304,0.5338339,-0.01696376,16.3399996347725,10
15.56337,0.4833332,1.531349,0.0101299794161278,0.1758531091389172,-0.0392606181521215,7.154169,65.36026,359.9702,0.05237456,0.5389102,-0.03390656,16.3599996343255,10
15.61984,0.6833332,1.55792,0.0094262697754672,0.0204011054346767,-0.0356228707164567,10.72951,66.16446,0.03081048,0.07848517,0.5434301,-0.05080967,16.3799996338785,10
15.6763,0.8833331,1.584483,0.0211873254314056,-0.1680161467201787,-0.0270159231769353,14.30262,66.98297,0.1439731,0.1045085,0.5473895,-0.06765553,16.3999996334314,10
15.94448,0.2833333,1.740438,0.0560360893201021,-0.3157134481661575,-0.0064978958499208,3.562699,65.92892,0.09768871,0.02654454,0.5438333,-0.01619924,16.4199996329844,10
16.00035,0.4833333,1.767743,0.2429849878925196,-0.3716431262492922,0.064440968345949,7.122582,66.73514,0.2461461,0.05305599,0.5488333,-0.03237388,16.4399996325374,10
16.0562,0.6833333,1.795041,0.4717245011143269,-0.3820977664798419,0.1504219249666047,10.67898,67.55782,0.4469051,0.0795062,0.5532713,-0.04851071,16.4599996320903,10
16.11204,0.8833333,1.822331,0.7470062480655777,-0.4003930604755241,0.2561332824849129,14.2311,68.40388,0.7029601,0.1058685,0.5571432,-0.06459339,16.4799996316433,10
16.30153,0.2833333,1.93415,0.9031476364060468,0.2404428412872211,0.2794840035570676,3.625008,67.0687,0.1298216,0.02698994,0.5521302,-0.01652908,16.4999996311963,10
16.35873,0.4833333,1.961275,1.2763099782658571,-0.0038347707154928,0.4075344110930632,7.246817,67.87509,0.3109325,0.05394386,0.5570286,-0.0330361,16.5199996307492,10
16.4159,0.6833333,1.988393,1.7002467518141415,-0.2272042705038003,0.5442879485893162,10.86524,68.70045,0.5453342,0.08083643,0.5613372,-0.04950849,16.5399996303022,10
16.47307,0.8833333,2.015503,1.985087892914944,0.2362604624721239,0.5783355715862406,14.47887,69.55207,0.8367502,0.1076369,0.5650523,-0.0659239,16.5599996298552,10
16.71387,0.2833333,2.157855,2.305729661959255,0.6950207223090106,0.6197992879000327,3.62966,67.42727,0.1457152,0.02704878,0.55473,-0.01652066,16.5799996294081,10
16.77119,0.4833334,2.184908,2.903312227641507,0.2441005555485413,0.802919372944181,7.25587,68.23204,0.342716,0.05406117,0.5595873,-0.03301901,16.5999996289611,10
16.8285,0.6833334,2.211955,3.4899455079492085,-0.2115237288241392,0.9686435701121452,10.8779,69.05686,0.5934328,0.08100926,0.5638512,-0.04947767,16.6199996285141,10
17.04486,0.2833334,2.336858,3.819937092391356,0.2331243525854976,0.971501872678421,3.574293,69.12022,0.2300633,0.02682138,0.5669419,-0.01603858,16.639999628067,10
17.10151,0.4833335,2.36322,4.411587369338115,0.0327542289482328,1.137183801444106,7.143962,69.9302,0.511092,0.05360744,0.5717306,-0.0320558,16.65999962762,10
17.15815,0.6833335,2.389575,4.964778372880261,-0.1467080453083514,1.2750377837626927,10.70821,70.76513,0.846051,0.08033103,0.5759294,-0.04803536,16.6799996271729,10
17.21477,0.8833334,2.415924,5.48845863743886,-0.3596235721867385,1.3936634046931955,14.26582,71.63226,1.238834,0.1069619,0.5795346,-0.06396061,16.6999996267259,10
17.39253,0.2833332,2.523207,5.8257889454690925,0.300030245915255,1.3970152952316783,3.510749,70.03662,0.2901872,0.02653927,0.5735035,-0.01550496,16.7199996262789,10
17.44819,0.4833332,2.549261,6.521738448637596,0.0745702133681257,1.657270256141996,7.016054,70.84845,0.6306336,0.05304447,0.5782565,-0.03098968,16.7399996258318,10
17.50383,0.6833332,2.575308,7.1349290427271015,-0.1299815908368663,1.882962504594328,10.51473,71.68832,1.024621,0.07948708,0.5824317,-0.04643707,16.7599996253848,10
17.55946,0.8833333,2.601347,7.678446188337158,-0.3679865077528379,2.082918873498909,14.00613,72.56334,1.476492,0.1058433,0.5860255,-0.06183336,16.7799996249378,10
17.78851,0.2833335,2.739881,7.938707636893323,0.2665778083654889,2.1271766605033755,3.447468,69.38786,0.308455,0.0262635,0.5688663,-0.01490923,16.7999996244907,10
