pX,pY,pZ,aX,aY,aZ,reX,reY,reZ,rtX,rtY,rtZ,t,ID
-44.00041,0.23,-37.99972,3.042255569881114,-0.0423044240919875,6.342474870951598,0.01568644,0.009936067,0.02319506,0.0001369076,8.668083e-05,0.0002024032,0.379999991506338,2
-44.00082,0.43,-37.99944,3.299408506527492,-0.1140081813859103,6.638127015699219,0.0314397,0.009945523,0.04639364,0.0002743982,8.667996e-05,0.000404837,0.399999991059303,2
-44.00139,0.2833333,-37.999,3.518244885781641,0.0228826235282171,6.865537715828339,0.02350919,2.947416,0.0340022,0.0002127197,0.02571816,0.0002913508,0.419999990612268,2
-44.00196,0.4833333,-37.99856,3.780091482185071,-0.2962347038091097,7.079734334969409,0.04705827,2.947437,0.06803315,0.000425794,0.02571815,0.0005829433,0.439999990165234,2
-44.00253,0.6833333,-37.99812,3.996174092297295,-0.3774513697498013,7.2197706020161405,0.0705934,2.947471,0.1021286,0.000638761,0.02571814,0.0008751011,0.459999989718199,2
-43.9951,0.2833333,-37.96931,4.262909613791827,-0.6729773922052327,7.372037514586637,0.7558786,6.407215,0.4390396,0.006799988,0.05585751,0.003456639,0.479999989271164,2
-44.0013,0.4833334,-37.9552,4.474522517298588,-0.7289997763693525,7.4434706161292254,1.511681,6.415902,0.878154,0.01359927,0.05585262,0.006912414,0.499999988824129,2
-43.9715,0.2833333,-37.90268,4.745921773663064,-0.9977284339572106,7.549388565311652,1.299916,10.43568,0.05939561,0.01134379,0.09093098,-0.0005154797,0.519999988377094,2
-43.96835,0.4833334,-37.87999,4.952191747545157,-1.0253504902107748,7.566656845628188,2.599878,10.4377,0.1186322,0.02268635,0.09091335,-0.001032842,0.539999987930059,2
-43.96521,0.6833334,-37.85732,5.09556313673945,-0.8371997362952768,7.499868391494665,3.902397,10.44101,0.1770157,0.03404745,0.09088369,-0.001560557,0.559999987483025,2
-43.91648,0.2833333,-37.78123,5.275297550098422,-1.0978790534502998,7.437747087240048,2.494261,13.73098,0.01057835,0.02161978,0.1195085,-0.00251011,0.57999998703599,2
-43.90625,0.4833335,-37.73863,5.387870907452836,-1.1134788497694106,7.288771859993687,4.989932,13.73162,0.02054276,0.04324085,0.1194234,-0.005026148,0.599999986588955,2
-43.84527,0.2833331,-37.61281,5.436266898650551,-0.9093332765618982,7.059041157843495,3.634416,16.54403,0.05689,0.03145242,0.1437849,-0.004071298,0.61999998614192,2
-43.82805,0.4833334,-37.55136,5.569088375572228,-1.1500448949102584,6.895739053257103,7.272243,16.54945,0.1138979,0.06290218,0.1435675,-0.008145718,0.639999985694885,2
-43.81084,0.6833331,-37.48994,5.627969951424568,-1.141704578203026,6.645866514981954,10.91215,16.5586,0.1717647,0.09430645,0.143205,-0.01221517,0.65999998524785,2
-43.74606,0.283333,-37.35637,5.617060356817518,-0.9096464633750916,6.317169367037138,4.807388,19.5749,0.1571698,0.04156255,0.1697872,-0.005779125,0.679999984800816,2
-43.72041,0.4833333,-37.27604,5.627969611666018,-1.1184732043762862,5.997715942706591,9.617677,19.59485,0.3159599,0.08307615,0.1693378,-0.01155767,0.699999984353781,2
-43.69477,0.6833333,-37.19575,5.5678569947759655,-1.074275541740841,5.604717948153173,14.4296,19.62891,0.4793285,0.1244578,0.1685893,-0.01731849,0.719999983906746,2
-43.63675,0.2833333,-37.11659,5.548972212996809,-1.2292632937937698,5.251639491806827,3.653243,23.08224,0.1540793,0.03149953,0.1999273,-0.005060554,0.739999983459711,2
-43.61421,0.4833332,-37.05694,5.457043795766175,-1.129623718108633,4.829429780636431,7.304893,23.09703,0.3088665,0.06295267,0.199622,-0.01011791,0.759999983012676,2
-43.52131,0.2833333,-36.91816,5.298062165378234,-0.8006905108925096,4.348244781237376,3.670804,26.92349,0.1864957,0.03152701,0.2326256,-0.005874105,0.779999982565641,2
-43.49517,0.4833333,-36.85959,5.1646085633278105,-0.9070670043055508,3.900641176660642,7.340516,26.94153,0.3744164,0.06301241,0.2322667,-0.011741,0.799999982118607,2
-43.46904,0.6833338,-36.80104,4.966417141621129,-0.7548436849342601,3.404351383529999,11.0092,26.97195,0.5651491,0.09442444,0.231669,-0.01759657,0.819999981671572,2
-43.37386,0.2833331,-36.69333,4.816253465120234,-0.7962304644936908,2.97651714388352,3.641404,30.65521,0.1922984,0.0310851,0.2641525,-0.006780888,0.839999981224537,2
-43.34431,0.4833333,-36.63699,4.602172529407689,-0.5774147883828967,2.5101188022535794,7.28164,30.67365,0.3860029,0.0621289,0.2637514,-0.01355363,0.859999980777502,2
-43.22682,0.2833332,-36.50402,4.332198272651276,-0.1237300891911685,2.0174811172811715,3.58592,34.9031,0.2999161,0.03063222,0.2996733,-0.006887632,0.879999980330467,2
-43.19525,0.4833331,-36.44976,4.10021498005986,-0.0997789295691173,1.5937714331172046,7.170666,34.93143,0.6019759,0.06122472,0.2992301,-0.01376749,0.899999979883432,2
-43.16369,0.6833333,-36.39552,3.818773523941815,-0.0517483296077985,1.1585844352410746,10.75414,34.97921,0.9086093,0.0917474,0.2984923,-0.02063279,0.919999979436398,2
-43.05608,0.2833334,-36.2908,3.609123266160907,-0.0433849911229122,0.8348984034989329,3.531847,38.59754,0.386415,0.03019843,0.3302373,-0.007003445,0.939999978989363,2
-43.02284,0.4833334,-36.23848,3.360742154645166,-0.0177723737101998,0.5174609582740146,7.062503,38.63349,0.7755921,0.06035882,0.3297611,-0.01399876,0.959999978542328,2
-42.89989,0.2833333,-36.1073,3.0830805123396203,-0.0282264336505759,0.2201055081113665,3.481278,40.97686,0.4624199,0.02986532,0.3497391,-0.006853435,0.979999978095293,2
-42.86609,0.4833333,-36.05621,2.8606773565924826,-0.0480891928035857,0.0034081789619122,6.961317,41.01925,0.9279978,0.05969352,0.3492464,-0.01369959,0.999999977648258,2
-42.72595,0.2833333,-35.9002,2.625319869620739,-0.0507023662006653,-0.1951219036082037,3.435075,42.55897,0.4862387,0.02946773,0.3626328,-0.006925193,1.01999997720122,2
-42.6916,0.4833333,-35.85037,2.4507079784201835,-0.0360666325748491,-0.3040222968569104,6.868751,42.60287,0.9750358,0.05889608,0.3621342,-0.01384812,1.03999997675419,2
-42.65728,0.6833333,-35.80054,2.2571436847781925,-0.0041817385011084,-0.3973353869696368,10.30118,42.6765,1.468069,0.08825552,0.3613029,-0.02077901,1.05999997630715,2
-42.53224,0.283333,-35.67212,2.055272564777013,-0.0083630004688857,-0.4625860155229269,3.405548,43.40244,0.3462817,0.02872537,0.3695181,-0.008180969,1.07999997586012,2
-42.49578,0.4833333,-35.62482,1.8012017259916746,0.6183612623857551,-0.5513334303089685,6.809744,43.43335,0.6933708,0.05740988,0.3690234,-0.01636399,1.09999997541308,2
-42.45934,0.6833333,-35.57753,1.6576098160781925,0.331744026783239,-0.5060952334337259,10.21277,43.48545,1.045321,0.08603548,0.3681998,-0.02453029,1.11999997496605,2
-42.28665,0.2833333,-35.39828,1.448133741177898,0.5180014488522122,-0.5415559285971909,3.372635,43.13216,0.2175073,0.02806479,0.3673623,-0.009052315,1.13999997451901,2
-42.24918,0.4833335,-35.35275,1.3259883663371497,0.2711099561448209,-0.4852119047757242,6.743976,43.15139,0.4355461,0.05609194,0.3668829,-0.0181007,1.15999997407198,2
-42.21172,0.6833334,-35.30724,1.1916084169697996,0.0169009380818611,-0.4383453845828207,10.11431,43.1838,0.6565769,0.08406277,0.366085,-0.02713096,1.17999997362494,2
-42.0925,0.2833332,-35.18671,0.9983494530067744,0.4213009436573894,-0.4799307328005042,3.33133,42.6873,0.1278637,0.02747957,0.3637767,-0.009540481,1.19999997317791,2
-42.05473,0.4833333,-35.14248,0.8746503710518496,0.1524560114609964,-0.4745689247972358,6.661322,42.69846,0.2560102,0.05492331,0.363315,-0.01907343,1.21999997273088,2
-41.91659,0.2833335,-35.0004,0.7445575559866668,-0.1237068970115407,-0.500192024545111,3.290909,41.97854,0.02326891,0.02688207,0.35804,-0.01009588,1.23999997228384,2
-41.87848,0.4833336,-34.95745,0.6768813737576735,-0.1681367145699147,-0.4536595131371115,6.580852,41.98055,0.04666654,0.05373402,0.3575971,-0.02018063,1.25999997183681,2
-41.84039,0.6833338,-34.91452,0.6103371973060945,-0.1942719539777247,-0.4153388350836025,9.869548,41.98387,0.0698572,0.08052999,0.3568596,-0.03024902,1.27999997138977,2
-41.72137,0.2833333,-34.79461,0.4709113718236537,0.2247641594807251,-0.4727061158131,3.255821,41.25431,359.9482,0.02642801,0.3521551,-0.01043127,1.29999997094274,2
-41.68323,0.4833333,-34.75251,0.4137938920303767,-0.0294448473440682,-0.460926538960642,6.51069,41.24986,359.896,0.05282697,0.3517286,-0.02085117,1.3199999704957,2
-41.54601,0.2833333,-34.61129,0.3657607455352476,-0.2909723453969943,-0.4543223733466526,3.222022,39.61256,359.881,0.02609886,0.3387344,-0.01050281,1.33999997004867,2
-41.50857,0.483333,-34.56931,0.3514980302895338,-0.3207665482450432,-0.4076495155242767,6.443127,39.60247,359.7613,0.05216974,0.3383323,-0.02099437,1.35999996960163,2
-41.47114,0.683333,-34.52734,0.3413495906523565,-0.3322662621509238,-0.3675367853815672,9.663206,39.58548,359.64,0.07819133,0.3376627,-0.03146604,1.3799999691546,2
-41.35345,0.283333,-34.40796,0.2398986909890226,0.1014055005164121,-0.4180264906976632,3.189545,38.31079,359.8157,0.02576195,0.3280461,-0.01065071,1.39999996870756,2
-41.31643,0.4833331,-34.36629,0.2980564156173741,-0.1381678134535905,-0.3176784734065911,6.378067,38.29532,359.6303,0.05149578,0.3276637,-0.02129018,1.41999996826053,2
-41.17455,0.2833333,-34.22176,0.3570064310370213,-0.385059201532774,-0.2270873980795116,3.544508,39.51976,359.7983,0.0285108,0.3379681,-0.01211157,1.43999996781349,2
-41.13243,0.4833333,-34.17625,0.3359081746082495,0.0266581777266285,-0.1983508729905843,7.08804,39.50092,359.595,0.0569867,0.3374816,-0.02420847,1.45999996736646,2
-41.09032,0.6833333,-34.13076,0.41304066475967,-0.2348690655945086,-0.0777079888413325,10.63152,39.46904,359.3882,0.0854069,0.3366711,-0.0362861,1.47999996691942,2
-40.96907,0.2833333,-34.0098,0.3899617205547798,-0.0235219870824037,-0.0519086328145199,3.580128,40.99377,359.8282,0.02873513,0.3500291,-0.01234149,1.49999996647239,2
-40.92582,0.4833337,-33.96462,0.3718199471546199,0.1815529607777291,-0.02690497387632,7.159427,40.97752,359.6547,0.05743457,0.3495153,-0.02467132,1.51999996602535,2
-40.78345,0.2833333,-33.82141,0.3087151464533519,0.1679626633234789,-0.0529324211396655,3.577807,42.2837,359.8766,0.02872781,0.3605335,-0.01226305,1.53999996557832,2
-40.73985,0.4833333,-33.77668,0.2464035774137229,0.1758033867826746,-0.0839884429679109,7.154539,42.27204,359.752,0.05741829,0.3600057,-0.02451261,1.55999996513128,2
-40.69626,0.6833338,-33.73196,0.2849805902215792,-0.2751174910314471,-0.0227439596885083,10.73016,42.25236,359.6255,0.08604405,0.3591272,-0.03673474,1.57999996468425,2
-40.65269,0.8833338,-33.68725,0.2242712266504085,-0.0397256096054342,-0.0553480869706888,14.30476,42.22428,359.496,0.1145784,0.357899,-0.04891764,1.59999996423721,2
-40.50445,0.2833333,-33.53761,0.2809566468269153,-0.2374822943112482,0.026413125496763,3.596534,43.83604,0.02067472,0.02917962,0.3730906,-0.01154641,1.61999996379018,2
-40.46125,0.4833333,-33.49209,0.3382425510290332,-0.4425568739253888,0.1047207272021033,7.192214,43.83804,0.04193757,0.05832497,0.3725394,-0.02307527,1.63999996334314,2
-40.32727,0.2833333,-33.35612,0.2430217428218455,0.0109772944589505,0.0305424898693793,3.549115,44.52893,0.08182927,0.02892859,0.3786801,-0.01107227,1.65999996289611,2
-40.28486,0.4833333,-33.31098,0.2402200154546321,-0.208733724433369,0.0450435413785363,7.096847,44.53659,0.1644074,0.05781873,0.3781351,-0.02212845,1.67999996244907,2
-40.24247,0.6833333,-33.26584,0.2372604223283971,-0.4357627039206672,0.0560480941430228,10.64355,44.54953,0.2482457,0.08664519,0.3772279,-0.03316025,1.69999996200204,2
-40.12752,0.2833333,-33.15143,0.1461557104871715,-0.0041825245629988,-0.0171223496513306,3.613183,45.29049,0.08875291,0.02939337,0.3848102,-0.01142372,1.719999961555,2
-40.08379,0.4833332,-33.10597,0.2068620423667582,-0.2458463766931122,0.0586773722692868,7.225342,45.29895,0.1782011,0.05874927,0.3842362,-0.0228328,1.73999996110797,2
-39.94818,0.2833335,-32.96946,0.1477886771714125,-0.0146362875195604,0.0147205268315531,3.656049,45.74324,0.1077486,0.02975688,0.388442,-0.01153243,1.75999996066093,2
-39.90379,0.4833333,-32.92358,0.0855795584006031,0.2103014911042296,-0.0336201534173632,7.311084,45.75363,0.2163919,0.05947545,0.3878486,-0.02304964,1.7799999602139,2
-39.85942,0.6833339,-32.87772,0.1140116859686273,-0.2636187925680268,0.0072276748285133,10.96495,45.77116,0.3267476,0.08912405,0.3868605,-0.03454016,1.79999995976686,2
-39.74552,0.2833335,-32.76436,0.0510295642375453,-0.0512260608744742,-0.0397579438020798,3.625985,46.3333,0.1136348,0.02947622,0.3931809,-0.01153513,1.81999995931983,2
-39.70112,0.4833335,-32.71925,0.0982655326452075,-0.2719822528432832,0.0238625406761734,7.250917,46.34415,0.228121,0.05891437,0.3925899,-0.02305567,1.8399999588728,2
-39.56556,0.2833333,-32.58349,0.028160555966501,-0.0198646487334206,-0.0295617724453549,3.588941,47.72092,0.18907,0.02930502,0.4042644,-0.01115876,1.85999995842576,2
-39.52145,0.4833333,-32.53893,-0.0425947795493684,0.225980817058123,-0.0844543129157671,7.176778,47.7388,0.3795198,0.05857234,0.4036681,-0.02230368,1.87999995797873,2
-39.47735,0.6833338,-32.49439,-0.1037758325221105,0.4132832912843903,-0.1311394107576475,10.76342,47.76897,0.5729495,0.08777301,0.4026754,-0.03342313,1.89999995753169,2
-39.29297,0.2833333,-32.30962,-0.121037761967365,0.3563092883886004,-0.1352177765016655,3.527456,48.87833,0.2563821,0.02894547,0.4134671,-0.01069773,1.91999995708466,2
-39.24956,0.4833333,-32.26578,-0.1297216941760552,0.3218114013382792,-0.13320407116462,7.053803,48.90215,0.5146422,0.05785486,0.4128765,-0.02138213,1.93999995663762,2
-39.20616,0.6833333,-32.22195,-0.1464379191276137,0.3097892992608737,-0.1418936398804966,10.57896,48.94234,0.7767926,0.08670065,0.4118931,-0.03204302,1.95999995619059,2
-39.07936,0.2833333,-32.09436,-0.1658865781267948,0.3202438758955916,-0.1561127614914177,3.470899,48.96405,0.2821183,0.02858152,0.4141486,-0.0103106,1.97999995574355,2
-39.03692,0.4833333,-32.05088,-0.1788894338409505,0.2998584962284835,-0.1669196793238576,6.940685,48.98984,0.5662423,0.05712821,0.413575,-0.02060857,1.99999995529652,2
-38.9945,0.6833336,-32.00742,-0.195135746589564,0.2752914985440693,-0.1810627298677829,10.40885,49.03336,0.8546749,0.08561107,0.4126204,-0.03088165,2.01999995484948,2
-38.88866,0.2833335,-31.90103,-0.2069972749455217,0.2732002740716972,-0.1924921027780861,3.428495,48.76832,0.2907453,0.02829328,0.4125974,-0.0100405,2.03999995440245,2
-38.84702,0.4833336,-31.85779,-0.3246081712635416,0.7204619678638777,-0.3100418599814531,6.855614,48.79458,0.5836796,0.05655118,0.4120397,-0.02006655,2.05999995395541,2
-38.72096,0.2833332,-31.73128,-0.3070774144032953,0.4986607166812546,-0.2916675175013843,3.392513,47.71723,0.2133216,0.02782403,0.4042528,-0.01027124,2.07999995350838,2
-38.67967,0.4833333,-31.6887,-0.2888108450760924,0.2737225610997159,-0.2716526726664767,6.783683,47.73626,0.4279431,0.05561253,0.4037193,-0.02053049,2.09999995306134,2
-38.53308,0.2833336,-31.54042,-0.1484194432325338,-0.4355888030395621,-0.1281438903437504,3.356062,46.48586,0.1564805,0.027445,0.3944241,-0.01030176,2.11999995261431,2
-38.4925,0.4833336,-31.49813,-0.1293563143525276,-0.2451493352930998,-0.1049322399361578,6.710869,46.49969,0.3141166,0.05485683,0.3939158,-0.02058983,2.13999995216727,2
-38.45193,0.6833335,-31.45584,-0.1104153504487825,-0.0609827810371439,-0.0820821623144105,10.06468,46.52301,0.4739081,0.08221383,0.3930694,-0.03085722,2.15999995172024,2
-38.32611,0.2833332,-31.32963,-0.1914570849946031,0.5448332977310906,-0.1593597642115582,3.315413,45.2331,0.06661043,0.02692722,0.3843854,-0.0105884,2.1799999512732,2
-38.28587,0.483333,-31.28807,-0.1442974402948422,0.2414900170225767,-0.1117219834098008,6.629864,45.2389,0.1336226,0.05382404,0.3839027,-0.0211651,2.19999995082617,2
-38.24563,0.683333,-31.24653,-0.0949965849746092,-0.0649894765455368,-0.0642090682292355,9.943027,45.24867,0.2014,0.0806651,0.383099,-0.03172094,2.21999995037913,2
-38.07109,0.2833336,-31.07141,-0.0168167934644927,-0.1355546621843795,0.0143387427673786,3.274611,43.5379,359.9524,0.02638093,0.3707242,-0.01098206,2.2399999499321,2
-38.03113,0.4833336,-31.03057,0.0580702411751588,-0.1836430404384401,0.0880523297986144,6.548279,43.53379,359.9045,0.05273265,0.3702701,-0.02195222,2.25999994948506,2
-37.99118,0.6833339,-30.98973,0.0284445853976222,0.2176205770840439,0.0566395702099846,9.820696,43.52686,359.8558,0.07903096,0.3695141,-0.03290118,2.27999994903803,2
-37.87267,0.2833334,-30.8702,0.0801166852969643,-0.0501781388028936,0.1060540094254598,3.233939,41.96524,359.8958,0.02602097,0.3579659,-0.01095324,2.29999994859099,2
-37.83359,0.4833336,-30.82947,0.1320201694772649,-0.3211135311891708,0.1537442611429469,6.466888,41.95636,359.7909,0.05201328,0.3575379,-0.02189453,2.31999994814396,2
-37.69585,0.2833333,-30.68968,0.1096335312226486,0.0707418026715189,0.1276141545284304,3.205771,39.91528,359.8116,0.02573097,0.3412346,-0.01109277,2.33999994769692,2
-37.65745,0.4833329,-30.64889,0.227440494356081,-0.2064667913030838,0.2444454966443316,6.410628,39.89938,359.622,0.0514348,0.3408327,-0.02217347,2.35999994724989,2
-37.61906,0.6833328,-30.60811,0.2364237189957307,-0.0066189691553559,0.2519239742472088,9.614406,39.87262,359.4301,0.07709007,0.3401636,-0.03323358,2.37999994680285,2
-37.58068,0.8833327,-30.56734,0.2430169513539795,0.1911380306547312,0.2563893685326377,12.8168,39.83467,359.235,0.1026762,0.3392284,-0.04425915,2.39999994635582,2
-37.42942,0.2833337,-30.41632,0.3268052329945448,-0.3057812239847216,0.3413685387202392,3.451874,40.43335,359.7997,0.0276593,0.3454635,-0.01204786,2.41999994590878,2
-37.38765,0.4833336,-30.37271,0.2480661118018829,-0.1122060288849102,0.2637432070200596,6.902839,40.41513,359.598,0.05528653,0.3449917,-0.02408163,2.43999994546175,2
-37.25289,0.2833333,-30.23804,0.1659009961183741,0.0792783566835428,0.182709286920808,3.492134,41.74303,359.8274,0.02793421,0.3561505,-0.01226206,2.45999994501472,2
-37.21004,0.4833336,-30.19455,0.211963708576242,-0.4239128996738672,0.236537755899068,6.983597,41.72712,359.6533,0.05583621,0.3556532,-0.02451338,2.47999994456768,2
-37.1672,0.6833333,-30.15109,0.1558039210038018,-0.2366103322317945,0.1885130336734271,10.47571,41.70026,359.4764,0.08369182,0.3548246,-0.03674464,2.49999994412065,2
-37.05302,0.2833333,-30.03744,0.2056405842611894,-0.4782746682129249,0.251776414497364,3.552325,42.88507,359.8732,0.02844513,0.365424,-0.01236052,2.51999994367361,2
-37.00921,0.4833332,-29.99352,0.247725699875005,-0.723075238484578,0.3069099744525267,7.104106,42.87318,359.7452,0.05685816,0.3648965,-0.02470863,2.53999994322658,2
-36.96541,0.6833332,-29.94963,0.2156433284648713,-0.3050852154506852,0.2880397151732126,10.65483,42.85311,359.6153,0.0852083,0.3640184,-0.03702952,2.55999994277954,2
-36.80244,0.2833332,-29.78531,0.2751261375535634,-0.5561580018366522,0.3637735500713717,3.589609,44.29582,0.01688737,0.02906466,0.3768096,-0.01167122,2.57999994233251,2
-36.75891,0.4833331,-29.74027,0.23546453706426,-0.330174758379614,0.3401025112639857,7.178469,44.29745,0.03433835,0.05809617,0.3762552,-0.02332508,2.59999994188547,2
-36.61006,0.2833336,-29.5894,0.1967223406210934,-0.1062826691781841,0.3161287911518649,3.547156,44.88448,0.07884777,0.02886838,0.3815492,-0.01117949,2.61999994143844,2
-36.56736,0.4833336,-29.54458,0.1796010102310745,-0.0968741829680248,0.3196781179942682,7.093007,44.89186,0.15847,0.05769919,0.3810008,-0.02234262,2.6399999409914,2
-36.52468,0.6833332,-29.49977,0.151578544350599,-0.0618531812727164,0.3098792463411008,10.63788,44.90433,0.2393528,0.08646706,0.3800877,-0.03348095,2.65999994054437,2
-36.48201,0.8833336,-29.45497,0.1225766329910413,-0.0545355003251557,0.2965320409857455,14.18161,44.9221,0.3220095,0.1151427,0.3788112,-0.04458453,2.67999994009733,2
-36.3253,0.2833333,-29.298,0.0808072837419331,-0.0482633349132722,0.2728304500445873,3.622326,45.72855,0.1010908,0.02946476,0.3883295,-0.01146783,2.6999999396503,2
-36.28126,0.4833333,-29.25261,0.0365493599627697,-0.0163786269226733,0.2434853302839812,7.243616,45.73819,0.202956,0.05889172,0.3877472,-0.02292103,2.71999993920326,2
-36.13915,0.2833332,-29.10845,-0.0002917218981437,-0.0121971864509842,0.218490191444701,3.641941,45.93667,0.1027957,0.02960722,0.3899989,-0.0115744,2.73999993875623,2
-36.09473,0.4833335,-29.06297,-0.051054993825268,-0.0090614360114742,0.1863326462785153,7.282771,45.94653,0.2063927,0.05917557,0.3894077,-0.02313364,2.75999993830919,2
-36.05033,0.6833334,-29.01749,-0.1095231183755913,0.019686880615612,0.1440947787076965,10.92257,45.96319,0.3116548,0.08867596,0.3884234,-0.03466634,2.77999993786216,2
-35.93104,0.2833338,-28.89634,-0.1656898143718876,0.0207316583525419,0.1018509522946118,3.613442,46.55,0.1230328,0.02938624,0.394917,-0.01147232,2.79999993741512,2
-35.88675,0.4833341,-28.85143,-0.2304113691766076,0.0207314463083623,0.0539084342133158,7.225832,46.56171,0.2469539,0.05873462,0.3943274,-0.02293042,2.81999993696809,2
-35.84246,0.683334,-28.80653,-0.2926582011460681,0.046343888614748,0.00603777942014,10.83718,46.58147,0.3728324,0.08801641,0.3933459,-0.03436259,2.83999993652105,2
-35.67473,0.2833332,-28.63489,-0.4607008347453316,0.5244452125405495,-0.1506199896381908,3.558103,48.21426,0.2217424,0.02912758,0.4081916,-0.01091481,2.85999993607402,2
-35.63102,0.4833335,-28.59064,-0.4904693110763958,0.3366200499355941,-0.165798676497495,7.115057,48.23505,0.4451363,0.05821801,0.4075992,-0.0218157,2.87999993562698,2
-35.58733,0.6833335,-28.54641,-0.5123081278802673,0.1487949774973271,-0.1780228491855489,10.6709,48.27013,0.671947,0.08724389,0.4066129,-0.03269251,2.89999993517995,2
-35.47738,0.2833334,-28.4324,-0.4069169873893372,-0.5202673570446259,-0.0619283562359811,3.501455,48.48289,0.2569557,0.02877748,0.4103276,-0.01050008,2.91999993473291,2
-35.43461,0.4833334,-28.38855,-0.4211947913991629,-0.2864442167870691,-0.069456769633291,7.001814,48.50659,0.5157843,0.05751959,0.40975,-0.0209871,2.93999993428588,2
-35.39186,0.6833334,-28.34471,-0.4289895319368675,-0.0557568834212083,-0.0765134849174238,10.50062,48.5466,0.7786093,0.08619689,0.4087886,-0.03144878,2.95999993383884,2
-35.23389,0.2833333,-28.17957,-0.5326164369805788,0.5997161739875398,-0.182938327713817,3.450045,48.1814,0.2850557,0.02849567,0.4079277,-0.0100175,2.97999993339181,2
-35.19235,0.4833332,-28.13572,-0.509341713448233,0.3491657512930611,-0.1592044161520682,6.898632,48.20733,0.5724971,0.05695552,0.4073696,-0.02001855,2.99999993294477,2
-35.04861,0.2833332,-27.98474,-0.4792806091806803,0.0986159940026216,-0.1335827974029939,3.408482,47.38416,0.2468446,0.02809879,0.4015839,-0.00997853,3.01999993249774,2
-35.00776,0.4833335,-27.94131,-0.4191650825637474,0.0871165307340059,-0.071557697087158,6.815533,47.40633,0.49545,0.0561617,0.4010484,-0.01994337,3.0399999320507,2
-34.96693,0.6833335,-27.89788,-0.3577014114638608,0.1012296746853453,-0.0102466559799268,10.22152,47.44368,0.7475358,0.08416696,0.4001568,-0.02988784,3.05999993160367,2
-34.84391,0.2833338,-27.76839,-0.2857016623625945,0.0876394829047135,0.0599018446393913,3.368065,45.9473,0.1637208,0.02761415,0.3901001,-0.01015538,3.07999993115664,2
-34.80367,0.4833336,-27.72548,-0.3370586057204576,0.7133183277953624,0.0038387227289007,6.734903,45.96181,0.3285649,0.05519474,0.3895936,-0.020298,3.0999999307096,2
-34.76344,0.6833334,-27.68258,-0.2693141407357196,0.4340198381527671,0.070195457004587,10.10071,45.98629,0.4957021,0.08271971,0.3887503,-0.03041985,3.11999993026257,2
-34.59436,0.2833336,-27.50365,-0.3198911552862391,0.6359585048531214,0.014255946221894,3.324957,44.08053,0.06848837,0.02711567,0.375084,-0.01033309,3.13999992981553,2
-34.55487,0.4833336,-27.46115,-0.2726666776867787,0.413111514242652,0.058020984893421,6.64863,44.08653,0.1375144,0.05419842,0.3746103,-0.0206527,3.1599999293685,2
-34.51538,0.6833336,-27.41865,-0.2230517460827847,0.191310414209021,0.0991714334617519,9.971371,44.09665,0.2074838,0.08122814,0.3738217,-0.0309519,3.17999992892146,2
-34.40032,0.2833332,-27.29731,-0.162070052970261,-0.0838070695043514,0.1470094714345649,3.283386,42.75072,359.9694,0.02658092,0.3643339,-0.01069079,3.19999992847443,2
-34.36104,0.4833329,-27.25561,-0.2176345051661776,0.49378284794304,0.0761481225408609,6.565838,42.74807,359.9385,0.05313241,0.3638853,-0.02136992,3.21999992802739,2
-34.32177,0.6833329,-27.21392,-0.1621621014006287,0.1663956145010376,0.1194572488037692,9.847019,42.74358,359.9071,0.07962953,0.3631383,-0.03202876,3.23999992758036,2
-34.16071,0.2833332,-27.04211,-0.2159291176410605,0.3202461884316264,0.0491636974209335,3.23859,40.54992,359.8843,0.02615778,0.3464139,-0.01073857,3.25999992713332,2
-34.12245,0.4833332,-27.00049,-0.1826821236331142,0.0493108660007644,0.0686666742284352,6.476192,40.54005,359.768,0.05228677,0.3459984,-0.02146539,3.27999992668629,2
-34.0842,0.6833334,-26.95887,-0.1485678044656921,-0.2205793892014654,0.0855422720728071,9.712777,40.52346,359.6502,0.07836606,0.3453067,-0.03217159,3.29999992623925,2
-33.97712,0.2833333,-26.84351,-0.1949943983253632,0.1765018496801577,0.018174747414104,3.198068,38.40008,359.8165,0.02582614,0.328781,-0.01068867,3.31999992579222,2
-33.93996,0.4833336,-26.80177,-0.0985008633206305,-0.0912985041043199,0.1025176630998849,6.395124,38.38464,359.6319,0.0516243,0.3283958,-0.0213655,3.33999992534518,2
-33.90282,0.6833335,-26.76003,-0.0030493067909276,-0.3580533875671432,0.1836835750380103,9.59121,38.35864,359.4451,0.07737487,0.3277543,-0.03202261,3.35999992489815,2
-33.74546,0.2833333,-26.59172,-0.0479897357928251,0.0421646895911562,0.1192388798884671,3.44985,38.81974,359.7994,0.02780887,0.3322222,-0.01165329,3.37999992445111,2
-33.70496,0.4833332,-26.54698,-0.0162027887933611,-0.2224987569195264,0.1375273592860075,6.898746,38.80151,359.5975,0.05558516,0.3317691,-0.02329279,3.39999992400408,2
-33.562,0.2833332,-26.39399,0.01400413287217,-0.4861173146183728,0.1541395397169367,3.490101,40.05582,359.8262,0.02809136,0.342362,-0.01185353,3.41999992355704,2
-33.52045,0.4833332,-26.3493,-0.0281925367970963,-0.0827635198638892,0.0949032385201178,6.979536,40.03981,359.6508,0.05615039,0.3418844,-0.02369695,3.43999992311001,2
-33.47892,0.6833335,-26.30463,0.0648421865260786,-0.3442902326389898,0.182439457652066,10.46957,40.01278,359.4727,0.08416261,0.3410889,-0.03552048,3.45999992266297,2
-33.4374,0.8833336,-26.25998,0.1577547274495074,-0.6047715457447874,0.2708366249369796,13.95852,39.97422,359.2905,0.1120887,0.3399765,-0.04730786,3.47999992221594,2
-33.28723,0.2833333,-26.09991,0.1214726964949086,-0.1982806983172769,0.224490815205236,3.554086,41.48632,359.8922,0.02866692,0.3540362,-0.01186294,3.4999999217689,2
-33.24473,0.4833336,-26.0547,0.1602885944069818,-0.4566709468985704,0.2576769837218933,7.107608,41.4762,359.7833,0.05730136,0.3535249,-0.02371375,3.51999992132187,2
-33.10873,0.2833333,-25.90718,0.080090175416668,-0.2338236928445519,0.1659167121241545,3.59379,42.45668,0.03491532,0.02933915,0.3618987,-0.01106989,3.53999992087483,2
-33.06686,0.4833332,-25.86049,-0.000580377274634,-0.0088860684188726,0.0733399136252899,7.186886,42.46005,0.07077942,0.05864593,0.361365,-0.02212129,3.5599999204278,2
-33.025,0.6833332,-25.81381,0.0481190183035948,-0.4744419343065978,0.1199713818874492,10.77895,42.46575,0.1072419,0.08788676,0.3604763,-0.03314747,3.57999991998076,2
-32.98315,0.8833334,-25.76715,-0.0001918677344114,-0.2453226779247962,0.0651291866638601,14.36995,42.47386,0.1445064,0.1170325,0.3592338,-0.04413841,3.59999991953373,2
-32.84159,0.2833333,-25.61502,0.0588641959101998,-0.440988906970843,0.1260434333495084,3.561964,43.26209,0.08645152,0.02916828,0.3684283,-0.01075563,3.61999991908669,2
-32.8001,0.4833335,-25.56873,0.114180180068736,-0.6356093131304059,0.1826766875219725,7.122656,43.2702,0.1735314,0.05829798,0.3678943,-0.02149715,3.63999991863966,2
-32.67039,0.2833332,-25.42878,0.0207055739708046,-0.1632580548912556,0.082065113429298,3.637648,43.86332,0.1005065,0.02976958,0.3732863,-0.01104137,3.65999991819263,2
-32.62766,0.4833332,-25.3818,-0.0742239043518324,0.2845261111409096,-0.0205133664387382,7.274235,43.87296,0.2018264,0.05950068,0.3727218,-0.02206822,3.67999991774559,2
-32.58495,0.6833332,-25.33482,-0.0458458071042109,-0.1972344184119904,0.0079716763446562,10.91042,43.88921,0.3045847,0.08916803,0.3717816,-0.03307332,3.69999991729856,2
-32.54224,0.8833334,-25.28787,-0.1057157666992303,0.016726232495688,-0.0563534063734927,14.5455,43.91241,0.4098727,0.1187369,0.3704674,-0.04404177,3.71999991685152,2
-32.40664,0.2833336,-25.1424,-0.1636892637903244,0.2338235105070418,-0.1184154358297391,3.641346,44.24765,0.1094969,0.0297918,0.3763911,-0.01108066,3.73999991640449,2
-32.36367,0.4833338,-25.09555,-0.0817502356391095,-0.2385276296877941,-0.0286881661120013,7.281622,44.25816,0.219848,0.05954485,0.3758206,-0.02214695,3.75999991595745,2
-32.24207,0.2833336,-24.96491,-0.1421748379910283,-0.015158094791104,-0.0894257122189721,3.592783,45.36782,0.1550162,0.02944435,0.3854179,-0.01084166,3.77999991551042,2
-32.19935,0.4833332,-24.91895,-0.2043936268127559,0.2113478153523464,-0.1516078942355498,7.184561,45.38248,0.3111912,0.05885163,0.3848487,-0.0216699,3.79999991506338,2
-32.15665,0.683333,-24.873,-0.1830340437924746,-0.2515948788806504,-0.1250207775311338,10.77523,45.40725,0.4697874,0.08819225,0.383901,-0.0324738,3.81999991461635,2
-31.98718,0.2833331,-24.69055,-0.2352298422860208,-0.0188165121783793,-0.1761348022411724,3.540417,46.80297,0.2391565,0.02917854,0.3969221,-0.01035457,3.83999991416931,2
-31.94501,0.4833331,-24.64523,-0.2767859625570885,0.2170977223978939,-0.2164619722964857,7.079693,46.82528,0.4801117,0.05832035,0.3963514,-0.0206958,3.85999991372228,2
-31.90285,0.683333,-24.59992,-0.1705890977444681,-0.2364364627130216,-0.1029922273594294,10.61781,46.86292,0.7247129,0.08739778,0.3954011,-0.03101429,3.87999991327524,2
-31.78901,0.2833331,-24.47661,-0.1903074640459294,0.0057504104978043,-0.1244078356927325,3.488572,47.04025,0.2726894,0.0288591,0.3988188,-0.009966278,3.89999991282821,2
-31.74771,0.4833326,-24.43164,-0.0932833307351721,-0.1758023718633282,-0.0243007420569973,6.976073,47.06531,0.5473509,0.05768317,0.3982611,-0.0199203,3.91999991238117,2
-31.70643,0.6833326,-24.38669,-0.115374727526067,0.124927536994268,-0.0528123121422972,10.46199,47.1076,0.8262146,0.08644243,0.3973328,-0.02985023,3.93999991193414,2
-31.54574,0.2833333,-24.21202,-0.1399115146649165,0.4287933905635676,-0.0850714712486713,3.436659,46.75698,0.2904431,0.02852946,0.3965539,-0.009573045,3.9599999114871,2
-31.50554,0.4833333,-24.16725,-0.1584402120655141,0.6835245346612674,-0.1117314443816113,6.871843,46.78329,0.5832114,0.05702277,0.3960154,-0.01913085,3.97999991104007,2
-31.46535,0.6833332,-24.12249,-0.0482988637990686,-0.0169008608960946,-0.0014584440348954,10.30588,46.82766,0.8801261,0.08545631,0.3951187,-0.02866893,3.99999991059303,2
-31.35841,0.2833333,-24.00704,-0.0594306866298239,0.19183338737506,-0.0192383832965887,3.39464,45.68936,0.2130956,0.02801776,0.3880126,-0.009786295,4.019999910146,2
-31.31863,0.4833333,-23.96301,0.0311929009763645,-0.0231726664252713,0.0736295447164074,6.787912,45.70839,0.4275262,0.05599966,0.3875,-0.01956085,4.03999990969896,2
-31.27886,0.6833332,-23.91899,0.0068551774980853,0.244104444477147,0.0438701111897046,10.18013,45.74048,0.6449297,0.08392437,0.3866466,-0.02931554,4.05999990925193,2
-31.12564,0.2833336,-23.75254,-0.023460005178908,0.5145180690561558,0.0079967400705065,3.351175,43.94769,0.1273189,0.02753173,0.3739929,-0.009911331,4.07999990880489,2
-31.08667,0.4833336,-23.7089,-0.0511904355223293,0.7357974249784973,-0.0250350735258209,6.701048,43.95894,0.2556539,0.05502995,0.3735127,-0.01980885,4.09999990835786,2
-30.94748,0.2833333,-23.55736,0.0413766755021534,0.0019188356908145,0.0659574657249564,3.308184,42.66971,0.04130108,0.02701827,0.3636566,-0.01016615,4.11999990791082,2
-30.90889,0.4833335,-23.51444,0.0217770504560981,0.1771992465198779,0.0375815551285221,6.615356,42.6733,0.08283053,0.05400567,0.363202,-0.02032101,4.13999990746379,2
-30.87031,0.6833333,-23.47153,0.1006186219176541,-0.0712602628862089,0.1114933782031748,9.921325,42.67934,0.1248594,0.08093818,0.3624453,-0.03045563,4.15999990701675,2
-30.83175,0.8833334,-23.42863,0.074691804165905,0.1625634274317208,0.07316831813554,13.22629,42.68795,0.1677013,0.1077951,0.3613871,-0.04056209,4.17999990656972,2
-30.68477,0.2833333,-23.27016,0.0450352216489875,0.3995234396804554,0.030636742370202,3.263446,41.01722,359.9306,0.0264582,0.3502221,-0.01054329,4.19999990612268,2
-30.64649,0.4833331,-23.228,0.1647721091470515,-0.0529653904524732,0.1446294366902556,6.525959,41.01125,359.8607,0.05288741,0.349796,-0.02107499,4.21999990567565,2
-30.60822,0.6833331,-23.18585,0.2799755373978456,-0.5300216052460899,0.253056441744814,9.787186,41.00119,359.7899,0.07926302,0.3490865,-0.03158664,4.23999990522861,2
-30.44933,0.2833331,-23.01306,0.2880440710522336,-0.1266675361583626,0.2473224500349715,3.215544,38.16456,359.8172,0.02599422,0.3268389,-0.01067939,4.25999990478158,2
-30.41216,0.4833331,-22.97091,0.381944107118958,-0.3881955532578028,0.3311051300153309,6.430078,38.1491,359.6334,0.05196007,0.3264517,-0.02134688,4.27999990433455,2
-30.37501,0.6833332,-22.92879,0.3794009185806928,-0.16848600778504,0.3120433688813513,9.643568,38.12306,359.4472,0.07787703,0.3258071,-0.03199434,4.29999990388751,2
-30.26681,0.2833333,-22.81162,0.3730831258612745,0.0533149252441967,0.2899187541587515,3.309715,37.65602,359.8049,0.02678428,0.32264,-0.0109304,4.31999990344048,2
-30.22883,0.4833333,-22.76797,0.5085538221223551,-0.4153773603202527,0.4186382826086969,6.618458,37.63903,359.6086,0.05353856,0.3222349,-0.02184871,4.33999990299344,2
-30.19085,0.6833333,-22.72432,0.4878070676876191,-0.1893942226239528,0.3814151727551618,9.926193,37.6104,359.4098,0.0802407,0.3215606,-0.03274526,4.35999990254641,2
-30.03339,0.2833333,-22.55597,0.4553709989204293,0.0386799349055354,0.334133493755516,3.54221,39.25776,359.818,0.02857733,0.3358117,-0.0118776,4.37999990209937,2
-29.99178,0.4833332,-22.5101,0.4199329804618905,0.2165745572247127,0.2863105706820796,7.083428,39.24077,359.6346,0.05711942,0.3353292,-0.02374107,4.39999990165234,2
-29.84778,0.2833333,-22.35621,0.4110949895326179,0.1585539906816929,0.2667679902245581,3.56338,40.55127,359.8511,0.02871474,0.3464069,-0.01199252,4.4199999012053,2
-29.80538,0.4833331,-22.31066,0.3937239627474156,0.1313738935630192,0.2415471210350723,7.125897,40.53726,359.7007,0.05739377,0.3459035,-0.02397372,4.43999990075827,2
-29.76298,0.6833328,-22.26513,0.470766852472174,-0.3451590068250082,0.3185474973829798,10.68735,40.5136,359.548,0.0860091,0.3450656,-0.03592831,4.45999990031123,2
-29.7206,0.8833327,-22.2196,0.4022756678995556,-0.125971654031929,0.241311886157284,14.24769,40.47984,359.3917,0.1145329,0.3438942,-0.04784466,4.4799998998642,2
-29.57122,0.2833333,-22.05977,0.3259722147331629,0.0963518650128463,0.1581116655755217,3.595759,42.07351,359.9792,0.02921779,0.3587953,-0.01143096,4.49999989941716,2
-29.52892,0.4833336,-22.01344,0.3959416713110713,-0.3707722970467564,0.2309404516617377,7.190725,42.07157,359.9586,0.0584012,0.3582656,-0.02284601,4.51999989897013,2
-29.39312,0.2833336,-21.86688,0.3781617146259144,-0.1421759529358148,0.2134080134324989,3.563645,42.84968,0.07607245,0.02918738,0.3650845,-0.01074022,4.53999989852309,2
-29.35181,0.4833336,-21.82038,0.3539376882954634,0.08955663801058,0.1919075090216928,7.126051,42.85686,0.1531129,0.05833771,0.3645549,-0.02146309,4.55999989807606,2
-29.31052,0.6833338,-21.77391,0.4206393646118442,-0.3681591303577309,0.2672597253799154,10.68741,42.86897,0.2313173,0.0874231,0.3636732,-0.03216226,4.57999989762902,2
-29.26923,0.8833339,-21.72744,0.3530868283578421,-0.1301543920327899,0.2003161409794387,14.24772,42.88626,0.3113806,0.1164158,0.3624405,-0.04282714,4.59999989718199,2
-29.12566,0.2833334,-21.57582,0.2828556357356291,0.1109865520952282,0.1322622779247844,3.593339,43.7991,0.09791932,0.02940878,0.3727722,-0.01090147,4.61999989673495,2
-29.08349,0.4833333,-21.52939,0.2377734228794565,0.1428714112348189,0.0881194277512769,7.185634,43.80837,0.1965741,0.05878013,0.3722221,-0.02178917,4.63999989628792,2
-28.952,0.2833335,-21.38953,0.1789714027969964,0.2055956635482282,0.0309083662583979,3.650248,44.24675,0.1103568,0.02986664,0.3763825,-0.01110272,4.65999989584088,2
-28.90893,0.4833335,-21.34255,0.1163471600665602,0.245843911962253,-0.0289007939804832,7.299459,44.25735,0.2215998,0.05969464,0.3758093,-0.02219093,4.67999989539385,2
-28.86587,0.6833336,-21.29559,0.1404090954357642,-0.4300145403591757,0.0036577708097773,10.94757,44.27529,0.3346147,0.08945325,0.3748549,-0.0332536,4.69999989494681,2
-28.68706,0.2833333,-21.1063,0.0397246823380434,-0.1977592672194397,-0.0944849870190864,3.619666,45.17443,0.1341843,0.02960932,0.3838633,-0.01104979,4.71999989449978,2
-28.64391,0.4833333,-21.06013,-0.0598288575103893,0.0365870782853841,-0.188846136413602,7.238248,45.18723,0.2693752,0.05918025,0.3832882,-0.02208555,4.73999989405274,2
-28.60078,0.6833336,-21.01397,-0.0169091468104696,-0.4195604424355361,-0.1311118554733639,10.85569,45.20883,0.4067152,0.08868317,0.3823307,-0.03309591,4.75999989360571,2
-28.47735,0.2833332,-20.88418,-0.114613075987382,-0.1810324826594611,-0.2222543937659367,3.565034,46.6566,0.2009078,0.02925681,0.3957568,-0.01070869,4.77999989315867,2
-28.43452,0.4833331,-20.83895,-0.212883251982312,0.059586565424217,-0.3124969290965005,7.128949,46.67546,0.4033141,0.05847638,0.3951806,-0.02140381,4.79999989271164,2
-28.3917,0.6833332,-20.79372,-0.2204408846145469,-0.3902884896776546,-0.3098175932112603,10.69173,46.70731,0.6088071,0.08763055,0.3942212,-0.03207525,4.8199998922646,2
-28.22047,0.2833336,-20.6131,-0.2983258702489451,-0.1454883017650414,-0.3810572066183937,3.509694,47.497,0.2636378,0.02895599,0.4024682,-0.0102277,4.83999989181757,2
-28.17844,0.4833336,-20.56834,-0.3621347639080703,0.101402642014505,-0.4381367902660535,7.018314,47.52136,0.5291825,0.05787642,0.4018989,-0.02044291,4.85999989137053,2
-28.13642,0.6833338,-20.52358,-0.2773904714159556,-0.3421999459002003,-0.343531833624521,10.52538,47.56249,0.7987768,0.08673117,0.4009511,-0.03063384,4.8799998909235,2
-28.09441,0.8833339,-20.47885,-0.3167450434335173,-0.0911267598187995,-0.3808238970391997,14.03122,47.62115,1.074478,0.115496,0.3996261,-0.04079321,4.89999989047647,2
-27.95217,0.2833333,-20.32831,-0.3476794752614331,0.1620372483388942,-0.4099209059443467,3.451904,47.43991,0.2913216,0.02859673,0.4020127,-0.009789388,4.91999989002943,2
-27.91126,0.4833335,-20.28383,-0.3457166640120803,0.2048993235318159,-0.406619890327768,6.902272,47.46641,0.5849386,0.05715637,0.401462,-0.01956342,4.9399998895824,2
-27.78243,0.2833331,-20.14741,-0.3491162618774481,0.2775556380750519,-0.4080567030789339,3.408921,46.78224,0.2511205,0.02816914,0.3967692,-0.009798083,4.95999988913536,2
-27.74209,0.4833331,-20.10349,-0.3489524111412478,0.3266904095743639,-0.4046790065722483,6.816419,46.80478,0.5039625,0.05630215,0.3962399,-0.01958328,4.97999988868833,2
-27.70176,0.683333,-20.05958,-0.2579057631642065,-0.341325924448367,-0.3042672366393759,10.2228,46.84278,0.7603545,0.08437703,0.3953586,-0.02934827,4.99999988824129,2
-27.52563,0.2833336,-19.87293,-0.2839382196882383,-0.1022749205925399,-0.3263505663428425,3.365132,45.05638,0.1544722,0.02763774,0.3829358,-0.0100051,5.01999988779426,2
-27.48598,0.4833333,-19.82955,-0.3039017087124556,0.1378211549349145,-0.3406435636578599,6.728977,45.07007,0.310092,0.05524169,0.3824397,-0.01999673,5.03999988734722,2
-27.44635,0.6833333,-19.78618,-0.2879171320079692,0.1665699713555338,-0.3310906684795007,10.09177,45.09315,0.4678044,0.08278966,0.3816136,-0.0299684,5.05999988690019,2
-27.32454,0.2833333,-19.65789,-0.275044177310928,0.2240675655165658,-0.3260296426178541,3.318102,43.81816,0.0663999,0.02707698,0.3729628,-0.01026557,5.07999988645315,2
-27.2853,0.4833333,-19.61532,-0.2561793715917915,0.2569976327539116,-0.3160486690964212,6.635217,43.82396,0.1332001,0.05412317,0.3724937,-0.02051972,5.09999988600612,2
-27.24606,0.6833333,-19.57276,-0.0702302430289165,-0.4282697537362517,-0.1577019515996269,9.951027,43.83371,0.2007628,0.08111306,0.3717127,-0.03075361,5.11999988555908,2
-27.07705,0.2833333,-19.39487,0.0010261753583726,-0.2075139174685042,-0.1179248070697909,3.275453,42.14277,359.9527,0.02652057,0.3593949,-0.01066,5.13999988511205,2
-27.03809,0.4833333,-19.35306,0.0747514012978314,0.0132418465787706,-0.0749932309560499,6.54994,42.13869,359.9052,0.05301173,0.3589545,-0.02130801,5.15999988466501,2
-26.99914,0.6833334,-19.31125,0.1422310811233096,0.0216051003853741,-0.059731372947251,9.823158,42.13181,359.8569,0.07944891,0.3582212,-0.03193583,5.17999988421798,2
-26.88468,0.2833333,-19.19026,0.2068975166379054,0.057671734092558,-0.0461714613193748,3.2342,40.58467,359.8962,0.02615461,0.3466959,-0.01063585,5.19999988377094,2
-26.8466,0.4833333,-19.14858,0.2774900294050333,0.0681253496461812,-0.0248647848026166,6.467433,40.57583,359.7918,0.05228055,0.3462813,-0.02126036,5.21999988332391,2
-26.80853,0.6833333,-19.10691,0.3402517959402793,0.0796252821300602,-0.0511850777965356,9.699697,40.56097,359.6862,0.07835735,0.3455911,-0.0318644,5.23999988287687,2
-26.64729,0.2833333,-18.93599,0.3916383854092053,0.1188288032482328,-0.0846876747714908,3.193419,38.04265,359.793,0.02575433,0.3258405,-0.01078825,5.25999988242984,2
-26.61012,0.4833332,-18.89434,0.4403013658407779,0.1324193580478012,-0.1158152985351357,6.38586,38.02525,359.5848,0.05148099,0.3254595,-0.02156512,5.2799998819828,2
-26.57295,0.6833334,-18.85269,0.3984820372384838,0.7873699058431254,-0.2354413637653358,9.577249,37.99598,359.3741,0.07715985,0.324825,-0.03232153,5.29999988153577,2
-26.45979,0.2833333,-18.73455,0.465414409606776,0.5394336762569478,-0.2832554008460484,3.538286,39.03619,359.7904,0.02848757,0.3339979,-0.01203768,5.31999988108873,2
-26.41801,0.4833331,-18.68885,0.5327716631032189,0.2946335901847797,-0.320851983746321,7.075626,39.01665,359.5793,0.05694061,0.3335187,-0.02406098,5.3399998806417,2
-26.37625,0.683333,-18.64317,0.4551474203727608,0.7188959160149717,-0.501020573678657,10.6129,38.98361,359.3645,0.08533856,0.3327204,-0.03606381,5.35999988019466,2
-26.21739,0.2833333,-18.47767,0.4969386622686293,0.4803677024653969,-0.6122685329494626,3.574711,40.83116,359.8408,0.02874666,0.3486975,-0.01218122,5.37999987974763,2
-26.17449,0.4833335,-18.4323,0.5342837454397156,0.24497545540692,-0.7119655990038378,7.148605,40.81612,359.6799,0.05745747,0.3481874,-0.02435193,5.39999987930059,2
-26.13161,0.6833334,-18.38694,0.5759953270244615,-0.041642102095039,-0.7905225137871739,10.72146,40.79073,359.5165,0.08610441,0.3473383,-0.03649548,5.41999987885356,2
-25.95897,0.2833334,-18.20619,0.639958654009785,-0.1137754343248859,-0.9004633261063635,3.58896,42.34668,359.9371,0.02900223,0.3610296,-0.01182231,5.43999987840652,2
-25.91597,0.4833332,-18.16064,0.6987431286123211,-0.1582055171562767,-0.9951654362683692,7.177039,42.34073,359.8737,0.05796897,0.3604983,-0.02363009,5.45999987795949,2
-25.87299,0.683333,-18.11511,0.65585038951372,0.2519443430200185,-1.1754340546010305,10.76409,42.33069,359.8093,0.08687061,0.3596139,-0.03541133,5.47999987751245,2
-25.7566,0.2833335,-17.99212,0.6833957995500342,-0.0017418216635647,-1.3123680473563706,3.589534,43.59266,0.06949767,0.02930551,0.3711084,-0.01106633,5.49999987706542,2
-25.7143,0.4833333,-17.94592,0.7130872203854501,-0.2533368085697971,-1.4222519370516356,7.178111,43.59927,0.1399638,0.0585759,0.3705623,-0.02211534,5.51999987661839,2
-25.67201,0.6833333,-17.89973,0.5910249295764523,0.1630849591503598,-1.6671061980594004,10.76563,43.61043,0.2115318,0.0877803,0.3696529,-0.03313943,5.53999987617135,2
-25.50487,0.2833333,-17.73434,0.5718652657107981,-0.0843291085957551,-1.841976898153682,3.567235,45.46878,0.1090345,0.02907428,0.386245,-0.01115139,5.55999987572432,2
-25.46183,0.4833333,-17.68934,0.551723438297671,-0.329652451053206,-1.9885675082729364,7.133317,45.47898,0.218277,0.05810905,0.3856831,-0.02229325,5.57999987527728,2
-25.4188,0.6833332,-17.64436,0.4410665543539771,0.0930419055573681,-2.1999393313127946,10.69836,45.49617,0.3291919,0.08707928,0.3847476,-0.03341047,5.59999987483025,2
-25.23335,0.2833332,-17.47377,0.4587887172393827,-0.148099548731171,-2.308949658230244,3.645324,47.14515,0.1373563,0.0296311,0.3996728,-0.0116215,5.61999987438321,2
-25.18833,0.4833331,-17.42875,0.4692035275757469,-0.3871501859091241,-2.378582170160975,7.289602,47.15834,0.2757584,0.05922373,0.3990654,-0.02322822,5.63999987393618,2
-25.14332,0.6833329,-17.38375,0.324328384485046,0.0418169555192967,-2.561714892045117,10.93281,47.18061,0.4163708,0.08874796,0.3980542,-0.03480833,5.65999987348914,2
-25.01441,0.2833332,-17.27142,0.1722387213337839,0.4472624279317787,-2.705364116611649,3.62206,48.7392,0.1405549,0.02929325,0.4123794,-0.0119234,5.67999987304211,2
-24.96851,0.4833332,-17.22791,0.1294953888774479,-0.0757915962032805,-2.737401596335076,7.243029,48.75261,0.2821596,0.05854842,0.4117607,-0.02383166,5.69999987259507,2
-24.92262,0.6833329,-17.18442,-0.002712501535651,0.0979209475079646,-2.82031911167214,10.86294,48.77525,0.4259919,0.08773682,0.4107305,-0.035713,5.71999987214804,2
-24.74512,0.2833334,-17.04155,-0.0317014410882201,-0.1510613335612164,-2.767858641272141,3.569549,52.49091,0.2491566,0.02889531,0.4419413,-0.0118237,5.739999871701,2
-24.69835,0.4833336,-17.0002,-0.0572022103364844,-0.3969070499900254,-2.674346321975772,7.13797,52.51434,0.5001592,0.05775379,0.4412951,-0.02363257,5.75999987125397,2
-24.65159,0.6833336,-16.95886,-0.2177798434217699,0.0263101871806096,-2.687543458595309,10.70521,52.55388,0.7550134,0.08654752,0.4402192,-0.03541516,5.77999987080693,2
-24.60485,0.8833336,-16.91753,-0.3712905249077209,0.4270508635963181,-2.662803269341124,14.27103,52.6101,1.014848,0.1152434,0.4387146,-0.04716688,5.7999998703599,2
-24.4598,0.2833333,-16.81916,-0.3923323639945799,-0.0996622762605025,-2.4724602874459123,3.50539,55.98917,0.3254077,0.02833897,0.46909,-0.01185015,5.81999986991286,2
-24.41227,0.4833333,-16.78026,-0.4852529981408864,0.0714363646182016,-2.3345443837840243,7.009639,56.01922,0.6531312,0.05664274,0.4684261,-0.02368595,5.83999986946583,2
-24.36475,0.6833332,-16.74138,-0.566607476071411,0.2477624196556024,-2.1653871156518605,10.51234,56.06984,0.9853387,0.084881,0.4673207,-0.0354977,5.85999986901879,2
-24.20638,0.2833332,-16.6487,-0.5091427891806823,-0.2632690497391281,-1.8669454574211295,3.446697,58.13661,0.3482059,0.02776108,0.48555,-0.01195651,5.87999986857176,2
-24.15851,0.4833332,-16.61181,-0.5742848082526315,-0.076489163183633,-1.6804049573313815,6.891927,58.16813,0.6979529,0.05548244,0.4848845,-0.02390396,5.89999986812472,2
-24.11065,0.6833332,-16.57493,-0.630364865819935,0.1155177661483343,-1.471463671092664,10.33593,58.22128,1.052701,0.08314521,0.4837766,-0.03582639,5.91999986767769,2
-23.94157,0.2833333,-16.47717,-0.5425577371629515,-0.3798327883550401,-1.1602956944681182,3.39849,59.58007,0.2845652,0.02696761,0.4965391,-0.0125781,5.93999986723065,2
-23.89294,0.4833334,-16.44288,-0.5966681795983426,-0.1773718139798031,-0.9875435544248656,6.795641,59.60542,0.5698416,0.05389624,0.4958794,-0.02514941,5.95999986678362,2
-23.84433,0.6833334,-16.4086,-0.6466221553831915,0.0303163360262118,-0.8032189769886919,10.19166,59.64817,0.8591108,0.08076961,0.4947813,-0.03769483,5.97999986633658,2
-23.73111,0.2833333,-16.35458,-0.6161064803177503,-0.4493525976720919,-0.5978148821142195,3.356547,59.57711,0.1981046,0.02627579,0.4965428,-0.01305017,5.99999986588955,2
-23.68236,0.4833335,-16.32196,-0.6564898586328418,-0.2312103338870412,-0.4648554022410014,6.711759,59.59455,0.3968263,0.05251594,0.4959017,-0.02608914,6.01999986544251,2
-23.63362,0.6833334,-16.28934,-0.6811377119687378,-0.0078407184065932,-0.3176391659642394,10.06596,59.62396,0.5982702,0.07870378,0.4948344,-0.03910196,6.03999986499548,2
-23.49076,0.2833332,-16.216,-0.5635081899131933,-0.4718292362230142,-0.1174971991629938,3.312902,58.55662,0.06653329,0.02549765,0.4888332,-0.01363055,6.05999986454844,2
-23.44204,0.4833331,-16.18487,-0.5724455645728419,-0.2380059552705732,-0.040502842639583,6.624806,58.56242,0.1334822,0.05096629,0.4882203,-0.02724572,6.07999986410141,2
-23.39335,0.6833332,-16.15375,-0.5689675957365203,0.0010443977298469,0.0458259704531336,9.935403,58.57211,0.2007328,0.07637997,0.4871996,-0.04083712,6.09999986365438,2
-23.23039,0.2833333,-16.05969,-0.4078888797800246,-0.4472625704565628,0.2331509033290402,3.265029,55.92093,359.9213,0.02484149,0.4686891,-0.01396383,6.11999986320734,2
-23.18918,0.4833333,-16.02501,-0.4007858963514792,-0.1977576464840687,0.2791417176518056,6.324514,55.59004,0.2402215,0.049775,0.4654965,-0.02387172,6.13999986276031,2
-23.15048,0.6833335,-15.98908,-0.3923847390816881,0.056974231579207,0.3211333996657011,9.3112,55.19281,0.6836829,0.07468549,0.4612747,-0.03232876,6.15999986231327,2
-23.11261,0.8833336,-15.95285,-0.3749006511067989,0.264662679440212,0.3636072687488667,12.27684,54.80819,1.14852,0.09951306,0.4566498,-0.04036699,6.17999986186624,2
-22.97516,0.2833334,-15.85594,-0.330456461239315,0.2395730135883848,0.4280514499045829,3.108187,49.35521,359.9357,0.0244098,0.4173721,-0.01183256,6.1999998614192,2
-22.93674,0.4833335,-15.82182,-0.2847932002891262,0.2484589981999344,0.4828419495587059,6.049106,49.12094,359.9812,0.04792191,0.4150822,-0.02208044,6.21999986097217,2
-22.80393,0.2833332,-15.69951,-0.1316969283987568,-0.1888705231586852,0.6386543470866428,3.174582,46.2798,359.9439,0.02527912,0.3928392,-0.01133536,6.23999986052513,2
-22.76304,0.4833335,-15.66201,-0.1333132120675806,0.0726565860885009,0.6625037504183542,6.348214,46.03059,359.8731,0.05053038,0.3904333,-0.02266646,6.2599998600781,2
-22.72339,0.6833335,-15.62456,-0.1422040049594528,0.3404560004841611,0.6671727646133121,9.467882,45.8514,359.8356,0.07545308,0.3883169,-0.03346456,6.27999985963106,2
-22.68424,0.8833332,-15.58718,-0.1495817136627089,0.5622572680448887,0.657243059785019,12.56561,45.70742,359.8048,0.1001874,0.3862181,-0.04406295,6.29999985918403,2
-22.53728,0.2833333,-15.4365,-0.0384698843156101,-0.1679628245785255,0.7528800112273739,3.481788,46.76699,359.851,0.0273685,0.3967362,-0.01325059,6.31999985873699,2
-22.49309,0.4833332,-15.39679,-0.0402148057965696,0.0141127858978865,0.7625684613534389,6.880871,46.70382,359.7722,0.05430854,0.3957718,-0.02560873,6.33999985828996,2
-22.45078,0.6833333,-15.3568,-0.0422492799636842,0.2024607660768979,0.7546438459339484,10.21329,46.68072,359.7773,0.080959,0.3947779,-0.03704201,6.35999985784292,2
-22.29818,0.2833333,-15.23058,0.0855251099083709,-0.2955033706663403,0.8617410099083624,3.496607,49.5522,359.9521,0.02752572,0.4188899,-0.01316445,6.37999985739589,2
-22.25452,0.4833332,-15.19082,0.0832286731914067,-0.094610278654497,0.8815319451503623,6.876399,49.52971,0.06482806,0.0546931,0.4181104,-0.02460915,6.39999985694885,2
-22.21204,0.6833334,-15.15081,0.076149438014049,0.1125554226332774,0.879013733221111,10.21561,49.52105,0.2309214,0.08168563,0.4169996,-0.03546541,6.41999985650182,2
-22.05199,0.2833335,-15.04142,0.207620278890257,-0.3665911125265109,0.9992885456134156,3.49297,53.92332,0.1989098,0.02795123,0.4531357,-0.01227173,6.43999985605478,2
-22.00842,0.4833333,-15.00228,0.1894063634256788,-0.1468805512628155,1.0183689586203517,6.829581,53.91308,0.5449325,0.05524373,0.4522521,-0.02276973,6.45999985560775,2
-21.96615,0.6833332,-14.96291,0.1572899726022072,0.0791022601781652,1.0102308267348246,10.11472,53.93118,0.9468789,0.08229851,0.4510253,-0.03263611,6.47999985516071,2
-21.86109,0.2833335,-14.91971,0.1192634121957034,0.2590868954255885,0.9811626189001216,3.455624,56.4829,0.219599,0.02746859,0.4729213,-0.01257981,6.49999985471368,2
-21.81645,0.4833335,-14.88158,0.1145184140513571,0.2073390284994261,1.0242447516080393,6.790751,56.24748,0.623376,0.05479211,0.4702588,-0.02312804,6.51999985426664,2
-21.77316,0.6833336,-14.8437,0.0982646004794354,0.1906122085697129,1.0447619686544964,10.05935,56.11919,1.051932,0.08166479,0.4678485,-0.03316859,6.53999985381961,2
-21.61992,0.2833332,-14.77429,0.0783237794485032,0.1555909179925236,1.049790752301453,3.540464,57.00432,0.1971719,0.02796804,0.4769168,-0.01322975,6.55999985337257,2
-21.57358,0.4833332,-14.73665,0.072721631477453,0.1289332544336305,1.1233574765237917,6.940532,56.67292,0.5543312,0.05556875,0.4735147,-0.0244804,6.57999985292554,2
-21.5292,0.6833332,-14.69962,0.0513097169294631,0.1372971970789041,1.1762184525542114,10.22738,56.51882,0.9321284,0.08234219,0.4709256,-0.03506329,6.5999998524785,2
-21.35713,0.2833334,-14.58112,0.0223598147624137,0.1273662186788348,1.2163121213715158,3.506953,54.91917,0.1873565,0.02790529,0.4608619,-0.01265985,6.61999985203147,2
-21.30984,0.4833335,-14.54298,-0.0060958693981589,0.1257984056610298,1.3182867196287589,6.980421,54.65576,0.4126152,0.05573326,0.4580327,-0.02475486,6.63999985158443,2
-21.26517,0.6833333,-14.50569,-0.0496014980647316,0.1592518439303879,1.3935482901495284,10.30174,54.60417,0.6797359,0.08248575,0.4563483,-0.0359294,6.6599998511374,2
-21.22123,0.8833331,-14.46826,-0.0958709840884424,0.1744105515934245,1.4484076388236886,13.59402,54.55205,0.9758318,0.1090637,0.4541444,-0.04672058,6.67999985069036,2
-21.07426,0.2833334,-14.33894,-0.0532936193254691,-0.5223561809922161,1.5757277192505723,3.485733,53.66476,0.1880788,0.02787988,0.4511279,-0.01226444,6.69999985024333,2
-21.02963,0.4833332,-14.30085,-0.1220223648149598,-0.3068274484832458,1.6149889970563365,6.836468,53.704,0.4324639,0.0548964,0.4506799,-0.02357021,6.7199998497963,2
-20.89347,0.2833335,-14.16322,-0.1866632574565727,-0.0850263713615369,1.641288660608183,3.309788,53.36418,0.3143319,0.02703516,0.44878,-0.01051799,6.73999984934926,2
-20.8519,0.4833335,-14.12429,-0.216974728924697,-0.0693448130197683,1.700779920101814,6.54831,53.45926,0.6875516,0.05370381,0.4487326,-0.02033811,6.75999984890223,2
-20.81094,0.6833336,-14.08546,-0.2508384805211925,-0.0196877733969512,1.7344474567826431,9.757003,53.59746,1.083774,0.08015426,0.4484864,-0.0299294,6.77999984845519,2
-20.76984,0.8833336,-14.04661,-0.2778696529320967,0.0106290051867616,1.7497934093871663,12.97204,53.75167,1.491832,0.1065985,0.4478154,-0.03952269,6.79999984800816,2
-20.62719,0.2833332,-13.89942,-0.155159947859957,-0.672024347620262,1.9059202229572705,3.301849,52.26364,0.3920178,0.02737116,0.4401639,-0.009618936,6.81999984756112,2
-20.58656,0.4833333,-13.85876,-0.1513805435003234,-0.4434280582191571,1.904743203528275,6.567483,52.33362,0.81239,0.05453015,0.4398865,-0.018907,6.83999984711409,2
-20.54593,0.6833332,-13.8181,-0.1483360542968377,-0.2096045667906536,1.872080907840722,9.832023,52.42773,1.239983,0.08163936,0.4392404,-0.02817931,6.85999984666705,2
-20.39133,0.2833332,-13.65775,-0.1352417512636243,-0.0228247521942749,1.8150294370346745,3.368057,50.75687,0.2962724,0.02765916,0.4283399,-0.0102604,6.87999984622002,2
-20.34977,0.4833332,-13.61669,-0.1342570438828296,-0.0688228464973108,1.7581490999942009,6.699924,50.8479,0.6161599,0.05507921,0.4282891,-0.02023837,6.89999984577298,2
-20.30903,0.6833333,-13.57563,-0.1350637961919574,-0.0808449531919468,1.6668497849125783,9.994715,50.96351,0.974109,0.08227638,0.4279043,-0.02983083,6.91999984532595,2
-20.14178,0.2833333,-13.40375,-0.1276873594053853,-0.1122073748514683,1.5483165225509588,3.343814,48.53142,0.1862569,0.02726608,0.4107502,-0.01050931,6.93999984487891,2
-20.10083,0.4833333,-13.36273,-0.1279690366626482,-0.1362521471871071,1.46209697232152,6.657951,48.632,0.3973848,0.05434273,0.410888,-0.02075596,6.95999984443188,2
-20.06072,0.6833332,-13.32171,-0.1354893132784091,-0.1263208267634377,1.3391699611686896,9.935399,48.7506,0.6488141,0.08120197,0.4107083,-0.03059996,6.97999984398484,2
-20.02083,0.8833331,-13.28069,-0.1399909310518445,-0.13572946377412,1.1871815286403642,13.2027,48.88675,0.9182535,0.1079472,0.4101985,-0.04032181,6.99999984353781,2
-19.87921,0.2833332,-13.13616,-0.0730814531822794,-0.1378203335037248,1.1616886870915213,3.297708,46.44339,0.09143264,0.02675733,0.3941055,-0.01061232,7.01999984309077,2
-19.83912,0.4833332,-13.09542,-0.0118938489679401,-0.1059353782734462,1.1064734805444214,6.570217,46.55666,0.204162,0.05334259,0.3944543,-0.02101269,7.03999984264374,2
-19.79944,0.6833333,-13.05469,0.0538962116136048,-0.093390781653956,1.0306740809587005,9.825086,46.68047,0.3404564,0.0797998,0.3944997,-0.03120973,7.0599998421967,2
-19.64473,0.2833334,-12.8961,0.0011893378626197,0.5667863207109438,0.9053477995026906,3.232197,44.39328,359.9872,0.02607043,0.3776391,-0.0107576,7.07999984174967,2
-19.60584,0.4833336,-12.85591,0.0562212054716937,0.330349250265928,0.8913298323739021,6.436023,44.51636,0.01050272,0.05198719,0.3781787,-0.02117831,7.09999984130263,2
-19.56708,0.6833335,-12.81569,0.1128895767388797,0.1033211269701628,0.8660125762986546,9.635805,44.63516,0.04682524,0.07785246,0.3783665,-0.03151738,7.1199998408556,2
-19.40007,0.2833335,-12.64216,0.0265225103187169,0.5516283264537358,0.7411836316583873,3.203396,41.57389,359.8745,0.02574331,0.3547837,-0.01094315,7.13999984040856,2
-19.36213,0.4833335,-12.60176,0.057097163982732,0.3434171130278686,0.7454010893235505,6.37705,41.6859,359.7873,0.05132208,0.3553527,-0.02152264,7.15999983996153,2
-19.32436,0.6833337,-12.56143,0.0815078222954355,0.1446148206159815,0.7381164221910712,9.541831,41.80531,359.711,0.07680129,0.3557399,-0.03202211,7.17999983951449,2
-19.21087,0.2833333,-12.44101,0.1090915117943431,-0.0991398913123323,0.7292047385045226,3.173287,39.68201,359.818,0.02550614,0.339322,-0.01089103,7.19999983906746,2
-19.17312,0.4833333,-12.40038,0.1592151229224043,-0.1221389896454264,0.7689190538387631,6.34603,39.79716,359.6422,0.05098522,0.3399953,-0.0217706,7.21999983862042,2
-19.13538,0.6833333,-12.35976,0.1976729588869723,-0.1111618900682949,0.7948966001547628,9.518183,39.90322,359.4715,0.07641773,0.340406,-0.03263004,7.23999983817339,2
-18.97223,0.2833336,-12.18431,0.1232410787328746,0.3606669421031859,0.69804279912778,3.523678,40.23478,359.7953,0.02825516,0.3438332,-0.01225105,7.25999983772635,2
-18.92978,0.4833336,-12.13959,0.045460825847865,0.8152465586813167,0.5935192538605882,7.046872,40.34589,359.5971,0.05647633,0.3444038,-0.02448732,7.27999983727932,2
-18.88736,0.6833335,-12.09488,0.078396714281645,0.3475991310890848,0.610162548333653,10.57073,40.44549,359.4037,0.08464562,0.3446462,-0.03670344,7.29999983683228,2
-18.72013,0.2833333,-11.90819,0.1120789651209897,-0.1372976193382323,0.6243909984944978,3.558861,41.47308,359.8453,0.02856251,0.3539395,-0.01225661,7.31999983638525,2
-18.67702,0.4833332,-11.8634,0.0339144366099404,0.2655341621116512,0.516695139018605,7.117301,41.58828,359.6973,0.05709082,0.3544789,-0.02450061,7.33999983593822,2
-18.63393,0.6833332,-11.81863,0.0824742611202253,0.0108022664506262,0.5453353695665228,10.67499,41.69514,359.5551,0.08555576,0.3546748,-0.03671709,7.35999983549118,2
-18.59085,0.8833331,-11.77387,0.1304260049528203,-0.2355662114485177,0.5686079639452934,14.2319,41.79425,359.4179,0.1139299,0.3545271,-0.04889453,7.37999983504415,2
-18.45271,0.2833333,-11.61606,0.0504958209778259,0.1923552635565822,0.4533714998386049,3.594272,42.58683,359.9728,0.02913368,0.3629725,-0.01160968,7.39999983459711,2
-18.40997,0.4833333,-11.57015,0.1080813050988869,-0.0372865778824629,0.4874050540439523,7.187862,42.71353,359.9539,0.05823424,0.3634813,-0.02320168,7.41999983415008,2
-18.36725,0.6833333,-11.52426,0.160028461319829,-0.2585651205622369,0.511308965971601,10.78047,42.84016,359.943,0.08726928,0.3636315,-0.03476747,7.43999983370304,2
-18.21531,0.2833332,-11.35156,0.0641286413046948,0.1944464774877289,0.3787767542479408,3.555733,43.22929,0.07502915,0.02908413,0.3681659,-0.01081989,7.45999983325601,2
-18.17383,0.4833332,-11.3054,-0.0358509034885603,0.6302088886931432,0.239537892665572,7.109975,43.36519,0.1591174,0.05813114,0.3686732,-0.02162132,7.47999983280897,2
-18.13236,0.6833332,-11.25927,-0.021276882298121,0.1437444188994151,0.2229686925616718,10.66298,43.50758,0.2525681,0.08711383,0.3688244,-0.03239878,7.49999983236194,2
-17.96449,0.2833334,-11.07053,-0.0049171163308212,-0.3599692890511167,0.2046871773430503,3.624655,44.01537,0.1019071,0.02965442,0.3745173,-0.01102707,7.5199998319149,2
-17.92186,0.4833334,-11.02376,-0.0992121783324151,0.0240450342108504,0.0712474156618814,7.248034,44.15357,0.2127439,0.05927073,0.3749879,-0.02203996,7.53999983146787,2
-17.87925,0.6833333,-10.977,-0.0632874514025036,-0.2495039542669831,0.0788856006890981,10.87071,44.30015,0.3333859,0.08882367,0.3750817,-0.03303098,7.55999983102083,2
-17.83665,0.8833333,-10.93026,-0.0260472229453814,-0.5146898527192562,0.0857102234264228,14.49202,44.45656,0.4652743,0.1182792,0.3747993,-0.04398575,7.5799998305738,2
-17.69638,0.2833332,-10.77287,-0.1157678281686802,-0.1055858068919203,-0.0386524479121295,3.63761,44.4195,0.1130348,0.02975665,0.3777787,-0.01108444,7.59999983012676,2
-17.65342,0.4833334,-10.72611,-0.1995207139383641,0.2862685200638286,-0.1572710428102066,7.273845,44.55829,0.2350852,0.05947427,0.3782347,-0.02215435,7.61999982967973,2
-17.61046,0.6833335,-10.67936,-0.1034015231561635,-0.244103356814651,-0.0779539862343643,10.90873,44.70625,0.367294,0.08912343,0.3783082,-0.03319879,7.63999982923269,2
-17.45575,0.2833333,-10.50731,-0.1574611673331816,-0.071436414624131,-0.1535688028431368,3.589831,46.06718,0.1895028,0.02947163,0.3910306,-0.01073426,7.65999982878566,2
-17.41299,0.4833333,-10.46143,-0.214215218736042,0.1116847261108299,-0.2312725569137885,7.178136,46.21267,0.3884658,0.05890562,0.3914717,-0.02145464,7.67999982833862,2
-17.37025,0.6833333,-10.41556,-0.2637191712604956,0.2529890526309893,-0.3002027774781046,10.76484,46.37213,0.5985715,0.08827285,0.3915266,-0.03215097,7.69999982789159,2
-17.2015,0.2833333,-10.22868,-0.278738040927406,0.166742918734758,-0.3286665444072811,3.527756,47.19772,0.2586707,0.02910963,0.4000764,-0.01025483,7.71999982744455,2
-17.15946,0.4833334,-10.1835,-0.2871230814457917,0.1196995683321877,-0.3490380494679392,7.053802,47.3489,0.5270874,0.05818285,0.4005155,-0.0204967,7.73999982699752,2
-17.11744,0.6833335,-10.13834,-0.2793638761672259,0.0585431657130821,-0.3507634156667061,10.57804,47.51818,0.8074442,0.087192,0.4005722,-0.03071598,7.75999982655048,2
-17.07542,0.8833336,-10.09318,-0.2771963037682301,0.0099311159584931,-0.3576240763316214,14.1,47.70737,1.102217,0.1161067,0.4002467,-0.04090184,7.77999982610345,2
-16.93526,0.2833334,-9.936649,-0.2751530220143046,0.0005219553711794,-0.3630326412089397,3.466419,47.31871,0.2950433,0.02873605,0.4010419,-0.00978022,7.79999982565641,2
-16.89435,0.4833334,-9.891817,-0.2646191742226893,-0.0230000476535426,-0.3570739959221809,6.930754,47.47229,0.6001009,0.05743558,0.401494,-0.01954537,7.81999982520938,2
-16.85345,0.6833334,-9.846997,-0.2545755805878187,-0.0339769026916378,-0.357040557583125,10.39311,47.64587,0.9173104,0.08607312,0.4015752,-0.02928938,7.83999982476234,2
-16.69932,0.2833333,-9.675879,-0.2524355373427465,-0.0057508317117234,-0.3623576977919471,3.415305,46.55576,0.2588037,0.02826608,0.3949525,-0.009702835,7.85999982431531,2
-16.65922,0.4833333,-9.63158,-0.2497522550313053,0.0083622223342782,-0.3631869795772324,6.828566,46.70525,0.5269887,0.05649572,0.3954297,-0.01939217,7.87999982386827,2
-16.61913,0.6833332,-9.587295,-0.2380771931343215,-0.0449535767865288,-0.3496894415199598,10.24012,46.87217,0.8065362,0.08466696,0.3955528,-0.02906146,7.89999982342124,2
-16.45167,0.2833333,-9.401917,-0.2221348423188374,-0.1123825123665697,-0.3369405936499481,3.366985,44.85493,0.1598262,0.02768804,0.3813106,-0.009919493,7.91999982297421,2
-16.41226,0.4833334,-9.358265,-0.2060021657358692,-0.140608534734879,-0.3199177575198977,6.732194,44.99491,0.3281219,0.05534076,0.3818253,-0.0198261,7.93999982252717,2
-16.37287,0.6833335,-9.314625,-0.1810794477372699,-0.1829476001723757,-0.2890305617127033,10.09602,45.14601,0.5061659,0.08293778,0.3820088,-0.0297128,7.95999982208014,2
-16.33349,0.8833336,-9.270997,-0.151652515861544,-0.2127415037715511,-0.2610368925469277,13.45839,45.30957,0.6954603,0.1104552,0.3818612,-0.03957092,7.9799998216331,2
-16.19231,0.2833333,-9.115607,-0.1233186569188244,-0.2033324931135884,-0.2330762235188643,3.315672,43.20653,0.04744283,0.0270508,0.3680122,-0.01026684,7.99999982118607,2
-16.15335,0.4833332,-9.072838,-0.0874236283703755,-0.2080364167149581,-0.1956132998879134,6.630267,43.33596,0.1024624,0.05407112,0.3685614,-0.02052199,8.01999982073903,2
-16.11441,0.6833332,-9.030079,-0.0535612532317291,-0.200195868449207,-0.1676027996065503,9.943376,43.46957,0.1653789,0.08103473,0.3688009,-0.03075682,8.039999820292,2
-15.95986,0.2833333,-8.860689,-0.0287746041744139,-0.1531525238835128,-0.1483415278990607,3.266078,41.55608,359.935,0.02644336,0.3546197,-0.01063997,8.05999981984496,2
-15.92125,0.4833332,-8.818765,-0.0046550753759859,-0.1202221002481675,-0.1284912263851625,6.531342,41.67538,359.8767,0.05285758,0.3552013,-0.02126817,8.07999981939793,2
-15.88266,0.6833332,-8.77685,0.0272142238676149,-0.1547207677848471,-0.0987035031681964,9.795437,41.79216,359.8246,0.07921801,0.3554934,-0.03187615,8.09999981895089,2
-15.84408,0.883333,-8.734946,0.0599109048621819,-0.2033322244429837,-0.0741962253659593,13.0587,41.90712,359.7789,0.1055066,0.3554958,-0.0424551,8.11999981850386,2
-15.65144,0.2833333,-8.522848,0.0910915222469697,-0.2127409808047449,-0.0503680255810099,3.210944,38.14389,359.7952,0.02589533,0.3266737,-0.01084344,8.13999981805682,2
-15.61408,0.4833333,-8.480953,0.1290849169923262,-0.236262900806419,-0.017814174722857,6.421343,38.25095,359.5961,0.05176271,0.3273082,-0.02167496,8.15999981760979,2
-15.57673,0.6833334,-8.439071,0.1649515626346502,-0.2472395543415625,0.0076349137659166,9.631124,38.34745,359.4016,0.07758153,0.3276838,-0.03248601,8.17999981716275,2
-15.53939,0.8833333,-8.397201,0.1945528254909891,-0.2190134034748304,0.0283954528146122,12.84001,38.43383,359.211,0.1033308,0.3278006,-0.04326401,8.19999981671572,2
-15.40051,0.2833335,-8.24567,0.2263465502377482,-0.2049002849618219,0.0540384275661471,3.452742,38.77031,359.7995,0.02783788,0.3318153,-0.01164913,8.21999981626868,2
-15.36007,0.4833334,-8.200813,0.2496291666224248,-0.1782420077467265,0.0668498197572553,6.904948,38.87605,359.6051,0.05564294,0.3323768,-0.02328461,8.23999981582165,2
-15.31964,0.6833334,-8.15597,0.2584724717238611,-0.1123809533104352,0.0674987725168438,10.3569,38.97072,359.4152,0.08339226,0.3326344,-0.03489793,8.25999981537461,2
-15.16743,0.2833332,-7.991657,0.2615797901228411,-0.0606330912628593,0.0656607023104731,3.549762,40.59751,359.8459,0.02858291,0.3467875,-0.01200502,8.27999981492758,2
-15.12512,0.4833332,-7.946329,0.267611131541825,-0.0763144984556334,0.0709842413051404,7.099552,40.7067,359.6979,0.05713467,0.3472933,-0.02400152,8.29999981448054,2
-15.08282,0.6833333,-7.901013,0.2701837396852191,-0.1061087533128755,0.0699920905986939,10.64858,40.8075,359.5554,0.0856233,0.3474641,-0.03597133,8.31999981403351,2
-14.91659,0.2833333,-7.721485,0.2674943330081376,-0.0967001135144306,0.066712960659296,3.58182,42.19412,359.9424,0.02897651,0.3597877,-0.01171805,8.33999981358647,2
-14.87391,0.4833332,-7.675808,0.2684746845100569,-0.1014045358639217,0.0708584391699789,7.162986,42.31196,359.892,0.05791849,0.360258,-0.02342216,8.35999981313944,2
-14.83125,0.6833332,-7.630146,0.264587297915364,-0.0935639226955776,0.0666471642390771,10.74322,42.42765,359.8487,0.08679552,0.3603754,-0.03510004,8.3799998126924,2
-14.7886,0.8833332,-7.584496,0.2526829338475576,-0.046520402587969,0.0565469650882413,14.32249,42.54205,359.8122,0.1155795,0.36014,-0.04674014,8.39999981224537,2
-14.65136,0.2833333,-7.43503,0.2418742475282425,-0.0135899184930241,0.050374952306333,3.573014,43.44492,0.0736021,0.02919914,0.3699124,-0.01094195,8.41999981179833,2
-14.60948,0.4833333,-7.388834,0.2217074609297089,0.0318856144487449,0.0304771377377868,7.144781,43.57468,0.1558815,0.05836254,0.3703625,-0.02186628,8.4399998113513,2
-14.56761,0.6833333,-7.34265,0.1873624457102014,0.1165639214754767,-0.0024140254038274,10.71535,43.71082,0.247143,0.08746095,0.3704514,-0.03276644,8.45999981090426,2
-14.41494,0.2833334,-7.178502,0.1481484117656961,0.1871289262582327,-0.0383658572251546,3.596103,44.36603,0.09944341,0.02938182,0.377355,-0.01104362,8.47999981045723,2
-14.37234,0.4833334,-7.132386,0.1133573545590458,0.1902646714706863,-0.0674500824972792,7.190933,44.49788,0.2073317,0.05872613,0.3777806,-0.02207322,8.49999981001019,2
-14.32976,0.6833335,-7.086283,0.146386972792369,0.1792876982140399,-0.0269747733606182,10.78471,44.63777,0.3244215,0.0880053,0.3778329,-0.03308066,8.51999980956316,2
-14.16211,0.2833333,-6.906439,0.1672961318115362,0.207513762137433,0.0023725130140084,3.642271,44.99883,0.117549,0.02975285,0.3824503,-0.01121392,8.53999980911613,2
-14.11866,0.4833332,-6.859998,0.1858353007446158,0.2216268002409173,0.0310697376222348,7.283225,45.13219,0.2437781,0.05946704,0.3828485,-0.02241337,8.55999980866909,2
-14.07523,0.6833332,-6.81357,0.0729717198985806,0.8885987447226384,-0.0824434676599086,10.92282,45.27496,0.3798833,0.08911254,0.3828586,-0.03358686,8.57999980822206,2
-14.03181,0.8833331,-6.767158,0.0738252107869925,0.6641840093074243,-0.0717903463243221,14.56145,45.42854,0.5270852,0.1186624,0.3824807,-0.0447261,8.59999980777502,2
-13.8929,0.2833332,-6.619292,0.0707456306239482,0.4544050341760038,-0.0620670526527691,3.603988,46.40008,0.1669125,0.0294762,0.3937052,-0.01104959,8.61999980732799,2
-13.84941,0.4833332,-6.57378,0.0736353467425949,0.2049007994777661,-0.0427540121971405,7.206504,46.53752,0.3427656,0.05891435,0.3940893,-0.02208486,8.63999980688095,2
-13.80595,0.6833332,-6.52828,0.0372626002564544,0.181379112602727,-0.0700589219694949,10.80752,46.68744,0.5290993,0.08828552,0.3940818,-0.0330951,8.65999980643392,2
-13.653,0.2833333,-6.365474,-0.0068729320406664,0.1970603316215377,-0.1045813233829315,3.543433,47.9024,0.2464549,0.02912773,0.4057027,-0.01058655,8.67999980598688,2
-13.61006,0.4833332,-6.320796,-0.0491047275165339,0.1986283802052706,-0.1362861219932729,7.085239,48.0466,0.5022253,0.05821895,0.406079,-0.02115992,8.69999980553985,2
-13.56714,0.6833332,-6.276131,0.0648539648138122,-0.5075466525073902,-0.003777096612457,10.6253,48.20813,0.7694536,0.08724558,0.4060642,-0.03170976,8.71999980509281,2
-13.40043,0.2833334,-6.09841,0.0638454656230838,-0.2972450334272445,0.0032394182663257,3.481867,48.21834,0.2872122,0.02875347,0.4082172,-0.01012291,8.73999980464578,2
-13.35853,0.4833334,-6.054152,0.0620174513984999,-0.0764892165867161,0.0082515842357215,6.961994,48.36548,0.5838483,0.05747173,0.4086049,-0.02023317,8.75999980419874,2
-13.31663,0.6833334,-6.009905,0.0685003841942268,0.1024501453990077,0.0209274720073366,10.43989,48.53219,0.8924002,0.08612561,0.4086123,-0.03031897,8.77999980375171,2
-13.27475,0.8833333,-5.965671,0.0705378029352719,0.0538386208762819,0.0254008575879587,13.91582,48.72023,1.215332,0.1146913,0.4082393,-0.04037373,8.79999980330467,2
-13.13659,0.2833333,-5.817836,0.0687700218024573,0.0444300134855734,0.0255595344113253,3.426702,47.81254,0.278998,0.02832023,0.4049927,-0.009891506,8.81999980285764,2
-13.09561,0.4833333,-5.774035,0.0719637172777218,0.020908247420657,0.0309616369068694,6.851321,47.95803,0.5672534,0.05660389,0.4054006,-0.01976873,8.8399998024106,2
-13.05465,0.6833333,-5.730246,0.0659614992641923,0.0099315142600496,0.0251049731963504,10.27419,48.12219,0.8668488,0.08482863,0.4054428,-0.02962541,8.85999980196357,2
-12.9027,0.2833333,-5.568269,0.0490603846819137,0.0381577926669119,0.009643726578671,3.380215,46.16351,0.1769958,0.02773784,0.3918313,-0.01014249,8.87999980151653,2
-12.86234,0.4833333,-5.525154,0.0300618447724687,0.0522709139676839,-0.0061126709005394,6.758654,46.29919,0.3622358,0.05544024,0.3922762,-0.02027206,8.8999998010695,2
-12.822,0.6833332,-5.482051,0.1597505562511738,-0.6413591383725636,0.1360642239502598,10.13567,46.44701,0.5571676,0.08308646,0.3923781,-0.03038105,8.91999980062246,2
-12.65673,0.2833334,-5.305968,0.1744278727510764,-0.4185125106939147,0.1535071776193493,3.32867,44.49268,0.07843696,0.02714116,0.3784113,-0.01036249,8.93999980017543,2
-12.61705,0.4833334,-5.263542,0.1849537492844799,-0.185211763225114,0.1659102749976,6.655792,44.61909,0.1643352,0.05424826,0.3788928,-0.02071188,8.95999979972839,2
-12.57738,0.6833333,-5.221127,0.200438706692692,0.0062724514186572,0.1827679100690149,9.981772,44.75152,0.2583846,0.08130191,0.3790535,-0.03104082,8.97999979928136,2
-12.53773,0.8833332,-5.178724,0.2099799978099845,-0.0297943255969403,0.1901344529125168,13.30658,44.89102,0.3614246,0.1082793,0.3788937,-0.04134061,8.99999979883432,2
-12.33288,0.2833332,-4.961154,0.2142682297936051,-0.0266582116157898,0.1913256150086786,3.274647,42.37484,359.9377,0.02644509,0.3612867,-0.01083314,9.01999979838729,2
-12.29361,0.4833332,-4.919645,0.2221551668615902,-0.0376352834895318,0.1957004801941981,6.548438,42.48851,359.8819,0.05286064,0.3618078,-0.02165429,9.03999979794025,2
-12.25436,0.6833332,-4.878145,0.2188938681475889,-0.0360672173080515,0.184225671983508,9.821012,42.59975,359.832,0.07922187,0.3620324,-0.03245465,9.05999979749322,2
-12.21511,0.8833331,-4.836658,0.2034795456696496,0.0047038716790679,0.1590680963262221,13.09275,42.70924,359.7881,0.105511,0.3619608,-0.04322542,9.07999979704618,2
-12.07073,0.2833333,-4.682323,0.1846238001784055,0.0313619209945841,0.129584554578559,3.218856,39.57345,359.8226,0.02590394,0.3384269,-0.01096401,9.09999979659915,2
-12.03262,0.4833333,-4.640966,0.1710334670930073,-0.0094091185097501,0.1051349756177697,6.437085,39.67697,359.6508,0.05177969,0.3389939,-0.02191601,9.11999979615211,2
-11.99452,0.6833334,-4.599621,0.2263380954755245,-0.0642929570669456,0.1510953702255166,9.654656,39.77142,359.4835,0.0776069,0.3392917,-0.03284728,9.13999979570508,2
-11.83478,0.2833333,-4.429351,0.2701241347097767,-0.0799737840566669,0.1854577967635937,3.372602,39.25823,359.8015,0.02713528,0.3358323,-0.01151681,9.15999979525805,2
-11.79488,0.4833333,-4.385915,0.3115195840360645,-0.1097676742397372,0.2181488708709853,6.744617,39.35885,359.6085,0.05423934,0.3363612,-0.02302032,9.17999979481101,2
-11.75499,0.6833333,-4.34249,0.2281850412203461,0.5132973061501034,0.1182562920687351,10.11602,39.44871,359.42,0.08128881,0.336597,-0.03450063,9.19999979436398,2
-11.57961,0.2833333,-4.157254,0.2484184161377634,0.2449752522487127,0.1306187090238819,3.537835,41.03299,359.8344,0.02840426,0.3503514,-0.01217164,9.21999979391694,2
-11.53692,0.4833333,-4.112529,0.2651602336194507,-0.0087110356191216,0.1416617721126587,7.075088,41.1355,359.6747,0.0567739,0.3508079,-0.02432957,9.23999979346991,2
-11.49425,0.6833333,-4.06782,0.1390498225463812,0.4181649510309866,0.0016523973903055,10.61283,41.22879,359.5195,0.08508981,0.3509278,-0.03646823,9.25999979302287,2
-11.45159,0.8833333,-4.023124,0.1303272711165188,0.1937499289989491,-0.0122156848208545,14.14978,41.31337,359.3682,0.1133163,0.3507118,-0.04856849,9.27999979257584,2
-11.30371,0.2833333,-3.867963,0.1141587447800098,-0.0160293541802183,-0.0314126358799697,3.567787,42.63643,359.9003,0.0286836,0.3633963,-0.01212723,9.2999997921288,2
-11.2603,0.4833333,-3.823301,0.1000154311409815,-0.2655341461695848,-0.0459129068156596,7.13498,42.74452,359.8069,0.05733229,0.3638169,-0.02424208,9.31999979168177,2
-11.21691,0.6833333,-3.778651,0.1157784443288179,-0.2890559480398266,-0.0293001113346578,10.70131,42.84767,359.7195,0.08591712,0.3638839,-0.03632985,9.33999979123473,2
-11.05561,0.2833334,-3.607444,0.1234552189573428,-0.2733748419253918,-0.019370953604842,3.590387,43.98488,0.05887889,0.02923967,0.3742855,-0.01125524,9.3599997907877,2
-11.01289,0.4833334,-3.5616,0.1328745019100221,-0.2718067841071996,-0.005820327839334,7.179822,44.10767,0.1261676,0.05844591,0.3746767,-0.02249198,9.37999979034066,2
-10.97019,0.6833333,-3.51577,0.0206016331107736,0.3826202776609116,-0.1202409916055988,10.76808,44.23585,0.2019169,0.08758643,0.3746992,-0.03370345,9.39999978989363,2
-10.79446,0.2833333,-3.330412,0.0201024973170991,0.1456605308594307,-0.1156463209362101,3.568245,44.85846,0.0903745,0.02907931,0.3813342,-0.01115019,9.41999978944659,2
-10.75171,0.4833332,-3.285126,0.0223367956808253,-0.0766634642828972,-0.1065611495672635,7.135141,44.98373,0.1885221,0.05812043,0.3817158,-0.02228744,9.43999978899956,2
-10.70897,0.6833332,-3.239852,-0.1127570308193615,0.3815748140473099,-0.2422459947680759,10.70079,45.11633,0.2955437,0.08709692,0.3817264,-0.03339975,9.45999978855252,2
-10.66624,0.8833331,-3.194592,-0.1215341335327817,0.1885220826499586,-0.2446204426604787,14.26516,45.25751,0.4124968,0.1159806,0.3813661,-0.04447663,9.47999978810549,2
-10.51763,0.2833333,-3.038598,-0.1296766483035778,0.0101052091080873,-0.2455504837625854,3.64608,45.59623,0.1176142,0.02972484,0.3872589,-0.01138123,9.49999978765845,2
-10.47365,0.4833333,-2.992563,-0.1271700735401895,-0.2080371604377029,-0.2345240618731072,7.290865,45.7239,0.2435571,0.05941107,0.3876006,-0.02274777,9.51999978721142,2
-10.42968,0.6833333,-2.94654,-0.1684365984375162,-0.2001965265353741,-0.2697699778011972,10.93431,45.8609,0.3790071,0.08902866,0.3875488,-0.03408804,9.53999978676438,2
-10.26713,0.2833333,-2.776677,-0.2186459167076906,-0.153152970796677,-0.3123600754948796,3.618678,46.4507,0.1375015,0.02948791,0.3941168,-0.01134889,9.55999978631735,2
-10.22307,0.4833333,-2.731398,-0.2678021751472359,-0.120222448979822,-0.3518883924530522,7.23599,46.57982,0.283405,0.05893772,0.3944512,-0.02268308,9.57999978587031,2
-10.17902,0.6833333,-2.686132,-0.3059294478270047,-0.1547209035140301,-0.3779437277947629,10.85189,46.71949,0.4390181,0.08832006,0.3943909,-0.03399134,9.59999978542328,2
-10.13498,0.8833331,-2.640877,-0.3413302270066349,-0.2033323909246716,-0.4021887442338854,14.46623,46.87109,0.6056055,0.1176039,0.3939361,-0.0452642,9.61999978497624,2
-9.932063,0.2833334,-2.428998,-0.3714849931221149,-0.2127410877851284,-0.4200922603864008,3.551063,48.60814,0.2521508,0.02914308,0.4113184,-0.01074785,9.63999978452921,2
-9.888541,0.4833335,-2.384694,-0.3863288679725443,-0.2362629503763178,-0.4214004639871707,7.100496,48.74724,0.5133403,0.05824943,0.4116363,-0.02148217,9.65999978408217,2
-9.845032,0.6833335,-2.340402,-0.5218311704900742,0.3930744065112913,-0.5506435947663681,10.64821,48.90401,0.785741,0.08729104,0.4115562,-0.03219261,9.67999978363514,2
-9.801533,0.8833334,-2.29612,-0.486902616485076,0.1310247306757865,-0.5045018072531442,14.19371,49.08015,1.071624,0.1162364,0.4110787,-0.04286882,9.6999997831881,2
-9.662188,0.2833333,-2.149363,-0.4406942382136263,-0.1163891914097411,-0.4489481572009969,3.483801,48.88443,0.2879917,0.02871232,0.4135132,-0.01029067,9.71999978274107,2
-9.619754,0.4833333,-2.105566,-0.536429636872418,0.3167593883124284,-0.5444566724213478,6.96589,49.02588,0.5850441,0.05738937,0.4138448,-0.02056866,9.73999978229403,2
-9.577329,0.6833333,-2.061779,-0.4962415996836933,0.0986169737268526,-0.4993310527540616,10.44573,49.18689,0.8936725,0.08600174,0.4137907,-0.03082164,9.759999781847,2
-9.424052,0.2833333,-1.900488,-0.4540919107805736,-0.1048896871087474,-0.4533643499016949,3.4278,48.31828,0.2762977,0.02827539,0.4090224,-0.01004181,9.77999978139997,2
-9.382643,0.4833333,-1.857074,-0.4010593671390898,-0.3481219613827555,-0.397038232714638,6.853537,48.45789,0.5615577,0.05651436,0.409378,-0.02006863,9.79999978095293,2
-9.341245,0.6833333,-1.813672,-0.3134334317141514,-0.3653711367277854,-0.3034348009791353,10.27754,48.61596,0.8577851,0.08469437,0.4093643,-0.03007449,9.8199997805059,2
-9.174281,0.2833333,-1.638367,-0.23018419094379,-0.3434175215226315,-0.212371676786098,3.380532,46.66847,0.1760964,0.0276923,0.3958798,-0.01027292,9.83999978005886,2
-9.133533,0.4833333,-1.595618,-0.1422379599115046,-0.3355769520001923,-0.1143305327755455,6.759299,46.79844,0.3601211,0.05534924,0.3962727,-0.02053256,9.85999977961183,2
-9.092796,0.6833333,-1.552882,-0.1820920466841444,0.3251226107567034,-0.1517281117258842,10.13666,46.94045,0.55349,0.08295002,0.3963192,-0.03077129,9.87999977916479,2
-9.052071,0.8833332,-1.510158,-0.1032728958018003,0.094435127461496,-0.0664717645310171,13.51255,47.0958,0.7577872,0.1104706,0.3960193,-0.04098035,9.89999977871776,2
-8.912902,0.2833334,-1.364015,-0.0219168541108265,-0.1216164958874114,0.0201455831046655,3.328501,44.9879,0.07793482,0.02709308,0.3824062,-0.01048317,9.91999977827072,2
-8.872852,0.4833333,-1.321943,-0.0886567297417899,0.3428943820486749,-0.0500451040091123,6.655476,45.10855,0.1630105,0.05415232,0.382835,-0.020953,9.93999977782369,2
-8.832814,0.6833333,-1.279883,-0.0254362604220403,0.1561144919213591,0.0143491316299628,9.981311,45.23512,0.2558925,0.08115815,0.38294,-0.03140211,9.95999977737665,2
-8.680093,0.2833333,-1.120075,0.0343209664164225,-0.0160297506523045,0.073693191308953,3.278651,43.23578,359.9572,0.02645787,0.368274,-0.01088679,9.97999977692962,2
-8.640405,0.4833333,-1.078879,0.0994681332657254,-0.2278994722419587,0.1372236514291044,6.556406,43.34554,359.9206,0.05288623,0.3687376,-0.02176141,9.99999977648258,2
-8.600727,0.6833333,-1.037692,0.1937074766082629,-0.213786412968903,0.2286712940274703,9.832927,43.45396,359.8899,0.07926033,0.3688985,-0.03261515,10.0199997760355,2
-8.435587,0.2833333,-0.8638651,0.2779748273801496,-0.1604704415295286,0.3080291476071867,3.229029,40.76537,359.8561,0.02597368,0.3481834,-0.0109893,10.0399997755885,2
-8.396948,0.4833333,-0.8227953,0.361104589880207,-0.1212675142047519,0.3846774856128941,6.457362,40.86625,359.7178,0.05191904,0.3486886,-0.02196651,10.0599997751415,2
-8.35832,0.6833333,-0.7817371,0.3095714791031909,0.5707944212515881,0.3193132765271923,9.684977,40.95994,359.5842,0.07781553,0.3489156,-0.03292287,10.0799997746944,2
-8.3197,0.8833332,-0.7406905,0.3682010299075289,0.3714694456009486,0.3688853291914783,12.91158,41.04691,359.4548,0.1036413,0.3488648,-0.04384642,10.0999997742474,2
-8.179953,0.2833334,-0.5933834,0.4214206750950309,0.1867802252683993,0.4122655607325323,3.282318,39.32584,359.7974,0.02637484,0.336395,-0.01130144,10.1199997738004,2
-8.140958,0.4833333,-0.5512721,0.4780327440154472,-0.0376343668384004,0.4589623353088048,6.564051,39.421,359.5999,0.05272047,0.3369007,-0.02259025,10.1399997733533,2
-8.101974,0.6833333,-0.5091722,0.3561014736843502,0.6042477764978949,0.3184416544152184,9.845158,39.50537,359.4064,0.07901527,0.3371282,-0.03385711,10.1599997729063,2
-8.063004,0.8833333,-0.4670882,0.3868900567518034,0.3547428753502062,0.3397437759546575,13.12611,39.5793,359.2159,0.1052423,0.3370773,-0.04509299,10.1799997724593,2
-7.879735,0.2833333,-0.2763411,0.4057274666068728,0.1198737018172192,0.3503910194499899,3.525879,41.37716,359.8354,0.02827302,0.3531621,-0.01221209,10.1999997720122,2
-7.836911,0.4833333,-0.2320093,0.4215626959089995,-0.1547209922868402,0.3599818835169204,7.051085,41.47417,359.6764,0.05651147,0.3535711,-0.02440937,10.2199997715652,2
-7.794111,0.6833333,-0.1876975,0.4613062940739159,-0.203332588507333,0.3947652630689988,10.5775,41.56197,359.5214,0.08470227,0.3536431,-0.03659125,10.2399997711182,2
-7.631492,0.2833333,-0.01888781,0.4868458010232821,-0.2127412756977393,0.4168509367056163,3.564732,42.87355,359.8984,0.02862751,0.365323,-0.01219245,10.2599997706711,2
-7.587909,0.4833333,0.02553176,0.5075482065137313,-0.2362630101389748,0.4361027509813662,7.128921,42.97598,359.8028,0.05722079,0.3656966,-0.02437231,10.2799997702241,2
-7.544338,0.6833333,0.06993867,0.3996898875692691,0.393074260415117,0.3213130358906499,10.69227,43.07324,359.7127,0.08575059,0.3657151,-0.03652517,10.2999997697771,2
-7.368555,0.2833334,0.2549117,0.3958802307602305,0.131024616725998,0.3163394752907569,3.589542,44.21053,0.05790971,0.02920744,0.3761101,-0.01131786,10.31999976933,2
-7.325656,0.4833333,0.3005623,0.3875587616790845,-0.1163892747812626,0.3079552733835489,7.17815,44.32773,0.1238867,0.05838162,0.376454,-0.02261708,10.339999768883,2
-7.282769,0.6833333,0.3461998,0.2334859078640869,0.3167592272320314,0.1477216311370619,10.76559,44.45018,0.1979623,0.08749019,0.3764277,-0.03389082,10.359999768436,2
-7.239894,0.8833333,0.3918242,0.1964966520746554,0.0986168528947748,0.1107971225759811,14.35183,44.57902,0.2809552,0.1165046,0.3760314,-0.04512808,10.3799997679889,2
-7.092642,0.2833333,0.5457647,0.1512791917958855,-0.1048897697833258,0.0665350225370904,3.567742,45.0854,0.09000801,0.02905189,0.3831634,-0.01120903,10.3999997675419,2
-7.049711,0.4833333,0.5908681,0.107455705942872,-0.3481219946616689,0.0249446595703908,7.134129,45.20506,0.1874453,0.05806553,0.3834971,-0.02240493,10.4199997670949,2
-7.006791,0.6833333,0.6359588,0.0908837302730267,-0.3653712294208863,0.0113249802501513,10.6993,45.33194,0.2933792,0.08701471,0.383458,-0.03357592,10.4399997666478,2
-6.844153,0.2833334,0.8058851,0.065626470329839,-0.3434175695244164,-0.0108300927457003,3.646321,45.72818,0.1156586,0.02970702,0.38832,-0.01143198,10.4599997662008,2
-6.800036,0.4833333,0.8517962,0.0415819062051863,-0.3355769579241876,-0.0311699059482291,7.291364,45.8502,0.2392903,0.05937549,0.3886161,-0.02284915,10.4799997657537,2
-6.755932,0.6833333,0.8976947,-0.1066372607069174,0.3251226576259584,-0.1807201459746128,10.9351,45.98135,0.3720445,0.08897544,0.3885175,-0.03423996,10.4999997653067,2
-6.578821,0.2833333,1.081736,-0.0727348794351234,0.094435357887483,-0.1384538316404961,3.618701,46.61482,0.1374022,0.02947146,0.395432,-0.01139198,10.5199997648597,2
-6.534623,0.4833333,1.126885,-0.0459772727640528,-0.1216161907145439,-0.1014100064297442,7.236044,46.73849,0.2828558,0.05890481,0.3957205,-0.02276925,10.5399997644126,2
-6.490438,0.6833333,1.172022,-0.1666307225329628,0.3428947598776009,-0.2180750287754436,10.852,46.87263,0.437666,0.08827075,0.3956131,-0.0341205,10.5599997639656,2
-6.446265,0.8833332,1.217147,-0.2898640817692772,0.7964287876541716,-0.3367029398876715,14.4664,47.01858,0.6030833,0.1175382,0.3951102,-0.04543613,10.5799997635186,2
-6.298865,0.2833333,1.370189,-0.2898843078568647,0.3340088500129281,-0.3266027961611302,3.558956,48.51567,0.2324225,0.02914382,0.4105871,-0.01090951,10.5999997630715,2
-6.25508,0.4833333,1.414395,-0.2849173811732992,-0.1393879037248569,-0.3104736570744735,7.116357,48.64756,0.4734215,0.05825084,0.4108615,-0.02180528,10.6199997626245,2
-6.211307,0.6833333,1.458589,-0.3861777851897989,0.2812156757620959,-0.4054897976787885,10.67211,48.79583,0.7250127,0.08729282,0.4107371,-0.03267677,10.6399997621775,2
-6.167545,0.8833332,1.502773,-0.3460926268884932,0.0505283650468048,-0.3562547079912774,14.2258,48.96207,0.9892857,0.1162386,0.4102147,-0.0435137,10.6599997617304,2
-5.980308,0.2833333,1.698241,-0.2981424546570581,-0.1655231945320368,-0.3010535326358274,3.489994,48.96207,0.2860794,0.02874759,0.4141293,-0.01034769,10.6799997612834,2
-5.93771,0.4833333,1.742026,-0.232401589370482,-0.4213003701628139,-0.2296748863036026,6.978312,49.09799,0.5809042,0.05745984,0.4144152,-0.02068256,10.6999997608364,2
-5.895121,0.6833333,1.785799,-0.1694169037691484,-0.4510945561971715,-0.1633312344742572,10.4644,49.25335,0.8870298,0.08610728,0.4143137,-0.03099173,10.7199997603893,2
-5.72788,0.2833333,1.960447,-0.1096934463165326,-0.4416858347695573,-0.1012979952685881,3.429552,48.45858,0.2767689,0.0282787,0.4101384,-0.01007895,10.7399997599423,2
-5.686345,0.4833333,2.003784,-0.0438946025410205,-0.4463901621608914,-0.0336782519518528,6.857038,48.59288,0.5621671,0.05652066,0.4104489,-0.02014291,10.7599997594953,2
-5.644821,0.6833333,2.047108,-0.1065441930013415,0.2017645138749885,-0.10005315438891,10.28282,48.74559,0.8582229,0.08470364,0.4103888,-0.03018579,10.7799997590482,2
-5.60331,0.8833332,2.09042,-0.1620156576394729,0.6984549028026972,-0.158462133170584,13.70679,48.91835,1.167375,0.1128024,0.4099585,-0.04019848,10.7999997586012,2
-5.46406,0.2833333,2.235644,-0.0634728532899107,0.1676296379217016,-0.0541040936558299,3.380768,46.85566,0.1769308,0.02768027,0.3973783,-0.01031229,10.8199997581542,2
-5.423177,0.4833333,2.278271,-0.1165550539495909,0.3466034297316063,-0.1085205505143735,6.759788,46.98024,0.361455,0.05532513,0.397725,-0.02061138,10.8399997577071,2
-5.382306,0.6833332,2.320885,-0.1706879727194716,0.5427917782785744,-0.164120638590278,10.13742,47.11683,0.554996,0.08291385,0.397724,-0.03088958,10.8599997572601,2
-5.229743,0.2833333,2.480047,-0.097640291528005,0.0636098506453951,-0.0895251200926363,3.328861,45.10121,0.07686038,0.02708201,0.3833194,-0.01051981,10.879999756813,2
-5.189591,0.4833333,2.522029,-0.0217751390809888,-0.4260610160176756,-0.0129612285854143,6.656191,45.21643,0.1605541,0.05413011,0.3837039,-0.02102613,10.899999756366,2
-5.149451,0.6833332,2.563999,-0.0591158506922249,-0.0212434461450206,-0.0549529538096482,9.982395,45.33746,0.251719,0.08112479,0.3837637,-0.03151168,10.919999755919,2
-4.983357,0.2833334,2.736634,0.0454280452405777,-0.2672289961269888,0.0485565555092986,3.278745,43.39596,359.9576,0.02644467,0.3695725,-0.01092084,10.9399997554719,2
-4.943556,0.4833333,2.777722,0.1502628093348574,-0.4980909179058643,0.1514536795838523,6.556595,43.50044,359.9211,0.05285987,0.3699911,-0.02182954,10.9599997550249,2
-4.903766,0.6833333,2.818802,0.1209688554688019,-0.0479025834719382,0.1135210054401429,9.833213,43.60353,359.8902,0.07922081,0.370106,-0.03271748,10.9799997545779,2
-4.863986,0.8833332,2.859869,0.0925509785937808,0.3917968114093851,0.0759927130491284,13.10894,43.70591,359.865,0.1055094,0.3699175,-0.04357544,10.9999997541308,2
-4.658993,0.2833333,3.07392,0.1759486424488545,-0.0839698825831665,0.1526066179724594,3.223519,40.0471,359.809,0.02585614,0.3423145,-0.01119597,11.0199997536838,2
-4.620302,0.4833333,3.114867,0.1053612792016274,0.1500624790697708,0.068111114110497,6.446406,40.1386,359.623,0.05168419,0.3427855,-0.02237962,11.0399997532368,2
-4.581622,0.6833333,3.155802,0.0309588866044894,0.4013092902180349,-0.0203833277882106,9.668627,40.22011,359.4407,0.07746363,0.3429835,-0.03354213,11.0599997527897,2
-4.54295,0.8833332,3.196726,0.0787501163038966,-0.0228141753365508,0.0175586780416621,12.88985,40.29201,359.2615,0.1031728,0.342909,-0.04467108,11.0799997523427,2
-4.395638,0.2833334,3.350653,0.1247062813533363,-0.4574264603957192,0.0539103316203366,3.373283,39.75532,359.7977,0.02707958,0.3399139,-0.01166706,11.0999997518957,2
-4.355303,0.4833333,3.393706,0.0538898128210241,0.0024495843618141,-0.0313019826232467,6.74597,39.84467,359.6004,0.05412818,0.3403466,-0.02332072,11.1199997514486,2
-4.314979,0.6833333,3.436748,-0.0146264032445238,0.4518365833704204,-0.1127942343861061,10.118,39.92291,359.4067,0.0811222,0.3404825,-0.0349508,11.1399997510016,2
-4.152445,0.2833333,3.604807,0.0884458747232304,-0.0142425059721433,-0.0144862911798329,3.53809,41.48812,359.8323,0.02835137,0.3540672,-0.01230207,11.1599997505546,2
-4.109365,0.4833333,3.649168,0.19027522620254,-0.4908105343446028,0.0855209622294861,7.075581,41.57953,359.6699,0.05666825,0.3544283,-0.02459027,11.1799997501075,2
-4.066306,0.6833333,3.693511,0.1280696478899061,-0.0728902323776548,0.015600485765999,10.61352,41.66146,359.5112,0.08493153,0.3544496,-0.03685863,11.1999997496605,2
-3.889509,0.2833333,3.875624,0.2058169990800018,-0.3057730497426315,0.0920929710038898,3.568204,43.06113,359.8988,0.02863717,0.366845,-0.01224663,11.2199997492135,2
-3.845744,0.4833333,3.919947,0.2737693353119828,-0.5235322383818057,0.1609980816693079,7.135788,43.15834,359.8033,0.05723944,0.3671724,-0.02448058,11.2399997487664,2
-3.801991,0.6833333,3.964258,0.1919337244347938,-0.0602410502374561,0.0752375112582486,10.70251,43.25035,359.7131,0.08577804,0.3671428,-0.0366873,11.2599997483194,2
-3.758251,0.8833332,4.008556,0.1035936958253493,0.3925610926806752,-0.01565022119326,14.26835,43.33774,359.6275,0.1142253,0.3667565,-0.04885487,11.2799997478724,2
-3.714524,0.9766704,4.052841,0.1293009215312821,-0.0701029589486912,0.0123005303700303,17.83329,43.42102,359.5461,0.1425539,0.3660143,-0.06097154,11.2999997474253,2
-3.541286,0.2833333,4.23352,0.1526990018083442,-0.5432558295599309,0.0395673967682252,3.577271,44.68635,0.0651108,0.02908507,0.3799516,-0.01134025,11.3199997469783,2
-3.498247,0.4833333,4.278744,0.0662310096767739,-0.1219203698317679,-0.0461460848508812,7.153494,44.79875,0.1378804,0.05813606,0.3802483,-0.02266232,11.3399997465312,2
-3.455221,0.6833333,4.323956,0.1107439222438044,-0.351388029435525,0.0038496960449077,10.72854,44.91676,0.2184808,0.08712214,0.3801738,-0.03395902,11.3599997460842,2
-3.300276,0.2833333,4.483903,0.1533503607553121,-0.5657319402654621,0.0531954247572681,3.597275,45.54545,0.09549344,0.02926269,0.3868618,-0.01138117,11.3799997456372,2
-3.256675,0.4833333,4.529092,0.0700036040554932,-0.0990256872272306,-0.0276825400716713,7.19332,45.66041,0.19837,0.05848807,0.3871366,-0.02274786,11.3999997451901,2
-3.213088,0.6833333,4.574268,-0.0097844266865825,0.3571916406327995,-0.103923901928506,10.78834,45.78293,0.3093797,0.08764853,0.3870289,-0.03409113,11.4199997447431,2
-3.042988,0.2833333,4.749583,0.0930582032536095,-0.1020569992876135,0.0080695677380031,3.642638,46.12245,0.1150336,0.02963581,0.3914871,-0.01152655,11.4399997442961,2
-2.998597,0.4833333,4.79513,0.0464380820555956,0.1484931912385266,-0.0341405058415347,7.283999,46.23909,0.2376828,0.05923312,0.3917359,-0.02303821,11.459999743849,2
-2.954219,0.6833333,4.840664,-0.0050210981332039,0.4162579390244375,-0.0799864323108563,10.92405,46.36475,0.3690864,0.08876207,0.3915879,-0.03452327,11.479999743402,2
-2.909857,0.8833332,4.886184,-0.0514579609770597,0.6489664852586089,-0.1192760424945937,14.5632,46.5007,0.510459,0.118196,0.3910432,-0.04597262,11.499999742955,2
-2.769558,0.2833334,5.029926,0.0219799766362609,-0.0594036102396864,-0.0328879737692906,3.604281,47.46785,0.1646499,0.02936635,0.4022491,-0.01134286,11.5199997425079,2
-2.725199,0.4833333,5.074589,-0.0920214337102025,0.1554634245568179,-0.1402624469258011,7.207173,47.58866,0.3371815,0.05869502,0.402486,-0.0226712,11.5399997420609,2
-2.680852,0.6833333,5.119239,-0.2061900093553018,0.3875449098940622,-0.2468398413088426,10.80862,47.72159,0.5190986,0.08795686,0.4023235,-0.03397381,11.5599997416139,2
-2.526261,0.2833333,5.27776,-0.186248864421306,-0.0557438804261342,-0.2165569261108633,3.543633,48.93995,0.2448289,0.0290264,0.4139572,-0.01086347,11.5799997411668,2
-2.482493,0.4833333,5.321628,-0.1583036202569211,-0.5095215959245316,-0.1778523191592711,7.085703,49.06764,0.4979586,0.05801634,0.4141885,-0.02171331,11.5999997407198,2
-2.438737,0.6833333,5.365483,-0.2427853136309631,-0.0688110878025545,-0.2563098928999663,10.62612,49.21235,0.7614871,0.08694205,0.4140212,-0.03253902,11.6199997402728,2
-2.394993,0.8833332,5.409328,-0.1800104217874628,-0.2789034732908598,-0.1871344790479652,14.16445,49.37567,1.037644,0.1157727,0.413456,-0.04332982,11.6399997398257,2
-2.200607,0.2833334,5.609584,-0.1113308509460861,-0.4738723378178043,-0.1143209115310117,3.476948,49.21761,0.2945585,0.02865179,0.4161566,-0.01029714,11.6599997393787,2
-2.158082,0.4833333,5.653141,-0.1737987673724873,0.0122091861996458,-0.1781150431169118,6.952234,49.34897,0.5975603,0.05726855,0.4164014,-0.02058161,11.6799997389317,2
-2.115566,0.6833333,5.696686,-0.2312623378515196,0.4878016762290446,-0.2374955178031843,10.42531,49.50014,0.9116611,0.08582138,0.4162599,-0.03084019,11.6999997384846,2
-1.941139,0.2833333,5.876295,-0.0971201503815007,0.0479280891454387,-0.1023512397727239,3.41839,48.50011,0.2590969,0.02812297,0.4104745,-0.01018975,11.7199997380376,2
-1.899511,0.4833333,5.919238,-0.1220649650388911,0.3178536756645215,-0.1313007359718039,6.834786,48.62749,0.5262432,0.05620919,0.410747,-0.02036534,11.7399997375906,2
-1.857893,0.6833333,5.962169,-0.1554106297721635,0.6049937095881085,-0.168179288844362,10.24957,48.77207,0.803433,0.08423718,0.4106514,-0.0305197,11.7599997371435,2
-1.816288,0.8833332,6.005087,-0.1884241049794024,0.8570775388237246,-0.2038556409527334,13.66263,48.93536,1.092914,0.1121819,0.4101882,-0.04064386,11.7799997366965,2
-1.670305,0.2833333,6.155326,-0.1028844792888089,0.1680827231906423,-0.1167069321223648,3.367694,46.8092,0.1596389,0.02751988,0.3970121,-0.01039418,11.7999997362494,2
-1.629415,0.4833333,6.197608,-0.0136577762360624,-0.4300124202658762,-0.0233555782281342,6.733679,46.92697,0.3264512,0.05500472,0.3973222,-0.02077481,11.8199997358024,2
-1.588536,0.6833333,6.239878,-0.0668317303634694,-0.0344985600338263,-0.0778833669924585,10.09835,47.0556,0.5016853,0.08243416,0.3972878,-0.03113452,11.8399997353554,2
-1.429111,0.2833333,6.403574,0.0131592763323616,-0.2902757003819854,0.0012477423453036,3.316247,45.04056,0.04508805,0.02687979,0.3828395,-0.01071935,11.8599997349083,2
-1.388765,0.4833333,6.445045,0.0934494788806835,-0.5314170932526359,0.0798444707318264,6.63142,45.14778,0.09644125,0.05372905,0.3831868,-0.02142661,11.8799997344613,2
-1.34843,0.6833332,6.486507,0.0489315281299629,-0.0919959905880516,0.0295532244800345,9.94516,45.25881,0.1544312,0.08052233,0.3832127,-0.03211213,11.8999997340143,2
-1.308106,0.8833332,6.527957,0.0070324093590493,0.3364481856020235,-0.0183660567303141,13.25783,45.3745,0.2196752,0.1072405,0.3829173,-0.04276773,11.9199997335672,2
-1.108958,0.2833334,6.732232,0.1463734059143916,-0.1510616072846595,0.1159320012446656,3.260402,42.69778,359.9057,0.02619696,0.3639204,-0.0111227,11.9399997331202,2
-1.069213,0.4833333,6.772953,0.1337960007461924,0.0707397752712692,0.0932258183360499,6.52,42.79254,359.8167,0.05236498,0.3643101,-0.02223312,11.9599997326732,2
-1.029479,0.6833333,6.813663,0.1120803300889295,0.3092677271196458,0.0609333942546257,9.77876,42.88285,359.7324,0.07848272,0.3644039,-0.03332224,11.9799997322261,2
-0.9897541,0.8833332,6.854363,0.0898685076240595,0.5122515961679924,0.027998951972588,13.03637,42.96917,359.6524,0.1045266,0.3642022,-0.04438027,11.9999997317791,2
-0.8516585,0.2833333,6.997118,0.1775154879894738,-0.2263311644834467,0.1053331855208483,3.207568,40.01142,359.805,0.02571681,0.3420241,-0.01117347,12.0199997313321,2
-0.8131167,0.4833333,7.037829,0.1543926380773334,-0.0421647833301137,0.068688925784965,6.414504,40.09739,359.6146,0.05140588,0.3424566,-0.02233478,12.039999730885,2
-0.7745861,0.6833333,7.07853,0.1315494389282687,0.1587282855955728,0.0329552224342535,9.620749,40.17315,359.4276,0.07704697,0.3426191,-0.03347506,12.059999730438,2
-0.6194364,0.2833333,7.237498,0.2346826255497599,-0.3162366844272753,0.1258303576842294,3.451224,40.51757,359.7999,0.02764591,0.3461527,-0.0120641,12.079999729991,2
-0.5776594,0.4833332,7.281077,0.2082100425833075,-0.0818903610503155,0.0864000561005848,6.901831,40.60159,359.6046,0.05525922,0.3465123,-0.02411399,12.0999997295439,2
-0.5358961,0.6833332,7.324645,0.1792519035715019,0.1691825295282697,0.0463307775908869,10.3521,40.67431,359.4125,0.08281698,0.3465557,-0.03614103,12.1199997290969,2
-0.3664269,0.2833333,7.496817,0.2893511069509353,-0.2556026321706673,0.1492633468450019,3.549353,42.31687,359.845,0.02839328,0.3608137,-0.0124389,12.1399997286499,2
-0.3227557,0.4833332,7.540832,0.3976195744133588,-0.6913646151931994,0.2538056964407857,7.098704,42.40425,359.6947,0.0567558,0.361118,-0.0248688,12.1599997282028,2
-0.279097,0.6833332,7.584834,0.332860376679075,-0.2331261634990191,0.1821843634373028,10.64725,42.48294,359.5485,0.08505563,0.3610744,-0.0372712,12.1799997277558,2
-0.2354506,0.8833331,7.628823,0.2661535164313158,0.2141355607843141,0.1108402917011766,14.19497,42.55326,359.4053,0.1132657,0.3606834,-0.04963424,12.1999997273088,2
-0.02511716,0.2833333,7.842476,0.3829231456240332,-0.2545570308241794,0.2260021692243103,3.586488,44.29893,359.9722,0.02889216,0.3768464,-0.01202278,12.2199997268617,2
0.01889936,0.4833333,7.886968,0.3355389929905215,-0.0139382207457166,0.1746173491133298,7.172292,44.39785,359.9506,0.05775033,0.3771085,-0.02403093,12.2399997264147,2
0.06290334,0.6833333,7.931448,0.2751271342150507,0.2434071452962036,0.112060230474821,10.7571,44.49628,359.9351,0.08654368,0.3770006,-0.03601211,12.2599997259676,2
0.1068948,0.8833332,7.975914,0.2111077347513095,0.465208415731811,0.0478675142010835,14.34091,44.59497,359.9257,0.1152442,0.376523,-0.04795453,12.2799997255206,2
0.2534629,0.2833333,8.12577,0.2636818645773748,-0.2545568490969152,0.1023337056122777,3.553367,45.30973,0.08078016,0.02888319,0.3849738,-0.01129186,12.2999997250736,2
0.2965022,0.4833333,8.170415,0.1920585823529841,-0.0515729833590366,0.0313842547143412,7.10532,45.41845,0.1687956,0.05772955,0.3852281,-0.02256597,12.3199997246265,2
0.3395292,0.6833333,8.215048,0.11800416556156,0.1681375599584383,-0.0401083847217353,10.65608,45.53366,0.2644989,0.08651222,0.3851112,-0.03381507,12.3399997241795,2
0.5023146,0.2833333,8.37976,0.1777329922620165,-0.2880101715870155,0.0227012076202495,3.62352,46.26783,0.105961,0.02943675,0.3926581,-0.0115714,12.3599997237325,2
0.5466973,0.4833333,8.424848,0.0965110080198132,-0.0348466055510181,-0.057543939495229,7.245803,46.37879,0.2191119,0.05883558,0.3928731,-0.02312806,12.3799997232854,2
0.5910628,0.6833333,8.469921,0.0111422488179795,0.2350435318682489,-0.1405255350362466,10.86744,46.498,0.3402231,0.08817115,0.3926941,-0.03466262,12.3999997228384,2
0.6354157,0.8833332,8.514982,-0.0699067524313208,0.4693898153453589,-0.2161637801746732,14.48779,46.62671,0.470817,0.1174103,0.3921217,-0.04615911,12.4199997223914,2
0.8390501,0.2833334,8.7203,0.031188207102538,-0.2378306477891054,-0.1057744482445421,3.629446,47.11496,0.1323403,0.02948972,0.3994346,-0.01159844,12.4399997219443,2
0.8838461,0.4833333,8.765126,-0.0568636910849313,-0.0223020855078771,-0.1840960314496982,7.257588,47.22805,0.2720787,0.05894131,0.3996314,-0.02318189,12.4599997214973,2
0.9286296,0.6833333,8.80994,-0.1537052788724766,0.2099530614856099,-0.2666715815536999,10.88439,47.3512,0.4204625,0.08832514,0.3994263,-0.03473881,12.4799997210503,2
0.9733988,0.8833332,8.854742,-0.2491063428394637,0.4066642601014882,-0.3435725201584656,14.50995,47.48565,0.5787567,0.1176124,0.3988197,-0.04625969,12.4999997206032,2
1.113454,0.2833332,8.995078,-0.2248190920262538,-0.3381909436926652,-0.3007319531624706,3.574625,48.98234,0.2143521,0.02915819,0.4142976,-0.01122821,12.5199997201562,2
1.158018,0.4833332,9.038863,-0.3076021956770352,-0.1602968979176056,-0.3663624962360394,7.147764,49.10255,0.4365619,0.05827927,0.4144804,-0.02244217,12.5399997197092,2
1.202569,0.6833332,9.082636,-0.3810922257500575,0.0343237176726102,-0.421776803032829,10.71934,49.23793,0.6684932,0.08733471,0.414258,-0.03363099,12.5599997192621,2
1.356756,0.2833333,9.237467,-0.3119573737018668,-0.4469138231201996,-0.3380938090805543,3.512528,49.79592,0.2690663,0.02878734,0.4207393,-0.01077398,12.5799997188151,2
1.400486,0.4833333,9.280648,-0.36348173778716,-0.2188400678996778,-0.3782334768490258,7.023468,49.92052,0.5462101,0.057539,0.4209277,-0.02153455,12.5999997183681,2
1.444205,0.6833333,9.323819,-0.4055426051472,0.0259602704649901,-0.4100055049636246,10.53237,50.06345,0.8337042,0.08622527,0.4207179,-0.03226997,12.619999717921,2
1.612236,0.2833334,9.492841,-0.4289642666013651,0.2352165532103096,-0.4243111343271604,3.452921,49.75409,0.2952551,0.02841569,0.4204096,-0.01033747,12.639999717474,2
1.654846,0.4833333,9.535734,-0.4165824937587334,0.2231943220246575,-0.4096249675528103,6.903797,49.88033,0.5988084,0.05679455,0.4206155,-0.02065905,12.6599997170269,2
1.697444,0.6833334,9.578615,-0.4053843167288842,0.256647580134869,-0.3967304895874513,10.35295,50.0262,0.9127719,0.08511334,0.4204363,-0.03095881,12.6799997165799,2
1.740029,0.8833334,9.621485,-0.3864470561933539,0.2822603717827342,-0.376476472160526,13.80027,50.19328,1.239752,0.1133464,0.4198725,-0.04122724,12.6999997161329,2
1.947891,0.2833333,9.830203,-0.2108488720372858,-0.3935974390919872,-0.2012950689752042,3.40199,48.26306,0.2046717,0.02781938,0.4086036,-0.01050632,12.7199997156858,2
1.989765,0.4833334,9.872416,-0.2271398592362592,-0.1467061178319843,-0.219436581893861,6.802167,48.38036,0.4166012,0.05560267,0.4088456,-0.02099891,12.7399997152388,2
2.031627,0.6833334,9.914618,-0.2493663962255485,0.116911656331384,-0.2417530443279378,10.20093,48.51136,0.6374283,0.08332901,0.4087254,-0.0314699,12.7599997147918,2
2.073478,0.8833333,9.956808,-0.2703090718154026,0.3449853513536633,-0.2595202565829435,13.59818,48.65738,0.868958,0.1109739,0.4082436,-0.04191003,12.7799997143447,2
2.219117,0.2833334,10.10277,-0.1682875930642873,-0.3685075796649057,-0.1598368949945428,3.343368,46.69828,0.1143127,0.02717843,0.3961374,-0.01064644,12.7999997138977,2
2.260161,0.4833333,10.14427,-0.1828998427537498,-0.159251245171746,-0.1776372572294455,6.685103,46.8069,0.2351563,0.05432231,0.3964168,-0.02127896,12.8199997134507,2
2.301194,0.6833334,10.18575,-0.1949887263768972,0.0667316745563811,-0.1918156731531848,10.02564,46.9235,0.3634321,0.08141216,0.3963577,-0.03189025,12.8399997130036,2
2.460833,0.2833333,10.3445,-0.0684049589947943,-0.3831433337633544,-0.0728127477450204,3.291887,44.97953,359.9836,0.02648417,0.3823643,-0.01111891,12.8599997125566,2
2.501598,0.4833333,10.38495,-0.0797833876376845,-0.1237069505888902,-0.0906836604062135,6.582829,45.07635,359.9728,0.05293866,0.3826792,-0.02222544,12.8799997121096,2
2.542353,0.6833333,10.42539,-0.0939735856908239,0.1524559788789817,-0.1092282741878971,9.872461,45.17322,359.9673,0.07933804,0.3826777,-0.03331114,12.8999997116625,2
2.581904,0.8833333,10.466,-0.1021306392524801,0.3930748035931956,-0.1198889616849765,13.11897,45.25404,0.02373232,0.105521,0.3821903,-0.04375966,12.9199997112155,2
2.778798,0.2833333,10.66479,0.0735544154660399,-0.3078731290196265,0.0512311255370736,3.156427,41.88821,359.9596,0.02559579,0.3573304,-0.01017428,12.9399997107685,2
2.816049,0.4833332,10.70534,0.0617463222432252,-0.0860720336032274,0.0338733606604417,6.310212,41.9111,359.923,0.0511588,0.357136,-0.02031094,12.9599997103214,2
2.853291,0.6833331,10.74587,0.04033598234526,0.1524557558579871,0.0079687134604444,9.463278,41.9321,359.8872,0.07667652,0.3566709,-0.03043148,12.9799997098744,2
2.89051,0.8833331,10.78638,0.0179470691021297,0.3554394800298059,-0.0177265048300832,12.61526,41.95241,359.852,0.1021261,0.3559453,-0.04052867,12.9999997094274,2
3.028933,0.2833333,10.92445,0.1060966194882988,-0.3831431950721721,0.0641872583529234,3.261012,40.32148,359.8246,0.02618323,0.3445559,-0.01124271,13.0199997089803,2
3.068098,0.4833333,10.96587,0.0836180129513124,-0.1989764974206858,0.0365882108964648,6.521157,40.33278,359.6497,0.05233779,0.3443512,-0.02247326,13.0399997085333,2
3.107253,0.6833333,11.00728,0.0610305712982643,0.0019167870338819,0.0113786016536163,9.780404,40.33406,359.474,0.07844251,0.3438669,-0.0336825,13.0599997080863,2
3.261835,0.2833333,11.16026,0.1626872043433316,-0.4730479606649143,0.1072393773136415,3.528377,41.81977,359.8219,0.02820397,0.3567743,-0.01243895,13.0799997076392,2
3.305243,0.4833333,11.20411,0.1374358605546994,-0.238701633890369,0.0763160181295568,7.055853,41.82951,359.644,0.0563735,0.3564789,-0.02486295,13.0999997071922,2
3.348625,0.6833332,11.24793,0.1106566583077253,0.0123712679263819,0.0469552633777183,10.58433,41.82808,359.4644,0.08449544,0.3558441,-0.03727173,13.1199997067451,2
3.391995,0.8833331,11.29175,0.0909236832599011,0.2278999859738369,0.0280891726743597,14.11195,41.81522,359.2823,0.1125305,0.3548712,-0.04964213,13.1399997062981,2
3.586499,0.2833333,11.48252,0.0964471597041507,0.2221502881847062,0.0272320594371251,3.564729,43.94372,359.8989,0.02851404,0.3739955,-0.01245513,13.1599997058511,2
3.630933,0.4833333,11.52609,0.0921830218283599,0.2618759510187814,0.0189730074853944,7.128743,43.96038,359.7982,0.05699309,0.3736629,-0.02489901,13.179999705404,2
3.675353,0.6833334,11.56964,0.0868934569457682,0.2937609114761143,0.0124250841070328,10.69177,43.97082,359.6976,0.08540887,0.3729688,-0.03731528,13.199999704957,2
3.850937,0.2833334,11.74287,0.2283776250687266,-0.3758248613526185,0.1468683365894438,3.589592,45.36596,0.05744018,0.02909066,0.3854283,-0.01161572,13.21999970451,2
3.894788,0.4833334,11.78761,0.1720468213393564,-0.122661274756874,0.085799094669122,7.178348,45.39757,0.117528,0.05814815,0.3850702,-0.0232129,13.2399997040629,2
3.938343,0.6833333,11.83225,0.1040464920348887,0.1472287775485214,0.0159923946305617,10.7511,45.45018,0.1891277,0.08704538,0.3844679,-0.03467518,13.2599997036159,2
3.980389,0.8833332,11.87686,0.0336296797366406,0.3815747491447112,-0.0534593518154995,14.25984,45.52161,0.3264859,0.1155475,0.3835655,-0.04541286,13.2799997031689,2
4.128,0.2833332,12.01905,0.0811072164697321,-0.3256456944754159,-0.0092853048382384,3.544239,46.3836,0.110604,0.02880535,0.3935944,-0.01129156,13.2999997027218,2
4.170722,0.4833332,12.06316,0.0080418887420954,-0.1101169018553183,-0.0844244925888428,7.058227,46.42753,0.2545011,0.05744581,0.3932886,-0.02222564,13.3199997022748,2
4.213095,0.6833332,12.10734,-0.0647326065422673,0.1221385667762587,-0.1581519835853129,10.56179,46.463,0.4182504,0.08600898,0.3924616,-0.03296437,13.3399997018278,2
4.374516,0.2833334,12.26472,-0.1279881485268603,0.3188498325597889,-0.221216614372345,3.551299,46.86095,0.1960097,0.02911075,0.3973958,-0.0107524,13.3599997013807,2
4.417207,0.4833335,12.30952,-0.1625400401108292,0.2942827834760033,-0.261252480678257,7.089343,46.90675,0.4000695,0.05810539,0.3970408,-0.02141036,13.3799997009337,2
4.459837,0.6833335,12.3543,-0.2035403345682489,0.3151908763503081,-0.3052802398225758,10.62356,46.96854,0.6103607,0.08701944,0.3963281,-0.03202626,13.3999997004867,2
4.502437,0.8833334,12.39906,-0.2430526852269796,0.3282583944751198,-0.3437396613270902,14.15751,47.04495,0.8267331,0.1158477,0.3952411,-0.04261767,13.4199997000396,2
4.703341,0.2833333,12.59873,-0.1363837381126194,-0.3601446930588855,-0.2433347475473564,3.565961,48.31092,0.1973518,0.02909385,0.4089663,-0.01116154,13.4399996995926,2
4.746172,0.4833332,12.64229,-0.2121792740338435,-0.1257984263954678,-0.323502196239497,7.057413,48.44625,0.4352622,0.05768462,0.4092971,-0.02179529,13.4599996991456,2
4.788663,0.6833332,12.68579,-0.2902392449017545,0.1252745280403001,-0.4060499410268523,10.53121,48.60533,0.694787,0.08612356,0.4093053,-0.03226652,13.4799996986985,2
4.830997,0.8833331,12.72931,-0.3607084549370318,0.3408035320076369,-0.4816169893265893,13.9999,48.77329,0.9747751,0.1144774,0.4088556,-0.04262698,13.4999996982515,2
4.969578,0.2833333,12.86529,-0.3043780057762753,-0.3852339736767936,-0.4518214629883808,3.432565,50.09232,0.3307922,0.0283554,0.4230783,-0.01006527,13.5199996978045,2
5.011431,0.4833333,12.90822,-0.3509748805203969,-0.1885224560363539,-0.5216321564965565,6.848492,50.21105,0.6851708,0.05661749,0.4231983,-0.01993701,13.5399996973574,2
5.053055,0.6833333,12.95112,-0.3861353014377089,0.0249156319419466,-0.5789643114195417,10.25407,50.35348,1.056031,0.08477588,0.4229466,-0.02970837,13.5599996969104,2
5.202875,0.2833334,13.09688,-0.2790404722143327,-0.4375044359400737,-0.5182121556951547,3.443266,50.5545,0.3217017,0.02836513,0.4267281,-0.01029112,13.5799996964633,2
5.245368,0.4833333,13.13933,-0.2926177437615793,-0.1906132072860533,-0.5729936386802859,6.868202,50.68493,0.6586065,0.05659073,0.4269411,-0.02045368,13.5999996960163,2
5.286613,0.6833333,13.18198,-0.3016340556564785,0.0730044849867936,-0.6187638625899226,10.24336,50.78777,1.059447,0.08459133,0.4263626,-0.02996261,13.6199996955693,2
5.327459,0.8833331,13.2246,-0.2979430190096357,0.3010782283593272,-0.647165472871249,13.59968,50.91731,1.484934,0.112426,0.4254149,-0.03927409,13.6399996951222,2
5.516749,0.2833334,13.40744,-0.1062590171070256,-0.4124144173491827,-0.5170948030939186,3.389985,50.05781,0.2997476,0.02790736,0.4228188,-0.01014494,13.6599996946752,2
5.55762,0.4833333,13.44936,-0.0832709138831848,-0.2031579196848023,-0.5450764543901219,6.726393,50.12863,0.6415017,0.05550746,0.4226016,-0.01979,13.6799996942282,2
5.597999,0.6833333,13.49123,-0.061850103759439,0.0228250415984064,-0.5659783739388757,10.03933,50.22223,1.00626,0.08293712,0.4220354,-0.02920966,13.6999996937811,2
5.768116,0.2833333,13.65502,0.1098232297248689,-0.4270502602204383,-0.4565981196600646,3.303782,48.26752,0.2003992,0.02702197,0.4086516,-0.01019111,13.7199996933341,2
5.808096,0.4833332,13.69611,0.1231576923923345,-0.1676143737903918,-0.4926324056531577,6.579853,48.33162,0.435441,0.05391191,0.4085021,-0.02003225,13.7399996928871,2
5.84783,0.6833332,13.73718,0.1271155989221153,0.1085479864512405,-0.5289979997863714,9.844384,48.41025,0.6844156,0.0806977,0.4080179,-0.02975148,13.75999969244,2
5.887517,0.8833331,13.77823,0.1304389297057575,0.3491665131362277,-0.5576085615727884,13.10613,48.50444,0.9419579,0.1074024,0.4072014,-0.03942943,13.779999691993,2
6.031227,0.2833333,13.91688,0.2532245167997899,-0.3517812482905572,-0.4855599395115408,3.287077,46.59435,0.06998629,0.02658417,0.3953213,-0.01078271,13.799999691546,2
6.072054,0.4833333,13.95718,0.2565910413486101,-0.1299795391308382,-0.5168730453053971,6.573146,46.64346,0.1428575,0.05313868,0.3951767,-0.02155367,13.8199996910989,2
6.112866,0.6833333,13.99748,0.2607736667935443,0.1085486284206553,-0.539004916922007,9.858382,46.69707,0.2185498,0.07964119,0.3947065,-0.03230929,13.8399996906519,2
6.153666,0.8833332,14.03777,0.2745235060615707,0.3115328295612002,-0.5442010621435021,13.14262,46.75573,0.2982724,0.1060708,0.3939117,-0.04303521,13.8599996902049,2
6.337214,0.2833334,14.21291,0.3146280793857974,0.2932381534904829,-0.5407240603123338,3.252446,44.41611,359.9148,0.02599282,0.3778382,-0.01141495,13.8799996897578,2
6.377979,0.4833332,14.25241,0.3470978443599666,0.3204187096316609,-0.536106663280977,6.504013,44.45169,359.8314,0.05195725,0.3777262,-0.02281736,13.8999996893108,2
6.417366,0.6833332,14.2919,0.3804263490564485,0.3397585406584127,-0.5225343896691417,9.69927,44.46216,359.8059,0.07761808,0.3771205,-0.03354778,13.9199996888638,2
6.582012,0.2833333,14.44753,0.5613797507363802,-0.3423721452879635,-0.387656092922283,3.190774,42.23646,359.8317,0.02544218,0.3601917,-0.01140088,13.9399996884167,2
6.62161,0.4833333,14.48678,0.5541275784596031,-0.1017533755449376,-0.4288382000176742,6.380625,42.23626,359.6631,0.0508571,0.3598847,-0.02278965,13.9599996879697,2
6.661196,0.6833333,14.52601,0.5356384211130374,0.1555920767433821,-0.4716428719591032,9.56955,42.22654,359.4932,0.07622527,0.3592981,-0.03415743,13.9799996875226,2
6.70077,0.8833332,14.56524,0.5146258125862824,0.3773933465691673,-0.5081698688246181,12.75756,42.20698,359.3208,0.1015268,0.3584327,-0.04549678,13.9999996870756,2
6.842771,0.2833334,14.68789,0.6204280879230986,-0.3423717794812621,-0.4595757548365675,3.445978,43.25258,359.8139,0.02735248,0.3684294,-0.01259034,14.0199996866286,2
6.886379,0.4833333,14.72949,0.6109959908461873,-0.1393877689539724,-0.5106864168081877,6.891058,43.24957,359.6273,0.05467293,0.3680404,-0.0251661,14.0399996861815,2
6.929337,0.6833333,14.7712,0.598153099553226,0.0803226983969774,-0.5542348637632148,10.31603,43.19692,359.4681,0.0818878,0.366993,-0.0373912,14.0599996857345,2
7.086211,0.2833333,14.9036,0.5908065711014467,0.2644890900044174,-0.582261554846065,3.54259,45.52199,359.8627,0.02803952,0.386737,-0.01306319,14.0799996852875,2
7.13155,0.4833333,14.94522,0.6192378405613157,0.2273769470340232,-0.6362332886774933,7.066167,45.46281,359.7416,0.05596849,0.3858044,-0.02588818,14.0999996848404,2
7.175194,0.6833332,14.98655,0.6382677846143885,0.2357403789089499,-0.6861386964139147,10.5084,45.40342,359.6738,0.0833855,0.3845509,-0.03795696,14.1199996843934,2
7.21836,0.8833331,15.02779,0.6580125022401262,0.2362630963849105,-0.7239361898670165,13.92824,45.34216,359.6169,0.1105995,0.3829686,-0.04979593,14.1399996839464,2
7.417618,0.2833333,15.19336,0.8492950959742682,-0.4646845707806577,-0.7118883692874789,3.547864,48.14613,0.01078622,0.02830202,0.4077031,-0.01254109,14.1599996834993,2
7.463241,0.4833333,15.23468,0.8642017782407585,-0.2428833414645461,-0.8493528122489966,7.074368,48.1042,0.02911893,0.0564429,0.4067764,-0.02491378,14.1799996830523,2
7.50766,0.6833332,15.27576,0.8698623437731978,-0.00435544240942,-0.9775810672665646,10.53982,48.0683,0.08160556,0.08417355,0.4054996,-0.03676016,14.1999996826053,2
7.686434,0.2833332,15.42447,1.078097730235398,-0.4416855998134628,-1.070676346016711,3.518062,49.32952,0.1049278,0.02827743,0.4170859,-0.01197798,14.2199996821582,2
7.731822,0.4833331,15.46585,1.116567370631449,-0.1697044808056211,-1.2914476588960415,7.035641,49.29512,0.2077174,0.05652302,0.4161478,-0.02394441,14.2399996817112,2
7.777198,0.683333,15.50721,1.1333776111281857,0.1190032022676098,-1.5006777747450002,10.55227,49.26684,0.3093064,0.08470719,0.414818,-0.0358849,14.2599996812642,2
7.822561,0.883333,15.54857,1.1381200689240585,0.3721669178844861,-1.6901563847666967,14.06793,49.24464,0.4104596,0.1128035,0.4130979,-0.0477881,14.2799996808171,2
7.970843,0.2833333,15.66949,1.1402612865141162,0.4236866288457916,-1.851779768517897,3.612819,50.48493,0.1129018,0.02893246,0.4262096,-0.01255206,14.2999996803701,2
8.01826,0.4833334,15.7111,1.2334906958394765,0.3558041812949292,-2.091944246500677,7.224672,50.45173,0.223872,0.05782773,0.4252287,-0.02508824,14.3199996799231,2
8.065657,0.6833333,15.75271,1.303158014726355,0.3338851785995094,-2.3065734305401406,10.8364,50.42527,0.333293,0.08666211,0.4238253,-0.03760301,14.339999679476,2
8.11304,0.8833333,15.7943,1.35913526310026,0.3046132125126395,-2.487619189917897,14.44715,50.40558,0.4425263,0.1154022,0.4220012,-0.05007684,14.359999679029,2
8.302179,0.2833333,15.94814,1.5901002087301634,-0.42564149340457,-2.6179225246044986,3.62602,51.87319,0.1409154,0.02898868,0.437122,-0.01273227,14.379999678582,2
8.350456,0.4833333,15.98911,1.6344478845203394,-0.2326593117365451,-2.864642277817841,7.251082,51.84288,0.2801395,0.05793991,0.4361232,-0.02544821,14.3999996781349,2
8.39872,0.6833332,16.03007,1.6547769258610536,-0.0224624558969649,-3.0755853604210213,10.87516,51.82125,0.4187563,0.08682461,0.4346879,-0.03813522,14.4199996776879,2
8.576536,0.2833333,16.16899,1.865216736328021,-0.4876357582803325,-3.2277195755004016,3.571914,55.15174,0.2394954,0.02859228,0.4626391,-0.01257565,14.4399996772408,2
8.625316,0.4833333,16.208,1.9010744062464584,-0.2430101122599472,-3.472426006694082,7.142897,55.13063,0.4780201,0.05714806,0.4616264,-0.02513572,14.4599996767938,2
8.674082,0.6833333,16.24699,1.906561960629583,0.0188299827330603,-3.6787508820724,10.71289,55.12447,0.7174308,0.08563952,0.4601641,-0.03766802,14.4799996763468,2
8.722832,0.8833331,16.28597,1.8925538438850449,0.2456138746062132,-3.840062654967354,14.28162,55.13344,0.9588447,0.1140342,0.4582536,-0.05016554,14.4999996758997,2
8.884727,0.2833333,16.39152,2.1392642450265864,-0.4686808768212163,-3.927826869506632,3.508228,57.88277,0.3077385,0.02808638,0.4836142,-0.01246367,14.5199996754527,2
8.933733,0.4833333,16.42857,2.238391069921951,-0.2597386195699837,-4.062985650000041,7.015558,57.86776,0.6150333,0.05613797,0.4825992,-0.024912,14.5399996750057,2
8.982726,0.6833332,16.46562,2.3056509782393637,-0.0335819138688329,-4.153167455668587,10.5216,57.87168,0.9238135,0.08412443,0.4811293,-0.03733499,14.5599996745586,2
9.031703,0.8833331,16.50266,2.3526629995936226,0.1575186009960403,-4.192811510678084,14.02654,57.89505,1.236443,0.1120216,0.4792062,-0.0497225,14.5799996741116,2
9.222593,0.2833333,16.60914,2.422510866171258,0.1278286929573537,-4.2753458829175806,3.432051,64.05118,0.416676,0.02731562,0.5299644,-0.01279869,14.5999996736646,2
9.273282,0.4833334,16.64183,2.456349096673872,0.1441020189495784,-4.311806766254996,6.863096,64.04538,0.8314883,0.05458752,0.5289221,-0.0255972,14.6199996732175,2
9.323956,0.6833333,16.67451,2.467199270996092,0.1530228499815575,-4.296845350629269,10.29313,64.06477,1.2496,0.08180216,0.5273996,-0.03836881,14.6399996727705,2
9.525955,0.2833334,16.73482,2.466931854014735,0.1012750179024241,-4.2254815859652055,3.3775,68.4865,0.3299329,0.02598088,0.5623906,-0.01420383,14.6599996723235,2
9.578696,0.4833333,16.76172,2.511157789091208,0.042174147075138,-4.2227351085644464,6.754113,68.47246,0.6567245,0.05191746,0.5613409,-0.02841098,14.6799996718764,2
