pX,pY,pZ,aX,aY,aZ,reX,reY,reZ,rtX,rtY,rtZ,t,ID
-41.02366,0.23,-38.04342,6.0163071905281456,-0.0673942823865393,3.617664743707856,358.1859,0.4336409,0.9467032,-0.01579862,0.003914401,0.008320259,0.939999978989363,4
-41.04789,0.43,-38.08662,6.645614762613597,-0.1390980963940042,4.03209719012618,356.2808,0.8036388,1.94877,-0.03232593,0.007560128,0.01722358,0.959999978542328,4
-41.35006,0.2833333,-38.53346,7.197207054102073,-0.00220723781545,4.400835466278437,0.01826144,7.682436,359.9066,0.0001044274,0.06699181,-0.0008235089,0.979999978095293,4
-41.34847,0.4833333,-38.53333,7.780234241755068,-0.3213252676689071,4.757664534625704,0.03860097,8.958041,359.8138,0.0002089503,0.0780945,-0.001646021,0.999999977648258,4
-41.33212,0.2833333,-38.51624,8.271628279776685,-0.4025423416683225,5.060071340599187,0.7537988,16.19073,0.4118772,0.007018638,0.1407938,0.002632077,1.01999997720122,4
-41.33557,0.4833334,-38.50147,8.811137746843592,-0.6980680795977521,5.359211760192238,1.498174,17.47228,0.8405678,0.01403566,0.1517724,0.005263919,1.03999997675419,4
-41.33902,0.6833334,-38.48672,9.243269252566328,-0.7540905260509375,5.596617825666328,2.234429,18.75869,1.287693,0.0210669,0.1627129,0.0079073,1.05999997630715,4
-41.29079,0.2833332,-38.46195,9.56977786762338,-0.5959431125717594,5.772743297625816,1.360639,25.50387,0.128037,0.01182728,0.2207018,-0.001531151,1.07999997586012,4
-41.28272,0.4833331,-38.43933,9.7927162389081,-0.2479143266597151,5.888185489016088,2.718065,26.77884,0.2860737,0.02365056,0.2314449,-0.003064253,1.09999997541308,4
-41.27467,0.6833333,-38.41673,10.064513457069602,-0.5869993664811654,5.993637881874534,4.074153,28.05797,0.4726561,0.03548492,0.2421152,-0.004617643,1.11999997496605,4
-41.17301,0.2833333,-38.35848,10.220432904674489,-0.679193695562585,6.029289190293532,2.71213,37.36732,0.1103244,0.02272677,0.3202314,-0.006669328,1.13999997451901,4
-41.14604,0.4833333,-38.31918,10.393285290911912,-0.976705775808332,6.044284930243954,5.422944,38.64503,0.2793202,0.04544723,0.330405,-0.01335531,1.15999997407198,4
-41.11909,0.6833336,-38.2799,10.442138562263947,-1.0257236928445264,5.98500334533135,8.131453,39.93671,0.5100277,0.0681538,0.3403417,-0.02003974,1.17999997362494,4
-41.00682,0.2833333,-38.22471,10.371834835548214,-0.8515812378363976,5.853890427014527,4.103221,45.77853,0.2106189,0.03369515,0.3886408,-0.01223214,1.19999997317791,4
-40.95837,0.4833335,-38.17136,10.286956895983424,-1.118881078585474,5.694205452879686,8.204657,47.07318,0.5129015,0.06736853,0.398014,-0.0244743,1.21999997273088,4
-40.81022,0.2833333,-38.09322,10.081188632219416,-1.1337143958310991,5.461809545314878,4.309181,52.60492,0.3171519,0.03492883,0.4427015,-0.01417965,1.23999997228384,4
-40.75419,0.4833333,-38.0424,9.889550473327326,-1.3482905426033092,5.2096133547921255,8.612291,53.91136,0.7316566,0.06981291,0.451585,-0.0283606,1.25999997183681,4
-40.69818,0.6833335,-37.9916,9.57390710131954,-1.30879711100716,4.883874501921724,12.90631,55.26716,1.252494,0.104602,0.4597608,-0.04250373,1.27999997138977,4
-40.56431,0.2833335,-37.94312,9.141831098204172,-1.0405674525254789,4.488190559258975,3.720741,59.20512,0.2968264,0.02950525,0.4936455,-0.01378547,1.29999997094274,4
-40.5116,0.4833336,-37.90494,8.701397897347668,-1.2082047007774683,4.06866763252647,7.432787,60.49802,0.6781173,0.05896632,0.5023596,-0.02755081,1.3199999704957,4
-40.32918,0.2833331,-37.82541,8.148212965900278,-1.117799702493685,3.5802108071258445,3.668605,63.84123,0.337917,0.02872706,0.5283904,-0.0144229,1.33999997004867,4
-40.27465,0.4833331,-37.79138,7.620677182356168,-1.2215623693891833,3.0791156520825997,7.327666,65.13493,0.7591729,0.05741196,0.5368235,-0.02882555,1.35999996960163,4
-40.22014,0.6833333,-37.75736,6.982391177097725,-1.065679293110774,2.511445219613499,10.97509,66.46801,1.268402,0.08602177,0.5446292,-0.04319158,1.3799999691546,4
-40.06063,0.2833335,-37.69791,6.243631818492069,-0.6754845422931737,1.8817518909032172,3.612542,68.28516,0.3275563,0.02769087,0.5608985,-0.01532613,1.39999996870756,4
-40.00446,0.4833333,-37.66875,5.613249511723126,-0.7155818877335267,1.2701656192391368,7.215923,69.57333,0.7367737,0.05534247,0.5690476,-0.0306318,1.41999996826053,4
-39.81723,0.2833331,-37.59366,4.879413846833117,-0.4920616693123394,0.5969182854726469,3.558273,72.23726,0.4482582,0.02738408,0.5890722,-0.01514227,1.43999996781349,4
-39.76075,0.4833331,-37.56676,4.054314297579346,-0.0302572257061551,-0.1328475076371447,7.104601,73.53349,0.9775853,0.0547292,0.5969636,-0.0302643,1.45999996736646,4
-39.70427,0.6833334,-37.53987,3.30467433709579,-0.2348673965088761,-0.8123779700397407,10.6368,74.87423,1.593057,0.08200525,0.6041917,-0.04534948,1.47999996691942,4
-39.54492,0.2833328,-37.48043,2.844587219520143,-0.02352036443044,-1.0013076086587702,3.497127,75.7357,0.5158197,0.02684979,0.6134419,-0.01517841,1.49999996647239,4
-39.48823,0.483333,-37.45616,2.364488628559819,0.1815544375948717,-1.1685001838020384,6.980779,77.03339,1.11144,0.05366154,0.6210963,-0.03033681,1.51999996602535,4
-39.30103,0.2833335,-37.3838,1.952309025223613,0.1679641201035784,-1.2844109719199397,3.453246,77.55913,0.5811627,0.02666344,0.6259143,-0.01491958,1.53999996557832,4
-39.24459,0.4833332,-37.36042,1.5460268287454468,0.1758043880249715,-1.3876937799632785,6.891726,78.85947,1.241448,0.05329117,0.6334431,-0.02981991,1.55999996513128,4
-39.18817,0.6833332,-37.33704,1.2785590578925508,-0.2751161700676464,-1.4226167854499536,10.31307,80.2103,1.985012,0.07984668,0.6402982,-0.04469436,1.57999996468425,4
-39.13177,0.8833331,-37.31364,0.974015649818,-0.0397243669603341,-1.4502308180006338,13.71515,81.62202,2.817791,0.1062987,0.6464723,-0.05953699,1.59999996423721,4
-38.93476,0.283333,-37.24339,0.8407375374120036,-0.2374810222204086,-1.4049766786090174,3.417084,79.51161,0.4441178,0.02539856,0.639139,-0.01608904,1.61999996379018,4
-38.87774,0.4833325,-37.22433,0.7272621733911464,-0.4425559854132356,-1.345002421852648,6.822536,80.79379,0.9632849,0.05075225,0.6465265,-0.0321705,1.63999996334314,4
-38.69966,0.2833333,-37.16085,0.5381381493256683,0.0109782641646846,-1.3073119262059123,3.387069,79.07277,0.2939795,0.02442452,0.6362295,-0.01683506,1.65999996289611,4
-38.64278,0.4833333,-37.14401,0.4836901175730332,-0.2087322359424719,-1.2179232563693176,6.765697,80.33871,0.6622966,0.04881097,0.6436538,-0.03365339,1.67999996244907,4
-38.58592,0.6833333,-37.12718,0.4478352676505466,-0.435761191211085,-1.1294375514923942,10.13431,81.63654,1.109343,0.07314192,0.6504298,-0.05043327,1.69999996200204,4
-38.4359,0.2833332,-37.0722,0.3433166967967196,-0.0041811492378324,-1.0576963150849463,3.352077,78.82212,0.22197,0.02382672,0.6345631,-0.01707311,1.719999961555,4
-38.37944,0.483333,-37.05647,0.4383068437989195,-0.2458455015099476,-0.9267449998708556,6.697331,80.07763,0.5172933,0.04761933,0.6419996,-0.03412618,1.73999996110797,4
-38.20236,0.2833333,-36.99403,0.4144054661215719,-0.0146354508423642,-0.8476639770408454,3.31406,77.83543,0.1151772,0.02312967,0.6279179,-0.0173838,1.75999996066093,4
-38.14642,0.4833332,-36.97929,0.3814984745875733,0.2103020166845626,-0.789917360251863,6.623882,79.07883,0.3024816,0.04623054,0.6354258,-0.03474583,1.7799999602139,4
-38.09049,0.6833335,-36.96455,0.459117586092816,-0.2636181591361324,-0.704880465958631,9.927582,80.34238,0.5636457,0.06927665,0.6423213,-0.05207067,1.79999995976686,4
-37.94067,0.2833333,-36.91005,0.4463047338111536,-0.0512260749875222,-0.6421361142267585,3.280352,77.31815,0.02121892,0.02246632,0.624425,-0.01773555,1.81999995931983,4
-37.88506,0.4833333,-36.89655,0.5792179890987299,-0.2719825935601216,-0.5334458398586506,6.558517,78.54952,0.1130276,0.04490499,0.6319594,-0.03544921,1.8399999588728,4
-37.70819,0.2833333,-36.83423,0.5597105867181966,-0.0198643440832583,-0.4871417768690449,3.242325,75.96136,359.9599,0.02208404,0.6151572,-0.01768586,1.85999995842576,4
-37.65328,0.4833338,-36.82059,0.5362080507255129,0.2259813672056136,-0.4515223534830141,6.483742,77.18485,359.989,0.04414094,0.6227823,-0.03534992,1.87999995797873,4
-37.59839,0.6833341,-36.80697,0.5207062360663386,0.4132836609242639,-0.4235531077294894,9.722881,78.41871,0.08853293,0.06615162,0.6298307,-0.05297641,1.89999995753169,4
-37.35772,0.2833333,-36.72262,0.5431024833897453,0.3563080766702423,-0.3671798385379645,3.204803,73.83717,359.8522,0.02158231,0.600473,-0.0178276,1.91999995708466,4
-37.30344,0.4833331,-36.70895,0.5634645266103391,0.3218088674364739,-0.3194548007723909,6.411107,75.04782,359.7721,0.0431393,0.6082264,-0.03563403,1.93999995663762,4
-37.24918,0.6833333,-36.69529,0.5607385131279017,0.3097867231941617,-0.2874939322450487,9.617377,76.26228,359.7601,0.06465141,0.6154269,-0.05340235,1.95999995619059,4
-37.07766,0.2833333,-36.63509,0.5459603406107831,0.3202412699475523,-0.265984960006044,3.434316,74.73909,359.8459,0.02299915,0.6067125,-0.01925561,1.97999995574355,4
-37.01923,0.4833331,-36.62129,0.531209836635611,0.2998558321730225,-0.2510760675666432,6.870221,75.94551,359.7641,0.04596929,0.6142771,-0.03848645,1.99999995529652,4
-36.96083,0.6833333,-36.60749,0.4901658544562934,0.2752897480906239,-0.2433666151353932,10.30607,77.15668,359.7549,0.06888612,0.6212126,-0.05767287,2.01999995484948,4
-36.81743,0.2833333,-36.55462,0.4479968620407675,0.2731997594681775,-0.2410611007671477,3.563219,76.04372,359.8546,0.02371073,0.6156949,-0.02014925,2.03999995440245,4
-36.75658,0.4833331,-36.54145,0.2601407558826167,0.7204613897516458,-0.2978320704031603,7.127753,77.24729,359.784,0.04738975,0.6230854,-0.04027111,2.05999995395541,4
-36.58644,0.2833334,-36.48219,0.2205870679342325,0.4986602296940071,-0.3079835678672182,3.569876,76.87115,359.8802,0.02374871,0.6213579,-0.0201814,2.07999995350838,4
-36.52544,0.4833333,-36.46944,0.1798933245443663,0.2737231479237052,-0.3235684404229815,7.140528,78.07468,359.8351,0.04746459,0.6286733,-0.04033655,2.09999995306134,4
-36.32409,0.2833333,-36.40275,0.2781874578725585,-0.4355879014597726,-0.304122595321509,3.593213,78.08644,359.986,0.02427294,0.6295998,-0.01984338,2.11999995261431,4
-36.26282,0.4833331,-36.38939,0.2152702561586998,-0.2451485024490769,-0.3442122218832892,7.185117,79.29762,0.04826311,0.04851522,0.6368059,-0.03965902,2.13999995216727,4
-36.20158,0.6833334,-36.37604,0.1527766897915832,-0.0609806262710276,-0.3846685437444179,10.7738,80.52361,0.1882928,0.07269744,0.6433083,-0.05942488,2.15999995172024,4
-36.03128,0.2833333,-36.31545,-0.042373187285559,0.5448355168770944,-0.4743305362627765,3.589458,79.58635,0.1152934,0.02470772,0.6396797,-0.0192719,2.1799999512732,4
-35.97019,0.4833331,-36.30151,-0.0766339162506071,0.2414923641442984,-0.5211060969950552,7.174684,80.80611,0.3075595,0.04938336,0.6467603,-0.03851543,2.19999995082617,4
-35.90911,0.6833329,-36.28756,-0.1097176693455459,-0.0649868434168134,-0.565074955946443,10.75395,82.04897,0.5792059,0.07399838,0.6531276,-0.05771106,2.21999995037913,4
-35.67185,0.2833333,-36.20536,-0.1167237518947423,-0.1355520231316628,-0.6285920579977926,3.567182,80.32858,0.1281494,0.02450622,0.6446421,-0.01922052,2.2399999499321,4
-35.611,0.4833333,-36.19206,-0.125517643907326,-0.183641048059486,-0.6878377417575052,7.129715,81.54571,0.3320922,0.0489767,0.6516591,-0.03841569,2.25999994948506,4
-35.55017,0.6833332,-36.17877,-0.268127547084898,0.2176225353129099,-0.7938408657938041,10.68609,82.78642,0.6147887,0.07338767,0.6579657,-0.057564,2.27999994903803,4
-35.38825,0.283333,-36.12106,-0.3050027093414371,-0.0501769622800343,-0.8791548288246247,3.649579,81.1628,0.1505248,0.02503842,0.6501656,-0.01971774,2.29999994859099,4
-35.32584,0.483333,-36.10803,-0.3343333588725983,-0.321113233508414,-0.9543012647574898,7.294103,82.37914,0.3788627,0.05004143,0.6570569,-0.03940735,2.31999994814396,4
-35.13458,0.2833331,-36.04395,-0.4560546366435538,0.0707412668984296,-1.0618941016019647,3.620554,81.22433,0.1425648,0.02479046,0.6505802,-0.01961908,2.33999994769692,4
-35.07265,0.4833331,-36.03121,-0.387703101544897,-0.2064669592657695,-1.1337765033289529,7.23623,82.43726,0.362126,0.04954636,0.6574674,-0.03921021,2.35999994724989,4
-35.01073,0.683333,-36.01847,-0.4530933882836407,-0.0066193282540033,-1.2455968424950967,10.84538,83.67529,0.6615981,0.07424061,0.6636194,-0.058752,2.37999994680285,4
-34.94883,0.8833328,-36.00574,-0.5093718648412953,0.1911368927249584,-1.3406524235084376,14.44657,84.94913,1.045427,0.09884793,0.6690298,-0.07822609,2.39999994635582,4
-34.75208,0.2833328,-35.93336,-0.449785002520187,-0.3057826392968553,-1.3952942918667723,3.581544,83.92843,0.2410996,0.0246423,0.6682894,-0.01933195,2.41999994590878,4
-34.6905,0.4833326,-35.92195,-0.5904377745143918,-0.1122076490975821,-1.5111913676782045,7.15614,85.14552,0.558619,0.0492498,0.6749751,-0.03863754,2.43999994546175,4
-34.51254,0.283333,-35.86903,-0.7200406316225099,0.0792768692380561,-1.608618323946878,3.533731,84.98019,0.300271,0.02450491,0.6750797,-0.01889497,2.45999994501472,4
-34.45169,0.4833333,-35.8578,-0.6541525027860331,-0.4239142768285032,-1.6600913688979873,7.05924,86.1999,0.6762321,0.04897584,0.6816999,-0.03776399,2.47999994456768,4
-34.39087,0.6833333,-35.84658,-0.7073292974516932,-0.2366115415108615,-1.7444496085653682,10.57483,87.45357,1.131775,0.07338753,0.6875879,-0.05658738,2.49999994412065,4
-34.25037,0.2833336,-35.80284,-0.5966138704972437,-0.4782757448990415,-1.7858110733253303,3.482721,86.08691,0.3313447,0.02418112,0.6821706,-0.01862893,2.51999994367361,4
-34.19025,0.4833336,-35.79231,-0.4801859437387463,-0.7230763907887512,-1.8058474013544696,6.956703,87.30529,0.7372794,0.04833021,0.6887163,-0.03723305,2.53999994322658,4
-34.13014,0.6833334,-35.78178,-0.447954993303437,-0.3050866254486475,-1.847259559831798,10.41991,88.55871,1.221441,0.0724189,0.6945406,-0.05579336,2.55999994277954,4
-33.93608,0.2833333,-35.7248,-0.2822752061491727,-0.5561589461040539,-1.835995248592148,3.431374,86.54984,0.3455648,0.02386461,0.6851236,-0.0183291,2.57999994233251,4
-33.87679,0.4833336,-35.71457,-0.2342558242309884,-0.3301761392803055,-1.8539503290277324,6.853378,87.76527,0.764311,0.04769506,0.6916413,-0.03663283,2.59999994188547,4
-33.69778,0.2833333,-35.67015,-0.1761721756772019,-0.1062836441980904,-1.847715507087372,3.390409,86.50309,0.2714502,0.02316892,0.6848498,-0.01854541,2.61999994143844,4
-33.63911,0.4833333,-35.66122,-0.0751943070261553,-0.0968751219212539,-1.817587043510347,6.773155,87.70897,0.6140757,0.04630293,0.6913811,-0.03706909,2.6399999409914,4
-33.58046,0.6833336,-35.65229,0.0161395675976585,-0.0618540271843757,-1.7671385883663395,10.14686,88.94478,1.031762,0.06938474,0.6972243,-0.05555043,2.65999994054437,4
-33.52183,0.8833337,-35.64336,0.109277072236587,-0.0545368631925075,-1.6933577378549565,13.5098,90.21993,1.52914,0.09239236,0.7023745,-0.07397155,2.67999994009733,4
-33.32027,0.2833335,-35.59899,0.1877445172696887,-0.0482645472414542,-1.591951067784848,3.345544,87.50337,0.2156237,0.02238675,0.6911987,-0.01882807,2.6999999396503,4
-33.26218,0.4833337,-35.59211,0.2629101626280459,-0.016379661443884,-1.4738765752881946,6.684679,88.69909,0.5004889,0.0447384,0.6976562,-0.03763662,2.71999993920326,4
-33.08768,0.2833333,-35.56782,0.3462628825257319,-0.0121981087647565,-1.3365057401618223,3.305464,87.57394,0.1134748,0.02150621,0.6916702,-0.0192432,2.73999993875623,4
-33.0302,0.4833329,-35.56283,0.4144380393808546,-0.0090621511596538,-1.1791740295383557,6.606989,88.75813,0.295424,0.04298612,0.6981316,-0.03846331,2.75999993830919,4
-32.97272,0.6833333,-35.55784,0.4697497460664301,0.0196865886846154,-1.013511012517462,9.902694,89.96157,0.5470961,0.06441221,0.7039323,-0.05764459,2.77999993786216,4
-32.82336,0.2833331,-35.54192,0.523537104260722,0.0207320344391147,-0.8371238742078475,3.266194,88.0723,0.02217832,0.02062249,0.6948258,-0.01967096,2.79999993741512,4
-32.76645,0.4833329,-35.53907,0.5578836440376982,0.0207324048630467,-0.6472033167251254,6.530289,89.24487,0.1112705,0.04121993,0.7012518,-0.03931816,2.81999993696809,4
-32.70955,0.6833329,-35.53621,0.5863853785485844,0.0463455601396703,-0.4530801289883825,9.790681,90.43093,0.2681658,0.06176899,0.7070293,-0.0589254,2.83999993652105,4
-32.49375,0.2833331,-35.51517,0.4654262488879297,0.5244472638109858,-0.3137886649428338,3.227172,86.24143,359.9063,0.01999471,0.6832833,-0.01984414,2.85999993607402,4
-32.43748,0.4833331,-35.51255,0.5062864826765541,0.3366221893690159,-0.0960272817246661,6.454588,87.40048,359.8778,0.03996529,0.6898327,-0.03966449,2.87999993562698,4
-32.38124,0.6833331,-35.50992,0.5361704594893304,0.1487972075330279,0.1175841163904252,9.680962,88.56602,359.9153,0.05989463,0.6957574,-0.05944301,2.89999993517995,4
-32.23693,0.2833333,-35.48954,0.7133970801811671,-0.5202655665170934,0.3902460897428454,3.192723,85.41942,359.8537,0.01960441,0.6780466,-0.0198336,2.91999993473291,4
-32.18122,0.4833331,-35.48707,0.7220795226791878,-0.2864417029223056,0.5847246474939638,6.386827,86.57052,359.7715,0.03918649,0.684646,-0.03964355,2.93999993428588,4
-32.12553,0.6833332,-35.48461,0.7180112364386595,-0.0557538532105751,0.7683964964947094,9.580967,87.72485,359.7536,0.05872806,0.6906365,-0.05941281,2.95999993383884,4
-31.90866,0.2833333,-35.46039,0.5730436703120212,0.599718729146033,0.8937494185054149,3.531268,86.70838,359.841,0.02145134,0.6862109,-0.02216067,2.97999993339181,4
-31.84693,0.4833333,-35.45901,0.5758993147468061,0.3491687983173851,1.0816753494002145,7.06409,87.85477,359.7525,0.04287454,0.6925226,-0.0442922,2.99999993294477,4
-31.64376,0.2833331,-35.43679,0.5653900253997008,0.0986185405364755,1.252282776696255,3.507224,87.95348,359.8751,0.02126486,0.6940647,-0.02203281,3.01999993249774,4
-31.5825,0.4833331,-35.43618,0.5937783328270569,0.0871189019001784,1.4284709907337572,7.016524,89.10066,359.8199,0.04250707,0.7002886,-0.0440468,3.0399999320507,4
-31.52127,0.683333,-35.43557,0.6050890080405296,0.1012315671404402,1.5821828615487163,10.52522,90.25416,359.8355,0.06369957,0.7057783,-0.06600825,3.05999993160367,4
-31.34934,0.2833336,-35.40903,0.6117614999689707,0.0876411642739238,1.7158748956919254,3.561109,88.29864,359.9191,0.02180328,0.69621,-0.02214846,3.07999993115664,4
-31.28718,0.4833333,-35.40797,0.4654033456767941,0.7133195310633169,1.776243272360368,7.122601,89.44657,359.9098,0.04358174,0.7023592,-0.04426842,3.0999999307096,4
-31.22505,0.6833337,-35.40691,0.4657584630502036,0.4340207077604068,1.885200300745069,10.68247,90.60399,359.9728,0.06530696,0.7077531,-0.06633456,3.11999993026257,4
-30.98486,0.2833333,-35.34893,0.3186823902408555,0.6359593175729836,1.92595024368309,3.586051,86.46005,0.03027497,0.02297841,0.6845877,-0.0212384,3.13999992981553,4
-30.92248,0.4833331,-35.34388,0.2904578899906838,0.4131127207339569,1.9959393626978184,7.169999,87.61522,0.1348179,0.04593815,0.6908309,-0.04243775,3.1599999293685,4
-30.86012,0.6833329,-35.33884,0.2512240019507636,0.1913110404972723,2.0347315820528493,10.75007,88.78734,0.3137865,0.06884214,0.6963223,-0.06358495,3.17999992892146,4
-30.70124,0.2833333,-35.27942,0.2138389231005604,-0.0838067717364778,2.04519403699134,3.554947,85.60107,0.06945271,0.02317009,0.6791073,-0.02063049,3.19999992847443,4
-30.63955,0.4833331,-35.27283,0.0195249827203518,0.4937825219490713,1.987685364436672,7.106572,86.75621,0.2115748,0.0463126,0.6854051,-0.04122679,3.21999992802739,4
-30.57788,0.6833329,-35.26624,-0.0297431338151987,0.1663943551293644,1.9721541998663952,10.65355,87.93037,0.4276618,0.06939891,0.6909689,-0.06177359,3.23999992758036,4
-30.3507,0.2833331,-35.18469,-0.21543235580301,0.3202442575576802,1.905530458933093,3.633584,84.22997,0.09068682,0.02404826,0.6702648,-0.02067438,3.25999992713332,4
-30.28785,0.4833333,-35.17609,-0.2840556541790562,0.0493088317182563,1.8660074189478308,7.263525,85.38409,0.254779,0.04806265,0.6765908,-0.04131971,3.27999992668629,4
-30.22502,0.6833333,-35.1675,-0.3542621402568464,-0.2205814235710916,1.7970244992197024,10.88903,86.55949,0.4956573,0.07202669,0.6821631,-0.0619119,3.29999992623925,4
-30.0759,0.2833334,-35.10853,-0.5233309056439666,0.1765010950677184,1.6893784335364828,3.636,83.63862,0.110228,0.02428398,0.666425,-0.02043703,3.31999992579222,4
-30.01315,0.4833336,-35.09895,-0.4940041241331094,-0.0912983043437197,1.641217084817093,7.267987,84.79118,0.2939225,0.04853431,0.6727676,-0.04084489,3.33999992534518,4
-29.95042,0.6833336,-35.08938,-0.4629298076141843,-0.3580522447587863,1.5680453168355726,10.89449,85.96619,0.5537022,0.07272455,0.6783602,-0.06120143,3.35999992489815,4
-29.73516,0.2833336,-35.00813,-0.6072578087711058,0.042165463717934,1.452641866631005,3.58925,83.82796,0.1842422,0.02437798,0.6676482,-0.0197243,3.37999992445111,4
-29.67335,0.4833336,-34.99757,-0.6333509252629916,-0.2224977818125041,1.3710025142283513,7.173075,84.98377,0.4413142,0.0487231,0.6739802,-0.03942119,3.39999992400408,4
-29.4739,0.2833331,-34.92989,-0.6504077450882768,-0.4861155923910186,1.2705894113964007,3.543231,84.10467,0.2296028,0.02429725,0.6694416,-0.01922043,3.41999992355704,4
-29.41293,0.4833331,-34.91893,-0.7509942467426356,-0.0827612455724606,1.134979030814499,7.080082,85.26203,0.5311999,0.04856155,0.6757642,-0.03841455,3.43999992311001,4
-29.35199,0.683333,-34.90798,-0.6464052935997948,-0.344288236426862,1.0646383836703208,10.609,86.44832,0.9081578,0.07276773,0.6813662,-0.05756184,3.45999992266297,4
-29.29106,0.8833328,-34.89703,-0.5224176956578717,-0.6047699092411284,0.9789685279196084,14.12766,87.67361,1.366017,0.09689102,0.6862434,-0.07663412,3.47999992221594,4
-29.08706,0.2833333,-34.81648,-0.5594113813760409,-0.1982796354828545,0.857222360657353,3.479755,84.08371,0.298096,0.02428965,0.6693037,-0.01840146,3.4999999217689,4
-29.02733,0.483333,-34.80444,-0.4856048747385806,-0.4566706850231375,0.7764271427151961,6.951864,85.24218,0.6671336,0.04854812,0.67563,-0.03677813,3.51999992132187,4
-28.84021,0.2833333,-34.73656,-0.5647652791035433,-0.2338238866811574,0.6635520971962983,3.43011,83.26135,0.3082625,0.02415634,0.6639664,-0.01787269,3.53999992087483,4
-28.78154,0.4833331,-34.72361,-0.6342288352081944,-0.0088862388208485,0.547586425005786,6.852007,84.41793,0.6867312,0.04828197,0.6703585,-0.03571688,3.5599999204278,4
-28.72288,0.6833332,-34.71066,-0.5182133753232918,-0.4744424532659945,0.5098523967065525,10.26446,85.60672,1.138525,0.07235251,0.6760747,-0.05351972,3.57999991998076,4
-28.66424,0.8833331,-34.69772,-0.5223226155360976,-0.2453235700958869,0.4420965715897758,13.66579,86.83707,1.668617,0.09634488,0.6811101,-0.07126365,3.59999991953373,4
-28.47059,0.2833336,-34.61943,-0.3716475501544494,-0.4409897834607716,0.4400995666920551,3.389507,81.52608,0.2156713,0.02362867,0.6526033,-0.01788535,3.61999991908669,4
-28.41278,0.4833333,-34.60643,-0.219736721962537,-0.6356110640194406,0.4411041717271331,6.772819,82.66937,0.499417,0.04722622,0.6591036,-0.0357458,3.63999991863966,4
-28.23713,0.2833334,-34.54008,-0.2682584935158658,-0.1632597587367996,0.3832992994153201,3.341781,79.68189,0.1526642,0.02324171,0.6403558,-0.01765807,3.65999991819263,4
-28.18038,0.4833333,-34.52645,-0.316339345595491,0.2845246303163592,0.3289546239543739,6.678554,80.81699,0.3722325,0.04645465,0.6469847,-0.03528909,3.67999991774559,4
-28.12364,0.6833333,-34.51283,-0.1980209761577711,-0.1972352447221974,0.3537085516503104,10.00932,81.97364,0.6605754,0.06961699,0.6529945,-0.05288152,3.69999991729856,4
-28.06693,0.8833334,-34.49921,-0.1906177332931697,0.016725735577037,0.3192994266068858,13.33259,83.16032,1.021228,0.09270696,0.6583802,-0.07041855,3.71999991685152,4
-27.88212,0.2833336,-34.42288,-0.1790706122677861,0.2338230466930678,0.2880189550568772,3.299747,77.75269,0.03595161,0.02261127,0.6273745,-0.01782675,3.73999991640449,4
-27.82612,0.4833338,-34.40951,0.0237455766169887,-0.2385281022135253,0.3425461418386852,6.597191,78.87282,0.136534,0.0451951,0.6341156,-0.03563163,3.75999991595745,4
-27.66121,0.2833334,-34.34555,0.0345647780275797,-0.0151583633745895,0.3130250010166016,3.258939,75.94467,359.9563,0.02218151,0.6150407,-0.01779659,3.77999991551042,4
-27.606,0.4833336,-34.33194,0.0398128540358904,0.2113471784357503,0.283047512198074,6.517137,77.05555,359.9758,0.04433638,0.6218963,-0.03557179,3.79999991506338,4
-27.5508,0.683334,-34.31834,0.1429922360934874,-0.2515959634073484,0.305553719325335,9.77321,78.17553,0.05953881,0.06644458,0.628184,-0.05330753,3.81999991461635,4
-27.32133,0.2833333,-34.22978,0.1476974911997537,-0.0188178978705365,0.2724155177457881,3.215438,72.92749,359.8441,0.02175579,0.5941102,-0.01776763,3.83999991416931,4
-27.26704,0.4833333,-34.21538,0.1571961295520694,0.2170961548042374,0.2421262438358198,6.432322,74.02544,359.7498,0.04348617,0.6011405,-0.03551408,3.85999991372228,4
-27.21277,0.683333,-34.20098,0.3451968421738662,-0.2364386398683534,0.2947351190259226,9.649515,75.12567,359.7173,0.06517261,0.6076335,-0.05322365,3.87999991327524,4
-27.05494,0.2833333,-34.1381,0.3566687458844697,0.0057475275158734,0.2667679728060896,3.310413,72.63306,359.8393,0.02244379,0.5920306,-0.01823653,3.89999991282821,4
-26.99909,0.4833333,-34.12299,0.5133209742648113,-0.1758059794892508,0.3016507996668629,6.622363,73.72719,359.7417,0.04486058,0.5990131,-0.03645081,3.91999991238117,4
-26.94327,0.6833335,-34.10788,0.4961577751680401,0.1249236634855026,0.2670257101535576,9.934593,74.82374,359.7074,0.06722946,0.6054323,-0.05462554,3.93999991193414,4
-26.71752,0.2833333,-34.02111,0.4644557678047754,0.4287894025823083,0.2291535830734616,3.543396,73.84248,359.8462,0.02391087,0.600462,-0.01964515,3.9599999114871,4
-26.65748,0.4833333,-34.00591,0.4297489358701973,0.6835209437619167,0.1937877589498171,7.088113,74.93378,359.7597,0.04779019,0.6072412,-0.03926428,3.97999991104007,4
-26.59748,0.6833332,-33.99071,0.5560680527767126,-0.0169035010813413,0.2387831068711854,10.63475,76.02906,359.7405,0.0716237,0.6133748,-0.05884963,3.99999991059303,4
-26.44876,0.2833332,-33.9313,0.5112055155992614,0.1918307484094593,0.2058925892709275,3.56435,75.175,359.8843,0.02402848,0.6097018,-0.01976987,4.019999910146,4
-26.38825,0.4833333,-33.91677,0.5965648668868511,-0.0231747735380734,0.233234144180205,7.12935,76.26653,359.836,0.04802334,0.6163674,-0.03951639,4.03999990969896,4
-26.32776,0.6833333,-33.90224,0.518163997104935,0.2441020674740968,0.1929249029220088,10.69362,77.36462,359.8563,0.0719611,0.622373,-0.05921504,4.05999990925193,4
-26.11312,0.2833332,-33.81713,0.4251083394283057,0.5145152981074274,0.1491366822635953,3.595856,76.21446,0.00451532,0.02471164,0.6168304,-0.01933139,4.07999990880489,4
-26.05235,0.4833334,-33.80151,0.3293971812349276,0.7357938388706144,0.1074226700985434,7.19014,77.31419,0.07858653,0.04939349,0.623395,-0.03863446,4.09999990835786,4
-25.85434,0.2833333,-33.72741,0.3872295827005558,0.0019160211832982,0.1426014527871828,3.562908,76.92963,0.1063709,0.02491812,0.6217104,-0.01861083,4.11999990791082,4
-25.79436,0.4833333,-33.71096,0.2862042611059934,0.1771965499695597,0.1041602737030515,7.121833,78.03658,0.2822821,0.04980356,0.6282322,-0.03719199,4.13999990746379,4
-25.7344,0.6833333,-33.69452,0.3102770687485296,-0.0712622571817497,0.1243830943261237,10.67565,79.16434,0.5296941,0.07462952,0.6340829,-0.05572819,4.15999990701675,4
-25.67446,0.8833333,-33.67808,0.1873264574444988,0.1625618126203391,0.0808247943733704,14.22288,80.32233,0.8524163,0.09936977,0.639257,-0.07419996,4.17999990656972,4
-25.46946,0.2833333,-33.59625,0.0566918407530714,0.3995218800144977,0.0353073943800517,3.591959,78.1468,0.1359339,0.02507828,0.6299765,-0.01883399,4.19999990612268,4
-25.40875,0.4833336,-33.58049,0.1256174022693414,-0.0529661019417136,0.0759374896692435,7.179577,79.25232,0.3414671,0.05012219,0.6363778,-0.03764199,4.21999990567565,4
-25.34805,0.6833335,-33.56472,0.1877785715266107,-0.5300215020117627,0.1154490649814583,10.76189,80.38074,0.6189306,0.07510592,0.6420892,-0.05640848,4.23999990522861,4
-25.12266,0.2833333,-33.47705,0.1028867889789744,-0.1266668512399852,0.0846022385875961,3.640388,78.36063,0.1423139,0.02540567,0.6314132,-0.01910448,4.25999990478158,4
-25.06109,0.4833334,-33.46121,0.1381010198091132,-0.3881939599644625,0.1111848600251157,7.276325,79.46384,0.3550478,0.05077609,0.637754,-0.03818219,4.27999990433455,4
-24.99953,0.6833332,-33.44538,0.0440207897489592,-0.1684832984284404,0.0789740947320645,10.90646,80.59095,0.6410996,0.07608435,0.643387,-0.05721199,4.29999990388751,4
-24.85137,0.283333,-33.38538,-0.0491876721554582,0.0533177065599154,0.0474255188430881,3.61195,79.17297,0.1623457,0.02518978,0.6368906,-0.01899138,4.31999990344048,4
-24.79015,0.4833333,-33.37019,0.0570274960598169,-0.4153755937500535,0.1037185788827059,7.219019,80.2746,0.3944517,0.05034436,0.6431733,-0.03795628,4.33999990299344,4
-24.72894,0.6833333,-33.355,-0.0419466944872652,-0.1893929241364881,0.0730349149961995,10.81989,81.40104,0.6992332,0.07543723,0.6487524,-0.05687464,4.35999990254641,4
-24.51538,0.283333,-33.27026,-0.1458523060787939,0.0386804935034306,0.0400982599277739,3.556136,80.57341,0.251864,0.02508932,0.6462479,-0.01838735,4.37999990209937,4
-24.45503,0.483333,-33.2552,-0.2413477960019889,0.2165746980938314,0.010484016552656,7.10573,81.67972,0.5728269,0.05014449,0.6524478,-0.03674968,4.39999990165234,4
-24.25728,0.2833332,-33.18182,-0.2848648109356837,0.15855464441198,0.0021373861733877,3.511573,80.95385,0.2904834,0.02495113,0.6487758,-0.01796194,4.4199999012053,4
-24.19772,0.4833329,-33.16662,-0.3217029482225975,0.1313742956977479,-0.0070261805596523,7.01591,82.0611,0.6493325,0.0498692,0.6549593,-0.0358998,4.43999990075827,4
-24.13818,0.6833327,-33.15142,-0.2142540383248423,-0.3451588912199858,0.0448743677583038,10.51091,83.20004,1.080266,0.07472508,0.6604604,-0.05379076,4.45999990031123,4
-24.07865,0.8833326,-33.13623,-0.2943383245793392,-0.1259709298235234,0.0135986441161755,13.99558,84.38006,1.588221,0.09949709,0.6652738,-0.07162061,4.4799998998642,4
-23.87621,0.2833333,-33.0535,-0.3733318465164643,0.0963532402508955,-0.0190021901217072,3.449757,81.19176,0.3271382,0.02471242,0.6503569,-0.01742002,4.49999989941716,4
-23.81775,0.4833335,-33.03809,-0.2426288686635374,-0.370771093865921,0.0368123069399253,6.891193,82.29733,0.7215093,0.04939085,0.6565276,-0.03481384,4.51999989897013,4
-23.63218,0.2833333,-32.96705,-0.2162789556940794,-0.1421745731676538,0.0395817572453793,3.406965,80.26052,0.2792364,0.02429852,0.6441854,-0.01729751,4.53999989852309,4
-23.57457,0.4833331,-32.95165,-0.1880493329305963,0.0895581823438436,0.0428915630254849,6.806723,81.35912,0.6243374,0.04856486,0.6504234,-0.03457059,4.55999989807606,4
-23.51696,0.683333,-32.93625,-0.0312573766706272,-0.3681571405051854,0.1079874794761615,10.19815,82.48717,1.038453,0.07277665,0.6560201,-0.05180465,4.57999989762902,4
-23.45938,0.8833327,-32.92086,-0.0471585905670082,-0.1301514478943221,0.0947542848920512,13.57978,83.65343,1.526183,0.09691137,0.6609707,-0.06898284,4.59999989718199,4
-23.26672,0.2833332,-32.8406,-0.0597402153795094,0.1109900825349795,0.0827006361466438,3.363335,78.63487,0.1865414,0.02373476,0.6333057,-0.01733548,4.61999989673495,4
-23.20997,0.4833331,-32.82532,-0.0372537055361448,0.1428750420340185,0.0875625460774713,6.721241,79.7205,0.437186,0.04743817,0.6396388,-0.03464695,4.63999989628792,4
-23.03444,0.2833333,-32.75663,-0.0282153616064135,0.205599709114204,0.0851196211571228,3.317707,76.96461,0.08993692,0.023149,0.6219941,-0.01739968,4.65999989584088,4
-22.97854,0.4833334,-32.74152,-0.0204837551758885,0.2458479012502767,0.0807808784031465,6.632168,78.03928,0.242258,0.04626964,0.6284361,-0.03477815,4.67999989539385,4
-22.92266,0.6833331,-32.72642,0.1035050885473332,-0.4300106120534563,0.1312450234224407,9.941911,79.13091,0.4588852,0.06933941,0.634291,-0.05211708,4.69999989494681,4
-22.68428,0.2833335,-32.634,0.0653889799848919,-0.1977552984040466,0.10596690056229,3.275717,75.31062,359.9814,0.02252938,0.6106638,-0.01758953,4.71999989449978,4
-22.62905,0.4833334,-32.61931,0.0307225270466204,0.0365903487662903,0.080843838274955,6.55027,76.3725,0.02356365,0.045032,0.6172008,-0.035158,4.73999989405274,4
-22.57383,0.6833335,-32.60463,0.1845034908109042,-0.4195576251402583,0.1394823560913565,9.822227,77.44451,0.1274447,0.06748509,0.6231745,-0.05268853,4.75999989360571,4
-22.40919,0.2833334,-32.53857,0.1461928574138369,-0.1810298749690698,0.1131505548657472,3.23516,74.10304,359.9315,0.02216868,0.6023062,-0.01748559,4.77999989315867,4
-22.35471,0.4833333,-32.52375,0.1021208251175878,0.0595885401183038,0.0839404063651656,6.470098,75.15738,359.9225,0.04431171,0.6089087,-0.03495035,4.79999989271164,4
-22.30025,0.6833331,-32.50894,0.1549202351572667,-0.3902866525422201,0.1054324516593752,9.703737,76.21863,359.9738,0.06640968,0.6149675,-0.05237908,4.8199998922646,4
-22.07204,0.2833332,-32.41783,0.10942358657039,-0.1454861990952357,0.0755508095976438,3.195011,71.30667,359.8199,0.02173675,0.582688,-0.01752626,4.83999989181757,4
-22.01837,0.4833329,-32.40244,0.0700487597164496,0.1014049362558597,0.0477110205614437,6.391838,72.34838,359.6978,0.04344871,0.5894408,-0.03503181,4.85999989137053,4
-21.96472,0.6833328,-32.38705,0.2104309706559668,-0.3421984246530974,0.1039550334060805,9.589375,73.39034,359.6336,0.06511689,0.5956777,-0.05250139,4.8799998909235,4
-21.91108,0.8833329,-32.37167,0.1768054943405985,-0.0911260835250602,0.081054357896356,12.78638,74.43919,359.6287,0.08672307,0.6013941,-0.06991673,4.89999989047647,4
-21.71261,0.2833333,-32.29018,0.1445493582141104,0.1620369394199711,0.0589840696940662,3.531641,72.72863,359.831,0.02393989,0.5926718,-0.01945729,4.91999989002943,4
-21.65297,0.4833334,-32.27414,0.1439084864807647,0.2048987402796478,0.0557801640388468,7.064827,73.76669,359.7259,0.04784868,0.5991636,-0.03888918,4.9399998895824,4
-21.47618,0.2833333,-32.20528,0.1270642074047892,0.2775550917607346,0.0471184032531262,3.50793,73.68444,359.8648,0.02378811,0.5993611,-0.01929623,4.95999988913536,4
-21.41689,0.4833333,-32.1898,0.1063410356977456,0.3266901735728514,0.0386334475874114,7.018015,74.72353,359.793,0.04755292,0.6057947,-0.03857547,4.97999988868833,4
-21.35762,0.6833333,-32.17433,0.1980790748902201,-0.3413265868904128,0.0876418579179763,10.52783,75.76697,359.7851,0.07126289,0.6116027,-0.05780935,4.99999988824129,4
-21.11398,0.2833332,-32.07991,0.1256135952294137,-0.1022761454656553,0.0606380317141557,3.569906,75.17097,359.9663,0.02450398,0.6096557,-0.01923164,5.01999988779426,4
-21.05375,0.4833331,-32.06398,0.0548895349231024,0.1378194584072484,0.0350192529980049,7.139289,76.21647,-0.002146594,0.04897889,0.6159526,-0.03843949,5.03999988734722,4
-20.99353,0.6833332,-32.04806,0.0194370113882698,0.1665680278495397,0.0282458527815876,10.70648,77.2732,0.09589007,0.07339553,0.6215942,-0.05760108,5.05999988690019,4
-20.82597,0.2833336,-31.9801,-0.0278504783536277,0.2240656279345663,0.0164288066597286,3.583177,76.41826,0.1010273,0.02511101,0.6182094,-0.01864543,5.07999988645315,4
-20.76576,0.4833336,-31.96315,-0.0743108128503493,0.2569962100367846,0.0052939695609914,7.163033,77.47342,0.2687635,0.05019194,0.6244044,-0.03726321,5.09999988600612,4
-20.70557,0.6833335,-31.9462,0.0863100566875303,-0.428270214675343,0.076853095388266,10.73814,78.54861,0.5050986,0.07521283,0.629931,-0.05583573,5.11999988555908,4
-20.47233,0.2833333,-31.85374,0.0869118039176122,-0.2075142573141673,0.0730569557422704,3.565689,76.989,0.1173548,0.02498709,0.6221129,-0.01856386,5.13999988511205,4
-20.41232,0.4833334,-31.8372,0.0856735931034826,0.0132417230460494,0.069091224311812,7.127497,78.04238,0.3003742,0.04993919,0.6282616,-0.03710314,5.15999988466501,4
-20.35233,0.6833333,-31.82066,0.0681798786365455,0.021604744074489,0.0563985333021506,10.68434,79.11659,0.5516708,0.07483246,0.6337438,-0.05559792,5.17999988421798,4
-20.19358,0.2833331,-31.75605,0.0455006298687443,0.0576710565791718,0.0403589157134511,3.649422,77.67826,0.1410208,0.02557328,0.6267869,-0.01901107,5.19999988377094,4
-20.13202,0.4833333,-31.7395,0.0308826665731132,0.0681251695741537,0.0269950621894956,7.294555,78.73137,0.3494273,0.0511108,0.63283,-0.03799542,5.21999988332391,4
-20.07049,0.6833332,-31.72296,0.0091609532143017,0.0796243675697522,-0.0047142717617845,10.93442,79.80769,0.6278392,0.07658604,0.6381729,-0.05693494,5.23999988287687,4
-19.8465,0.2833334,-31.63313,-0.0260688542384741,0.1188270540144321,-0.0403303498332441,3.631771,77.9208,0.1477718,0.0254503,0.6284351,-0.01892255,5.25999988242984,4
-19.78522,0.4833334,-31.6168,-0.0614199642035622,0.1324171515338474,-0.0737993716945659,7.259204,78.97131,0.3624405,0.05086561,0.6344519,-0.03781906,5.2799998819828,4
-19.72396,0.6833334,-31.60047,-0.214861239117047,0.7873668180477751,-0.1607542203974361,10.881,80.04526,0.646794,0.07621841,0.6397731,-0.05666879,5.29999988153577,4
-19.57734,0.2833335,-31.53904,-0.2154215183813175,0.5394301471239591,-0.1904514432633099,3.583212,79.30659,0.2120194,0.02525111,0.6377828,-0.01852717,5.31999988108873,4
-19.51674,0.4833334,-31.52326,-0.2080589420009921,0.2946301520025406,-0.2141716425187283,7.160933,80.35968,0.4903026,0.05046818,0.6437195,-0.03702921,5.3399998806417,4
-19.45615,0.6833336,-31.50749,-0.3876909312262722,0.7188930092499445,-0.3174643906775394,10.73182,81.43978,0.8380117,0.07562435,0.6489671,-0.05548629,5.35999988019466,4
-19.24378,0.2833331,-31.4201,-0.3858112737029806,0.4803656911819306,-0.3647516103549151,3.524836,79.94629,0.2758384,0.02511468,0.6420661,-0.01791409,5.37999987974763,4
-19.18422,0.4833329,-31.40409,-0.3728737997294011,0.2449747488833824,-0.4046994356388396,7.043015,81.00168,0.6171154,0.05019625,0.647972,-0.03580404,5.39999987930059,4
-19.12467,0.6833327,-31.38808,-0.3359299365527892,-0.0416413012231681,-0.4316236538021449,10.55319,82.08737,1.027286,0.0752187,0.6532036,-0.05365159,5.41999987885356,4
-18.89335,0.2833334,-31.29483,-0.2521415590828209,-0.113774450070515,-0.4439956214571019,3.464342,79.87388,0.3157573,0.02494495,0.6415845,-0.01729246,5.43999987840652,4
-18.83497,0.4833334,-31.27825,-0.1670595727325317,-0.1582042451525532,-0.4511880572123665,6.921004,80.92918,0.6961499,0.04985717,0.6475038,-0.03455838,5.45999987795949,4
-18.7766,0.6833336,-31.26167,-0.2090185072497234,0.2519454351259472,-0.510993933118634,10.36888,82.01647,1.144547,0.07471214,0.6527694,-0.05178353,5.47999987751245,4
-18.62076,0.2833335,-31.19668,-0.1390480226843902,-0.0017411508582326,-0.5093715599313029,3.414686,79.64812,0.3007794,0.02456267,0.6400858,-0.01706621,5.49999987706542,4
-18.56324,0.4833333,-31.1803,-0.0590902747086055,-0.2533367887069888,-0.497777839714665,6.822056,80.6984,0.6646301,0.0490923,0.6460236,-0.03410894,5.51999987661839,4
-18.50574,0.6833333,-31.16392,-0.1782414533223075,0.1630851629183679,-0.5654874141104429,10.2211,81.77898,1.094911,0.07356703,0.6513267,-0.05111337,5.53999987617135,4
-18.28537,0.2833333,-31.07381,-0.118873622009902,-0.0843283385635036,-0.5449419186989424,3.375493,78.2866,0.2070083,0.02398228,0.630946,-0.01719175,5.55999987572432,4
-18.22857,0.4833333,-31.05782,-0.0616304489787786,-0.3296510231961409,-0.5179554811632023,6.745419,79.32504,0.4754175,0.04793208,0.6369655,-0.03436105,5.57999987527728,4
-18.1718,0.6833333,-31.04182,-0.1232985588932233,0.093043258928905,-0.5417561073643107,10.10892,80.38752,0.8080199,0.07182992,0.6423743,-0.05149248,5.59999987483025,4
-17.93369,0.2833332,-30.95434,0.0160873580279012,-0.1480984419023748,-0.478622627557332,3.326855,76.82384,0.1090016,0.02333621,0.6210271,-0.0172905,5.61999987438321,4
-17.87775,0.4833333,-30.93877,0.1514380585402666,-0.3871492581069415,-0.4118140057050752,6.649862,77.85022,0.277713,0.04664091,0.6271352,-0.0345583,5.63999987393618,4
-17.82182,0.6833332,-30.92319,0.0874195948412186,0.0418176917499292,-0.4267455922730185,9.968369,78.8942,0.5081176,0.06989631,0.6326594,-0.05178934,5.65999987348914,4
-17.6581,0.2833331,-30.86101,0.020423948977573,0.4472625464987984,-0.4375216356366884,3.283966,76.74279,0.02289856,0.0225889,0.620497,-0.01763061,5.67999987304211,4
-17.60254,0.4833331,-30.847,0.1129799960698321,-0.0757916030855702,-0.3710034115109408,6.566006,77.75841,0.1040573,0.0451504,0.6266097,-0.03524016,5.69999987259507,4
-17.547,0.6833331,-30.833,0.0898499138482282,0.0979209739045892,-0.3561504398433825,9.844875,78.78605,0.244161,0.06765974,0.632153,-0.05281562,5.71999987214804,4
-17.31279,0.2833332,-30.75736,0.1997568025833569,-0.1510612480117567,-0.2739557390313933,3.240287,75.51898,359.9362,0.02201156,0.6121158,-0.01775295,5.739999871701,4
-17.25789,0.4833332,-30.74383,0.3038410487636529,-0.3969068922200947,-0.1899342523524474,6.480217,76.52401,359.9292,0.04399721,0.6182958,-0.03548497,5.75999987125397,4
-17.20301,0.6833333,-30.7303,0.2192950794324275,0.0263100972752708,-0.1868428241992568,9.718801,77.53574,359.9798,0.06593797,0.6239277,-0.05318037,5.77999987080693,4
-17.14814,0.8833332,-30.71676,0.1311549002838141,0.4270506319506837,-0.1813867288437833,12.95481,78.56088,0.08928493,0.08781251,0.6290069,-0.07082351,5.7999998703599,4
-16.96163,0.2833333,-30.65607,0.189807618265041,-0.0996625442341649,-0.0947874156788266,3.197694,74.40329,359.8478,0.02142136,0.6044155,-0.01792709,5.81999986991286,4
-16.90729,0.4833335,-30.64316,0.1478263816484659,0.0714359389617268,-0.0590654287707863,6.396571,75.39677,359.751,0.04281785,0.6106468,-0.03583336,5.83999986946583,4
-16.85297,0.6833335,-30.63026,0.108814225261888,0.2477614743427898,-0.0204506940525881,9.595732,76.39161,359.7096,0.06417178,0.6163487,-0.05370369,5.85999986901879,4
-16.63996,0.2833335,-30.57126,0.2450491081845403,-0.2632705719445263,0.1067369763711489,3.531541,74.74863,359.8204,0.0235363,0.6067691,-0.01994928,5.87999986857176,4
-16.57973,0.4833335,-30.55754,0.2051703410027467,-0.0764904012114999,0.1521906847050047,7.064743,75.7363,359.7015,0.04704231,0.6128049,-0.03987293,5.89999986812472,4
-16.51953,0.6833336,-30.54383,0.1643484999295079,0.1155169817416832,0.1970090968303814,10.59976,76.72498,359.6431,0.07050115,0.6182039,-0.05975829,5.91999986767769,4
-16.2872,0.2833335,-30.45964,0.3165037016327812,-0.3798330004863375,0.3322947640725928,3.561624,75.84422,359.8693,0.02381345,0.6143205,-0.01999846,5.93999986723065,4
-16.22649,0.4833336,-30.44613,0.2625927932926259,-0.1773719461371652,0.3746228680282186,7.124185,76.83341,359.7998,0.04759624,0.6202599,-0.03997234,5.95999986678362,4
-16.1658,0.6833335,-30.43262,0.1995774536298729,0.0303160583824975,0.4105863709910693,10.68641,77.8269,359.7922,0.07132305,0.6255467,-0.05989871,5.97999986633658,4
-16.00971,0.2833332,-30.37069,0.2428941068513683,-0.4493538342189612,0.4984498472959195,3.590417,76.70585,359.9712,0.02441087,0.6202053,-0.0196358,5.99999986588955,4
-15.94875,0.4833333,-30.35623,0.1717264786969732,-0.2312119468689548,0.52459023378427,7.179965,77.70173,0.00521519,0.04879269,0.6260623,-0.03924337,6.01999986544251,4
-15.8878,0.6833332,-30.34178,0.1035766033622103,-0.0078427544314526,0.5457638904748023,10.7674,78.70868,0.1029911,0.07311659,0.6312518,-0.05880391,6.03999986499548,4
-15.66687,0.2833335,-30.25353,0.2233200682372178,-0.4718309841500506,0.6498496873479631,3.575052,77.36368,0.09058059,0.02484405,0.6246716,-0.0188788,6.05999986454844,4
-15.60649,0.4833336,-30.23781,0.1540586684668081,-0.2380073170053979,0.6606736366664272,7.146846,78.36778,0.2446513,0.04965765,0.6304784,-0.03772751,6.07999986410141,4
-15.54612,0.6833335,-30.22209,0.0831348127125277,0.0010435079980472,0.662250281838304,10.71438,79.39053,0.4638115,0.07441278,0.6356184,-0.05653103,6.09999986365438,4
-15.30408,0.2833335,-30.13286,0.2161095468732554,-0.4472635677785673,0.747905998406484,3.596215,78.11322,0.1206852,0.02502882,0.6297517,-0.01895331,6.11999986320734,4
-15.24324,0.4833335,-30.11735,0.1313836013426215,-0.1977587317948247,0.7373150798910153,7.188784,79.11726,0.3046921,0.05002438,0.635484,-0.03788095,6.13999986276031,4
-15.18241,0.6833335,-30.10184,0.0363717097934745,0.0569729567877242,0.7123206292806081,10.77675,80.14201,0.5542731,0.07496064,0.6405367,-0.05676511,6.15999986231327,4
-15.1216,0.8833333,-30.08634,-0.0559354423852678,0.2646611921689616,0.6780195126074311,14.35865,81.19627,0.8734233,0.09981114,0.6449054,-0.07558328,6.17999986186624,4
-14.91934,0.2833333,-30.00688,-0.1088498476249206,0.2395717561332997,0.6601124775147831,3.641579,78.20231,0.1334191,0.02539118,0.6303439,-0.01913613,6.1999998614192,4
-14.85775,0.4833334,-29.99108,-0.1667765103074678,0.2484583066606204,0.6291583309795108,7.279228,79.20391,0.3307921,0.05074742,0.6360208,-0.03824583,6.21999986097217,4
-14.67104,0.2833333,-29.91643,-0.081959465928092,-0.1888714577560358,0.655228683648982,3.59737,78.26253,0.1413459,0.02512564,0.6307577,-0.01885247,6.23999986052513,4
-14.61022,0.4833335,-29.90072,-0.2068505689585738,0.0726559851514642,0.5982718922240764,7.190675,79.26259,0.34578,0.05021719,0.6364408,-0.03767922,6.2599998600781,4
-14.54941,0.6833334,-29.88501,-0.3368830115438275,0.3404555772669791,0.5300763585678006,10.77884,80.28466,0.6159416,0.07524903,0.6414434,-0.05646038,6.27999985963106,4
-14.48862,0.8833333,-29.86931,-0.45881912996804,0.5622570133130977,0.4561464934432671,14.36069,81.33755,0.955842,0.1001957,0.6457611,-0.07517608,6.29999985918403,4
-14.29763,0.2833333,-29.78435,-0.4111089805962713,-0.1679620535008646,0.4566904555854734,3.551927,79.76392,0.2453166,0.02515379,0.6408476,-0.01822993,6.31999985873699,4
-14.23754,0.4833333,-29.76861,-0.5019659474759628,0.014114029327043,0.398002123939257,7.098022,80.76943,0.5534388,0.05027434,0.646439,-0.03643534,6.33999985828996,4
-14.17747,0.6833332,-29.75287,-0.5773846171209502,0.2024623424694284,0.3367374729409214,10.63708,81.80309,0.9276229,0.07533566,0.6513538,-0.05459752,6.35999985784292,4
-13.96706,0.2833335,-29.66159,-0.4581382189971315,-0.2955017340755639,0.3583335801792167,3.494246,79.45103,0.2862272,0.02504458,0.6387527,-0.01756514,6.37999985739589,4
-13.90819,0.4833334,-29.645,-0.5047331153011321,-0.0946086289089662,0.324037307243362,6.981985,80.45681,0.6343633,0.05005718,0.6443706,-0.03510677,6.39999985694885,4
-13.84933,0.6833333,-29.62842,-0.5423294368486289,0.1125568240065977,0.2879479629423827,10.46158,81.49259,1.048206,0.07501201,0.6493337,-0.05260253,6.41999985650182,4
-13.62011,0.2833333,-29.5311,-0.3761079961679261,-0.3665901030951625,0.3419707825201818,3.436811,78.85887,0.3095864,0.02487748,0.6347769,-0.01695988,6.43999985605478,4
-13.56248,0.4833333,-29.51371,-0.4052129501960042,-0.1468797331416648,0.3107771671930166,6.866286,79.86323,0.6803734,0.04972293,0.640437,-0.03389246,6.45999985560775,4
-13.50485,0.6833332,-29.49633,-0.4348517171687529,0.0791030860527814,0.2757691436642808,10.28771,80.89822,1.115383,0.07451324,0.6454649,-0.05078688,6.47999985516071,4
-13.35068,0.2833332,-29.42884,-0.4533398352026818,0.2590875941085444,0.2429221935634764,3.393398,77.9034,0.241226,0.02434872,0.6283396,-0.01697752,6.49999985471368,4
-13.29381,0.4833331,-29.41184,-0.4234334691729984,0.207339837473235,0.2351024328580706,6.780795,78.89819,0.5416885,0.04866436,0.6340573,-0.03393226,6.51999985426664,4
-13.23696,0.6833331,-29.39484,-0.3894169481960343,0.1906134853649005,0.226121569104702,10.16145,79.91879,0.9043226,0.07292692,0.6391655,-0.05084973,6.53999985381961,4
-13.0187,0.2833333,-29.30007,-0.3394904405828196,0.1555925681736416,0.2218602041813149,3.350521,75.74162,0.1483245,0.02387198,0.6135903,-0.0169253,6.55999985337257,4
-12.96283,0.4833334,-29.28269,-0.2932465584146317,0.1289347044185588,0.2188590995304338,6.696675,76.72491,0.3546941,0.04771391,0.6194299,-0.03382587,6.57999985292554,4
-12.90698,0.6833335,-29.26531,-0.2485854632073518,0.1372980584974921,0.2109729465205667,10.03782,77.72793,0.6209742,0.07150502,0.6246893,-0.05069016,6.5999998524785,4
-12.67054,0.2833333,-29.16508,-0.1936560981376871,0.1273663534497235,0.2039900982288962,3.302657,73.90586,0.03342953,0.02320392,0.6009024,-0.01709064,6.61999985203147,4
-12.61549,0.4833333,-29.14809,-0.1511383087287914,0.1257980455169723,0.2024061264689258,6.603305,74.87592,0.1229005,0.04638027,0.6068436,-0.0341606,6.63999985158443,4
-12.56044,0.6833332,-29.1311,-0.1209221604407915,0.1592509912235557,0.1933769385963444,9.90067,75.85835,0.2696362,0.06950559,0.6122321,-0.05119346,6.6599998511374,4
-12.50541,0.8833331,-29.11411,-0.0914607056121692,0.1744092327204474,0.1827801396445494,13.19408,76.86006,0.4760185,0.09256192,0.6170638,-0.06817503,6.67999985069036,4
-12.30693,0.2833334,-29.02541,0.0497169942050295,-0.5223570218510561,0.2291844749634819,3.253688,72.21105,359.9387,0.02262218,0.589049,-0.01716138,6.69999985024333,4
-12.2527,0.4833335,-29.00863,0.0311694314933852,-0.3068280260727719,0.2019599189582592,6.50697,73.16894,359.9318,0.04521771,0.5950736,-0.03430266,6.7199998497963,4
-12.07253,0.2833334,-28.93136,0.0142264804377294,-0.0850266864658101,0.174974230633552,3.223911,69.7417,359.849,0.02232609,0.5715321,-0.01716359,6.73999984934926,4
-12.01901,0.4833335,-28.9139,0.0301643812874381,-0.0693453194342345,0.1668114793210726,6.448926,70.69,359.7512,0.0446264,0.5776809,-0.03430717,6.75999984890223,4
-11.9655,0.6833332,-28.89644,0.0325418207973076,-0.0196882461840345,0.1524136360038142,9.674202,71.63937,359.7068,0.06688244,0.583325,-0.0514157,6.77999984845519,4
-11.91199,0.8833332,-28.879,0.032939222428471,0.0106287904419368,0.1379211220170546,12.89833,72.59603,359.7172,0.08907342,0.5884607,-0.06846909,6.79999984800816,4
-11.71949,0.2833334,-28.79159,0.2343829497016187,-0.6720243328102747,0.2201931571010895,3.375006,69.43935,359.8272,0.02334655,0.5693507,-0.01801127,6.81999984756112,4
-11.66341,0.4833334,-28.77325,0.2766643133355444,-0.4434276417100307,0.2206982212456587,6.751449,70.38174,359.7098,0.04666456,0.5754222,-0.03600063,6.83999984711409,4
-11.60735,0.6833334,-28.75492,0.3115189820535313,-0.2096039216850057,0.2195967153313418,10.12844,71.32443,359.6477,0.06993268,0.5809475,-0.05395108,6.85999984666705,4
-11.39554,0.2833333,-28.66189,0.3510018765175129,-0.0228237037342516,0.2231602510503592,3.538915,70.69496,359.8516,0.02443708,0.57829,-0.01891957,6.87999984622002,4
-11.33652,0.4833333,-28.64343,0.3760137340906588,-0.0688221115734419,0.2247069974702462,7.078914,71.63651,359.7611,0.04884257,0.5842028,-0.0378158,6.89999984577298,4
-11.27753,0.6833332,-28.62498,0.3912867588302653,-0.080844569439026,0.2229626161182523,10.62016,72.58049,359.7287,0.07319903,0.5895108,-0.05667559,6.91999984532595,4
-11.0471,0.2833332,-28.52587,0.4090957065021765,-0.1122071275246713,0.2241231616136794,3.568715,72.08327,359.92,0.02476702,0.5881052,-0.01888516,6.93999984487891,4
-10.98756,0.4833332,-28.50756,0.4079186644225991,-0.1362516881646018,0.221831333416393,7.137464,73.02837,359.8987,0.0495023,0.593912,-0.03774712,6.95999984443188,4
-10.92805,0.6833333,-28.48924,0.390190495651427,-0.1263201798283212,0.2125596973309242,10.70504,73.98045,359.9369,0.07417914,0.5990961,-0.05656438,6.97999984398484,4
-10.86855,0.883333,-28.47093,0.3683910760286615,-0.1357288912374123,0.202422008002614,14.27052,74.94724,0.03680289,0.09877279,0.6036528,-0.07531726,6.99999984353781,4
-10.67777,0.2833331,-28.38236,0.4302880394584134,-0.1378197103517069,0.2286925481489561,3.589641,73.51758,0.08478568,0.02553528,0.5981351,-0.01815112,7.01999984309077,4
-10.61829,0.4833333,-28.36267,0.4766378452732844,-0.1059346451790476,0.2488619831218059,7.17647,74.47453,0.2303021,0.05104032,0.6038294,-0.03627461,7.03999984264374,4
-10.55883,0.6833333,-28.34298,0.5205918646168275,-0.0933896381486583,0.269297309647186,10.75934,75.4493,0.4381036,0.07648494,0.6088843,-0.05435457,7.0599998421967,4
-10.34883,0.2833334,-28.24904,0.3815076001417505,0.5667872301313158,0.2029925061582886,3.567735,73.9215,0.1075471,0.02543784,0.6009527,-0.01796749,7.07999984174967,4
-10.28969,0.4833335,-28.22951,0.3968617914553798,0.330350013764361,0.2158084511138867,7.132004,74.87758,0.2748375,0.05084071,0.6066163,-0.03591042,7.09999984130263,4
-10.23057,0.6833331,-28.20999,0.4083750037068583,0.1033212586048191,0.2263281074524741,10.69203,75.85265,0.5041536,0.07618457,0.6116449,-0.05381105,7.1199998408556,4
-9.999453,0.2833332,-28.10902,0.212493947075167,0.5516281780053869,0.1415057576126912,3.645706,74.47941,0.1381998,0.02605326,0.6048138,-0.01828984,7.13999984040856,4
-9.93895,0.4833332,-28.08917,0.1866361395108624,0.3434172753279125,0.1414904597663273,7.287563,75.43609,0.3376028,0.052071,0.6103887,-0.03655434,7.15999983996153,4
-9.878463,0.6833332,-28.06933,0.150271190918894,0.1446150723857752,0.1368445230172383,10.92453,76.41448,0.6007629,0.07802524,0.6152985,-0.05477419,7.17999983951449,4
-9.723435,0.2833333,-28.00016,0.1167718469142062,-0.0991396641096959,0.1340307821361577,3.622411,75.22893,0.1462286,0.02581486,0.6100078,-0.01828037,7.19999983906746,4
-9.663124,0.4833333,-27.98109,0.1179212291634312,-0.1221385808897624,0.1459251886650925,7.240855,76.18337,0.3531083,0.0515947,0.6155344,-0.03653583,7.21999983862042,4
-9.60283,0.6833333,-27.96203,0.1058235459682048,-0.1111620129911939,0.1524561232450487,10.85427,77.1598,0.6232589,0.07731216,0.6203986,-0.0547468,7.23999983817339,4
-9.382997,0.2833334,-27.86494,-0.0569562617459116,0.3606667326725333,0.0875076532910199,3.571979,76.71333,0.2297772,0.02568317,0.6202031,-0.01776876,7.25999983772635,4
-9.323419,0.4833335,-27.84623,-0.2220666336160794,0.8152459475515237,0.0210250776773186,7.138604,77.67245,0.5197967,0.05133215,0.6256536,-0.03551349,7.27999983727932,4
-9.263858,0.6833335,-27.82753,-0.2175680945778495,0.3475988419458513,0.0389363292606077,10.69878,78.65838,0.8732018,0.07692043,0.6304469,-0.05321585,7.29999983683228,4
-9.02493,0.2833335,-27.72386,-0.2034746714321587,-0.1372975282132479,0.0590604718059033,3.510118,77.49711,0.2911124,0.02547507,0.6255475,-0.01718899,7.31999983638525,4
-8.966397,0.4833335,-27.70517,-0.3332358298868527,0.2655338663474815,0.0038050866329122,7.013908,78.45851,0.6416457,0.05091718,0.6309654,-0.03435534,7.33999983593822,4
-8.907878,0.6833335,-27.68647,-0.2757206905946381,0.0108019083973922,0.0378248919425381,10.50987,79.44984,1.055165,0.07629891,0.6357408,-0.05147898,7.35999983549118,4
-8.849376,0.8833334,-27.66779,-0.2105299318528617,-0.2355667745765272,0.0716113963846254,13.99706,80.47939,1.53624,0.1015964,0.639869,-0.06854535,7.37999983504415,4
-8.650941,0.2833333,-27.57631,-0.3116530080790536,0.1923545782897334,0.0218820968273476,3.450001,77.60398,0.3219139,0.02521873,0.6262786,-0.01667473,7.39999983459711,4
-8.593513,0.4833333,-27.55743,-0.2123885896847506,-0.0372874095939579,0.0670333329386316,6.892774,78.5638,0.702338,0.05040368,0.6316943,-0.03332445,7.41999983415008,4
-8.5361,0.6833332,-27.53855,-0.1152746529634969,-0.2585659901698774,0.1094527274017309,10.32761,79.55465,1.144629,0.07553235,0.6364862,-0.04993639,7.43999983370304,4
-8.318718,0.2833333,-27.44061,-0.21344298328553,0.1944452649853102,0.0587273254847424,3.403071,76.10444,0.2451589,0.02469981,0.6160562,-0.01661819,7.45999983325601,4
-8.262262,0.4833335,-27.42174,-0.3128098449794585,0.6302072801542273,0.0070974688976832,6.800256,77.05405,0.5472301,0.04936677,0.6215586,-0.0332126,7.47999983280897,4
-8.205823,0.6833333,-27.40287,-0.2529779827716139,0.1437426659195591,0.0401521247222689,10.19099,78.02934,0.9089778,0.07398023,0.6264644,-0.04977071,7.49999983236194,4
-7.970252,0.2833333,-27.29843,-0.1891223836379394,-0.3599708558607133,0.0757727938898114,3.353161,74.34254,0.1554412,0.02413269,0.6039088,-0.01659703,7.5199998319149,4
-7.914804,0.4833332,-27.27958,-0.2663436988694565,0.0240434377812761,0.0359258159114013,6.701991,75.28099,0.3661861,0.04823412,0.6095098,-0.03317098,7.53999983146787,4
-7.859373,0.6833332,-27.26073,-0.1619272437533432,-0.2495056899104424,0.085493303283691,10.04592,76.23908,0.6342726,0.07228425,0.614543,-0.04970938,7.55999983102083,4
-7.803957,0.8833332,-27.2419,-0.0547517959254957,-0.5146915180588312,0.1343105689416788,13.38393,77.22395,0.9629042,0.09626128,0.6190044,-0.0661969,7.5799998305738,4
-7.606344,0.2833333,-27.1506,-0.1129572418194584,-0.1055874191768931,0.0994686350709272,3.303162,72.78418,0.03931307,0.0234041,0.5930533,-0.01682399,7.59999983012676,4
-7.551644,0.4833332,-27.13246,-0.1637085742827873,0.2862671703512282,0.0662418349168589,6.604318,73.70847,0.132016,0.04678057,0.5987319,-0.03362806,7.61999982967973,4
-7.496959,0.6833332,-27.11432,0.034063445119985,-0.2441043134527495,0.1536240214634148,9.902205,74.64497,0.2792292,0.07010491,0.6038692,-0.05039638,7.63999982923269,4
-7.281643,0.2833334,-27.01627,0.0298501995895064,-0.0714370462265539,0.1431993319941327,3.253935,70.57668,359.9308,0.02282651,0.5774725,-0.01689459,7.65999982878566,4
-7.227848,0.4833333,-26.9981,0.0175187372512644,0.1116843525506663,0.1274851159737409,6.507622,71.48872,359.9134,0.04562677,0.5832627,-0.0337694,7.67999982833862,4
-7.174069,0.6833333,-26.97993,0.0088740750321907,0.2529892307864307,0.1124450593125097,9.760196,72.40628,359.9484,0.06838074,0.5885396,-0.05060946,7.69999982789159,4
-6.941664,0.2833335,-26.87509,0.0391140125165572,0.1667431301691133,0.1190404347630895,3.207005,67.80784,359.827,0.02238321,0.5576179,-0.01686123,7.71999982744455,4
-6.888868,0.4833333,-26.85632,0.0667881326725741,0.1196999338775336,0.1225613874111992,6.415431,68.70833,359.7043,0.04474122,0.56354,-0.03370324,7.73999982699752,4
-6.836089,0.6833334,-26.83756,0.1039711989324105,0.058543578911744,0.1293023189071078,9.624401,69.60807,359.6317,0.06705479,0.5689779,-0.05051111,7.75999982655048,4
-6.78332,0.8833333,-26.8188,0.129011198096046,0.0099320428894973,0.1351190897373548,12.83293,70.51288,359.6104,0.08930556,0.573928,-0.06726697,7.77999982610345,4
-6.581817,0.2833333,-26.72526,0.146397013089635,0.0005232895768503,0.136403045990388,3.452283,68.49171,359.827,0.02405089,0.5625266,-0.01819839,7.79999982565641,4
-6.524772,0.4833333,-26.70552,0.1683653554337634,-0.0229985321561982,0.1394967217771281,6.905932,69.38811,359.7079,0.04807197,0.5682853,-0.03637429,7.81999982520938,4
-6.467744,0.6833332,-26.68578,0.170793516538537,-0.0339753390182738,0.1398626852888149,10.36043,70.28455,359.6423,0.07204147,0.5734854,-0.05451296,7.83999982476234,4
-6.248449,0.2833333,-26.58638,0.1558792097417511,-0.0057493806813836,0.1325669542241208,3.549982,69.91241,359.8642,0.02470755,0.5727049,-0.01871784,7.85999982431531,4
-6.189598,0.4833333,-26.56687,0.1360807074670504,0.0083635050534641,0.1239038344044054,7.101422,70.80939,359.7834,0.0493866,0.5783302,-0.03741756,7.87999982386827,4
-6.130763,0.6833332,-26.54736,0.123856580080198,-0.0449527330528111,0.1202116173142968,10.65268,71.70911,359.7585,0.07400845,0.5833579,-0.05607335,7.89999982342124,4
-5.892171,0.2833333,-26.44087,0.102377229559107,-0.1123816739470222,0.1165123698359522,3.581897,71.34582,359.962,0.02519544,0.5828807,-0.01849433,7.91999982297421,4
-5.832894,0.4833333,-26.42104,0.0776291840418839,-0.140607815405059,0.1108844176391095,7.163182,72.24934,359.9807,0.05035984,0.5884013,-0.03696481,7.93999982252717,4
-5.773633,0.6833331,-26.40121,0.0622691392982406,-0.1829467679381763,0.1096501968099303,10.74273,73.16208,0.05686674,0.07546522,0.5933049,-0.0553914,7.95999982208014,4
-5.714389,0.8833331,-26.38139,0.0360799495439172,-0.2127407935019586,0.1080791620098615,14.31955,74.09157,0.1928461,0.1004851,0.5975871,-0.07375489,7.9799998216331,4
-5.515872,0.2833332,-26.28701,0.0033789083146125,-0.2033321673809721,0.1026545857934095,3.572456,72.62209,0.09702978,0.0256188,0.5918593,-0.0177762,7.99999982118607,4
-5.457053,0.4833332,-26.2663,-0.0229841628936062,-0.2080362866484187,0.0997003329746171,7.141848,73.53469,0.2516217,0.05120572,0.597294,-0.03552551,8.01999982073903,4
-5.39825,0.683333,-26.2456,-0.0657745902401956,-0.2001956128462408,0.0937066960423393,10.70731,74.46516,0.4654593,0.07673284,0.6021059,-0.05323277,8.039999820292,4
-5.179436,0.2833332,-26.1447,-0.1226323437915715,-0.1531519277379442,0.0797836173768367,3.595582,73.12122,0.1159235,0.02580131,0.5953538,-0.01787541,8.05999981984496,4
-5.120142,0.4833332,-26.12409,-0.1805317604523373,-0.1202212938007696,0.0643251872704127,7.187832,74.033,0.2893448,0.05156827,0.6007327,-0.03572665,8.07999981939793,4
-5.060866,0.6833332,-26.10348,-0.2264527700753982,-0.1547195600738976,0.0537680442390566,10.77606,74.964,0.5224332,0.07727532,0.6054775,-0.05353706,8.09999981895089,4
-5.001607,0.8833331,-26.08287,-0.2769141743759111,-0.2033310093270387,0.0441489135678381,14.35899,75.9222,0.818794,0.1028946,0.6095838,-0.07128603,8.11999981850386,4
-4.727592,0.2833332,-25.95627,-0.325864378840901,-0.2127395647085541,0.0332376375916076,3.635981,73.54606,0.1394532,0.02613997,0.5983139,-0.0180175,8.13999981805682,4
-4.667588,0.4833332,-25.9355,-0.3601649309921453,-0.2362610619286314,0.0276276141917861,7.268255,74.45676,0.3370119,0.05224453,0.603626,-0.03601035,8.15999981760979,4
-4.607601,0.6833332,-25.91473,-0.3994126384931951,-0.2472379886644927,0.0237389992392031,10.89586,75.38855,0.5952202,0.07828611,0.6082875,-0.05395921,8.17999981716275,4
-4.547634,0.8833331,-25.89396,-0.4393158073079295,-0.2190120204833165,0.0177798608669235,14.51814,76.34968,0.9178595,0.1042397,0.6122941,-0.07184725,8.19999981671572,4
-4.359402,0.2833333,-25.80364,-0.4665401341940225,-0.2048989941407034,0.0162694250525099,3.587925,75.31831,0.2163193,0.02593596,0.6106155,-0.0176327,8.21999981626868,4
-4.299958,0.4833333,-25.78367,-0.4990208568169518,-0.1782411849212233,0.0150404835484501,7.170936,76.23235,0.4902671,0.0518372,0.6158337,-0.03524188,8.23999981582165,4
-4.24053,0.6833332,-25.7637,-0.5350448376720365,-0.1123801750020156,0.0087415692076611,10.74802,77.17194,0.8248795,0.07767683,0.6204038,-0.05280902,8.25999981537461,4
-4.033237,0.2833332,-25.66573,-0.5615147855931941,-0.0606324798717125,0.0037115659145641,3.526459,75.97503,0.2743103,0.02572326,0.6151385,-0.01705236,8.27999981492758,4
-3.974864,0.4833332,-25.64572,-0.5653349566224615,-0.0763138157151925,0.0062820745244351,7.047094,76.89123,0.6054684,0.05141276,0.6203331,-0.0340824,8.29999981448054,4
-3.916509,0.6833332,-25.62572,-0.5676977229191393,-0.1061081062035229,0.0097270954935844,10.56088,77.83594,0.9968224,0.07704285,0.6248946,-0.05107276,8.31999981403351,4
-3.690452,0.2833333,-25.52034,-0.5608566915864839,-0.0966996213001288,0.0126897987171012,3.465194,75.86961,0.3117469,0.02551821,0.6144162,-0.01644257,8.33999981358647,4
-3.633314,0.4833332,-25.49986,-0.5327362550229506,-0.1014039704708558,0.0213924263573659,6.92371,76.78594,0.6797131,0.05100342,0.6196268,-0.03286042,8.35999981313944,4
-3.576192,0.6833332,-25.47938,-0.5070106004650814,-0.0935635213449072,0.0310555688277069,10.3747,77.73238,1.107136,0.07643099,0.6242244,-0.04923991,8.3799998126924,4
-3.519086,0.883333,-25.4589,-0.4789863129561976,-0.0465202952591163,0.0380133359693921,13.81711,78.71664,1.598541,0.1017768,0.6282052,-0.06556621,8.39999981224537,4
-3.332008,0.2833332,-25.36712,-0.436951035652293,-0.0135900083983619,0.0485734497100871,3.413274,75.21314,0.2814944,0.02509222,0.6099055,-0.01622879,8.41999981179833,4
-3.275841,0.4833331,-25.34674,-0.4061427237644532,0.0318850911334706,0.0588787968126958,6.82033,76.12261,0.6176959,0.05015104,0.6151512,-0.03243466,8.4399998113513,4
-3.219689,0.6833332,-25.32636,-0.3849584960530898,0.1165629814768349,0.0633105462903635,10.22056,77.05959,1.011624,0.075155,0.6198062,-0.04860482,8.45999981090426,4
-3.014388,0.2833333,-25.22741,-0.3617911246343249,0.187128065972174,0.0679617884998364,3.366235,73.03973,0.1738476,0.02450701,0.5948083,-0.01626043,8.47999981045723,4
-2.959255,0.4833333,-25.20695,-0.3250318402529774,0.1902640687041816,0.0789652000240401,6.727986,73.93654,0.4008525,0.04898245,0.6001688,-0.0324977,8.49999981001019,4
-2.904137,0.6833334,-25.1865,-0.1934667099338314,0.1792871593918348,0.1335110996611241,10.08477,74.85378,0.6831129,0.0734058,0.6049697,-0.04869998,8.51999980956316,4
-2.68088,0.2833333,-25.0809,-0.0721712089468379,0.2075131614617474,0.1804843824430477,3.315673,71.19988,0.06373503,0.02384719,0.5818653,-0.01638912,8.53999980911613,4
-2.626632,0.4833333,-25.06079,0.0509271230128942,0.2216263592517505,0.2261750244472011,6.628999,72.08405,0.1787815,0.0476661,0.5873206,-0.03275863,8.55999980866909,4
-2.572398,0.6833333,-25.04069,-0.0042062071348748,0.8885983530420181,0.1805944032291684,9.938803,72.98155,0.346563,0.07143283,0.5922447,-0.04909203,8.57999980822206,4
-2.518179,0.8833334,-25.02059,0.0923311850962857,0.6641834375547753,0.2162668202366262,13.24461,73.8988,0.5694467,0.09512904,0.5966335,-0.06537658,8.59999980777502,4
-2.331678,0.2833334,-24.9287,0.1865721447747415,0.4544042797377975,0.2483190925244187,3.266232,69.66698,359.9568,0.02317765,0.5709703,-0.01658775,8.61999980732799,4
-2.278129,0.4833333,-24.9092,0.2902730802693721,0.2048996329734302,0.283087507873013,6.531791,70.53824,359.9633,0.04632851,0.5764948,-0.03315606,8.63999980688095,4
-2.224595,0.6833334,-24.88971,0.324494637435001,0.1813778771883875,0.2886501044645726,9.795605,71.41611,0.02007893,0.06942952,0.5815121,-0.04968998,8.65999980643392,4
-2.021038,0.2833333,-24.78988,0.3405329809203931,0.1970590374899533,0.2835233658156149,3.217155,66.43405,359.8361,0.02270103,0.5476291,-0.0165742,8.67999980598688,4
-1.968604,0.4833332,-24.76965,0.3498009691054601,0.1986272648389477,0.2739967452980103,6.435469,67.29238,359.7202,0.04537635,0.5533018,-0.03312928,8.69999980553985,4
-1.916185,0.6833333,-24.74943,0.5513671298077298,-0.5075475768248665,0.3638316226451366,9.654165,68.15009,359.6523,0.06800655,0.5585,-0.04965095,8.71999980509281,4
-1.692125,0.2833334,-24.64175,0.5915565529760788,-0.2972458595632143,0.3662989404866437,3.372692,66.04342,359.8201,0.02381931,0.5447588,-0.0173525,8.73999980464578,4
-1.637202,0.4833335,-24.6203,0.6196279833856495,-0.0764900363631053,0.3630465974594621,6.746775,66.89747,359.6904,0.04761026,0.5503662,-0.03468395,8.75999980419874,4
-1.582294,0.6833334,-24.59885,0.6474162044708426,0.1024493607310054,0.36065344281009,10.12148,67.75038,359.6106,0.07135084,0.5554585,-0.05197828,8.77999980375171,4
-1.527409,0.8833333,-24.57741,0.6550369575064123,0.0538377805401462,0.3551174083672173,13.49736,68.6082,359.5815,0.095029,0.5600309,-0.0692251,8.79999980330467,4
-1.337369,0.2833334,-24.48411,0.6481503663386925,0.044429120094836,0.342888810106345,3.538372,67.90252,359.8579,0.02491768,0.5582526,-0.01827015,8.81999980285764,4
-1.279355,0.4833333,-24.46274,0.6388034335132794,0.0209073169178313,0.3305651404353718,7.077615,68.75629,359.7683,0.04980369,0.5636774,-0.0365181,8.8399998024106,4
-1.221366,0.6833334,-24.44139,0.6042969873440465,0.0099305625876535,0.3136918076479063,10.61802,69.61176,359.7311,0.07463916,0.568526,-0.05473283,8.85999980196357,4
-1.014358,0.2833334,-24.34077,0.5484161200972537,0.0381567157194432,0.2869181983492446,3.568403,69.08013,359.9159,0.02523123,0.5667262,-0.01825705,8.87999980151653,4
-0.9558272,0.4833333,-24.31947,0.4834419697723364,0.0522697271649496,0.2567455922966353,7.136912,69.93674,359.8851,0.05043087,0.5720638,-0.03649211,8.8999998010695,4
-0.8973135,0.6833333,-24.29817,0.6084754028407353,-0.6413600733183861,0.3285471489135112,10.70446,70.79894,359.9081,0.07557151,0.5768089,-0.05468457,8.91999980062246,4
-0.6712171,0.2833333,-24.18856,0.5695620558444172,-0.4185132845593396,0.312324305639752,3.589916,70.32537,0.07806934,0.02599918,0.5755998,-0.01748211,8.93999980017543,4
-0.6128632,0.4833332,-24.16574,0.5191324446762473,-0.185212239496899,0.2909350939318287,7.177415,71.19481,0.2114653,0.05196871,0.5808498,-0.03493734,8.95999979972839,4
-0.5545265,0.6833332,-24.14293,0.4699259414275905,0.0062721835321114,0.2710590622419531,10.76142,72.08051,0.401487,0.0778771,0.5854917,-0.05235083,8.97999979928136,4
-0.4962063,0.8833331,-24.12012,0.4033729896837121,-0.0297943670649067,0.2488460406035884,14.34102,72.99001,0.6511914,0.1036977,0.5895213,-0.06970473,8.99999979883432,4
-0.2159924,0.2833333,-23.98434,0.3253967813628917,-0.0266580081091316,0.2201509660571083,3.586373,71.36871,0.1239713,0.02604736,0.583006,-0.01737487,9.01999979838729,4
-0.1575505,0.4833333,-23.96186,0.2489182154488172,-0.0376348159295029,0.1917156761210421,7.169469,72.23895,0.3025086,0.05205964,0.5881822,-0.03472802,9.03999979794025,4
-0.09912532,0.6833333,-23.93939,0.1523732709775118,-0.0360664794221848,0.1599724098740615,10.7484,73.1283,0.5380538,0.07801082,0.5927439,-0.05204002,9.05999979749322,4
-0.04071695,0.8833332,-23.91693,0.0400094733742406,0.0047047533089335,0.1191116882268836,14.3222,74.04436,0.8340778,0.1038743,0.5966871,-0.06929259,9.07999979704618,4
0.1568347,0.2833333,-23.81863,-0.0751054338630083,0.0313628197866139,0.075985317213977,3.638339,72.09565,0.1429528,0.02640051,0.5881313,-0.01767263,9.09999979659915,4
0.2163258,0.4833333,-23.7963,-0.1799041323700283,-0.0094082362700624,0.0374509310357176,7.273088,72.96462,0.3413898,0.05276547,0.5932229,-0.03532138,9.11999979615211,4
0.2758003,0.6833333,-23.77397,-0.1964768411081481,-0.0642922456648229,0.0467016327678706,10.90332,73.85439,0.5978181,0.07906682,0.5976778,-0.05292722,9.13999979570508,4
0.4918651,0.2833333,-23.66827,-0.2222026182318126,-0.0799731453977208,0.0509986026442241,3.602775,73.03272,0.1818144,0.0262075,0.5947174,-0.0174309,9.15999979525805,4
0.5509012,0.4833333,-23.64646,-0.2433827076057748,-0.1097673442383601,0.0574441010177793,7.201344,73.90257,0.4187061,0.05238001,0.5997618,-0.03483818,9.17999979481101,4
0.6099204,0.6833334,-23.62465,-0.4264356203209818,0.5132976635935165,-0.023294037488732,10.7948,74.79538,0.713396,0.07849023,0.6041741,-0.05220368,9.19999979436398,4
0.8447607,0.2833334,-23.51151,-0.4538474027553429,0.2449757464667209,-0.0164519799110713,3.541914,74.43153,0.2647248,0.0260074,0.604471,-0.01685248,9.21999979391694,4
0.9028876,0.4833333,-23.49005,-0.4704119469213812,-0.0087106415863282,-0.0071572925150178,7.078401,75.30609,0.584002,0.05198095,0.6094564,-0.03368269,9.23999979346991,4
0.9609978,0.6833333,-23.46859,-0.6687494280299777,0.4181653542111265,-0.093558029878153,10.60849,76.20823,0.9610479,0.0778942,0.6138183,-0.0504736,9.25999979302287,4
1.019094,0.8833332,-23.44713,-0.6954196592662063,0.1937502238919434,-0.0877995668413618,14.13078,77.14566,1.400241,0.1037186,0.6175531,-0.06720656,9.27999979257584,4
1.213808,0.2833333,-23.34785,-0.7150596687359254,-0.0160290587645202,-0.083504801039556,3.47965,74.79877,0.3089197,0.02575594,0.6070201,-0.01629958,9.2999997921288,4
1.270816,0.4833333,-23.32631,-0.7150318777501994,-0.265533741421329,-0.0740320888777681,6.953227,75.67336,0.6714601,0.05147897,0.6119927,-0.03257825,9.31999979168177,4
1.32781,0.6833332,-23.30477,-0.6681004808112134,-0.2890557781605546,-0.0414206959897569,10.41937,76.57755,1.091207,0.07714215,0.616359,-0.04881671,9.33999979123473,4
1.540902,0.2833334,-23.19754,-0.6192959385792705,-0.2733746785799369,-0.0119442290604574,3.425833,73.892,0.2917298,0.02541886,0.6007307,-0.01593292,9.3599997907877,4
1.59675,0.4833333,-23.17565,-0.556268490540587,-0.2718068524944963,0.0212263715455129,6.845496,74.76193,0.6362647,0.05080494,0.6057562,-0.03184148,9.37999979034066,4
1.652583,0.6833332,-23.15376,-0.6455894563696387,0.3826200847825999,-0.0302534163057792,10.2585,75.6597,1.036436,0.07613553,0.610199,-0.04771508,9.39999978989363,4
1.883461,0.2833333,-23.03923,-0.5828088419032826,0.1456602134901031,0.0078197520035914,3.379385,72.1366,0.1938984,0.02483008,0.588452,-0.01599294,9.41999978944659,4
1.938382,0.4833332,-23.01752,-0.5072391173255468,-0.0766639066659454,0.0502915128414294,6.754153,72.99479,0.4387914,0.04962761,0.5935677,-0.03196394,9.43999978899956,4
1.993286,0.6833332,-22.99582,-0.6079109129146447,0.3815743656531478,-0.0021886199954437,10.12386,73.8743,0.7369972,0.07437214,0.5981289,-0.04790058,9.45999978855252,4
2.048175,0.8833331,-22.97412,-0.5398729662498205,0.1885218806243003,0.0386193780948787,13.48761,74.78182,1.091899,0.09904133,0.602132,-0.06378801,9.47999978810549,4
2.241508,0.2833333,-22.87391,-0.4653405526138625,0.0101051600608915,0.0782408783641166,3.327835,70.52153,0.09911229,0.02420857,0.5770344,-0.01605694,9.49999978765845,4
2.295513,0.4833333,-22.85253,-0.3722103759133253,-0.2080370426547401,0.1231718551089144,6.652496,71.36765,0.2475571,0.04838568,0.582226,-0.0320927,9.51999978721142,4
2.349502,0.6833333,-22.83115,-0.338040698988908,-0.2001964676438919,0.1438997921471667,9.973644,72.22887,0.4469879,0.07251275,0.5868905,-0.04809493,9.53999978676438,4
2.560319,0.2833334,-22.72364,-0.3117558482910478,-0.1531529836029606,0.1562852020441134,3.278833,68.42127,359.972,0.02352198,0.5620126,-0.01628706,9.55999978631735,4
2.613542,0.4833334,-22.70267,-0.2817442022829057,-0.1202225468128581,0.1667417416991377,6.556772,69.25366,359.9917,0.04701668,0.5673026,-0.03255512,9.57999978587031,4
2.666751,0.6833333,-22.68171,-0.2363944059202811,-0.1547211002255158,0.1816763338233862,9.83279,70.09323,0.05972672,0.07046116,0.5720933,-0.04878861,9.59999978542328,4
2.719946,0.8833333,-22.66075,-0.1984881257885273,-0.2033325808409853,0.1974671174808193,13.10652,70.94575,0.1777332,0.09383783,0.576381,-0.0649748,9.61999978497624,4
2.982709,0.2833334,-22.52499,-0.1587306019662744,-0.2127410585136223,0.2098653946436002,3.224091,64.75854,359.8224,0.02292813,0.5353455,-0.01637368,9.63999978452921,4
3.034749,0.4833335,-22.50342,-0.1056990174021574,-0.2362628219650117,0.2254313278383648,6.449452,65.5748,359.6906,0.04583042,0.5407916,-0.0327284,9.65999978408217,4
3.086774,0.6833334,-22.48186,-0.2159747291963594,0.3930745278660741,0.1506409327252562,9.675425,66.38924,359.6043,0.0686875,0.5457748,-0.04905055,9.67999978363514,4
3.138788,0.8833334,-22.4603,-0.1227869797569995,0.131024845496751,0.19479661531755,12.90102,67.20718,359.5645,0.09148009,0.5502917,-0.06532126,9.6999997831881,4
3.324975,0.2833334,-22.36077,-0.027754179554237,-0.1163892026479086,0.2367700549110338,3.374373,64.46038,359.8168,0.02405377,0.53313,-0.01705402,9.71999978274107,4
3.379343,0.4833333,-22.33786,-0.1302549283298359,0.3167591309671105,0.1737299651451422,6.750081,65.27252,359.6813,0.04807895,0.5385042,-0.03408737,9.73999978229403,4
3.433697,0.6833333,-22.31496,-0.0684745764794092,0.0986166959960213,0.2073423302652628,10.12643,66.08286,359.5932,0.07205337,0.5433769,-0.05108448,9.759999781847,4
3.638644,0.2833333,-22.20812,-0.0147432688620838,-0.104889986270502,0.2352930199751952,3.538828,65.77235,359.8467,0.02520293,0.5427471,-0.01788854,9.77999978139997,4
3.695919,0.4833333,-22.1848,0.0428029931840674,-0.3481221629728241,0.2644222710949542,7.078608,66.58442,359.7432,0.05037384,0.5479765,-0.03575543,9.79999978095293,4
3.753169,0.6833334,-22.1615,0.1344697205426026,-0.3653714547069364,0.3148759184465426,10.61969,67.39697,359.6895,0.07549465,0.5526482,-0.05358862,9.8199997805059,4
3.976117,0.2833332,-22.04678,0.2129062998186865,-0.343417836888255,0.3567986730345929,3.568637,67.14487,359.9153,0.02553472,0.5527417,-0.01783389,9.83999978005886,4
4.03391,0.4833333,-22.02355,0.2904190242117428,-0.3355771457496801,0.3971842554242357,7.137315,67.96089,359.8813,0.05103699,0.5578793,-0.03564654,9.85999977961183,4
4.091687,0.6833332,-22.00032,0.1918966428353439,0.3251224313816155,0.3401630318404152,10.70511,68.78192,359.8985,0.07648008,0.5624419,-0.05341767,9.87999977916479,4
4.149447,0.8833332,-21.97709,0.2402401570189152,0.094435188705152,0.3728263032447643,14.27126,69.61465,359.9687,0.1018382,0.5664254,-0.0711287,9.89999977871776,4
4.333244,0.2833333,-21.87596,0.2855083371501399,-0.1216163002213371,0.4011265348032538,3.589764,68.4987,0.07889847,0.02627751,0.5625015,-0.01705873,9.91999977827072,4
4.390841,0.4833333,-21.8513,0.1299707929597016,0.3428946064635503,0.3208968928739111,7.177188,69.32697,0.210515,0.05252493,0.5675447,-0.03409133,9.93999977782369,4
4.448423,0.6833332,-21.82664,0.1353015496454928,0.156114639411414,0.3374677185916788,10.7613,70.17101,0.3961151,0.07871099,0.5719969,-0.05108356,9.95999977737665,4
4.6509,0.2833333,-21.71802,0.1302934302874066,-0.0160295595163433,0.3457942160992537,3.567818,68.88041,0.102675,0.02617996,0.5652485,-0.01686687,9.97999977692962,4
4.708151,0.4833333,-21.69351,0.1274896966023178,-0.2278992369373875,0.3529847004206274,7.132624,69.70828,0.2571311,0.0523247,0.5702666,-0.03371087,9.99999977648258,4
4.765385,0.6833333,-21.669,0.1543720216658162,-0.2137861329730147,0.3807340527014737,10.69379,70.55322,0.4654017,0.07840887,0.5746978,-0.05051527,10.0199997760355,4
4.988213,0.2833333,-21.55116,0.1678648379504945,-0.1604702230386483,0.3975896396386744,3.645847,69.35831,0.1323961,0.02681655,0.5686619,-0.01714998,10.0399997755885,4
5.046769,0.4833333,-21.52615,0.180865424251734,-0.121267343889891,0.4109488759311936,7.28839,70.18703,0.3178225,0.0535971,0.5736038,-0.03427675,10.0599997751415,4
5.105309,0.6833333,-21.50114,0.0179742262630542,0.570794542867724,0.3247913272803551,10.92679,71.03542,0.5586711,0.08031324,0.5779307,-0.05136175,10.0799997746944,4
5.163828,0.8833332,-21.47615,0.002840866678242,0.3714695041439589,0.3324772231190707,14.56089,71.911,0.8584985,0.1069419,0.5816381,-0.06839053,10.0999997742474,4
5.346634,0.2833334,-21.37527,-0.01399990852883,0.1867803258892002,0.336212528561937,3.617688,70.22362,0.1575103,0.02661137,0.5748512,-0.01703151,10.1199997738004,4
5.404932,0.4833335,-21.35092,-0.0195606225096875,-0.0376345725229976,0.3434450035548479,7.23169,71.05128,0.3675861,0.05318701,0.5797429,-0.03404022,10.1399997733533,4
5.463213,0.6833333,-21.32657,-0.2524589571701439,0.6042474881387212,0.2238362747222346,10.84122,71.89995,0.6327727,0.07969957,0.5840221,-0.05100819,10.1599997729063,4
5.521478,0.8833333,-21.30223,-0.275522205401284,0.3547427274245613,0.2350951498251383,14.44523,72.77703,0.9564894,0.1061191,0.5876848,-0.06791856,10.1799997724593,4
5.756409,0.2833333,-21.17148,-0.299484472165787,0.119873691188875,0.2413559676502146,3.550502,71.69138,0.2603518,0.02644129,0.5852646,-0.01630061,10.1999997720122,4
5.813616,0.4833333,-21.1473,-0.3115353061423738,-0.1547209749504423,0.2498743764650299,7.095849,72.52494,0.5728334,0.05284804,0.5900947,-0.03257969,10.2199997715652,4
5.870807,0.6833332,-21.12313,-0.2866840236845833,-0.2033326658677404,0.2844080012356897,10.63517,73.38542,0.9406575,0.07919384,0.5943215,-0.04882048,10.2399997711182,4
6.080105,0.2833333,-21.00767,-0.2631061501549538,-0.2127413441721535,0.3112474365744333,3.483213,71.6085,0.2987376,0.02617294,0.5846813,-0.01566652,10.2599997706711,4
6.135947,0.4833333,-20.98314,-0.2285733817501167,-0.2362631795826606,0.3375412632487204,6.960739,72.4425,0.648661,0.05231241,0.5895284,-0.03131301,10.2799997702241,4
6.191776,0.6833333,-20.95863,-0.3516398916632663,0.3930741063912433,0.2696588562945869,10.43125,73.30508,1.053495,0.07839196,0.5937935,-0.04691889,10.2999997697771,4
6.418577,0.2833333,-20.83415,-0.3340700451470582,0.1310245811820257,0.29512357628996,3.426465,70.99231,0.2931196,0.02582537,0.5803246,-0.015278,10.31999976933,4
6.473257,0.4833333,-20.80946,-0.3092378710583006,-0.1163893283585709,0.3181502063905093,6.846946,71.82282,0.6366673,0.05161711,0.5852092,-0.03053264,10.339999768883,4
6.527921,0.6833333,-20.78477,-0.4644569787304462,0.3167594726422412,0.2361346541609101,10.26105,72.6808,1.033491,0.07735275,0.5895335,-0.04575375,10.359999768436,4
6.582569,0.8833333,-20.76009,-0.4780125684554832,0.0986170489093198,0.2519442639264007,13.66778,73.57314,1.487703,0.1030077,0.5932941,-0.06092693,10.3799997679889,4
6.771651,0.2833334,-20.65156,-0.4907501415689648,-0.1048895046845439,0.2641055899952356,3.379186,69.3896,0.1961026,0.02521581,0.5689151,-0.01537638,10.3999997675419,4
6.82546,0.4833333,-20.62723,-0.4912734368087257,-0.3481217682430904,0.2795805637293505,6.75391,70.20774,0.4407689,0.05039844,0.5738724,-0.03073227,10.4199997670949,4
6.879253,0.6833333,-20.6029,-0.4798433155585293,-0.3653710293989322,0.314295941897889,10.12378,71.04688,0.7363904,0.07552766,0.5782965,-0.04605504,10.4399997666478,4
7.085101,0.2833333,-20.48517,-0.4689981740186315,-0.3434172768964795,0.3435497972861867,3.328422,67.20763,0.0892224,0.02461926,0.5531946,-0.01542491,10.4599997662008,4
7.137863,0.4833333,-20.46087,-0.4471431446339124,-0.3355765732129727,0.3740555670832002,6.653895,68.01365,0.225633,0.04920744,0.5582532,-0.03082811,10.4799997657537,4
7.190611,0.6833333,-20.43658,-0.5766619263120898,0.3251229209823902,0.3117685303527011,9.976156,68.83375,0.4105506,0.07374474,0.5628089,-0.04619947,10.4999997653067,4
7.413102,0.2833333,-20.31033,-0.5264682203827444,0.0944357261334755,0.4330079782363363,3.278926,65.26436,359.9711,0.02395811,0.5390292,-0.01564006,10.5199997648597,4
7.465105,0.4833332,-20.2865,-0.4729994076036732,-0.1216156241889493,0.5482439797486762,6.556965,66.05753,359.9876,0.04788836,0.5441731,-0.03126195,10.5399997644126,4
7.517095,0.6833332,-20.26266,-0.6031760149665644,0.3428953923511988,0.5520438567385852,9.833159,66.85741,0.05019047,0.07176758,0.5488405,-0.04685072,10.5599997639656,4
7.56907,0.8833332,-20.23884,-0.7308767870025399,0.7964294743149031,0.5495707804252952,13.10723,67.6695,0.1603675,0.09557819,0.5530279,-0.06239421,10.5799997635186,4
7.75533,0.2833333,-20.12695,-0.7724995583172056,0.3340093661845633,0.7039571503579296,3.22938,62.69563,359.8722,0.02348458,0.5200519,-0.01561128,10.5999997630715,4
7.806246,0.4833333,-20.10273,-0.8018765840186663,-0.1393874364261812,0.8488628107352092,6.459242,63.47712,359.7883,0.04694254,0.5252963,-0.03120453,10.6199997626245,4
7.857148,0.6833332,-20.07852,-0.956783518055026,0.2812158823178678,0.8998754044519224,9.68901,64.25932,359.7485,0.07035445,0.5300928,-0.04676659,10.6399997621775,4
7.908038,0.8833331,-20.05431,-1.0012735822955694,0.0505284181014102,1.1129717460364397,12.91779,65.04735,359.7538,0.09370022,0.5344381,-0.06228039,10.6599997617304,4
8.146585,0.2833334,-19.90919,-1.0308821839365692,-0.1655232015885611,1.3086200488989626,3.338635,60.57195,359.7971,0.02426245,0.5041459,-0.01621965,10.6799997612834,4
8.198905,0.4833333,-19.88328,-1.0341103805853642,-0.4213003306114351,1.494029510216098,6.678787,61.34358,359.6389,0.04849644,0.5094087,-0.03242018,10.6999997608364,4
8.25121,0.6833333,-19.85737,-1.1023309021757743,-0.4510945895632028,1.7306057285118437,10.01981,62.11171,359.5251,0.07268029,0.5142083,-0.04858667,10.7199997603893,4
8.465852,0.2833333,-19.72831,-1.1609201881078643,-0.4416859405302944,1.9371824520894665,3.528506,61.87773,359.8397,0.02568791,0.5139159,-0.01702741,10.7399997599423,4
8.521322,0.4833333,-19.70137,-1.1983966637489694,-0.4463902197456082,2.1213536590337334,7.057973,62.65042,359.7268,0.05134347,0.5190331,-0.03403413,10.7599997594953,4
8.576768,0.6833332,-19.67443,-1.3860036458742062,0.2017642920736396,2.181233802673205,10.58907,63.42266,359.661,0.0769508,0.5236272,-0.05100953,10.7799997590482,4
8.632197,0.8833332,-19.64751,-1.5492913133360275,0.6984546373554444,2.2211425470127537,14.11973,64.20044,359.6434,0.1024745,0.5276943,-0.06792879,10.7999997586012,4
8.809031,0.2833334,-19.53466,-1.5782810482721477,0.1676293293512478,2.4372669038671653,3.565326,63.13075,359.9102,0.02609558,0.5232384,-0.01695174,10.8199997581542,4
8.865056,0.4833334,-19.50756,-1.7819950857013698,0.3466031986086787,2.507189430207127,7.130816,63.90686,359.8686,0.05215926,0.5282656,-0.03388302,10.8399997577071,4
8.921064,0.6833334,-19.48047,-1.9661542599661868,0.5427915189295518,2.545159259648326,10.69553,64.68717,359.8756,0.07816294,0.5327517,-0.05077464,10.8599997572601,4
9.10337,0.2833333,-19.36106,-2.0316311964592515,0.0636095641156894,2.7158804712098146,3.589066,63.72377,0.06267273,0.02688544,0.5276,-0.01606627,10.879999756813,4
9.158838,0.4833333,-19.33196,-2.069308823097733,-0.426061328682654,2.8521855621867616,7.176091,64.51206,0.1758364,0.05374134,0.5325755,-0.03210524,10.899999756366,4
9.214291,0.6833332,-19.30287,-2.2294921036668995,-0.0212439039478802,2.8622004157333087,10.7602,65.31459,0.3402549,0.08053479,0.536999,-0.0481064,10.919999755919,4
9.400611,0.2833333,-19.17779,-2.2533095487872394,-0.2672295985450242,3.016303296363052,3.567708,61.3487,0.04693015,0.02698236,0.5098997,-0.01552868,10.9399997554719,4
9.454627,0.4833334,-19.14684,-2.248390679643125,-0.4980916516100866,3.1303220998205497,7.133265,62.13306,0.1437691,0.05393265,0.5149663,-0.03102943,10.9599997550249,4
9.508629,0.6833333,-19.1159,-2.386363180980398,-0.0479032088890141,3.101693731201662,10.69615,62.93048,0.2912491,0.08082135,0.5195052,-0.04649316,10.9799997545779,4
9.562615,0.8833331,-19.08497,-2.493665496391364,0.3917962942794554,3.039322303675576,14.25563,63.74761,0.4918293,0.107621,0.5235122,-0.06190487,10.9999997541308,4
9.771452,0.2833334,-18.8852,-2.4816715501917006,-0.0839705176702922,3.0924747576905105,3.634128,55.40773,0.001089472,0.02807787,0.4646677,-0.01473289,11.0199997536838,4
9.823375,0.4833335,-18.84877,-2.632894574670054,0.1500618460734658,2.990968425113987,7.266873,56.18477,0.05161777,0.05611861,0.4699229,-0.02944539,11.0399997532368,4
9.875282,0.6833334,-18.81235,-2.7557614450757466,0.4013087793605709,2.8539022662847184,10.89757,56.97223,0.1528443,0.08409312,0.4746789,-0.04412177,11.0599997527897,4
9.92718,0.8833333,-18.77596,-2.749516952213316,-0.0228145502034794,2.8481618714328985,14.52614,57.77741,0.3094613,0.1119867,0.4789327,-0.05873153,11.0799997523427,4
10.04729,0.2833333,-18.59251,-2.708559514376077,-0.4574268049457319,2.8082761348450767,3.601307,52.86122,0.07517927,0.0284296,0.4448753,-0.01339923,11.0999997518957,4
10.0963,0.4833333,-18.55316,-2.784039871976372,0.0024492711741288,2.639364381464455,7.200218,53.6421,0.1997178,0.05682196,0.4502167,-0.02677993,11.1199997514486,4
10.14529,0.6833331,-18.51382,-2.8221275680126947,0.4518364093095045,2.4453946948959957,10.79604,54.43797,0.3753679,0.08514782,0.4550877,-0.04012844,11.1399997510016,4
10.28076,0.2833334,-18.31721,-2.6835462202341507,-0.0142427527762352,2.4497363473770264,3.544044,51.1235,0.1434243,0.02843576,0.4312421,-0.01221405,11.1599997505546,4
10.32701,0.4833333,-18.27609,-2.5028203304588263,-0.4908107061404622,2.427772978575181,7.084771,51.90817,0.3357525,0.05683501,0.4366499,-0.02441151,11.1799997501075,4
10.37325,0.6833334,-18.23499,-2.4956641269034066,-0.0728905415579313,2.245778299716658,10.62144,52.71173,0.5791811,0.08516913,0.4416145,-0.03658018,11.1999997496605,4
10.52189,0.2833333,-18.0235,-2.340778586330181,-0.3057731628212444,2.2232200398379245,3.482739,49.18976,0.2149693,0.02841132,0.4159548,-0.01094246,11.2199997492135,4
10.5651,0.4833333,-17.98062,-2.155666143675345,-0.5235321681650393,2.169000822397644,6.961199,49.97828,0.4783209,0.05678692,0.4214338,-0.02187034,11.2399997487664,4
10.60832,0.6833333,-17.93777,-2.1267620444449804,-0.0602409157279192,1.9709186112838672,10.43412,50.7899,0.7946163,0.08510243,0.426499,-0.03275622,11.2599997483194,4
10.65152,0.8833331,-17.89493,-2.0770956908208,0.3925613992474214,1.7490150225623855,13.90121,51.63113,1.165562,0.1133277,0.4311448,-0.04360686,11.2799997478724,4
10.69471,0.9766704,-17.8521,-1.9142487773094352,-0.0701024787566142,1.6607882833906142,17.36147,52.50938,1.595942,0.1414351,0.4353672,-0.05441158,11.2999997474253,4
10.83098,0.2833333,-17.63238,-1.7264448981380731,-0.5432552803707341,1.5543555303184462,3.423995,46.43081,0.2221898,0.02822043,0.3939591,-0.009995413,11.3199997469783,4
10.87128,0.4833333,-17.58811,-1.6522124100775724,-0.1219198696026477,1.338603688217253,6.843177,47.21577,0.4930219,0.05640696,0.3995222,-0.01996582,11.3399997465312,4
10.91156,0.6833333,-17.54386,-1.4591721373647475,-0.351387483208326,1.2801849854676046,10.25731,48.02342,0.8137421,0.08453266,0.4047042,-0.02991427,11.3599997460842,4
11.03483,0.2833333,-17.35266,-1.2507975492131038,-0.5657314931780635,1.2086756996051644,3.369154,43.27045,0.1372511,0.02776754,0.3685038,-0.009725739,11.3799997456372,4
11.07307,0.4833333,-17.30796,-1.1718847835263038,-0.0990252448441823,1.025875967230279,6.734728,44.04507,0.3211134,0.05550078,0.3741698,-0.01943159,11.3999997451901,4
11.1113,0.6833333,-17.26327,-1.080923512515735,0.3571919726378819,0.8401739912293902,10.09651,44.83664,0.5526522,0.08317564,0.3794899,-0.0291168,11.4199997447431,4
11.24707,0.2833332,-17.0574,-0.837703645178415,-0.1020568705278366,0.8807468764066666,3.31637,40.69127,0.03833696,0.02724772,0.3475279,-0.009747251,11.4399997442961,4
11.28399,0.4833332,-17.01284,-0.7428575775786808,0.1484934763743509,0.8019064374734821,6.630947,41.45458,0.120966,0.05446334,0.3532707,-0.01948284,11.459999743849,4
11.32089,0.6833333,-16.9683,-0.6492536071080846,0.4162580470502313,0.7167019725234258,9.942747,42.22849,0.2494155,0.08162105,0.3586968,-0.02919384,11.479999743402,4
11.35779,0.8833333,-16.92377,-0.5509962156173778,0.6489666418960087,0.6378539630728692,13.25157,43.0185,0.4252781,0.1086995,0.3638016,-0.03887574,11.499999742955,4
11.46825,0.2833333,-16.74811,-0.3636811061193601,-0.0594032859880689,0.7138792672439092,3.26605,38.60611,359.938,0.026717,0.330445,-0.009930706,11.5199997425079,4
11.50436,0.4833333,-16.70402,-0.3548445900906216,0.1554635824138648,0.6031765158965126,6.531663,39.35759,359.9189,0.0534033,0.3362379,-0.01984976,11.5399997420609,4
11.54046,0.6833333,-16.65993,-0.351647097160253,0.3875445663023439,0.4921081146608301,9.79598,40.1134,359.9431,0.08003414,0.3417374,-0.02974661,11.5599997416139,4
11.662,0.2833333,-16.46873,-0.257871735056046,-0.0557441693951328,0.5454154985722628,3.21634,35.04511,359.823,0.02629711,0.3010036,-0.009921776,11.5799997411668,4
11.69644,0.4833333,-16.42433,-0.1702257216434528,-0.509521861110432,0.6036413317211373,6.433757,35.78456,359.6874,0.0525647,0.3068888,-0.01983204,11.5999997407198,4
11.73088,0.6833333,-16.37993,-0.1649330675716971,-0.0688111199489411,0.5033566750427632,9.651707,36.52143,359.5929,0.07878108,0.3125125,-0.02972232,11.6199997402728,4
11.76531,0.8833333,-16.33556,-0.0564216717216652,-0.2789035023010123,0.5811251844783794,12.86939,37.26053,359.5404,0.1049241,0.3178707,-0.03957842,11.6399997398257,4
11.9215,0.2833332,-16.09178,0.0435714634133663,-0.473872126731919,0.6570875897598167,3.399764,34.52837,359.8092,0.02783379,0.2966941,-0.01039282,11.6599997393787,4
11.95758,0.4833332,-16.04453,0.0373479057754551,0.0122094085236993,0.5554946187542544,6.800755,35.26313,359.6618,0.05563413,0.3025272,-0.02077298,11.6799997389317,4
11.99365,0.6833332,-15.99729,0.0261075344455132,0.4878020010904845,0.4543256141421903,10.20241,35.99482,359.5574,0.0833755,0.3080745,-0.03113082,11.6999997384846,4
12.13676,0.2833334,-15.77993,0.1541852851393628,0.047928168161081,0.5909613424537952,3.534767,36.20131,359.8595,0.02893472,0.3105752,-0.01074695,11.7199997380376,4
12.17487,0.4833334,-15.73135,0.1481837902016902,0.3178536262688554,0.5202897182162509,7.070893,36.93812,359.7639,0.0578383,0.3163095,-0.0214859,11.7399997375906,4
12.21297,0.6833333,-15.68278,0.1271594007652261,0.6049933285358314,0.4344408271358091,10.60719,37.6753,359.7136,0.08667838,0.321723,-0.03220048,11.7599997371435,4
12.25106,0.8833333,-15.63423,0.0976308462374149,0.8570767546784261,0.3456722079319547,14.14281,38.41859,359.7095,0.115424,0.3268108,-0.04287965,11.7799997366965,4
12.36914,0.2833333,-15.44859,0.1512561744528948,0.1680822361162771,0.4112830502368876,3.577233,37.79962,359.9597,0.02941554,0.3237669,-0.01044267,11.7999997362494,4
12.40763,0.4833333,-15.39944,0.1985637012371661,-0.430012736067088,0.4802632170496377,7.154016,38.54287,359.9658,0.05879572,0.3294185,-0.0208726,11.8199997358024,4
12.44612,0.6833333,-15.35031,0.1347157527688782,-0.0344986163988975,0.3533948238286832,10.72939,39.29311,0.01914026,0.08810789,0.3347295,-0.03127792,11.8399997353554,4
12.57554,0.2833334,-15.14804,0.1667777299545125,-0.2902757415885985,0.3928036439604536,3.571729,38.62797,0.08463401,0.02965441,0.3305623,-0.009610716,11.8599997349083,4
12.61297,0.4833334,-15.09818,0.190980177261423,-0.5314170167634044,0.4275956333251276,7.141006,39.38079,0.2169605,0.0592718,0.3361717,-0.01920415,11.8799997344613,4
12.65038,0.6833332,-15.04834,0.1150169879217664,-0.0919959201099314,0.2943247603895766,10.70723,40.14863,0.3982085,0.08882102,0.3414348,-0.02877509,11.8999997340143,4
12.68778,0.8833331,-14.99851,0.0367526313808799,0.3364482464100912,0.1614638714766236,14.26967,40.938,0.6311451,0.1182721,0.3463465,-0.03831377,11.9199997335672,4
12.85086,0.2833332,-14.74531,0.0962763334596914,-0.1510616665246102,0.2576485746757164,3.607435,39.55788,0.1265375,0.02999217,0.3381915,-0.0096125,11.9399997331202,4
12.88893,0.4833333,-14.69512,0.0342605285890798,0.0707399386167239,0.1581598328799529,7.21185,40.31182,0.3008255,0.0599446,0.3437376,-0.01921204,11.9599997326732,4
12.92698,0.6833332,-14.64495,-0.0363649320451422,0.3092680031952422,0.0476670087546136,10.813,41.08371,0.5249043,0.08982953,0.3489227,-0.02879079,11.9799997322261,4
12.96503,0.8833332,-14.59479,-0.108149108705664,0.5122518756411765,-0.0612531950308365,14.40974,41.88028,0.8020578,0.1196131,0.3537419,-0.03833685,11.9999997317791,4
13.07672,0.2833333,-14.41749,-0.0937943188942735,-0.2263308975551956,-0.0170346571077431,3.632106,40.0638,0.1358197,0.03017934,0.3423357,-0.009742474,12.0199997313321,4
13.11539,0.4833332,-14.36721,-0.1645616940591807,-0.0421643181222585,-0.1207591948183637,7.261103,40.81581,0.3195994,0.06031852,0.3478347,-0.01947189,12.039999730885,4
13.15404,0.683333,-14.31694,-0.2334899039497759,0.1587288274668927,-0.2193142365738563,10.88632,41.58656,0.5536028,0.09038608,0.352964,-0.02917796,12.059999730438,4
13.27783,0.2833334,-14.12368,-0.2007254803284226,-0.3162361869859177,-0.1438493510550831,3.587884,41.43309,0.2041131,0.02991069,0.3535188,-0.009408759,12.079999729991,4
13.31627,0.4833333,-14.07415,-0.2657550915924371,-0.0818900158033637,-0.23319140427704,7.171764,42.18907,0.4559712,0.05978219,0.3589681,-0.01880494,12.0999997295439,4
13.3547,0.6833333,-14.02463,-0.3276835523817141,0.1691827343416904,-0.3180112538424318,10.7509,42.96781,0.7583188,0.08958382,0.3640443,-0.02817857,12.1199997290969,4
13.49064,0.2833333,-13.81511,-0.268441492713146,-0.2556025565526124,-0.2085776487603841,3.526323,42.46812,0.2741504,0.02954521,0.3619377,-0.008914594,12.1399997286499,4
13.52833,0.4833332,-13.76626,-0.198946513299056,-0.6913646713840355,-0.0858777269920327,7.04773,43.22791,0.5955751,0.05905258,0.3673526,-0.01781735,12.1599997282028,4
13.56601,0.6833333,-13.71742,-0.2574475508694256,-0.2331262212579704,-0.1762902200008191,10.56343,44.01427,0.9673827,0.08849248,0.3723973,-0.02669942,12.1799997277558,4
13.60369,0.8833332,-13.66859,-0.3086850560311749,0.2141353248699196,-0.2584669223218387,14.07226,44.83398,1.393785,0.1178335,0.3770674,-0.03555043,12.1999997273088,4
13.77104,0.2833332,-13.40868,-0.2049812871506393,-0.2545570756026126,-0.0950884853157703,3.459252,42.42909,0.3118613,0.02912188,0.3616185,-0.008386132,12.2199997268617,4
13.80743,0.4833332,-13.36023,-0.2239462519464741,-0.0139384115332064,-0.1316663239984592,6.91263,43.18874,0.6704199,0.05820437,0.3670295,-0.01675746,12.2399997264147,4
13.8438,0.683333,-13.31179,-0.2467102312682421,0.2434066970762768,-0.1763616738365456,10.35991,43.97657,1.078637,0.08722308,0.3720834,-0.02510999,12.2599997259676,4
13.88017,0.8833328,-13.26336,-0.2664471361899281,0.4652078371839914,-0.2174262593224423,13.8002,44.7991,1.540725,0.1161502,0.3767755,-0.03343574,12.2799997255206,4
13.99632,0.2833334,-13.07904,-0.19231030584098,-0.2545575519615152,-0.0968234841050037,3.405118,41.5014,0.2483793,0.02855111,0.354085,-0.008500597,12.2999997250736,4
14.03214,0.4833334,-13.03145,-0.2079438161391333,-0.0515735921366544,-0.1302360189303097,6.805325,42.25183,0.5416781,0.05706377,0.3595176,-0.01699006,12.3199997246265,4
14.06795,0.6833335,-12.98387,-0.2216154560578811,0.1681369301854839,-0.1604511557833206,10.20037,43.02586,0.8826659,0.08551549,0.3646114,-0.0254611,12.3399997241795,4
14.19547,0.2833333,-12.78371,-0.1293354671392208,-0.2880107111932787,-0.0135326438212644,3.354195,39.53776,0.1489102,0.02798116,0.3380459,-0.008676396,12.3599997237325,4
14.23041,0.4833334,-12.73671,-0.1429285792752441,-0.0348472906436321,-0.0437653784245952,6.704811,40.27678,0.3414705,0.055926,0.3435346,-0.01734001,12.3799997232854,4
14.26535,0.6833333,-12.68971,-0.1572304800065342,0.2350426913578779,-0.0769885283522366,10.0517,41.03288,0.5794492,0.08381289,0.3487093,-0.02598545,12.3999997228384,4
14.30028,0.8833332,-12.64273,-0.1652363151417617,0.4693887150503763,-0.1016759156438915,13.39418,41.81174,0.8655731,0.1116167,0.3535659,-0.03460478,12.4199997223914,4
14.4598,0.2833333,-12.39292,-0.0261788924629993,-0.2378315402215504,0.1117307648802281,3.300437,37.2066,-0.000646632,0.02729128,0.3188818,-0.009192235,12.4399997219443,4
14.49434,0.4833334,-12.34685,-0.0325700817399017,-0.0223025420039746,0.08737257748332,6.599629,37.9294,0.04041975,0.05455077,0.3244275,-0.0183734,12.4599997214973,4
14.52887,0.6833333,-12.3008,-0.044253411094882,0.2099529104237339,0.0532586895478086,9.896717,38.65991,0.1238867,0.08175178,0.3296859,-0.02753562,12.4799997210503,4
14.56339,0.8833332,-12.25475,-0.0544456708726066,0.4066643917361444,0.0207814777632737,13.19154,39.40325,0.2514434,0.1088743,0.3346526,-0.03667087,12.4999997206032,4
14.67275,0.2833333,-12.07846,0.0212640063219318,-0.3381907644918114,0.1358150894662291,3.244347,35.28825,359.9121,0.02674441,0.303003,-0.009310967,12.5199997201562,4
14.70641,0.4833333,-12.03294,0.0146414414759057,-0.1602966795138424,0.1058551966556429,6.488584,36.00058,359.8645,0.05345859,0.30859,-0.01861107,12.5399997197092,4
14.74006,0.6833333,-11.98742,0.0102432235530169,0.0343240869640133,0.0779039650744373,9.732186,36.71523,359.8574,0.08011985,0.3139117,-0.02789272,12.5599997192621,4
14.86013,0.2833333,-11.79559,0.1047932438514092,-0.4469129506376796,0.2163243404814583,3.197068,32.47218,359.8073,0.02631357,0.2795318,-0.00941323,12.5799997188151,4
14.89263,0.4833332,-11.75013,0.1013640957044614,-0.218839258228929,0.1888711435277397,6.39532,33.17354,359.6536,0.0525978,0.2851829,-0.01881599,12.5999997183681,4
14.92511,0.6833332,-11.70469,0.0977393424649246,0.0259611044415411,0.1605803328638266,9.594255,33.87101,359.5384,0.07883133,0.2905946,-0.02820006,12.619999717921,4
15.06077,0.2833333,-11.49336,0.1006498971076972,0.2352173785622217,0.1431140499790864,3.530771,33.79915,359.8183,0.02901586,0.2906035,-0.01047158,12.639999717474,4
15.09742,0.4833333,-11.44365,0.12472124117504,0.223195332588534,0.1635709825343489,7.062575,34.49844,359.6795,0.05799534,0.2961289,-0.02093018,12.6599997170269,4
15.13405,0.6833332,-11.39396,0.1405870853356194,0.2566486373066488,0.1708835847885534,10.5961,35.19498,359.5828,0.08691905,0.301355,-0.03137144,12.6799997165799,4
15.17066,0.8833331,-11.34429,0.1552287359000068,0.2822611240429987,0.1771173046915617,14.13099,35.89415,359.529,0.1157607,0.3062768,-0.04178242,12.6999997161329,4
15.33898,0.2833333,-11.08317,0.285802788452731,-0.3935969974929973,0.353390251025381,3.564105,36.06517,359.899,0.02929752,0.3094341,-0.01046397,12.7199997156858,4
15.37672,0.4833333,-11.0337,0.2599019840090584,-0.1467057535934011,0.2790778482703064,7.128416,36.76906,359.8413,0.05855811,0.3148642,-0.02091874,12.7399997152388,4
15.41445,0.6833332,-10.98425,0.224332104388111,0.1169119630723676,0.1917629086514694,10.69216,37.47549,359.8275,0.08775155,0.319972,-0.03134941,12.7599997147918,4
15.45217,0.8833331,-10.93481,0.1861447597840406,0.3449859672749231,0.1033682703897582,14.25477,38.19011,359.8588,0.1168487,0.3247527,-0.04174507,12.7799997143447,4
15.56861,0.2833333,-10.74832,0.2223616267920771,-0.3685063930364094,0.1303219830794528,3.592273,37.64868,0.04248434,0.02978645,0.3224983,-0.009762754,12.7999997138977,4
15.606,0.4833333,-10.698,0.1663762486059656,-0.1592500507026667,0.0027244645363913,7.182947,38.36337,0.130282,0.05953697,0.327852,-0.01951024,12.8199997134507,4
15.64338,0.6833333,-10.6477,0.1109201445387135,0.0667328475945354,-0.1214974378675641,10.77123,39.09006,0.264464,0.08921857,0.3328657,-0.0292347,12.8399997130036,4
15.77183,0.2833333,-10.44529,0.1401321922025076,-0.3831424381946757,-0.1259913178578999,3.561223,38.29314,0.1013039,0.02964348,0.3278014,-0.009356607,12.8599997125566,4
15.80864,0.4833332,-10.3952,0.0651549821602479,-0.123706229429598,-0.3005916860168511,7.11968,39.01108,0.2475988,0.05924744,0.3331265,-0.01869923,12.8799997121096,4
15.84544,0.6833332,-10.34512,-0.0082388485215503,0.1524564147282133,-0.469852352257277,10.67499,39.74457,0.4405844,0.08878356,0.3381119,-0.0280201,12.8999997116625,4
15.88222,0.883333,-10.29506,-0.0730834307666832,0.3930751756723609,-0.621791586005922,14.22652,40.49978,0.6830572,0.1182225,0.3427527,-0.03730977,12.9199997112155,4
16.04433,0.2833333,-10.04071,-0.0096773077949876,-0.3078727192185503,-0.6182935566055425,3.633676,39.09717,0.1342678,0.03026882,0.3344026,-0.009504893,12.9399997107685,4
16.0822,0.4833333,-9.98978,-0.0858454673665356,-0.0860714840655595,-0.8342640542385862,7.264362,39.81581,0.3144135,0.06049746,0.3396605,-0.01899691,12.9599997103214,4
16.12005,0.6833333,-9.938869,-0.1613543908198593,0.1524562013772707,-1.040392824469536,10.89192,40.55263,0.542498,0.09065787,0.3445583,-0.02846863,12.9799997098744,4
16.15789,0.8833332,-9.887974,-0.2293011776623466,0.3554399112618059,-1.224797072671027,14.51538,41.31422,0.8219127,0.1207169,0.3490912,-0.03790801,12.9999997094274,4
16.26848,0.2833333,-9.711077,-0.2328783037231971,-0.3831429013117076,-1.3181315971920302,3.614202,40.04538,0.1569978,0.03009742,0.342181,-0.009510586,13.0199997089803,4
16.30665,0.4833333,-9.66081,-0.3101843146617185,-0.1989765710350387,-1.531197343084063,7.225116,40.76323,0.3595842,0.06015489,0.3473922,-0.01900855,13.0399997085333,4
16.34481,0.6833333,-9.610556,-0.37358387768003,0.0019163418630707,-1.712742975270162,10.83212,41.50059,0.6101565,0.09014159,0.3522392,-0.0284836,13.0599997080863,4
16.46736,0.2833334,-9.41704,-0.3338624012810527,-0.4730487826192392,-1.7910945443448858,3.55758,41.5733,0.2440265,0.02977558,0.3546556,-0.009026044,13.0799997076392,4
16.50506,0.4833333,-9.367553,-0.3755096204009724,-0.2387026121336258,-1.997950761142244,7.110804,42.29683,0.5333883,0.05951245,0.3598176,-0.01804054,13.0999997071922,4
16.54274,0.6833333,-9.318079,-0.3985599726173703,0.0123702471697494,-2.1658922939237524,10.659,43.04493,0.8710535,0.08918094,0.3646127,-0.02703399,13.1199997067451,4
16.58042,0.8833332,-9.268618,-0.3964523632455936,0.2278991437211165,-2.283706568835531,14.20108,43.8241,1.260888,0.1187486,0.3690366,-0.03599672,13.1399997062981,4
16.7352,0.2833335,-9.024713,-0.3337256441109772,0.2221492867681742,-2.458391549068536,3.48693,43.07971,0.3211102,0.02932797,0.3668976,-0.008564956,13.1599997058511,4
16.77236,0.4833334,-8.976229,-0.2645147289757297,0.261874692866754,-2.6005499558275043,6.968571,43.80689,0.6870093,0.05861901,0.3720092,-0.01711904,13.179999705404,4
16.80951,0.6833333,-8.927755,-0.1831237836280443,0.2937596453092698,-2.699859744184157,10.44378,44.56271,1.100951,0.08784106,0.3767549,-0.02565324,13.199999704957,4
16.9499,0.2833333,-8.730253,0.0233052756589309,-0.3758258729619076,-2.687116928335052,3.426247,43.48032,0.3153575,0.02878762,0.3701546,-0.008517949,13.21999970451,4
16.98675,0.4833333,-8.682871,0.0858010025417712,-0.122662034422133,-2.875105446238596,6.846893,44.2042,0.6742657,0.05753572,0.3752548,-0.0170259,13.2399997040629,4
17.0236,0.6833332,-8.635502,0.1489087652404634,0.147228348842932,-3.028258110206988,10.26169,44.95566,1.080149,0.08622194,0.3799981,-0.02551516,13.2599997036159,4
17.06043,0.8833332,-8.588146,0.2178958056299222,0.381574959272302,-3.1369286428612995,13.66981,45.74079,1.537066,0.1148192,0.3843803,-0.03397764,13.2799997031689,4
17.16282,0.2833333,-8.442875,0.3723613305916764,-0.3256454143924112,-3.1767075227732446,3.377671,43.27866,0.2246838,0.02811711,0.368548,-0.009046199,13.2999997027218,4
17.20009,0.4833333,-8.397066,0.4419463373084404,-0.1101167461762114,-3.322215493160288,6.750993,43.99115,0.4911359,0.05619573,0.3736478,-0.01808511,13.3199997022748,4
17.23736,0.6833333,-8.35127,0.5162540923406951,0.1221386171302191,-3.41914179256252,10.11974,44.72511,0.8023843,0.08421546,0.378403,-0.02710476,13.3399997018278,4
17.34689,0.2833334,-8.207718,0.6006580687353171,0.3188500101054064,-3.4585630208506712,3.326634,43.24077,0.1321978,0.02740902,0.3682687,-0.009622853,13.3599997013807,4
17.38471,0.4833334,-8.163637,0.6634723933039908,0.2942828682414047,-3.6086087218597136,6.650107,43.94267,0.3046694,0.05478093,0.3733685,-0.01923892,13.3799997009337,4
17.42253,0.6833334,-8.119569,0.7313757868819657,0.3151913153357714,-3.730291766340219,9.970237,44.65999,0.519838,0.08209689,0.3781348,-0.02883497,13.3999997004867,4
17.46033,0.8833334,-8.075514,0.8093652439129748,0.3282591699086614,-3.812934606059589,13.28645,45.398,0.7801418,0.1093331,0.3825636,-0.03840277,13.4199997000396,4
17.60372,0.2833334,-7.913289,0.9758374699586732,-0.360143676919484,-3.834753553086914,3.274446,42.79803,359.9931,0.02657959,0.3647135,-0.01048015,13.4399996995926,4
17.64239,0.4833333,-7.871238,1.0064734456841895,-0.1257972637243036,-4.041608289756653,6.547785,43.48496,0.02553731,0.05312868,0.3698191,-0.02094858,13.4599996991456,4
17.68104,0.6833333,-7.829195,1.0383888039900384,0.1252758108466023,-4.207384859310475,9.819199,44.17865,0.09733047,0.07962009,0.3746043,-0.03139979,13.4799996986985,4
17.71968,0.8833332,-7.787162,1.0762891397411671,0.3408048829398823,-4.323239860817634,13.08858,44.88386,0.2102539,0.1060355,0.3790655,-0.04182327,13.4999996982515,4
17.80505,0.2833333,-7.691256,1.1891052676436686,-0.3852330324585069,-4.369724113444677,3.221376,42.73425,359.8954,0.02584376,0.3642222,-0.0110904,13.5199996978045,4
17.8443,0.4833332,-7.650994,1.222623284429467,-0.1885216831292225,-4.501515096601388,6.442819,43.41004,359.8288,0.0516586,0.3693213,-0.02216841,13.5399996973574,4
17.88354,0.6833332,-7.610745,1.2590352599598835,0.0249163578927038,-4.57589920234825,9.663867,44.08674,359.8,0.07742307,0.3741102,-0.03322508,13.5599996969104,4
17.99991,0.2833333,-7.514282,1.3921042553373937,-0.4375036483971899,-4.569030993816675,3.373335,46.06864,359.8942,0.02672583,0.3911377,-0.01236609,13.5799996964633,4
18.04339,0.4833333,-7.474522,1.4249379112960945,-0.1906124886531742,-4.663335308575981,6.746751,46.74217,359.8279,0.05341993,0.396078,-0.02471825,13.5999996960163,4
18.08687,0.6833333,-7.434774,1.453578807422339,0.0730053382163284,-4.698839359543254,10.11978,47.41696,359.8012,0.08005844,0.4006559,-0.03704473,13.6199996955693,4
18.13032,0.8833333,-7.395036,1.483644694444706,0.3010788610071612,-4.669463174526467,13.49324,48.0975,359.8135,0.1066226,0.404866,-0.04935034,13.6399996951222,4
18.31685,0.2833333,-7.27942,1.6573078665349996,-0.4124141203653682,-4.544388012966913,3.531058,51.65628,359.9477,0.02753309,0.435479,-0.01383317,13.6599996946752,4
18.36557,0.4833332,-7.241646,1.684205208926219,-0.20315818068906,-4.579192089895251,7.062044,52.33193,359.9364,0.05503323,0.4401662,-0.02765588,13.6799996942282,4
18.41426,0.6833332,-7.203877,1.6962570978965663,0.0228244522480087,-4.56065571830746,10.59275,53.01244,359.9657,0.08247184,0.4444142,-0.04146288,13.6999996937811,4
18.56327,0.2833333,-7.110883,1.8304934426521344,-0.4270508287497395,-4.460441864696349,3.572474,57.18987,0.05368438,0.02759274,0.4783688,-0.01450758,13.7199996933341,4
18.61497,0.4833335,-7.076037,1.8200938081974307,-0.1676147980529853,-4.480739522801698,7.143478,57.87337,0.1482686,0.05514539,0.4828321,-0.02901238,13.7399996928871,4
18.66666,0.6833335,-7.041201,1.782799497149341,0.1085479248591144,-4.4576724666614265,10.71209,58.56891,0.2870314,0.08263488,0.4868047,-0.04348376,13.75999969244,4
18.71833,0.8833336,-7.006374,1.7259537806333969,0.3491667951358211,-4.38774511052306,14.27772,59.28234,0.4723353,0.1100337,0.4902832,-0.05790674,13.779999691993,4
18.83956,0.2833333,-6.957643,1.750453917407942,-0.3517811860886081,-4.24468018440746,3.564573,62.37411,0.1887741,0.02745957,0.5175387,-0.01469691,13.799999691546,4
18.89297,0.4833332,-6.92559,1.6769379130381132,-0.1299797932528066,-4.1692979691120735,7.125775,63.0676,0.4195678,0.05487821,0.5217931,-0.0293865,13.8199996910989,4
18.94635,0.6833333,-6.893547,1.5829758579693198,0.1085480676448211,-4.052673691534599,10.68284,63.78177,0.6963498,0.0822339,0.5255192,-0.04404194,13.8399996906519,4
18.99973,0.8833333,-6.861512,1.476710884635967,0.3115320779978738,-3.892202445561618,14.23515,64.5228,1.022517,0.1094996,0.5287133,-0.05864881,13.8599996902049,4
19.12076,0.2833334,-6.824174,1.4158666543458764,0.293237220287012,-3.770824304755259,3.593489,68.72154,0.2522247,0.02712432,0.5640661,-0.0158801,13.8799996897578,4
19.17846,0.4833335,-6.815736,1.3288178928963958,0.3204176305933695,-3.617135235223234,6.864184,68.9277,359.5595,0.04718625,0.5650567,-0.03704061,13.8999996893108,4
19.23613,0.6833335,-6.807526,1.2245413782266574,0.3397574716386418,-3.4291160101166467,10.12224,69.07563,358.8384,0.0669418,0.5654472,-0.0583303,13.9199996888638,4
19.36243,0.2833333,-6.788973,1.2311090154411488,-0.3423731812901714,-3.17826242427014,3.46031,71.79147,359.457,0.02168107,0.586154,-0.02153879,13.9399996884167,4
19.42284,0.4833335,-6.779598,1.0945629920970497,-0.1017545951038799,-3.035964698213098,6.918393,71.88759,358.9056,0.04325113,0.5863616,-0.04313372,13.9599996879697,4
19.48322,0.6833336,-6.770206,0.9360522234935084,0.1555907900167896,-2.8725901614608134,10.37489,71.94882,358.3482,0.06473018,0.5860119,-0.06472353,13.9799996875226,4
19.5436,0.8833336,-6.760784,0.7650217184031476,0.3773920957350157,-2.686923395770508,13.83224,71.97881,357.7844,0.08613516,0.5851344,-0.08627705,13.9999996870756,4
19.66406,0.2833333,-6.741186,0.6760225338237049,-0.3423732243262531,-2.456481142526708,3.469088,72.42432,359.4884,0.02178537,0.5906094,-0.02148252,14.0199996866286,4
19.72445,0.4833333,-6.731396,0.5243015783877567,-0.1393893848107649,-2.270156952763732,6.937873,72.48464,358.9814,0.04355326,0.5905288,-0.04292656,14.0399996861815,4
19.78482,0.6833334,-6.721601,0.3690086890984325,0.080321174100756,-2.0677226638086728,10.40613,72.51508,358.4731,0.06527191,0.5899009,-0.06432814,14.0599996857345,4
19.92831,0.2833335,-6.696371,0.220120622986645,0.2644876935967989,-1.848496797555062,3.384845,69.75607,359.3868,0.02117019,0.5717034,-0.02127587,14.0799996852875,4
19.98737,0.4833335,-6.685771,0.1201375934903268,0.2273758220847703,-1.6476212816012223,6.771098,69.80678,358.7857,0.04237621,0.5716769,-0.04246421,14.0999996848404,4
20.04642,0.6833335,-6.675172,0.0177712797659701,0.2357392164991378,-1.439559449030753,10.1565,69.82177,358.1823,0.06353574,0.5711349,-0.06360807,14.1199996843934,4
20.10545,0.8833332,-6.664573,-0.0776371796990886,0.236262040607011,-1.224306372473591,13.54057,69.80016,357.572,0.08462776,0.5700783,-0.08468963,14.1399996839464,4
20.29233,0.2833333,-6.630604,-0.0556249292256403,-0.4646858426972613,-0.9769395543384958,3.129711,61.69557,358.9803,0.01888334,0.5127562,-0.02163871,14.1599996834993,4
20.34872,0.4833332,-6.619893,-0.1924740259035928,-0.2428843535094225,-0.8175950557262786,6.265578,61.8128,357.9868,0.03787309,0.5136142,-0.04311683,14.1799996830523,4
20.40509,0.6833332,-6.609193,-0.3326214375532927,-0.0043561582545399,-0.6636698853678649,9.4026,61.87591,356.9938,0.05683573,0.5140476,-0.06454562,14.1999996826053,4
20.58374,0.2833333,-6.576153,-0.3580974044277774,-0.4416859826080881,-0.4877817974766971,2.802242,54.63279,358.6616,0.01636537,0.4589891,-0.0215942,14.2199996821582,4
20.63697,0.4833333,-6.566268,-0.5056122361949846,-0.169704506505307,-0.388549144763946,5.618553,54.81826,357.3585,0.03290009,0.4606688,-0.04299346,14.2399996817112,4
20.69018,0.6833334,-6.556391,-0.663053575575514,0.1190032914760083,-0.304609906659417,8.437964,54.93994,356.0577,0.04941188,0.4620066,-0.06435141,14.2599996812642,4
20.74338,0.8833334,-6.546517,-0.8222035519667195,0.3721669726814395,-0.2367902696609336,11.25861,54.99719,354.7522,0.06588274,0.4630016,-0.08565578,14.2799996808171,4
20.88413,0.2833333,-6.515117,-0.9748891603175238,0.4236864855373813,-0.1860652109872624,2.476263,48.60083,358.4713,0.01420319,0.411651,-0.02104651,14.2999996803701,4
20.93401,0.4833334,-6.505844,-1.1044878009348906,0.3558040480921544,-0.1413613576026797,4.974442,48.85067,356.9825,0.02862164,0.4140147,-0.04188921,14.3199996799231,4
20.98387,0.6833333,-6.496574,-1.2358515830225016,0.3338849963495409,-0.1201241730336262,7.477571,49.03589,355.498,0.04301777,0.4161058,-0.06269865,14.339999679476,4
21.03371,0.8833334,-6.487307,-1.3608557559543613,0.3046132545033094,-0.1227552057079526,9.983897,49.1562,354.0122,0.05738193,0.4179231,-0.08346085,14.359999679029,4
21.21121,0.2833333,-6.448045,-1.4039597813091476,-0.4256415407965328,-0.1467522663609415,2.130263,42.28866,358.3087,0.0120129,0.3608728,-0.02046699,14.379999678582,4
21.25785,0.4833332,-6.439555,-1.515495402814647,-0.2326591901204094,-0.2043439488975664,4.2943,42.59688,356.6615,0.0243191,0.3638336,-0.04072407,14.3999996781349,4
21.30448,0.6833332,-6.431066,-1.620508078421917,-0.0224624943158141,-0.2621177594377384,6.464433,42.84322,355.0214,0.03660075,0.3665825,-0.0609411,14.4199996776879,4
21.46263,0.2833334,-6.397588,-1.6352463162425082,-0.4876359677109848,-0.2934933729632645,1.85377,38.20434,358.2498,0.01028656,0.3274062,-0.01972307,14.4399996772408,4
21.50646,0.4833333,-6.390315,-1.722147639906975,-0.2430098254688893,-0.3385053394334587,3.741988,38.58915,356.5376,0.02082432,0.3310291,-0.03928163,14.4599996767938,4
21.55028,0.6833334,-6.383044,-1.8040137419356623,0.0188304069085363,-0.385035370604136,5.640198,38.91774,354.834,0.03134796,0.3344792,-0.05881415,14.4799996763468,4
21.59409,0.8833333,-6.375772,-1.8740872081871809,0.2456142902441669,-0.4310973347221631,7.545545,39.1902,353.136,0.04184466,0.337755,-0.07830265,14.4999996758997,4
21.71762,0.2833333,-6.348403,-1.8434219086857269,-0.4686806300171267,-0.4577853248674275,1.595573,34.29402,358.2245,0.00873559,0.2949666,-0.01890812,14.5199996754527,4
21.75875,0.4833332,-6.342108,-1.870199960980692,-0.2597379965050833,-0.4962673342168866,3.229399,34.74992,356.4847,0.01772391,0.2991896,-0.03767165,14.5399996750057,4
21.79986,0.6833332,-6.335814,-1.883793404163537,-0.0335809153271827,-0.5337031947730102,4.875752,35.15629,354.755,0.0267016,0.3032723,-0.05641201,14.5599996745586,4
21.84097,0.8833331,-6.329523,-1.8778297531008263,0.1575199486178164,-0.5680967597461937,6.532633,35.51321,353.0331,0.03566233,0.3072131,-0.07511599,14.5799996741116,4
21.99932,0.2833334,-6.293389,-1.9031261532283708,0.1278296973358835,-0.5983251576365589,1.684968,34.55966,358.1619,0.009274159,0.2971936,-0.01968136,14.5999996736646,4
22.04234,0.4833333,-6.28653,-1.911224942816801,0.1441026926297918,-0.6284545812492484,3.409381,34.93293,356.3582,0.01882916,0.3007649,-0.03922088,14.6199996732175,4
22.08533,0.6833333,-6.279676,-1.8961330511980383,0.1530230833695418,-0.6561840315199339,5.144918,35.25196,354.5624,0.0283789,0.3041855,-0.05873694,14.6399996727705,4
22.22301,0.2833333,-6.249317,-1.8520791916281176,0.1012751523248451,-0.6796639962198867,1.665011,35.24029,358.2008,0.009094028,0.3028532,-0.01935973,14.6599996723235,4
22.26533,0.4833333,-6.243032,-1.8649168549953856,0.0421743093751816,-0.6970081263247669,3.362571,35.61424,356.4303,0.01839958,0.3064037,-0.03860993,14.6799996718764,4
22.30764,0.6833333,-6.23676,-1.8585076149569095,0.0290369638128627,-0.7148215805889349,5.071448,35.93586,354.6689,0.02770658,0.3098063,-0.0578282,14.6999996714294,4
22.45252,0.2833334,-6.204256,-1.8274808036518169,0.0085469331126297,-0.7309637982887729,1.613414,35.95746,358.31,0.008838667,0.3087972,-0.01837147,14.7199996709824,4
22.49284,0.4833335,-6.198158,-1.8645630792326744,0.0073619691705936,-0.7348439410570515,3.259013,36.3886,356.6488,0.01787683,0.3127706,-0.03664235,14.7399996705353,4
22.53315,0.6833335,-6.192066,-1.884369835026387,0.0521403830905892,-0.7368629579526678,4.915784,36.77219,354.9981,0.02690628,0.3166042,-0.05488423,14.7599996700883,4
22.57345,0.8833334,-6.185976,-1.8830526259947968,0.0895659784956601,-0.7375010976787859,6.582381,37.10825,353.3542,0.03592156,0.3202961,-0.07309713,14.7799996696413,4
22.61374,0.9766706,-6.179887,-1.855656230571622,0.0663229053012148,-0.7349049886981902,8.257401,37.39671,351.7144,0.04491899,0.3238451,-0.09127291,14.7999996691942,4
22.74026,0.2833333,-6.146719,-1.8908966925038653,0.0357273460325155,-0.7270679098899064,1.563073,38.57817,358.3941,0.008244336,0.3304518,-0.01773079,14.8199996687472,4
22.77904,0.4833333,-6.142402,-1.9023472088497435,0.0510950173971424,-0.7161027455948776,3.145698,39.04642,356.8139,0.01657292,0.3346529,-0.03536102,14.8399996683002,4
22.81788,0.6833334,-6.137766,-1.8846778914856583,0.0591100703559159,-0.7002302247432715,4.756492,39.48768,355.2504,0.02503749,0.338853,-0.05297291,14.8599996678531,4
22.92006,0.2833332,-6.129915,-1.8329331965105096,0.0064562161872524,-0.6780709581339082,1.512241,38.59631,358.4418,0.007960419,0.330594,-0.01719312,14.8799996674061,4
22.9577,0.4833332,-6.126159,-1.902712440573925,-0.0535502420128644,-0.6488468168082884,3.029039,39.12662,356.8929,0.01582043,0.3352834,-0.03438396,14.899999666959,4
22.99536,0.6833332,-6.12189,-1.9438679942322457,-0.0675934408308553,-0.6154170832312547,4.577936,39.62151,355.3686,0.0238619,0.3398858,-0.05150884,14.919999666512,4
23.10468,0.2833333,-6.094782,-1.9517104752014447,-0.0889892159769061,-0.5767330159904231,1.391278,40.30761,358.4584,0.006761854,0.3446381,-0.01681063,14.939999666065,4
23.1409,0.4833335,-6.092633,-2.0541507691710024,-0.091079948409212,-0.5041774358483417,2.824378,40.89997,356.9523,0.01379491,0.3497741,-0.03351735,14.9599996656179,4
23.17713,0.6833334,-6.090278,-2.1269263438420687,-0.0472073265012322,-0.4289343316400584,4.258066,41.45493,355.4474,0.02067053,0.3547799,-0.0502599,14.9799996651709,4
23.21334,0.8833333,-6.087954,-2.1656597849690336,-0.0106875327782259,-0.3502325734331517,5.70996,41.97272,353.9572,0.02758554,0.3596552,-0.06696514,14.9999996647239,4
23.32669,0.2833334,-6.069759,-2.167512427332248,-0.6751504775787964,-0.2212167493967261,1.454594,46.55307,358.5535,0.00667161,0.3952532,-0.01661005,15.0199996642768,4
23.36257,0.4833334,-6.069258,-2.223561645277691,-0.4163761871950046,-0.1160503861896034,2.953662,47.2232,357.1472,0.01364068,0.4008653,-0.03312078,15.0399996638298,4
23.39847,0.6833334,-6.068539,-2.241573805148974,-0.1403874342482489,-0.0113196613887911,4.444606,47.8558,355.7386,0.02035166,0.4063193,-0.0496747,15.0599996633828,4
23.43435,0.8833334,-6.067878,-2.217320507313115,0.1005452497397179,0.0938725783517879,5.958224,48.45269,354.3502,0.02714138,0.4116257,-0.06618291,15.0799996629357,4
23.51026,0.2833332,-6.050698,-2.146660783336497,0.1403220410077492,0.2003842425239996,1.540729,51.75737,358.6151,0.006821569,0.436542,-0.0167401,15.0999996624887,4
23.54646,0.4833332,-6.051651,-2.21129702389954,0.0611842131625297,0.3467401622503701,3.115567,52.51879,357.2644,0.01381561,0.4427281,-0.03342298,15.1199996620417,4
23.58273,0.6833333,-6.05235,-2.238211624282485,0.0284975157549755,0.4869494116976227,4.678466,53.24236,355.9123,0.02049833,0.4487327,-0.05013447,15.1399996615946,4
23.61897,0.8833333,-6.05313,-2.2239861605120943,-0.0110539941668462,0.6216029546822899,6.268639,53.93054,354.5864,0.02729608,0.4545682,-0.06679322,15.1599996611476,4
23.71327,0.2833332,-6.027622,-2.2754274423949603,-0.0308122317434448,0.8259281332297554,1.660399,56.50229,358.6559,0.007211131,0.4734047,-0.01718872,15.1799996607006,4
23.75049,0.4833333,-6.029991,-2.290836860153423,-0.0041192316406457,1.021069867427066,3.347133,57.40651,357.3437,0.01448215,0.4805332,-0.03434435,15.1999996602535,4
23.78775,0.6833333,-6.032214,-2.2674975128034163,0.0157087174199661,1.206873987042969,5.045651,58.26842,356.0534,0.02167766,0.4874206,-0.05146529,15.2199996598065,4
23.8708,0.2833332,-6.00115,-2.325929143801261,0.6956437877325701,1.3518029356906425,2.119256,58.24271,358.9638,0.01175483,0.486704,-0.01689734,15.2399996593595,4
23.90936,0.4833333,-6.000689,-2.3391566060488707,0.4914400462069287,1.62968746831356,3.934742,59.20282,357.7696,0.02023559,0.4941595,-0.03386761,15.2599996589124,4
