pX,pY,pZ,aX,aY,aZ,reX,reY,reZ,rtX,rtY,rtZ,t,ID
-44.00042,0.23,-37.99971,1.999456098859099,-0.10885996302746,6.014373162924436,0.01615613,0.01358832,0.02372754,0.0001410133,0.0001185512,0.0002070451,6.69999985024333,17
-44.00084,0.43,-37.99943,2.576963220720856,-0.2809233660664759,6.282660553352258,0.03237969,0.01359827,0.0474275,0.0002826151,0.0001185503,0.0004138495,6.7199998497963,17
-44.0996,0.2833333,-37.99898,3.0892016806913247,-0.2360290253113076,6.467037924039282,359.6609,3.879575,5.406551,-0.001357449,0.03395087,0.04723637,6.73999984934926,17
-44.20903,0.4833326,-37.99855,3.6138421725919656,-0.6387795156961485,6.6458152462888975,359.2728,3.82662,11.48196,-0.0029713,0.03385371,0.1001845,6.75999984890223,17
-44.32116,0.6833326,-37.99824,4.068732596105342,-0.7952659373765829,6.742744099107242,358.8763,3.647054,17.73766,-0.00477841,0.03295031,0.1543957,6.77999984845519,17
-44.43283,0.8833326,-37.99808,4.4555270787750345,-0.7308224144812154,6.761715867785647,358.5015,3.354224,23.96051,-0.00671187,0.03134027,0.2078423,6.79999984800816,17
-44.54286,0.2833333,-37.95984,4.860623761860538,-1.1100509483621197,6.787476639438317,1.141083,5.403055,0.6184033,0.01020079,0.04707637,0.004920967,6.81999984756112,17
-44.5518,0.4833333,-37.93877,5.204245753472819,-1.2390429849445357,6.738089624835602,2.281105,5.507291,1.238937,0.02040024,0.0478144,0.009840716,6.83999984711409,17
-44.56075,0.6833334,-37.91772,5.48667257035347,-1.1431322076292578,6.6176813831645305,3.422449,5.623908,1.862026,0.03061894,0.04854518,0.01475695,6.85999984666705,17
-44.53584,0.2833334,-37.84507,5.708336263406771,-0.846607008434921,6.430594046052555,1.894051,9.24716,0.1021448,0.01654601,0.08058341,-0.0004439451,6.87999984622002,17
-44.53222,0.4833333,-37.81192,5.937459215925969,-1.2264634628018722,6.228180227114251,3.788633,9.337775,0.206323,0.03309277,0.08129339,-0.0008971163,6.89999984577298,17
-44.52861,0.6833333,-37.77879,6.107024403394334,-1.348695780373316,5.961089745057755,5.685461,9.431888,0.312228,0.0496503,0.0819797,-0.001365317,6.91999984532595,17
-44.47519,0.2833335,-37.64834,6.216473916145688,-1.238637540444546,5.634705438069311,3.448532,15.25258,0.08147047,0.02991773,0.1326299,-0.003288865,6.93999984487891,17
-44.46066,0.4833333,-37.58953,6.355143648189419,-1.560891224559708,5.318551339274457,6.900321,15.34555,0.1674907,0.05983619,0.133186,-0.006589059,6.95999984443188,17
-44.44613,0.6833334,-37.53076,6.433711957951708,-1.6215483853630728,4.944497183504822,10.35398,15.44455,0.2598633,0.08971753,0.1336202,-0.009886652,6.97999984398484,17
-44.43161,0.8833332,-37.47201,6.451076877794669,-1.445942693449155,4.519087696052267,13.80947,15.55047,0.3595821,0.1195345,0.1339317,-0.01317747,6.99999984353781,17
-44.34564,0.2833332,-37.35416,6.537557136080991,-1.6986764959396785,4.1402867910749706,4.481871,22.73347,0.2156146,0.03870526,0.196865,-0.0058632,7.01999984309077,17
-44.31881,0.4833335,-37.28029,6.553653632734694,-1.6858411181891595,3.712923125724899,8.965833,22.84448,0.4384803,0.0773687,0.1971374,-0.0117397,7.03999984264374,17
-44.29198,0.6833335,-37.20646,6.498486811289219,-1.432769816199566,3.244531716911709,13.45102,22.97503,0.6735975,0.1159275,0.1971059,-0.01760232,7.0599998421967,17
-44.17077,0.2833335,-37.0838,6.371415817434418,-0.9637516730061456,2.742843500260712,3.718776,30.96072,0.2831752,0.03192877,0.2666894,-0.006280007,7.07999984174967,17
-44.14161,0.4833334,-37.02567,6.302821233011301,-1.1557823089470292,2.2941584006765794,7.435925,31.07364,0.574113,0.06381398,0.2669774,-0.01255222,7.09999984130263,17
-44.11245,0.6833334,-36.96754,6.149578803964346,-1.0748562778669633,1.816083690386101,11.15012,31.20661,0.8738563,0.09560817,0.2669817,-0.01882013,7.1199998408556,17
-43.94444,0.2833339,-36.8126,5.911941319362342,-0.7463073570794871,1.3176096592641289,3.657873,34.42736,0.2217779,0.03105837,0.2957258,-0.007597201,7.13999984040856,17
-43.91154,0.4833335,-36.75777,5.743451014677433,-0.8347379876190788,0.9048726602555206,7.3144,34.53363,0.4506582,0.06207663,0.2959756,-0.01518534,7.15999983996153,17
-43.87866,0.6833338,-36.70297,5.474343804304084,-0.646239576469422,0.476979781768776,10.96933,34.65575,0.6886377,0.09302153,0.2959221,-0.02275629,7.17999983951449,17
-43.7872,0.2833332,-36.60246,5.10624397801643,-0.206145556219807,0.0441009553470763,3.593878,37.94436,0.2531184,0.03037162,0.3248829,-0.008106682,7.19999983906746,17
-43.78136,0.4833331,-36.56867,4.812425074547882,-0.1790584895208484,-0.2739590756318932,5.241928,39.00056,1.254196,0.04675257,0.3329706,-0.004957662,7.21999983862042,17
-43.78184,0.6833332,-36.53784,4.405526477663436,-0.1111656099016563,-0.5902270545215984,6.576875,40.12095,2.418327,0.06109685,0.3412337,0.0001177764,7.23999983817339,17
-43.71067,0.2833333,-36.43694,4.006630327040682,0.3606628471415435,-0.8936834356227905,1.591374,43.28655,1.256904,0.01695211,0.3686274,0.005072509,7.25999983772635,17
-43.70901,0.4833334,-36.40254,3.645464510932129,0.8152426733245624,-1.1729461421568068,3.020481,44.37973,2.587631,0.03292219,0.3768985,0.0109485,7.27999983727932,17
-43.70702,0.6833332,-36.36802,3.4857671399662067,0.3475962016734868,-1.3278511404406714,4.437252,45.50973,3.940347,0.04896602,0.3850435,0.01671489,7.29999983683228,17
-43.62526,0.2833335,-36.25777,3.394661278172876,-0.1372992157678057,-1.4457451427440269,2.130508,47.18671,1.043593,0.02068072,0.4000018,0.0009035886,7.31999983638525,17
-43.60988,0.4833335,-36.21906,3.3913266700191187,0.2655327203157761,-1.560027372326683,4.232048,48.14937,2.130976,0.04128589,0.4069516,0.001906755,7.33999983593822,17
-43.59423,0.6833336,-36.18037,3.5295633928649224,0.0108007742136748,-1.5447164758346368,6.336468,49.1801,3.240634,0.06198385,0.4138997,0.002683342,7.35999983549118,17
-43.57821,0.8833337,-36.14169,3.647649602675429,-0.2355677340023884,-1.501516978328862,8.447373,50.28318,4.374557,0.08279532,0.4208495,0.003188191,7.37999983504415,17
-43.49833,0.283333,-36.05916,3.714514476346139,0.192353702583863,-1.4821485546168596,2.418441,50.7019,0.7408478,0.02183819,0.4279341,-0.003194242,7.39999983459711,17
-43.47373,0.483333,-36.02207,3.93313210336796,-0.0372882803341255,-1.3254048179349525,4.828673,51.73866,1.521166,0.04368766,0.4353913,-0.006445165,7.41999983415008,17
-43.44916,0.6833332,-35.98499,4.119442717599078,-0.2585670296567897,-1.1464510564595471,7.227035,52.81178,2.346338,0.06552573,0.4425943,-0.009721884,7.43999983370304,17
-43.34051,0.2833335,-35.888,4.223036361152253,0.1944444006918448,-1.0532781733729948,2.811162,52.89747,0.354951,0.02334123,0.4451928,-0.00815285,7.45999983325601,17
-43.30522,0.4833334,-35.85308,4.293393125047942,0.630206787242986,-0.9645329452382044,5.622302,53.91155,0.756869,0.04670529,0.4524585,-0.01635114,7.47999983280897,17
-43.26996,0.6833334,-35.81818,4.471601168787935,0.1437429540173814,-0.7865788230959474,8.427716,54.9507,1.211485,0.07005237,0.4594049,-0.02454486,7.49999983236194,17
-43.11176,0.2833336,-35.69781,4.617072387754348,-0.3599700819952897,-0.6151866842374503,3.160233,54.98751,0.2052019,0.02528681,0.4614319,-0.01114203,7.5199998319149,17
-43.06887,0.4833336,-35.66286,4.653312053431989,0.0240452836284689,-0.5163302243821839,6.316573,55.99061,0.4651254,0.05054973,0.4684849,-0.02228257,7.53999983146787,17
-43.02601,0.6833341,-35.62793,4.806243098128554,-0.2495034355689377,-0.339828073449123,9.468843,57.01474,0.7818072,0.07577346,0.4751375,-0.03341693,7.55999983102083,17
-42.98317,0.883334,-35.59301,4.911191036665279,-0.5146890369502769,-0.1962837907143857,12.61411,58.06674,1.159376,0.1009273,0.481385,-0.04452042,7.5799998305738,17
-42.81779,0.2833335,-35.48465,4.863195350727658,-0.105584758606134,-0.1418011384371915,3.228233,56.55381,0.06559847,0.02507767,0.473531,-0.01284013,7.59999983012676,17
-42.77166,0.4833334,-35.45228,4.768175235279351,0.2862708578639695,-0.1033754140110403,6.45396,57.54177,0.1869674,0.05012652,0.480464,-0.02566569,7.61999982967973,17
-42.72555,0.6833333,-35.41992,4.84172276749981,-0.2441012273997479,0.0566844357633335,9.676864,58.54345,0.3647839,0.07512669,0.486973,-0.03847409,7.63999982923269,17
-42.53605,0.2833333,-35.2967,4.692629992508721,-0.0714350449616079,0.0754756009956558,3.216629,56.02129,359.9365,0.02451868,0.4694642,-0.01367043,7.65999982878566,17
-42.48913,0.483333,-35.26587,4.472980701732887,0.1116857953048363,0.0641739947218553,6.432969,56.99531,359.9276,0.0490094,0.4764023,-0.02732524,7.67999982833862,17
-42.44223,0.683333,-35.23505,4.190833506134624,0.2529896259517549,0.0270138098932939,9.648018,57.9756,359.974,0.07345055,0.4829234,-0.04095244,7.69999982789159,17
-42.23474,0.283333,-35.10166,3.9075771034285154,0.1667430521117674,-4.469130122330967e-05,3.283138,56.28346,359.8659,0.02470861,0.4714899,-0.01454284,7.71999982744455,17
-42.18602,0.4833329,-35.0714,3.5871799518246377,0.1196996757481567,-0.0375705957123244,6.56711,57.24855,359.787,0.04938798,0.4783699,-0.02906836,7.73999982699752,17
-42.13732,0.6833332,-35.04115,3.249755051530613,0.0585426601697923,-0.0749970292756536,9.850953,58.21607,359.7635,0.07401551,0.4848154,-0.04356408,7.75999982655048,17
-42.08863,0.883333,-35.01091,2.967496014388836,0.0099315277632736,-0.0891565450413658,13.13445,59.19246,359.7959,0.09857285,0.4908203,-0.05802348,7.77999982610345,17
-41.90752,0.2833332,-34.89775,2.664788861861794,0.0005230572342764,-0.1143305188397825,3.534785,59.33409,359.8814,0.02628711,0.4947509,-0.01616418,7.79999982565641,17
-41.85361,0.4833334,-34.86762,2.355697367499048,-0.0229983475540552,-0.1437189795942508,7.070061,60.29662,359.8221,0.05253971,0.5013666,-0.03230753,7.81999982520938,17
-41.79973,0.6833334,-34.8375,2.1249101121034,-0.0339752681916849,-0.1498462287522883,10.60687,61.26355,359.8213,0.07874117,0.507461,-0.0484311,7.83999982476234,17
-41.60217,0.283333,-34.7154,1.869090562222304,-0.0057495013392261,-0.1749997212089091,3.564881,61.65164,359.927,0.02638388,0.5121989,-0.01648581,7.85999982431531,17
-41.54705,0.4833332,-34.68653,1.6018636017720669,0.0083627939998101,-0.2128199784845179,7.129638,62.61547,359.9131,0.05273069,0.5186692,-0.03295619,7.87999982386827,17
-41.49195,0.6833331,-34.65767,1.3368990847605673,-0.0449542097828351,-0.2570171029075432,10.69315,63.58692,359.9601,0.07901587,0.5245941,-0.04938743,7.89999982342124,17
-41.27552,0.283333,-34.52512,1.140533246698027,-0.112382735213329,-0.2612850016491457,3.592321,63.78502,0.06709887,0.02692135,0.5280521,-0.01606287,7.91999982297421,17
-41.22004,0.4833329,-34.49591,0.9398045517367776,-0.1406079726522813,-0.2753996170163617,7.182171,64.75932,0.1955594,0.05380865,0.5343845,-0.03210442,7.93999982252717,17
-41.16459,0.6833332,-34.46671,0.7485991494016417,-0.1829464765298861,-0.2927281217128303,10.76822,65.75053,0.3872377,0.08063116,0.5401476,-0.04810736,7.95999982208014,17
-41.10914,0.8833332,-34.43751,0.6277070218683747,-0.212740734523358,-0.2754065167283954,14.34943,66.76701,0.6454832,0.1073619,0.5453359,-0.06405473,7.9799998216331,17
-40.92916,0.2833337,-34.32506,0.5011175704129087,-0.203332076952928,-0.2662396395275905,3.560086,65.45087,0.1324075,0.02675642,0.5403225,-0.01582127,7.99999982118607,17
-40.87386,0.4833336,-34.29669,0.382122689441708,-0.2080362354232837,-0.2582774590095162,7.116252,66.42725,0.3254705,0.05347501,0.5465565,-0.0316229,8.01999982073903,17
-40.81857,0.6833339,-34.26833,0.3037979952677574,-0.2001959264695142,-0.2353871069325812,10.66754,67.42433,0.5819182,0.08013064,0.5522181,-0.04738674,8.039999820292,17
-40.61774,0.2833337,-34.14557,0.2129253210891803,-0.1531530417103839,-0.2260201293724009,3.63436,66.30552,0.1447875,0.0272391,0.5465641,-0.01628429,8.05999981984496,17
-40.56091,0.4833336,-34.11729,0.1222658323300862,-0.1202238889462293,-0.2231717156962958,7.264769,67.28072,0.3517633,0.05444158,0.5527007,-0.03254641,8.07999981939793,17
-40.50409,0.6833335,-34.08903,0.0446075701862582,-0.1547238720454196,-0.2198825829168917,10.89075,68.27816,0.6233103,0.08158153,0.5582355,-0.04877383,8.09999981895089,17
-40.44729,0.883334,-34.06077,-0.0236545997035406,-0.2033354557209816,-0.2029264971444746,14.51029,69.30665,0.963694,0.1086254,0.5631635,-0.06494354,8.11999981850386,17
-40.19583,0.2833331,-33.90722,-0.0907653975786786,-0.2127439524723675,-0.1902483809053663,3.6208,67.44318,0.176422,0.02713088,0.5548397,-0.01625873,8.13999981805682,17
-40.13889,0.4833331,-33.87967,-0.1441291030027329,-0.2362651056651399,-0.1746080057422574,7.237029,68.41746,0.4147784,0.05422472,0.560896,-0.03249506,8.15999981760979,17
-40.08197,0.6833332,-33.85213,-0.1942086761964105,-0.2472417226109013,-0.1536418805403201,10.84757,69.41589,0.7179086,0.08125261,0.5663463,-0.04869184,8.17999981716275,17
-40.02506,0.883333,-33.8246,-0.2451546511030642,-0.2190151048810807,-0.1380263251744757,14.45125,70.44719,1.089829,0.1081852,0.5711854,-0.06483351,8.19999981671572,17
-39.85239,0.283333,-33.71577,-0.2842960377012247,-0.2049019542216879,-0.1204542136013486,3.557485,69.53345,0.2659558,0.02682145,0.5699012,-0.0157944,8.21999981626868,17
-39.79608,0.4833331,-33.68926,-0.3173220666906928,-0.1782433859467734,-0.1018261411821583,7.108876,70.51177,0.5930753,0.05360658,0.575849,-0.03156779,8.23999981582165,17
-39.73979,0.6833326,-33.66275,-0.3525018599432812,-0.1123821006489067,-0.0918665898726587,10.65313,71.51925,0.9848783,0.08032916,0.5811935,-0.04730366,8.25999981537461,17
-39.54808,0.2833335,-33.54263,-0.378095191615678,-0.0606341608053332,-0.0834887801130754,3.495298,69.57573,0.2980139,0.02652968,0.5702072,-0.01526512,8.27999981492758,17
-39.49297,0.4833334,-33.51601,-0.3823464596119308,-0.0763147500511927,-0.0695914621147011,6.984056,70.5535,0.6562236,0.05302525,0.57616,-0.03051,8.29999981448054,17
-39.43787,0.6833333,-33.4894,-0.383247647373004,-0.1061084979712615,-0.0510097362458275,10.46467,71.56167,1.078357,0.07945832,0.5815281,-0.04571547,8.31999981403351,17
-39.22746,0.2833332,-33.35832,-0.3783055979843297,-0.0966993810298543,-0.0359307902989805,3.436877,69.17542,0.3157659,0.02625125,0.5673417,-0.01475556,8.33999981358647,17
-39.1736,0.483333,-33.3314,-0.3565127444134504,-0.1014034883621922,-0.0171552888065811,6.866546,70.15132,0.6908748,0.05246788,0.5733204,-0.02948813,8.35999981313944,17
-39.11975,0.6833327,-33.30449,-0.3321268623392015,-0.0935625617448099,0.0060367252994346,10.28826,71.1579,1.128537,0.07862625,0.5787345,-0.04418724,8.3799998126924,17
-39.06591,0.8833325,-33.27759,-0.3077936515511652,-0.0465187159045872,0.0246110897331774,13.7007,72.20317,1.63334,0.1047008,0.5835793,-0.05883893,8.39999981224537,17
-38.89145,0.2833331,-33.16381,-0.27272288594461,-0.0135881333667812,0.0457886667145537,3.391415,67.77679,0.2197137,0.0256331,0.5572847,-0.01490848,8.41999981179833,17
-38.83834,0.4833334,-33.13745,-0.2437667287358422,0.0318884974306769,0.0653802159612233,6.777279,68.73979,0.4966773,0.05123084,0.5633296,-0.02979704,8.4399998113513,17
-38.78525,0.6833334,-33.11109,-0.2262101153793025,0.1165680922294092,0.0741303139685101,10.15704,69.72694,0.8337212,0.07677343,0.5688353,-0.04465295,8.45999981090426,17
-38.59376,0.2833331,-32.98801,-0.2091685237064098,0.18713391295538,0.0791621031718214,3.340124,65.69893,0.1268698,0.02508408,0.5421758,-0.01487893,8.47999981045723,17
-38.54178,0.483333,-32.96158,-0.1818014520591759,0.1902704722815776,0.0875874007219579,6.676302,66.65051,0.3096538,0.05013583,0.5483255,-0.02973619,8.49999981001019,17
-38.48981,0.6833332,-32.93516,-0.0598816071981431,0.1792930472331837,0.1537535565891303,10.00796,67.62009,0.5500921,0.0751342,0.5539662,-0.04456157,8.51999980956316,17
-38.28107,0.283333,-32.80394,0.0518190498425212,0.2075184980230783,0.2093490749125415,3.290979,63.89035,0.002272758,0.02437696,0.5288889,-0.01517664,8.53999980911613,17
-38.22974,0.4833327,-32.77822,0.1644337793337413,0.2216304117000143,0.2618842312101641,6.580519,64.82799,0.05846806,0.04872514,0.5351246,-0.03033521,8.55999980866909,17
-38.17842,0.6833326,-32.75251,0.1143635364323572,0.8886018357413377,0.2055595039317381,9.86736,65.77575,0.1695141,0.07301956,0.5408775,-0.04546147,8.57999980822206,17
-38.12712,0.8833324,-32.7268,0.2024932876072043,0.664186821637,0.2448183163100949,13.151,66.74023,0.3375313,0.09724233,0.5461428,-0.06054295,8.59999980777502,17
-37.95338,0.2833332,-32.61255,0.2859071466194791,0.4544074622299551,0.2779017383581532,3.241517,62.01308,359.9178,0.02387275,0.5149472,-0.01518484,8.61999980732799,17
-37.90298,0.4833333,-32.58686,0.3754246546386497,0.2049019101397386,0.3124166764088016,6.482922,62.93963,359.8879,0.04771756,0.521261,-0.03035139,8.63999980688095,17
-37.85259,0.6833336,-32.56118,0.4040863631537021,0.1813799427461044,0.3127392205207258,9.723415,63.87103,359.911,0.07151403,0.527117,-0.04548706,8.65999980643392,17
-37.66252,0.2833333,-32.43783,0.4139666723165476,0.1970611987898859,0.2997012564235923,3.196335,59.12576,359.8118,0.02344883,0.4932257,-0.01518813,8.67999980598688,17
-37.61319,0.4833333,-32.41162,0.4156825923564398,0.1986291376925897,0.2809652104813018,6.394337,60.04056,359.6745,0.04687111,0.4996629,-0.03035872,8.69999980553985,17
-37.56387,0.6833329,-32.38543,0.5955206756302971,-0.5075460159392639,0.3818953125656321,9.593229,60.95386,359.5879,0.07024744,0.505671,-0.04549925,8.71999980509281,17
-37.35111,0.2833333,-32.25154,0.627308563499561,-0.2972440600625719,0.3804971887297768,3.532694,60.4663,359.8245,0.02586017,0.5033209,-0.01684319,8.73999980464578,17
-37.29613,0.483333,-32.22335,0.646296283405988,-0.0764881381582472,0.3725790025872548,7.066864,61.37883,359.705,0.05168775,0.5095485,-0.03366489,8.75999980419874,17
-37.24117,0.683333,-32.19518,0.6635515222213328,0.102451700534852,0.3661141031296679,10.60274,62.29165,359.6412,0.07746321,0.5152507,-0.05045595,8.77999980375171,17
-37.18624,0.8833332,-32.16701,0.6638917512011631,0.0538390948830103,0.3552261833753398,14.13959,63.21195,359.6346,0.1031635,0.5204217,-0.067197,8.79999980330467,17
-37.01028,0.2833333,-32.05298,0.6497565935096006,0.0444297134526424,0.3368403936457476,3.56195,62.45524,359.8849,0.02605568,0.5182152,-0.01697069,8.81999980285764,17
-36.95446,0.4833335,-32.02558,0.6324604007218468,0.0209073726730812,0.318921013992675,7.124459,63.36962,359.8261,0.05207603,0.5243109,-0.0339239,8.8399998024106,17
-36.89865,0.6833334,-31.99818,0.5931880415604169,0.0099297438566773,0.2923964302839188,10.68647,64.28834,359.8245,0.07803614,0.5298597,-0.0508365,8.85999980196357,17
-36.70488,0.2833331,-31.87336,0.5334742053727197,0.0381556177766365,0.2544649935583081,3.595302,63.59416,0.00273233,0.02667435,0.5266525,-0.01650887,8.87999980151653,17
-36.64893,0.4833333,-31.84496,0.4648652117026657,0.0522687195630687,0.2130535668684849,7.189267,64.51703,0.06384534,0.05331643,0.5326604,-0.03299369,8.8999998010695,17
-36.59301,0.683333,-31.81657,0.5688774987655734,-0.6413608318511165,0.2968346090387079,10.78083,65.45207,0.1844071,0.07989595,0.538104,-0.04943913,8.91999980062246,17
-36.38153,0.2833339,-31.68223,0.5206242671390591,-0.4185141256795315,0.2745005549526169,3.554947,64.4834,0.1055239,0.02672603,0.5332109,-0.01576923,8.93999980017543,17
-36.32658,0.4833339,-31.6534,0.4615871515670626,-0.1852131330618724,0.247421903462893,7.106478,65.41299,0.2693456,0.05341712,0.5391729,-0.03151373,8.95999979972839,17
-36.27164,0.6833336,-31.62458,0.4037737504446141,0.0062711097208735,0.2237059729687267,10.65389,66.36102,0.4932294,0.08004621,0.5445755,-0.04722136,8.97999979928136,17
-36.21672,0.8833334,-31.59577,0.3077403617625052,-0.0297961070642446,0.1937725133729806,14.19608,67.3354,0.7805454,0.1065859,0.5494134,-0.06287566,8.99999979883432,17
-35.95297,0.2833331,-31.42906,0.2041475893850837,-0.0266600332442954,0.1582622134620273,3.6245,65.60502,0.1398817,0.02724266,0.5414412,-0.01610684,9.01999979838729,17
-35.8966,0.483333,-31.40026,0.1051021540845553,-0.0376372104431871,0.1252561779563983,7.245219,66.5346,0.3388785,0.05444845,0.547291,-0.03219165,9.03999979794025,17
-35.84024,0.6833329,-31.37148,-0.0527995058537804,-0.0360692064636546,0.0849689425977757,10.86181,67.48541,0.599278,0.08159217,0.5525518,-0.04824223,9.05999979749322,17
-35.7839,0.8833331,-31.3427,-0.2173274854055762,0.0047024252659606,0.0365186074564078,14.4725,68.46582,0.9251695,0.1086414,0.5572187,-0.06423634,9.07999979704618,17
-35.59916,0.2833336,-31.22343,-0.3764665372527176,0.0313611729159649,-0.0118859473989907,3.623612,66.5134,0.1568647,0.02718888,0.5480801,-0.01619417,9.09999979659915,17
-35.54248,0.4833335,-31.19528,-0.5182060922910594,-0.0094091013475879,-0.0520358244760927,7.24323,67.44093,0.3727354,0.05434138,0.5538591,-0.03236639,9.11999979615211,17
-35.48581,0.6833336,-31.16713,-0.6454315717426056,-0.0642933569366169,-0.0799786126217938,10.85778,68.39079,0.6502296,0.0814281,0.5590429,-0.04849944,9.13999979570508,17
-35.28304,0.2833333,-31.03855,-0.7645143979065487,-0.0799745703799054,-0.1066543104771824,3.572187,67.99883,0.2324971,0.02697369,0.5588592,-0.01574747,9.15999979525805,17
-35.22699,0.4833336,-31.011,-0.8631512343538503,-0.1097695111138192,-0.1239067615302111,7.13908,68.93036,0.5234993,0.05391118,0.564567,-0.03147367,9.17999979481101,17
-35.17096,0.6833335,-30.98345,-1.0967426041383597,0.513294697501419,-0.2408029975283092,10.6997,69.88852,0.8761798,0.08078538,0.5696832,-0.04716238,9.19999979436398,17
-34.95033,0.2833334,-30.84561,-1.2515964992522337,0.2449724809515151,-0.2846529497007495,3.510099,68.7823,0.291384,0.02670862,0.5645084,-0.01520172,9.21999979391694,17
-34.89531,0.4833336,-30.81827,-1.368672937955612,-0.0087134943384579,-0.3133238665435378,7.013997,69.71597,0.6404988,0.05338253,0.5701845,-0.03038319,9.23999979346991,17
-34.84029,0.6833336,-30.79094,-1.6329158775116568,0.4181628281499032,-0.4485755840665923,10.5103,70.67924,1.050826,0.07999306,0.5752813,-0.04552716,9.25999979302287,17
-34.78529,0.8833334,-30.76361,-1.8608660793631595,0.1937482868326487,-0.5781090781608498,13.99813,71.68018,1.526893,0.1065156,0.579794,-0.06062086,9.27999979257584,17
-34.60255,0.2833331,-30.64396,-2.0472209667464227,-0.0160305554444685,-0.6889332365615672,3.449946,68.89448,0.3215186,0.02640972,0.5653189,-0.01471426,9.2999997921288,17
-34.54864,0.4833333,-30.61662,-2.182436452069698,-0.2655351848724394,-0.7740822947335602,6.892771,69.82663,0.6998417,0.05278318,0.5709897,-0.02940609,9.31999979168177,17
-34.49474,0.6833333,-30.58929,-2.41190876349065,-0.2890567956938371,-1.0756130376548292,10.32796,70.78944,1.138337,0.07909826,0.5760978,-0.04406482,9.33999979123473,17
-34.29436,0.283333,-30.46041,-2.58598304342037,-0.2733757234681401,-1.3332650360448852,3.403371,67.10787,0.2391427,0.02590026,0.5524251,-0.014675,9.3599997907877,17
-34.2415,0.4833333,-30.43305,-2.6961641608601283,-0.2718075920355957,-1.540811700574256,6.801043,68.0294,0.5335901,0.05176595,0.5581856,-0.02932814,9.37999979034066,17
-34.18866,0.6833332,-30.40569,-2.8995695868911757,0.3826197970332473,-1.808965112882678,10.19255,68.97592,0.8859994,0.07757581,0.5634117,-0.04394909,9.39999978989363,17
-33.97657,0.2833334,-30.26519,-3.053434497151496,0.1456601915364724,-2.2038655113584618,3.353452,64.72677,0.1422437,0.02537938,0.5350268,-0.01461455,9.41999978944659,17
-33.92494,0.4833334,-30.23755,-3.135815586016648,-0.0766629684096569,-2.527295957557349,6.702863,65.6366,0.3383458,0.05072684,0.5409024,-0.02920679,9.43999978899956,17
-33.87333,0.6833339,-30.20993,-3.3258260836845785,0.3815746673413123,-2.901368625811898,10.04769,66.56503,0.5900235,0.07602029,0.5462754,-0.04376729,9.45999978855252,17
-33.82173,0.8833337,-30.18231,-3.430017057606808,0.1885212787289707,-3.35252012850296,13.38712,67.51893,0.9002807,0.1012378,0.5511414,-0.05828371,9.47999978810549,17
-33.66264,0.2833331,-30.06247,-3.460206372810365,0.0101039692507512,-3.719494099513742,3.303185,61.92611,0.01352597,0.02477532,0.5142686,-0.01472718,9.49999978765845,17
-33.61212,0.4833333,-30.03474,-3.409658533936188,-0.2080383913219273,-3.9981074055038057,6.604717,62.82081,0.0787357,0.04952093,0.5202653,-0.02943631,9.51999978721142,17
-33.56161,0.6833333,-30.00702,-3.4224594336865195,-0.2001974113014719,-4.473023363178534,9.903533,63.72597,0.1969874,0.07421418,0.5257927,-0.04411128,9.53999978676438,17
-33.4055,0.2833333,-29.87816,-3.382283970177461,-0.1531533718859949,-4.858790084961587,3.253849,60.27187,359.9321,0.02425633,0.5018653,-0.01476658,9.55999978631735,17
-33.35583,0.4833336,-29.85065,-3.283267884788337,-0.1202222144593079,-5.152277105314084,6.507354,61.15676,359.9144,0.04848443,0.507933,-0.02951535,9.57999978587031,17
-33.30617,0.6833336,-29.82315,-3.1195195029973526,-0.1547202400265744,-5.350409077987081,9.759827,62.04696,359.9475,0.07266401,0.5135545,-0.04423402,9.59999978542328,17
-33.25653,0.8833333,-29.79566,-3.0056248856439325,-0.2033318780635038,-5.6685923803356,13.01017,62.94845,0.03291786,0.0967724,0.5187257,-0.05890769,9.61999978497624,17
-33.08311,0.2833332,-29.67258,-2.8382444153136035,-0.2127402000570325,-5.88543342734949,3.201191,56.03321,359.7827,0.0237681,0.4695901,-0.01479416,9.63999978452921,17
-33.0349,0.4833334,-29.64413,-2.6120740865144896,-0.2362621755526009,-5.9990110325570605,6.404306,56.90191,359.6137,0.04750889,0.4758254,-0.02957075,9.65999978408217,17
-32.9867,0.6833331,-29.6157,-2.4969423124696206,0.3930750859412636,-6.1278103258592935,9.608749,57.76702,359.4927,0.07120368,0.4816532,-0.04431792,9.67999978363514,17
-32.93851,0.8833328,-29.58727,-2.218796008955497,0.1310253173255402,-6.167826547151826,12.81344,58.63409,359.4207,0.09483292,0.4870697,-0.05901662,9.6999997831881,17
-32.84178,0.2833333,-29.5013,-1.8966581436496317,-0.1163886164337431,-6.113957620771448,3.533311,56.64286,359.8032,0.02632456,0.4742379,-0.01613667,9.71999978274107,17
-32.78857,0.4833333,-29.46982,-1.7229136560143594,0.3167600450047122,-6.096871128699988,7.068258,57.50896,359.6596,0.05261549,0.4803009,-0.03225266,9.73999978229403,17
-32.73539,0.6833335,-29.43836,-1.3577517305765348,0.0986179917828425,-5.997023567033942,10.60527,58.37352,359.569,0.07885582,0.485871,-0.04833686,9.759999781847,17
-32.67718,0.2833333,-29.4137,-0.9761773417499526,-0.1048886272363218,-5.814340668039769,3.562681,60.53478,359.9122,0.0264616,0.503813,-0.01632982,9.77999978139997,17
-32.62251,0.4833332,-29.38405,-0.5725339105023117,-0.3481208057681139,-5.547687002219252,7.125492,61.40829,359.8775,0.05288563,0.5096751,-0.03264687,9.79999978095293,17
-32.56786,0.6833332,-29.35442,-0.1021277422295199,-0.3653698843255181,-5.258203870795459,10.68737,62.28729,359.8977,0.07924774,0.5150087,-0.04892575,9.8199997805059,17
-32.52224,0.2833333,-29.46158,0.3609740180681449,-0.3434159439975707,-4.90038410137829,3.592973,65.8298,0.08470378,0.02671867,0.543106,-0.01641485,9.83999978005886,17
-32.46584,0.4833333,-29.43415,0.8227607298501773,-0.3355751929221052,-4.473490139148982,7.183531,66.717,0.2240124,0.05339848,0.5486925,-0.03281846,9.85999977961183,17
-32.40946,0.6833333,-29.40673,1.113725731235256,0.3251249023845303,-4.099025433092454,10.77046,67.62102,0.42116,0.08001526,0.5537016,-0.04918296,9.87999977916479,17
-32.35309,0.8833331,-29.37931,1.5348980201798703,0.0944375315581114,-3.590686556177303,14.35282,68.54957,0.6793012,0.1065415,0.558129,-0.06549149,9.89999977871776,17
-32.30805,0.2833333,-29.51553,1.9354466779593764,-0.1216139586751401,-3.0344782528268723,3.549641,70.06392,0.1888919,0.0263062,0.5737153,-0.01642954,9.91999977827072,17
-32.25113,0.4833336,-29.4909,2.130948039607027,0.3428967267311049,-2.566436089662677,7.094727,70.95712,0.4321945,0.0525702,0.579092,-0.03284564,9.93999977782369,17
-32.19423,0.683333,-29.46628,2.4510525719860112,0.1561166375401299,-1.9644354171149596,10.63465,71.87338,0.7339253,0.0787742,0.5838729,-0.04922371,9.95999977737665,17
-32.11913,0.283333,-29.57612,2.7292194613832166,-0.0160286386835697,-1.3416464002019453,3.615881,74.45476,0.2161547,0.02626139,0.6046301,-0.01758543,9.97999977692962,17
-32.05948,0.483333,-29.55516,2.9725995274879797,-0.2278994461938034,-0.6989014822057875,7.226935,75.34858,0.4890624,0.05248701,0.6097385,-0.03514754,9.99999977648258,17
-31.99986,0.6833333,-29.53421,3.222973105075763,-0.2137862359459894,-0.0269987385248313,10.83299,76.26776,0.8203551,0.07864719,0.6141966,-0.05268164,10.0199997760355,17
-31.84669,0.2833333,-29.62876,3.4175625199417965,-0.1604703295834429,0.638496943057028,3.630868,77.16142,0.2047262,0.02587876,0.6232582,-0.01836022,10.0399997755885,17
-31.78584,0.4833333,-29.61077,3.564206628964186,-0.1212674699490217,1.2963940815931032,7.257118,78.05166,0.4662431,0.05172245,0.6282032,-0.03669575,10.0599997751415,17
-31.725,0.6833333,-29.59279,3.543973702702271,0.5707946086414937,1.8240345107690423,10.87777,78.96687,0.7875091,0.07750342,0.6324748,-0.05498726,10.0799997746944,17
-31.66418,0.8833333,-29.5748,3.603452138488717,0.371469281035849,2.4381236093983283,14.49212,79.91492,1.171446,0.1031896,0.636068,-0.07322603,10.0999997742474,17
-31.57184,0.2833333,-29.65968,3.6071588955020495,0.1867795460997803,3.016461231820365,3.579494,81.69228,0.3860265,0.02582798,0.6536276,-0.0178794,10.1199997738004,17
-31.51184,0.4833336,-29.64297,3.563435124426082,-0.0376352712930705,3.5574122246993447,7.112243,82.7869,0.8554632,0.05145664,0.6595871,-0.03542263,10.1399997733533,17
-31.45205,0.6833332,-29.62646,3.332021197461909,0.6042470694516522,3.944564290169936,10.62638,83.95497,1.39874,0.07696302,0.6650749,-0.05289464,10.1599997729063,17
-31.39226,0.883333,-29.60997,3.2287168888008324,0.3547420301354862,4.427475707276681,14.12668,85.17259,2.025596,0.1023915,0.6698591,-0.07028327,10.1799997724593,17
-31.22698,0.2833333,-29.59855,3.06944310091118,0.1198729836199262,4.839384766981905,3.61273,84.76243,0.7133879,0.02747819,0.6735673,-0.01665087,10.1999997720122,17
-31.1652,0.4833333,-29.5844,2.86258619849858,-0.1547212767257261,5.178158691646129,7.209044,85.53896,1.218034,0.05335266,0.6771783,-0.03490166,10.2199997715652,17
-31.10344,0.6833333,-29.57027,2.7074709245224504,-0.2033329568404417,5.49656893527894,10.79667,86.35506,1.779474,0.07917613,0.6800789,-0.05309359,10.2399997711182,17
-30.89313,0.2833338,-29.55569,2.4916991586316506,-0.2127415118734864,5.7126728543502985,3.517151,83.52991,0.4532742,0.02552304,0.6656669,-0.01749147,10.2599997706711,17
-30.83327,0.4833336,-29.542,2.223445264911689,-0.2362631638143775,5.824067789682932,7.014147,84.23603,0.8838121,0.05053659,0.6690341,-0.03531398,10.2799997702241,17
-30.77341,0.6833335,-29.52824,1.9048297025762613,0.3930743540665105,5.836489161715093,10.50243,84.97321,1.351524,0.07541982,0.6717404,-0.05315097,10.2999997697771,17
-30.53328,0.2833333,-29.46884,1.6578842364362636,0.131024390917241,5.845291207932675,3.421107,80.23012,0.2272959,0.02410554,0.6439909,-0.01771704,10.31999976933,17
-30.47459,0.4833336,-29.45403,1.3667691837388103,-0.1163897737907353,5.73536165991602,6.876893,80.7959,0.5190237,0.04860522,0.6467124,-0.03542658,10.339999768883,17
-30.41619,0.6833335,-29.43897,1.05082908055671,0.3167583807105485,5.6690141601033375,10.31702,81.4395,0.8643295,0.07304333,0.6491851,-0.05295942,10.359999768436,17
-30.3578,0.8833334,-29.42387,0.8350320679926142,0.0986156902236108,5.613389448680373,13.75165,82.11107,1.250848,0.09738834,0.6510423,-0.07045298,10.3799997679889,17
-30.17024,0.2833333,-29.33549,0.5826165763968909,-0.1048913250062864,5.443948917750983,3.367566,75.31834,0.0992419,0.02379046,0.6106789,-0.0172668,10.3999997675419,17
-30.11395,0.4833333,-29.31862,0.3026754156072684,-0.3481233534344959,5.160269855414857,6.732242,75.91996,0.2350497,0.0475536,0.6139534,-0.03450238,10.4199997670949,17
-30.05766,0.6833332,-29.30175,0.1684326328628671,-0.3653726020454069,5.080986536862451,10.09434,76.53432,0.4077979,0.07126762,0.616678,-0.05170243,10.4399997666478,17
-29.85865,0.2833334,-29.18876,0.0087666764947229,-0.3434192996794674,4.898857418161185,3.304959,69.83797,359.9491,0.02339139,0.57219,-0.01687081,10.4599997662008,17
-29.80433,0.4833331,-29.16941,-0.166680158262384,-0.3355781503024446,4.615312891497116,6.609332,70.42439,359.9321,0.04675635,0.5756752,-0.03372203,10.4799997657537,17
-29.75002,0.683333,-29.15007,-0.3701426027467889,0.3251223406922188,4.393219543272515,9.912285,71.01435,359.9506,0.07007809,0.5786636,-0.05052745,10.4999997653067,17
-29.54236,0.2833333,-29.01756,-0.3772563887546525,0.0944353645084198,4.255612915715798,3.249911,64.9902,359.8542,0.02323395,0.5370414,-0.01630709,10.5199997648597,17
-29.49003,0.4833333,-28.99559,-0.4014242329606396,-0.1216163842026801,4.026397958324914,6.500174,65.56669,359.7409,0.04644205,0.5406993,-0.03259535,10.5399997644126,17
-29.43771,0.6833333,-28.97363,-0.5449134486760308,0.3428942951053348,3.84784798681234,9.750453,66.14079,359.6601,0.0696052,0.5439038,-0.04885108,10.5599997639656,17
-29.3854,0.8833334,-28.95169,-0.6998601414315431,0.7964282056216487,3.604527892446555,13.00011,66.71647,359.6131,0.09270846,0.5466534,-0.06504948,10.5799997635186,17
-29.21542,0.2833334,-28.8264,-0.7363465589303289,0.334008290369624,3.403346700085674,3.199234,59.63342,359.7562,0.02316186,0.4970836,-0.01572561,10.5999997630715,17
-29.16525,0.4833333,-28.80156,-0.7807136497434719,-0.1393886486672479,3.1340269750984646,6.39982,60.19941,359.5437,0.04629842,0.5009127,-0.03143374,10.6199997626245,17
-29.1151,0.6833335,-28.77673,-0.8609027384413857,0.281214896408265,2.9255836703454747,9.601355,60.75727,359.3617,0.06939094,0.5043324,-0.04711099,10.6399997621775,17
-29.06496,0.8833334,-28.75191,-0.7930125170408502,0.0505272342606732,2.791301344933526,12.80342,61.31052,359.2106,0.09242405,0.5073408,-0.06273763,10.6599997617304,17
-28.85151,0.2833333,-28.58573,-0.72454225811002,-0.1655242093646738,2.608512275749817,3.458468,57.62614,359.7552,0.02541106,0.4817895,-0.01641462,10.6799997612834,17
-28.79837,0.4833332,-28.55671,-0.6449149470984992,-0.421300775520893,2.384354981482332,6.918266,58.18851,359.5441,0.05079179,0.4855678,-0.03280875,10.6999997608364,17
-28.74524,0.6833332,-28.5277,-0.511960223845012,-0.4510943505125742,2.259718104961141,10.37973,58.74265,359.3662,0.07612647,0.4888855,-0.0491652,10.7199997603893,17
-28.55232,0.2833333,-28.38253,-0.3841408725922228,-0.4416850548930209,2.096561530284685,3.539427,57.99078,359.8282,0.02628527,0.484548,-0.01628039,10.7399997599423,17
-28.49851,0.4833335,-28.35205,-0.2508780318971375,-0.4463889500940607,1.9032711691474269,7.079988,58.55787,359.6917,0.05254358,0.4882718,-0.03253972,10.7599997594953,17
-28.44472,0.6833337,-28.32158,-0.2800161167393362,0.2017654302647662,1.6877640403161784,10.62072,59.12129,359.5894,0.07874312,0.4915124,-0.04876224,10.7799997590482,17
-28.39094,0.8833336,-28.29112,-0.3010806848017395,0.698455473858405,1.4596080928864232,14.1613,59.68534,359.5217,0.1048586,0.494267,-0.06493191,10.7999997586012,17
-28.2338,0.2833331,-28.16431,-0.1495063221104011,0.1676300653205278,1.3563822423140053,3.58857,58.5382,359.968,0.02717703,0.48868,-0.01555217,10.8199997581542,17
-28.18027,0.4833331,-28.13182,-0.2060913131459223,0.3466040474823348,1.1873240355769497,7.176621,59.1161,359.973,0.05432546,0.4923508,-0.03107926,10.8399997577071,17
-28.12675,0.683333,-28.09934,-0.2673555285564255,0.5427921205635299,1.0092471386353168,10.76342,59.69947,0.01478494,0.08141159,0.4955226,-0.04657065,10.8599997572601,17
-27.95315,0.2833331,-27.96225,-0.190669498556609,0.0636101037219528,0.940234233037568,3.553621,58.51003,0.07132608,0.02735551,0.4884458,-0.01460987,10.879999756813,17
-27.9011,0.483333,-27.92853,-0.1157608587582927,-0.4260607731338749,0.8672078294427088,7.105021,59.09583,0.1800261,0.05467775,0.4921183,-0.02919315,10.899999756366,17
-27.84908,0.6833333,-27.89481,-0.1871734615352238,-0.0212431211093452,0.7122471281811009,10.65407,59.69357,0.3265834,0.0819379,0.4953014,-0.04374356,10.919999755919,17
-27.65601,0.2833333,-27.74623,-0.1034891982798704,-0.2672287095101646,0.681605359136654,3.624182,58.87902,0.1035431,0.02798242,0.4912336,-0.01475568,10.9399997554719,17
-27.60297,0.4833333,-27.71173,-0.0245999386574347,-0.4980909770586972,0.6491503510086432,7.246098,59.46636,0.2444824,0.05592833,0.4948522,-0.02949182,10.9599997550249,17
-27.54995,0.6833335,-27.67723,-0.1110413337931177,-0.0479030438883254,0.5098886027679157,10.86591,60.06812,0.4245986,0.08381359,0.4979591,-0.04419549,10.9799997545779,17
-27.49694,0.8833337,-27.64275,-0.198121135234782,0.3917964523978558,0.373408353193426,14.48259,60.68965,0.6464532,0.1116053,0.5005519,-0.0588493,10.9999997541308,17
-27.25771,0.2833333,-27.45843,-0.1582546864782195,-0.0839696508504167,0.3476062094041587,3.629355,59.21521,0.133107,0.02810563,0.4937772,-0.0146358,11.0199997536838,17
-27.20467,0.4833331,-27.42376,-0.2976898771003178,0.1500628592508702,0.1963501046399649,7.256156,59.80309,0.3036972,0.05617438,0.4973648,-0.02925261,11.0399997532368,17
-27.15164,0.683333,-27.38909,-0.440330210446973,0.4013100301947236,0.0470123114674905,10.87991,60.40732,0.5138016,0.0841771,0.500437,-0.04383475,11.0599997527897,17
-27.09863,0.883333,-27.35444,-0.44110892832024,-0.022813316705726,0.0193161793135736,14.50031,61.03337,0.7663502,0.1120867,0.502991,-0.05836724,11.0799997523427,17
-26.93263,0.2833333,-27.2241,-0.4417970874737094,-0.4574255108141433,-0.0003169337284809,3.573983,60.94578,0.2227418,0.0278616,0.5068307,-0.01413976,11.0999997518957,17
-26.88018,0.4833331,-27.19016,-0.5726145116857175,0.0024506905807886,-0.1258865084378229,7.144483,61.53947,0.4829229,0.05568737,0.5103649,-0.02826129,11.1199997514486,17
-26.82774,0.683333,-27.15624,-0.69502506371499,0.4518379257651445,-0.2409932536033139,10.71097,62.15491,0.7831657,0.08344907,0.5133848,-0.04235009,11.1399997510016,17
-26.64451,0.2833331,-27.01422,-0.6077841470290508,-0.0142415137900746,-0.1862620548829241,3.5118,61.40611,0.2754341,0.02757288,0.5102842,-0.01357941,11.1599997505546,17
-26.59319,0.4833331,-26.98042,-0.5080498643465532,-0.4908098000305565,-0.1179076710394362,7.019526,62.00248,0.5879025,0.05511071,0.5138146,-0.02714134,11.1799997501075,17
-26.54188,0.6833333,-26.94663,-0.5810382149843427,-0.0728893311463355,-0.1958934342852671,10.52232,62.62338,0.9404826,0.08258497,0.5168437,-0.04066971,11.1999997496605,17
-26.34227,0.2833336,-26.79329,-0.4846560075295869,-0.3057717825303756,-0.1384292352529037,3.451818,61.21783,0.3044895,0.02727391,0.5088737,-0.01304952,11.2199997492135,17
-26.29222,0.4833336,-26.75939,-0.3889947415717962,-0.523530737520213,-0.0793411646111117,6.898927,61.81461,0.6457531,0.0545127,0.512421,-0.02607865,11.2399997487664,17
-26.24218,0.6833335,-26.72549,-0.4515957151978753,-0.0602395532090364,-0.1488575313900426,10.34125,62.4371,1.026487,0.08169284,0.5154837,-0.03907933,11.2599997483194,17
-26.19216,0.8833333,-26.6916,-0.5145897546134606,0.3925624423061549,-0.2161349503402512,13.77823,63.09057,1.450446,0.108789,0.5180596,-0.05203965,11.2799997478724,17
-26.14215,0.9766703,-26.65772,-0.4446475919719042,-0.0701022604399704,-0.1690560026509331,17.20911,63.78096,1.922337,0.1357756,0.5201466,-0.06494704,11.2999997474253,17
-25.94719,0.2833333,-26.50303,-0.3710842130644671,-0.543255834438515,-0.1140853786973856,3.400836,59.60027,0.2145327,0.02667959,0.4967081,-0.01312314,11.3199997469783,17
-25.89808,0.4833333,-26.46953,-0.4079656477864368,-0.1219201987328487,-0.1579939522865636,6.797945,60.18561,0.4642171,0.05332444,0.5003082,-0.02622826,11.3399997465312,17
-25.84898,0.6833333,-26.43604,-0.2937234225944856,-0.351387894751753,-0.0776251400302392,10.19131,60.79062,0.7512271,0.07991327,0.5034504,-0.03930581,11.3599997460842,17
-25.67575,0.2833334,-26.30037,-0.1779115826190995,-0.5657318132480357,0.0070759857031603,3.343112,57.66034,0.120061,0.02605948,0.4819828,-0.01314873,11.3799997456372,17
-25.62775,0.4833334,-26.26716,-0.1944513509212733,-0.0990252179248508,-0.0207194343517116,6.683428,58.23524,0.2739778,0.0520855,0.4856535,-0.02627929,11.3999997451901,17
-25.57977,0.6833334,-26.23396,-0.2038145650022187,0.3571926714079561,-0.0426370577146251,10.02107,58.82362,0.4631699,0.07805874,0.4888953,-0.03938284,11.4199997447431,17
-25.39008,0.2833333,-26.08794,-0.002817016490848,-0.1020561045901121,0.102609563430235,3.291772,55.86848,359.9931,0.02534745,0.4682662,-0.0135083,11.4399997442961,17
-25.34263,0.4833329,-26.05559,0.0339032158691097,0.1484942666178805,0.1140706122909094,6.582551,56.43044,0.01853059,0.05066652,0.4719968,-0.02700127,11.459999743849,17
-25.2952,0.6833329,-26.02325,0.0654635264954812,0.4162590604018722,0.1215847558292146,9.871537,56.99796,0.07664812,0.07593113,0.4753231,-0.04046721,11.479999743402,17
-25.24778,0.883333,-25.99091,0.1015651979331977,0.6489675995795187,0.1332320359314458,13.15881,57.57502,0.1688571,0.1011242,0.4782426,-0.05389449,11.499999742955,17
-25.09043,0.2833335,-25.86659,0.2660774004920334,-0.0594031547018832,0.2514451324907973,3.241474,53.91743,359.9065,0.02484018,0.4531874,-0.01354924,11.5199997425079,17
-25.04393,0.4833333,-25.83437,0.2174369660888402,0.1554636223137149,0.1980639948397637,6.482802,54.46967,359.8442,0.04965316,0.4569744,-0.0270833,11.5399997420609,17
-24.99744,0.6833335,-25.80216,0.1635795392284791,0.3875448650285111,0.1406717113661137,9.723564,55.02224,359.813,0.07441768,0.4603808,-0.04059044,11.5599997416139,17
-24.82469,0.2833333,-25.66665,0.2459018411535325,-0.0557440050042681,0.194658019967953,3.195995,51.14471,359.8031,0.02441358,0.4315253,-0.01358647,11.5799997411668,17
-24.77928,0.4833335,-25.63412,0.3250249243490444,-0.5095216490662529,0.2468060257594899,6.392746,51.68661,359.6363,0.04880013,0.4353904,-0.02715782,11.5999997407198,17
-24.73388,0.6833335,-25.6016,0.2752659089866967,-0.0688110629740454,0.1907437663128135,9.590018,52.22279,359.4988,0.07314087,0.4389015,-0.040703,11.6199997402728,17
-24.68849,0.8833334,-25.56909,0.3778773977040295,-0.2789035753055405,0.2580155226205427,12.78725,52.75658,359.391,0.09741563,0.4420564,-0.05420725,11.6399997398257,17
-24.46454,0.2833333,-25.39592,0.4725214265781901,-0.4738725036896692,0.3214807113085136,3.51846,52.90376,359.8308,0.02682807,0.4452761,-0.0149964,11.6599997393787,17
-24.41389,0.4833333,-25.36097,0.412492128937469,0.0122088070639567,0.2600687532015477,7.037442,53.44487,359.6945,0.05362303,0.4489656,-0.02997454,11.6799997389317,17
-24.36328,0.6833335,-25.32604,0.3483477019358787,0.4878012679089681,0.1974387432875701,10.55824,53.98202,359.5903,0.08036991,0.4522159,-0.04492956,11.6999997384846,17
-24.16145,0.2833336,-25.1722,0.4901612720664623,0.0479277962561506,0.3005190552381442,3.560321,54.6084,359.8919,0.02717117,0.4585192,-0.01508736,11.7199997380376,17
-24.10988,0.4833335,-25.13751,0.4440657946881359,0.3178529235784911,0.2561115418698669,7.120855,55.15345,359.8173,0.05430929,0.4621297,-0.03015926,11.7399997375906,17
-24.05831,0.6833334,-25.10283,0.3799652923682437,0.6049924823628198,0.2000082587568883,10.68092,55.69857,359.7764,0.08138603,0.4652793,-0.04519705,11.7599997371435,17
-24.00677,0.8833334,-25.06816,0.3081540744121831,0.8570757255585066,0.1405391097039476,14.24019,56.24804,359.7698,0.1083747,0.4679653,-0.06018552,11.7799997366965,17
-23.83916,0.2833333,-24.93639,0.3641524418287787,0.168080677757085,0.1877842603040811,3.591281,56.17472,0.03723586,0.02779736,0.470577,-0.01446639,11.7999997362494,17
-23.78764,0.4833333,-24.90071,0.4173030663746502,-0.4300144512379185,0.2354131202660276,7.181283,56.73134,0.1098655,0.05556261,0.4741113,-0.02891214,11.8199997358024,17
-23.73613,0.6833335,-24.86504,0.3045806682717362,-0.0345006628778657,0.147313250419657,10.76935,57.29757,0.2186381,0.08326399,0.4771655,-0.04332446,11.8399997353554,17
-23.55204,0.2833333,-24.72223,0.335012649482028,-0.290277854712513,0.1754829101558677,3.561167,56.90542,0.09777859,0.0277252,0.4761797,-0.0140539,11.8599997349083,17
-23.50109,0.4833333,-24.68663,0.3578891498645333,-0.5314193854031684,0.1997676225893343,7.119991,57.46594,0.2306961,0.05541388,0.47969,-0.0280882,11.8799997344613,17
-23.45016,0.6833335,-24.65104,0.2353426508585343,-0.0919984006957804,0.1064717033508415,10.67628,58.03979,0.4002629,0.08303984,0.4827222,-0.04209031,11.8999997340143,17
-23.39923,0.8833336,-24.61546,0.1116803760791569,0.3364457702672388,0.013410897025416,14.22968,58.63183,0.6088036,0.110576,0.4852739,-0.05604658,11.9199997335672,17
-23.16713,0.2833336,-24.43632,0.1903974391017122,-0.1510642486024338,0.0809940812424443,3.633813,57.78382,0.1311746,0.02831215,0.4828837,-0.01431714,11.9399997331202,17
-23.11486,0.4833336,-24.40033,0.0953971864607083,0.0707370463132127,0.0113743843069293,7.265179,58.34565,0.2982486,0.05658735,0.4863206,-0.02861556,11.9599997326732,17
-23.06261,0.6833336,-24.36434,-0.0105032956479576,0.3092653150953294,-0.0653124733098202,10.89414,58.9234,0.5029838,0.08479907,0.4892532,-0.04288371,11.9799997322261,17
-23.01038,0.8833337,-24.32837,-0.1162830763556463,0.512249706587778,-0.1402252686165574,14.51997,59.52229,0.748391,0.1129172,0.4916788,-0.05710377,11.9999997317791,17
-22.85118,0.2833336,-24.20404,-0.0929303390343427,-0.226332577966111,-0.1063829392321231,3.614143,58.76099,0.1532645,0.02813406,0.4903259,-0.01430597,12.0199997313321,17
-22.79881,0.4833335,-24.16881,-0.1947547378795526,-0.0421659260513525,-0.1751297964655265,7.225613,59.32263,0.3422859,0.05623165,0.4937229,-0.02859308,12.039999730885,17
-22.74646,0.6833333,-24.13358,-0.2921864159209058,0.1587275284567229,-0.2393487089942994,10.83398,59.90149,0.5691022,0.08426376,0.4966133,-0.04284698,12.059999730438,17
-22.5703,0.2833333,-23.99761,-0.2355592512670163,-0.3162373941741644,-0.1788137896565338,3.557395,60.4074,0.2420029,0.0278872,0.5027756,-0.01379072,12.079999729991,17
-22.51858,0.4833334,-23.96305,-0.3178779900833497,-0.0818906823399359,-0.23147402065754,7.111205,60.97537,0.5196879,0.05573846,0.506129,-0.02756371,12.0999997295439,17
-22.46688,0.6833335,-23.92849,-0.3920867447027945,0.169182471420847,-0.2788669575129603,10.66099,61.56584,0.8357971,0.08352652,0.5089778,-0.04130503,12.1199997290969,17
-22.27405,0.2833333,-23.78095,-0.2921907021058025,-0.2556027791380181,-0.1907581668268285,3.495607,60.88567,0.2902194,0.02757784,0.5063745,-0.01327128,12.1399997286499,17
-22.2234,0.4833331,-23.7466,-0.1771979502881109,-0.6913647377676299,-0.0939224949674866,6.987217,61.45595,0.6157498,0.05512153,0.5097242,-0.02652577,12.1599997282028,17
-22.17277,0.683333,-23.71227,-0.2498877054355119,-0.2331261228151108,-0.1481214837067419,10.4739,62.05118,0.979637,0.08260176,0.5125819,-0.03974797,12.1799997277558,17
-22.12214,0.883333,-23.67795,-0.3153175609772134,0.2141357029601982,-0.1978187239961357,13.95556,62.67654,1.385496,0.1099952,0.5149453,-0.05292808,12.1999997273088,17
-21.88384,0.2833335,-23.49489,-0.1622944504267458,-0.2545567699070392,-0.0760212096348773,3.433226,60.43453,0.2929862,0.02717184,0.5029867,-0.01286786,12.2199997268617,17
-21.83443,0.4833333,-23.46065,-0.1869014107726663,-0.0139383984655713,-0.0952783493558193,6.862009,61.0023,0.6207231,0.05430856,0.5063592,-0.02571614,12.2399997264147,17
-21.78503,0.6833333,-23.42642,-0.2188013841146698,0.2434065681422653,-0.1202251379407002,10.28633,61.59457,0.9858126,0.08138736,0.5092595,-0.03853669,12.2599997259676,17
-21.73565,0.883333,-23.3922,-0.2480000940777103,0.4652078215028281,-0.1426140848111181,13.70568,62.21627,1.391811,0.1083835,0.5116853,-0.05131792,12.2799997255206,17
-21.56896,0.2833333,-23.26266,-0.1418992676803689,-0.2545571201196938,-0.05144503664037,3.381165,59.00407,0.1934771,0.02650773,0.4921961,-0.0130595,12.2999997250736,17
-21.52029,0.4833333,-23.22915,-0.1677423741538284,-0.0515727247940714,-0.0692671408086127,6.75892,59.5603,0.4199786,0.05298042,0.4956188,-0.0261025,12.3199997246265,17
-21.47164,0.6833333,-23.19566,-0.1915654854012167,0.1681381281392656,-0.0855304414845292,10.13333,60.13442,0.6816744,0.07939839,0.4985943,-0.03911818,12.3399997241795,17
-21.28898,0.2833333,-23.05506,-0.060889392032152,-0.2880093008468458,0.0216938008974771,3.32884,57.15623,0.08851966,0.02587614,0.4781348,-0.01321603,12.3599997237325,17
-21.24118,0.4833332,-23.02204,-0.0836125219227597,-0.0348452263926801,0.0041482166259321,6.655334,57.7013,0.2089049,0.05171954,0.4816211,-0.02641475,12.3799997232854,17
-21.1934,0.6833333,-22.98903,-0.1075917478657011,0.2350453056692059,-0.0157514587739697,9.979539,58.25756,0.3623438,0.07751057,0.4846868,-0.0395867,12.3999997228384,17
-21.14562,0.8833333,-22.95603,-0.1227293849234705,0.4693916299173405,-0.0299657453594228,13.30114,58.82909,0.5506934,0.1032273,0.4873297,-0.05272041,12.4199997223914,17
-20.91717,0.2833333,-22.78068,0.0730640993787972,-0.2378288410577049,0.1220916058829111,3.274904,54.91029,359.9468,0.02514267,0.4608775,-0.01358655,12.4399997219443,17
-20.87004,0.4833332,-22.74838,0.0581971017814701,-0.0223002167487625,0.1054656434515628,6.549201,55.44077,359.9239,0.05025698,0.464431,-0.02715757,12.4599997214973,17
-20.82291,0.6833331,-22.71609,0.0343720303886172,0.2099550610953244,0.0808764463792641,9.822256,55.97376,359.9314,0.07531888,0.4675917,-0.04070091,12.4799997210503,17
-20.7758,0.8833331,-22.68381,0.0114158087126483,0.4066664322040019,0.0562546150632528,13.09414,56.51286,359.9702,0.1003105,0.4703572,-0.05420621,12.4999997206032,17
-20.61814,0.2833332,-22.55957,0.1123029269852189,-0.3381892377562986,0.1331607389060458,3.219382,52.10899,359.8333,0.02459713,0.4390888,-0.01364492,12.5199997201562,17
-20.57218,0.4833333,-22.52715,0.0914735676652114,-0.1602955924607341,0.1076202788904545,6.439178,52.62771,359.6955,0.049167,0.4427205,-0.02727433,12.5399997197092,17
-20.52624,0.6833333,-22.49474,0.0727526714692388,0.0343246061847644,0.0828874946301603,9.659138,53.14219,359.5862,0.07368988,0.4459888,-0.04087741,12.5599997192621,17
-20.35065,0.2833333,-22.35797,0.1975012327224803,-0.4469129032457196,0.1746069080848542,3.373631,51.54848,359.8093,0.02578429,0.4346813,-0.01429782,12.5799997188151,17
-20.30261,0.4833334,-22.32373,0.1786536240127283,-0.2188391218899242,0.1491878986813475,6.747894,52.06305,359.6487,0.05153858,0.4382649,-0.02857834,12.5999997183681,17
-20.25459,0.6833335,-22.2895,0.1590240479442108,0.025960997286922,0.1231758363818578,10.12252,52.57199,359.5174,0.07723992,0.4414546,-0.04282943,12.619999717921,17
-20.06153,0.2833333,-22.14129,0.1486582673794494,0.2352169078659614,0.1048817030535822,3.538321,53.21024,359.844,0.02699443,0.4476627,-0.01504254,12.639999717474,17
-20.01058,0.4833333,-22.10626,0.1694587036641976,0.2231948302685933,0.1132566640684054,7.07702,53.72589,359.7195,0.05395523,0.4511298,-0.03006764,12.6599997170269,17
-19.95966,0.6833332,-22.07123,0.1780551698268624,0.2566484352809912,0.1131216753849884,10.61691,54.23812,359.6258,0.08086378,0.4541524,-0.04506683,12.6799997165799,17
-19.90875,0.8833332,-22.03622,0.1849470760813005,0.2822614490786733,0.1129590007359695,14.15647,54.75085,359.5635,0.107686,0.4567281,-0.06001733,12.6999997161329,17
-19.66937,0.2833333,-21.8523,0.3601326190938039,-0.3935964629395513,0.2470661501269546,3.575379,55.16542,359.9479,0.02743985,0.4628158,-0.01484761,12.7199997156858,17
-19.6178,0.483333,-21.81717,0.3092472083257469,-0.146705899602459,0.2038550224247259,7.150399,55.68866,359.9283,0.05484683,0.4661963,-0.02967825,12.7399997152388,17
-19.56625,0.6833329,-21.78206,0.2443972335026778,0.1169115905576134,0.1505342398301223,10.72441,56.21527,359.9416,0.0821913,0.4691097,-0.0444751,12.7599997147918,17
-19.51471,0.883333,-21.74695,0.1761299236759299,0.3449853410737901,0.0955055084536695,14.29709,56.74956,359.989,0.1094462,0.4715534,-0.05922332,12.7799997143447,17
-19.34833,0.2833335,-21.61556,0.240121642279167,-0.3685072077599767,0.1487580518512459,3.570732,56.43437,0.08433623,0.02780081,0.4725652,-0.01408258,12.7999997138977,17
-19.2974,0.4833334,-21.57965,0.1651055865099309,-0.1592507358823996,0.0899454034245934,7.139515,56.96838,0.202629,0.05556821,0.4758934,-0.02814333,12.8199997134507,17
-19.24648,0.6833333,-21.54374,0.0877614877673558,0.0667323976322574,0.0300904977467943,10.70603,57.51461,0.3558401,0.08327279,0.4787461,-0.04217212,12.8399997130036,17
-19.06214,0.2833334,-21.40109,0.1620901771530576,-0.3831429725738858,0.0913736873651522,3.595438,57.15221,0.107866,0.02799945,0.4780641,-0.0141793,12.8599997125566,17
-19.01061,0.4833334,-21.36524,0.0768966977292588,-0.1237069277640856,0.0257557275541984,7.188699,57.68693,0.2494996,0.05596276,0.4813487,-0.02834032,12.8799997121096,17
-18.9591,0.6833333,-21.32941,-0.012983768245224,0.1524556991444466,-0.0432431521137672,10.77973,58.23546,0.4264194,0.08386336,0.4841456,-0.04247106,12.8999997116625,17
-18.9076,0.8833333,-21.29358,-0.0966246382361468,0.3930741493402008,-0.1068885086599173,14.36783,58.8026,0.641202,0.1116717,0.4864525,-0.05655479,12.9199997112155,17
-18.67619,0.2833334,-21.11481,0.0292730735335826,-0.3078740312092382,-0.0046381571405653,3.636091,57.77895,0.132319,0.02833498,0.482846,-0.0143168,12.9399997107685,17
-18.6239,0.4833332,-21.07879,-0.0576195557969008,-0.0860728447549752,-0.0690243789732782,7.26979,58.31411,0.2988904,0.05663301,0.4860791,-0.02861468,12.9599997103214,17
-18.57163,0.6833333,-21.04277,-0.1527042863509731,0.1524549350361903,-0.1385522104252849,10.90067,58.86495,0.5016141,0.08486451,0.488809,-0.04287872,12.9799997098744,17
-18.51937,0.8833334,-21.00677,-0.2448756222293493,0.3554388956451104,-0.2043517232637235,14.52881,59.43642,0.7430897,0.1130036,0.4910331,-0.05709697,12.9999997094274,17
-18.3611,0.2833333,-20.88308,-0.2044197272444208,-0.3831435359632448,-0.1599885440298898,3.588326,59.60859,0.2071066,0.02806548,0.4967455,-0.01399422,13.0199997089803,17
-18.30908,0.4833332,-20.84806,-0.286935621846105,-0.1989767200932106,-0.2160429716064271,7.173543,60.14848,0.4484077,0.05609472,0.4999245,-0.02797032,13.0399997085333,17
-18.25707,0.6833331,-20.81305,-0.3618183703011599,0.0019166512175796,-0.2657115502135703,10.75522,60.70855,0.7263519,0.08405942,0.5025983,-0.04191404,13.0599997080863,17
-18.08183,0.2833333,-20.67734,-0.2751759252244365,-0.4730483739506917,-0.18846443075617,3.526823,60.53558,0.2685415,0.02775811,0.5037398,-0.01348754,13.0799997076392,17
-18.03073,0.4833333,-20.64277,-0.3251935403982848,-0.2387021031056336,-0.222895997287015,7.049948,61.07917,0.571012,0.05548107,0.506902,-0.02695786,13.0999997071922,17
-17.97964,0.6833332,-20.6082,-0.3652988829707748,0.0123702973494724,-0.251400380172285,10.56898,61.64632,0.9102378,0.08314224,0.5095679,-0.04039786,13.1199997067451,17
-17.92855,0.8833331,-20.57364,-0.3849995818279996,0.2278986267654213,-0.2657474775018222,14.08301,62.24205,1.289787,0.1107118,0.5117356,-0.05379272,13.1399997062981,17
-17.70757,0.2833335,-20.40203,-0.3634622615298166,0.2221488782738627,-0.2496916124852504,3.459699,60.44449,0.3047457,0.02742187,0.5030549,-0.01289784,13.1599997058511,17
-17.65785,0.4833336,-20.3674,-0.3452489558883087,0.2618743881294745,-0.2376180138150339,6.914928,60.98873,0.6431814,0.05480795,0.5062303,-0.02577516,13.179999705404,17
-17.60814,0.6833335,-20.33278,-0.3201879126031031,0.2937595463437049,-0.2212264673562174,10.36575,61.55817,1.017967,0.08213512,0.5089275,-0.03862431,13.199999704957,17
-17.40896,0.2833333,-20.18027,-0.1173814895985181,-0.37582590371441,-0.0649297048195407,3.405835,59.40648,0.2395596,0.02684778,0.4952339,-0.01290999,13.21999970451,17
-17.36009,0.483333,-20.14621,-0.1330461792769952,-0.1226623346292987,-0.0805791402105633,6.80795,59.94277,0.511374,0.05366053,0.4984515,-0.02580284,13.2399997040629,17
-17.31124,0.6833331,-20.11216,-0.1568812604793859,0.1472279601243102,-0.1013908495096735,10.2063,60.4997,0.8178282,0.0804166,0.5012137,-0.03866825,13.2599997036159,17
-17.2624,0.8833333,-20.07812,-0.1789668203927945,0.3815743684409057,-0.1193386294925531,13.60049,61.08178,1.161957,0.1070921,0.5035182,-0.05149474,13.2799997031689,17
-17.09633,0.2833334,-19.9489,-0.0654699121955211,-0.3256456827145433,-0.0261388532105328,3.353813,57.90574,0.1497552,0.02623831,0.4838489,-0.01302305,13.2999997027218,17
-17.0483,0.4833334,-19.91538,-0.0835943230629361,-0.1101169276421209,-0.0419092513552783,6.704751,58.43163,0.3305478,0.05244299,0.4871161,-0.02602905,13.3199997022748,17
-17.00028,0.6833335,-19.88188,-0.100090593559603,0.122138285822079,-0.056811723229373,10.0529,58.97228,0.544047,0.07859421,0.4899526,-0.03900822,13.3399997018278,17
-16.81804,0.2833332,-19.74194,-0.1049139278280328,0.3188496636388085,-0.0629260964097611,3.30373,56.0452,0.02407074,0.02554559,0.4696192,-0.0133579,13.3599997013807,17
-16.77061,0.4833333,-19.70919,-0.0725149972834273,0.2942828398410766,-0.0412124849856034,6.606111,56.55834,0.077789,0.05106169,0.4729465,-0.02670039,13.3799997009337,17
-16.72319,0.6833332,-19.67645,-0.0472219947413723,0.3151914447053711,-0.0257465366323295,9.906575,57.07841,0.1618085,0.07652398,0.4758681,-0.0400156,13.3999997004867,17
-16.67579,0.8833331,-19.64371,-0.01906418299553,0.3282595229961949,-0.0085026492370907,13.20519,57.60909,0.2775258,0.1019141,0.4783821,-0.05329277,13.4199997000396,17
-16.44813,0.2833332,-19.46872,0.1734882661408328,-0.3601434877001098,0.1374005596517236,3.249545,53.49532,359.892,0.02489581,0.4499047,-0.01360239,13.4399996995926,17
-16.40158,0.4833332,-19.4363,0.1547766305431537,-0.1257972673832426,0.1145753453859583,6.498931,53.995,359.8122,0.04976365,0.453304,-0.02718942,13.4599996991456,17
-16.35505,0.6833331,-19.4039,0.1256085859668072,0.1252756370470364,0.0832541028105531,9.747937,54.49366,359.7605,0.07458338,0.4563261,-0.04074979,13.4799996986985,17
-16.30853,0.8833331,-19.3715,0.0956735582546723,0.3408044667792227,0.051348841431615,12.99596,54.99454,359.7374,0.09933222,0.4589691,-0.05427039,13.4999996982515,17
-16.1509,0.2833334,-19.24768,0.1887778798090629,-0.3852332583543789,0.1203425027567632,3.198196,51.04246,359.8031,0.02444295,0.4307204,-0.0135731,13.5199996978045,17
-16.1055,0.4833334,-19.21507,0.1589972679997284,-0.1885216596074759,0.0872014698560121,6.39704,51.5327,359.6334,0.04885928,0.4341836,-0.02713125,13.5399996973574,17
-16.06011,0.6833335,-19.18246,0.1294804482093638,0.0249166104465554,0.0546868210355668,9.596255,52.01669,359.4901,0.07322933,0.4372956,-0.04066351,13.5599996969104,17
-15.88123,0.2833333,-19.04518,0.2422675833827074,-0.4375032667350911,0.1380889191752423,3.531938,52.21132,359.8096,0.02694257,0.4398642,-0.01505144,13.5799996964633,17
-15.83059,0.4833333,-19.00978,0.2099153130115176,-0.1906121711967285,0.104510181439231,7.064451,52.69944,359.6491,0.05385186,0.4431728,-0.0300843,13.5999996960163,17
-15.77997,0.683333,-18.97441,0.1749501251947016,0.0730052903887802,0.0700919700327027,10.59853,53.18164,359.5172,0.08071025,0.4460467,-0.04509165,13.6199996955693,17
-15.72937,0.883333,-18.93905,0.1474053946754701,0.3010790379429571,0.0430300015587654,14.13398,53.66152,359.4142,0.1074935,0.4484831,-0.06005675,13.6399996951222,17
-15.50594,0.2833333,-18.76797,0.3199212718535626,-0.4124135020919318,0.1768851982092769,3.56426,54.36375,359.8901,0.02722655,0.4566219,-0.01505928,13.6599996946752,17
-15.45442,0.4833332,-18.73307,0.2927154287035058,-0.2031571568833112,0.1526030644558709,7.12855,54.85726,359.8104,0.05441871,0.4598431,-0.03010328,13.6799996942282,17
-15.40292,0.6833333,-18.69818,0.2589353012678739,0.0228255934011314,0.124548356360723,10.69235,55.35007,359.761,0.08154925,0.4626068,-0.04511325,13.6999996937811,17
-15.20082,0.2833334,-18.54405,0.3893175906131869,-0.4270497517151514,0.2259476911308624,3.592739,55.8111,0.03327869,0.02783821,0.4677774,-0.01441456,13.7199996933341,17
-15.14944,0.4833332,-18.50811,0.3343976168181068,-0.1676137137005208,0.1827964044914143,7.184284,56.31671,0.09880347,0.05564444,0.4709351,-0.02880819,13.7399996928871,17
-15.09809,0.683333,-18.47218,0.2651778940958937,0.1085492480008545,0.1298577718539437,10.7741,56.83102,0.1971626,0.08338719,0.4736178,-0.04316884,13.75999969244,17
-15.04675,0.8833329,-18.43626,0.1922747618705145,0.3491678292214434,0.0754756271237688,14.36182,57.35841,0.3301053,0.1110386,0.4758231,-0.05748171,13.779999691993,17
-14.8793,0.2833332,-18.30639,0.2525217314856522,-0.3517804235484679,0.1289632137404126,3.561171,56.85508,0.1012781,0.02774593,0.4757928,-0.01401489,13.799999691546,17
-14.8284,0.4833332,-18.27072,0.1736490764729144,-0.1299794196926421,0.0706724605740447,7.120049,57.36494,0.2344521,0.05545476,0.4789165,-0.02801089,13.8199996910989,17
-14.77751,0.683333,-18.23505,0.0924263203167647,0.1085480527477152,0.0112358847826126,10.67662,57.88768,0.4010813,0.08310159,0.4815652,-0.04197522,13.8399996906519,17
-14.72664,0.883333,-18.1994,0.0196528364674701,0.3115314463083354,-0.0408434810711018,14.23045,58.42779,0.6033801,0.1106586,0.4837368,-0.05589389,13.8599996902049,17
-14.51117,0.2833335,-18.03328,-0.0189451281175969,0.2932368741688855,-0.0661490372559026,3.633971,57.57496,0.1281102,0.02832653,0.4812887,-0.0142896,13.8799996897578,17
-14.45899,0.4833336,-17.99716,-0.0671652812006247,0.3204175530587285,-0.0983042215357521,7.265637,58.08572,0.2888744,0.05661598,0.4843471,-0.02856045,13.8999996893108,17
-14.40683,0.6833336,-17.96105,-0.113885060549304,0.339757646744969,-0.1284942075447031,10.89514,58.61151,0.4839952,0.08484235,0.4869053,-0.04280087,13.9199996888638,17
-14.21267,0.2833333,-17.81356,0.0038825689989092,-0.3423727417820015,-0.0281123973460033,3.614719,58.41621,0.1487844,0.02816229,0.4877042,-0.01425782,13.9399996884167,17
-14.16045,0.4833333,-17.77809,-0.0904449791466834,-0.1017538783875847,-0.093100026650335,7.226927,58.92733,0.3300836,0.05628767,0.4907336,-0.0284971,13.9599996879697,17
-14.10825,0.6833332,-17.74264,-0.1924104387703575,0.155591557696867,-0.1626432343543662,10.8363,59.45472,0.5458955,0.08434781,0.4932617,-0.04270327,13.9799996875226,17
-14.05606,0.8833332,-17.70719,-0.2908018475835554,0.3773930349495992,-0.2280406298873476,14.44242,60.00306,0.7986754,0.1123129,0.4952863,-0.05686365,13.9999996870756,17
-13.89694,0.2833335,-17.58408,-0.2511798768795046,-0.3423720058127226,-0.1824190459853003,3.556973,60.38193,0.2453724,0.02790186,0.5025828,-0.01375726,14.0199996866286,17
-13.84525,0.4833334,-17.54947,-0.33138011662707,-0.1393880449424518,-0.235058830491269,7.110596,60.89978,0.523335,0.05576816,0.5055599,-0.02749686,14.0399996861815,17
-13.79358,0.6833334,-17.51487,-0.4005619257803747,0.0803223445253834,-0.2801855691403769,10.66048,61.43971,0.8365364,0.08357138,0.5080354,-0.04120526,14.0599996857345,17
-13.61799,0.2833333,-17.37988,-0.4476390701360007,0.2644886166946305,-0.3093535265991338,3.495867,60.6888,0.2869542,0.02758817,0.504894,-0.01324961,14.0799996852875,17
-13.56742,0.4833332,-17.34543,-0.450839909252517,0.2273763393889338,-0.3063627453809907,6.988028,61.20851,0.6061233,0.0551421,0.5078744,-0.02648246,14.0999996848404,17
-13.51685,0.683333,-17.31099,-0.4518502117770548,0.2357394352513713,-0.3036334214308382,10.47567,61.75237,0.9605292,0.08263322,0.510367,-0.03968292,14.1199996843934,17
-13.4663,0.8833331,-17.27657,-0.4404924582257425,0.2362623076223805,-0.293020871621394,13.9587,62.32513,1.353577,0.1100376,0.5123696,-0.05284141,14.1399996839464,17
-13.24465,0.2833334,-17.10597,-0.2629917220822708,-0.4646851795582766,-0.1527994013206459,3.433607,60.10971,0.2887884,0.02719276,0.5005372,-0.01282416,14.1599996834993,17
-13.19538,0.4833334,-17.07153,-0.2768619203793516,-0.2428837707799584,-0.1644880535595341,6.86307,60.62706,0.6093353,0.05435041,0.5035446,-0.02562849,14.1799996830523,17
-13.14612,0.6833334,-17.03711,-0.2888677677110109,-0.0043556917399222,-0.1747921026102279,10.28846,61.16807,0.964111,0.08145034,0.5060847,-0.0384054,14.1999996826053,17
-12.94662,0.2833334,-16.88555,-0.1289056987034893,-0.4416860010770154,-0.0495799800254133,3.381736,58.56464,0.1892717,0.02654402,0.4888572,-0.01299219,14.2199996821582,17
-12.89815,0.4833333,-16.85176,-0.148154780048717,-0.1697050329568168,-0.0644847779387358,6.76029,59.07114,0.4086995,0.05305333,0.4919201,-0.02596748,14.2399996817112,17
-12.84969,0.6833333,-16.81797,-0.1758945145492187,0.1190028199085718,-0.0856689148736649,10.13577,59.59473,0.6602927,0.07950784,0.4945415,-0.03891568,14.2599996812642,17
-12.80124,0.883333,-16.7842,-0.2022156787188542,0.3721671337618362,-0.1053892326089549,13.50787,60.13953,0.9466141,0.1058846,0.4967192,-0.05182544,14.2799996808171,17
-12.63452,0.2833331,-16.65584,-0.2172187016987479,0.4236871008488162,-0.1159110755987118,3.328638,57.05777,0.09226977,0.02590156,0.4773796,-0.01316421,14.2999996803701,17
-12.5868,0.4833331,-16.62271,-0.1929401571895468,0.355804808977061,-0.0976242340115725,6.654955,57.55346,0.2134129,0.05176959,0.4804906,-0.026312,14.3199996799231,17
-12.53909,0.683333,-16.58958,-0.1709861535271262,0.3338857558405649,-0.0824543895861946,9.979146,58.06002,0.3647256,0.07758576,0.4831843,-0.03943327,14.339999679476,17
-12.4914,0.883333,-16.55647,-0.1413811620386038,0.3046143335416011,-0.0625161820826001,13.30092,58.58119,0.5479665,0.1033279,0.4854587,-0.05251663,14.359999679029,17
-12.27875,0.2833333,-16.3934,0.0399429815520449,-0.4256402455324161,0.0763426822178292,3.274861,54.69815,359.945,0.02516022,0.459235,-0.01355377,14.379999678582,17
-12.2317,0.4833333,-16.36097,0.0358730749246305,-0.2326580332861222,0.0664470752086625,6.549104,55.17899,359.9174,0.05029207,0.4624138,-0.02709219,14.3999996781349,17
-12.18467,0.6833332,-16.32855,0.0302281957827847,-0.0224617366542607,0.0542133282991237,9.822149,55.66171,359.9174,0.07537168,0.4652034,-0.04060305,14.4199996776879,17
-11.99537,0.2833333,-16.18388,0.1838474005038417,-0.4876356303917316,0.1651318960164545,3.2195,51.82381,359.8307,0.02462208,0.4368532,-0.01360437,14.4399996772408,17
-11.94953,0.4833333,-16.15129,0.1661210254835268,-0.2430101302932866,0.1403805382890137,6.439335,52.29351,359.6876,0.04921706,0.4401121,-0.02719353,14.4599996767938,17
-11.90371,0.6833333,-16.11871,0.138109422293617,0.0188298368111217,0.107363099092721,9.659275,52.75833,359.5701,0.07376514,0.4430117,-0.04075645,14.4799996763468,17
-11.8579,0.8833332,-16.08613,0.1094215218794012,0.2456137383543246,0.0739721258673764,12.8788,53.22121,359.4785,0.09824558,0.4455504,-0.0542782,14.4999996758997,17
-11.69662,0.2833334,-15.96154,0.2904182148962242,-0.4686809858924209,0.2041548027116508,3.373184,51.58669,359.8128,0.02578956,0.4349806,-0.01427668,14.5199996754527,17
-11.64859,0.4833334,-15.92731,0.3364974117418278,-0.2597387106078501,0.2251969467100441,6.746872,52.05241,359.6529,0.05154937,0.43818,-0.02853663,14.5399996750057,17
-11.60057,0.6833333,-15.89309,0.3725039804070018,-0.0335819026306652,0.2399083436055029,10.12082,52.51218,359.5194,0.0772566,0.4409876,-0.04276727,14.5599996745586,17
-11.55257,0.8833333,-15.85888,0.4086599504872836,0.1575186792276232,0.2566534567450773,13.49603,52.96909,359.4121,0.1028981,0.4434008,-0.05696084,14.5799996741116,17
-11.34442,0.2833332,-15.69968,0.430094107894778,0.1278284965943379,0.263533419179927,3.533485,53.54597,359.858,0.02696766,0.4502762,-0.0149934,14.5999996736646,17
-11.29347,0.4833332,-15.66482,0.4401969893956554,0.1441016988796065,0.263187100681538,7.067549,54.01337,359.7442,0.05390362,0.4533526,-0.02997423,14.6199996732175,17
-11.24254,0.6833332,-15.62997,0.4494135105468757,0.1530224631795206,0.2639959263888443,10.60216,54.47768,359.6585,0.08078548,0.4559858,-0.04492469,14.6399996727705,17
-11.05708,0.2833335,-15.48868,0.4682104429627518,0.1012743940534667,0.274355312523534,3.577186,54.97695,359.9507,0.02748945,0.4613572,-0.01478814,14.6599996723235,17
-11.00561,0.4833334,-15.45335,0.4759501983714287,0.0421735278434103,0.2769329125039768,7.154001,55.45162,359.931,0.0549469,0.4643677,-0.02955835,14.6799996718764,17
-10.95416,0.6833334,-15.41802,0.4700907791319846,0.0290359003686185,0.2700176064686452,10.72984,55.92924,359.9412,0.08234211,0.4669144,-0.04429499,14.6999996714294,17
-10.75252,0.2833333,-15.26448,0.4613397550648592,0.008545448106434,0.2620038087869556,3.571728,56.17757,0.08292197,0.02783416,0.4705905,-0.01403522,14.7199996709824,17
-10.7017,0.4833334,-15.22837,0.431436571440134,0.0073602681999291,0.2389917447450926,7.141574,56.66329,0.1967606,0.05563448,0.4735582,-0.02804879,14.7399996705353,17
-10.6509,0.6833335,-15.19228,0.3809461970610241,0.0521385645111976,0.2015286085471874,10.7093,57.1605,0.3424259,0.08337193,0.4760546,-0.04203056,14.7599996700883,17
-10.60012,0.8833337,-15.15619,0.3207667531499041,0.089564047273244,0.1581143749291538,14.27458,57.6735,0.5219937,0.1110192,0.4780775,-0.05596633,14.7799996696413,17
-10.54935,0.9766705,-15.12011,0.2617949095503373,0.0663211331554914,0.1172606836703202,17.83713,58.20698,0.7382234,0.1385494,0.4796254,-0.06984276,14.7999996691942,17
-10.35104,0.2833335,-14.96722,0.1912216401844846,0.0357256722425356,0.067720821281231,3.607437,57.4061,0.1255264,0.02813374,0.4800017,-0.01415645,14.8199996687472,17
-10.29932,0.4833335,-14.93125,0.1134999390221151,0.0510934884836901,0.0131046613194296,7.21266,57.89357,0.2819859,0.05623105,0.4829018,-0.0282946,14.8399996683002,17
-10.24763,0.6833336,-14.8953,0.0396368355803939,0.0591087466914729,-0.0379325169772144,10.81575,58.39542,0.4708624,0.0842654,0.4853113,-0.04240375,14.8599996678531,17
-10.07034,0.2833333,-14.75982,-0.0193485243110442,0.0064551719959907,-0.0766909172894436,3.632634,57.67945,0.125266,0.02829131,0.4820882,-0.01433153,14.8799996674061,17
-10.01809,0.4833334,-14.72387,-0.0832736267177827,-0.0535510786900615,-0.1175379789007653,7.263028,58.1656,0.2816047,0.05654543,0.4849596,-0.02864419,14.899999666959,17
-9.965848,0.6833332,-14.68793,-0.1536669669276733,-0.0675941952690594,-0.1618161400927249,10.89094,58.66629,0.4707991,0.08473398,0.487332,-0.04292351,14.919999666512,17
-9.771881,0.2833333,-14.54162,-0.2193182065236678,-0.0889900006449113,-0.2007998787260465,3.58785,59.4067,0.2020175,0.02806449,0.4952179,-0.01398125,14.939999666065,17
-9.719934,0.4833332,-14.50651,-0.2944755539329211,-0.0910805166771577,-0.2464757107424819,7.172827,59.89846,0.435205,0.05609283,0.4980453,-0.02794439,14.9599996656179,17
-9.668002,0.6833332,-14.47142,-0.3777723068867056,-0.047207778554332,-0.2977078668850978,10.75457,60.40945,0.7018711,0.08405677,0.5003718,-0.04187553,14.9799996651709,17
-9.616084,0.8833331,-14.43634,-0.4579245805683438,-0.0106877425573482,-0.3459539025998399,14.33251,60.94423,1.004848,0.111926,0.5021954,-0.05576145,14.9999996647239,17
-9.376059,0.2833333,-14.25502,-0.3578610735981025,-0.6751504257438399,-0.2563308255025536,3.518888,60.72381,0.2842537,0.02774547,0.5051546,-0.01337987,15.0199996642768,17
-9.32508,0.4833334,-14.22047,-0.3861206456417685,-0.416376094501903,-0.2704097575108193,7.034173,61.22082,0.5995011,0.05545576,0.5079556,-0.02674282,15.0399996638298,17
-9.274116,0.6833334,-14.18592,-0.4112060400317805,-0.1403873223892815,-0.2835223465232257,10.54542,61.74173,0.9486715,0.08310413,0.5102632,-0.04007515,15.0599996633828,17
-9.223164,0.8833333,-14.15138,-0.4224367683173309,0.1005453580268639,-0.2874007774311735,14.05196,62.29118,1.335241,0.110662,0.512076,-0.05336361,15.0799996629357,17
-9.056318,0.2833332,-14.0229,-0.4091029076322803,0.1403220152209467,-0.2737691331915179,3.453556,60.79825,0.3095471,0.0273569,0.5057187,-0.01291919,15.0999996624887,17
-9.006503,0.4833332,-13.98858,-0.395285259528114,0.0611845081426419,-0.2604385934284838,6.902874,61.29508,0.6497071,0.05467749,0.508529,-0.02581913,15.1199996620417,17
-8.956702,0.6833332,-13.95427,-0.3791022917110931,0.0284981466604583,-0.2464434336809926,10.34806,61.81678,1.023239,0.08193947,0.5108626,-0.03869121,15.1399996615946,17
-8.906915,0.8833331,-13.91997,-0.3503873421609382,-0.0110531317028479,-0.2235712194833023,13.78867,62.36785,1.43374,0.1091176,0.5127179,-0.05152338,15.1599996611476,17
-8.693796,0.2833333,-13.75658,-0.3275279316333286,-0.0308114821838261,-0.2043055770870125,3.40204,58.99642,0.2108205,0.02674157,0.4921311,-0.01301572,15.1799996607006,17
-8.644957,0.4833333,-13.72265,-0.3073625833460207,-0.0041186075303344,-0.1866463305147103,6.800793,59.48204,0.4509016,0.05344849,0.4950006,-0.0260134,15.1999996602535,17
-8.59613,0.6833332,-13.68874,-0.2797961797163912,0.0157093220159402,-0.1626510139555907,10.19638,59.98595,0.7222596,0.08009972,0.4974212,-0.03898389,15.2199996598065,17
-8.405444,0.2833332,-13.54395,-0.4150552037905193,0.695644597751788,-0.2662691898181606,3.343432,57.31842,0.1215679,0.02610735,0.4793674,-0.01306073,15.2399996593595,17
-8.357631,0.4833333,-13.51048,-0.3508292042470309,0.4914411798679405,-0.2249873418104488,6.684282,57.79436,0.2711914,0.05218101,0.4822953,-0.02610355,15.2599996589124,17
-8.309831,0.6833332,-13.47701,-0.2923577666154182,0.3091214941707269,-0.1887646205013329,10.02284,58.28278,0.4501951,0.07820231,0.4848015,-0.03912002,15.2799996584654,17
-8.262045,0.8833331,-13.44355,-0.2293385772270681,0.0943242652936875,-0.1496227547565389,13.35877,58.78736,0.6605279,0.1041483,0.4868841,-0.05209848,15.2999996580184,17
-8.103433,0.2833333,-13.32219,0.0162247964532609,-0.7195789046535448,0.0249050854070542,3.291662,55.6911,-0.005487078,0.02537323,0.4668983,-0.01345771,15.3199996575713,17
-8.056071,0.4833333,-13.28971,0.0908207338122215,-0.510636633986205,0.0634004429114512,6.582292,56.15394,0.01563298,0.05071764,0.4698741,-0.02690014,15.3399996571243,17
-8.008722,0.6833333,-13.25725,0.1609781544001469,-0.2844799318568745,0.098612025367327,9.871332,56.62135,0.06360395,0.07600838,0.4724516,-0.04031644,15.3599996566772,17
-7.961387,0.8833331,-13.22479,0.236824796975875,-0.093379678693198,0.1385363724646158,13.15894,57.09662,0.1396339,0.1012282,0.4746291,-0.05369494,15.3799996562302,17
-7.757378,0.2833334,-13.06773,0.1776874317249452,0.6168531069609857,0.0716539794493424,3.235282,52.50538,359.8549,0.02475769,0.4421862,-0.01362194,15.3999996557832,17
-7.71119,0.4833333,-13.03519,0.2807205930300593,0.3308975014676936,0.1327641012919578,6.470664,52.9544,359.735,0.04948809,0.4452467,-0.02722863,15.4199996553361,17
-7.665016,0.6833332,-13.00266,0.3823744417974142,0.066826096853597,0.1926483220339232,9.705923,53.39972,359.6399,0.07417101,0.4479413,-0.04080897,15.4399996548891,17
-7.48265,0.2833333,-12.86327,0.3226686030032013,0.4905653076903304,0.1269821077978221,3.28499,51.01337,359.8031,0.02512983,0.4304832,-0.01389269,15.4599996544421,17
-7.436064,0.4833333,-12.82968,0.3948067235634358,0.2702619708258286,0.16383030716465,6.570477,51.4564,359.6314,0.05023143,0.433553,-0.0277696,15.479999653995,17
-7.38949,0.6833333,-12.7961,0.459360712067367,0.071842501354438,0.1963057879229648,9.856244,51.89268,359.4841,0.07528382,0.4362551,-0.04161903,15.499999653548,17
-7.187575,0.2833333,-12.64414,0.5265673924172534,-0.1590542278161879,0.2327162040487209,3.535786,52.61925,359.8275,0.02698817,0.443052,-0.01502206,15.519999653101,17
-7.136816,0.4833333,-12.60885,0.5320104732780191,-0.1567198506110233,0.2191193458569795,7.071846,53.06225,359.6822,0.05394281,0.4459849,-0.03002548,15.5399996526539,17
-7.086084,0.6833333,-12.57358,0.5163330269728963,-0.107934475822501,0.1926221170670015,10.60992,53.49986,359.5627,0.08085123,0.4484812,-0.04500725,15.5599996522069,17
-7.035367,0.8833332,-12.53832,0.4898025131708294,-0.0660139535352101,0.1613909017942099,14.14782,53.93539,359.4695,0.107674,0.4505395,-0.05994089,15.5799996517599,17
-6.984665,0.9766705,-12.50307,0.4626838903951098,-0.0842742272237883,0.1335786680472921,17.68528,54.37218,359.4028,0.1343848,0.452158,-0.0748119,15.5999996513128,17
-6.786421,0.2833333,-12.35167,0.5080006159241757,-0.1093991010339789,0.1527858719738422,3.566849,54.77192,359.9109,0.02727607,0.4597808,-0.0150058,15.6199996508658,17
-6.734815,0.4833333,-12.31684,0.5334360208553433,-0.0880729516482451,0.1606011112770566,7.133519,55.22033,359.8491,0.05451783,0.4626277,-0.0299966,15.6399996504188,17
-6.683224,0.6833332,-12.28202,0.5499010553451562,-0.0736116152994793,0.1655274010963374,10.69955,55.66877,359.8152,0.08169826,0.465016,-0.04495351,15.6599996499717,17
-6.507057,0.2833333,-12.14686,0.5683103162918792,-0.1193310349396169,0.1760525632656318,3.589818,56.3492,0.07356313,0.02791365,0.4719106,-0.01422335,15.6799996495247,17
-6.455772,0.4833333,-12.11086,0.5293217522159948,-0.1719151608976926,0.1394425781975776,7.178102,56.8117,0.1767999,0.05579524,0.4746955,-0.02842512,15.6999996490777,17
-6.404501,0.6833332,-12.07488,0.4766991324859146,-0.178048289795116,0.0959685557874294,10.76441,57.2849,0.3104598,0.08361335,0.4770041,-0.04259445,15.7199996486306,17
-6.353245,0.8833331,-12.03891,0.4213460249148379,-0.1910461378167633,0.0540288045603567,14.34846,57.77291,0.4764909,0.1113404,0.4788346,-0.05671702,15.7399996481836,17
-6.122108,0.2833333,-11.87181,0.2038580288455476,0.4560633478062303,-0.1110924718167396,3.586554,57.55149,0.1165551,0.02791844,0.4811188,-0.01417303,15.7599996477365,17
-6.070526,0.4833332,-11.83631,0.1632544329804468,0.2190339020656668,-0.143621974183695,7.17106,58.01614,0.2621657,0.05580023,0.4838572,-0.02832997,15.7799996472895,17
-6.01896,0.6833333,-11.80083,0.1118390537663129,0.0038884314826567,-0.1812514613922911,10.75321,58.4942,0.4387035,0.08361839,0.4861109,-0.04245454,15.7999996468425,17
-5.810271,0.2833333,-11.64873,0.0608692696261909,-0.243734297754181,-0.2153893894227145,3.639191,58.09846,0.1283975,0.02830198,0.4852847,-0.01443878,15.8199996463954,17
-5.757675,0.4833332,-11.61306,0.0407631151179139,-0.258125919569813,-0.2313562551240284,7.27619,58.56316,0.286561,0.0565668,0.4879765,-0.02885862,15.8399996459484,17
-5.705094,0.6833332,-11.5774,0.0094468426001625,-0.2260664227086589,-0.2512442044983132,10.91073,59.04235,0.4762767,0.08476566,0.4901653,-0.04324472,15.8599996455014,17
-5.652532,0.883333,-11.54175,-0.0214622728602917,-0.2008717634516325,-0.2662199370264826,14.54302,59.54039,0.6998637,0.112873,0.491849,-0.0575856,15.8799996450543,17
-5.599985,0.9766704,-11.50612,-0.0403413109777419,-0.2358576579836112,-0.2674703103253417,18.17218,60.06221,0.9607595,0.1408569,0.4930266,-0.07186311,15.8999996446073,17
-5.402839,0.2833332,-11.357,-0.020923319978793,-0.2777087225603865,-0.2481723142038223,3.595644,60.16714,0.2142416,0.02808336,0.5009642,-0.01410899,15.9199996441603,17
-5.350411,0.4833332,-11.32235,-0.0107108454389215,-0.2731085612186369,-0.2317639880286783,7.188382,60.63749,0.4583792,0.05613022,0.5035966,-0.02819973,15.9399996437132,17
-5.297998,0.6833332,-11.28771,0.0022272618794332,-0.2753732236293185,-0.2094761672399983,10.77792,61.12763,0.7348481,0.08411279,0.5057213,-0.04225798,15.9599996432662,17
-5.12174,0.2833333,-11.15779,-0.1336820600496664,0.3824692357346961,-0.3008390284948756,3.528826,61.28101,0.2724856,0.02770235,0.5093437,-0.01364713,15.9799996428192,17
-5.070168,0.4833332,-11.12384,-0.1301931353070982,0.1561731105502217,-0.2889881119308501,7.0543,61.75494,0.5746235,0.05536978,0.5119604,-0.02727703,15.9999996423721,17
-5.018612,0.6833332,-11.08989,-0.1194300315169973,-0.0482390528056886,-0.271433348951664,10.57605,62.25185,0.9091803,0.08297547,0.5140786,-0.04087633,16.0199996419251,17
-4.82541,0.2833333,-10.94975,-0.2766349599325308,0.4351594937246846,-0.3820006699294644,3.466331,61.49841,0.3075966,0.02736452,0.5109757,-0.0131577,16.0399996414781,17
-4.774961,0.4833333,-10.91598,-0.4305809383239269,0.9148292214125732,-0.48873125098625,6.928714,61.97367,0.6446322,0.05469381,0.5136008,-0.02629632,16.059999641031,17
-4.724526,0.6833333,-10.88221,-0.3971348458085795,0.4857933139000706,-0.4565252597363916,10.387,62.47354,1.01381,0.08196311,0.515742,-0.03940598,16.079999640584,17
-4.674105,0.8833332,-10.84846,-0.3604951553896414,0.0530290138984981,-0.4211652001828518,13.8409,63.00238,1.41873,0.1091483,0.5173978,-0.05247475,16.099999640137,17
-4.434509,0.2833333,-10.67583,-0.3099612866898025,-0.3108242233034991,-0.3745469528839695,3.410609,60.56291,0.2474083,0.02678661,0.5039682,-0.01314214,16.1199996396899,17
-4.384939,0.4833332,-10.64264,-0.2616589355607253,-0.3423258222594821,-0.3361332785608351,6.817711,61.03042,0.5230189,0.05353794,0.5066296,-0.02626679,16.1399996392429,17
-4.335384,0.6833332,-10.60945,-0.2180057175246377,-0.327864179605324,-0.2978226111879429,10.22142,61.5183,0.8292157,0.08023315,0.5088298,-0.03936373,16.1599996387959,17
-4.285843,0.8833331,-10.57627,-0.1683797690320574,-0.3207551315739185,-0.2517115049167628,13.6214,62.03056,1.168957,0.1068485,0.5105672,-0.05242122,16.1799996383488,17
-4.118404,0.2833334,-10.45524,-0.2517208674453306,0.3459731478365465,-0.3103641253263163,3.355307,59.15321,0.1522579,0.0261171,0.4933409,-0.01329536,16.1999996379018,17
-4.069634,0.4833333,-10.42275,-0.2110804678893338,0.1280749528255935,-0.2761669434056699,6.707919,59.6101,0.3314253,0.05220027,0.4960501,-0.02657406,16.2199996374547,17
-4.020879,0.6833333,-10.39028,-0.1637434056334032,-0.0684271563780321,-0.2372074983795435,10.058,60.08112,0.5392,0.07823039,0.4983232,-0.03982559,16.2399996370077,17
-3.972137,0.8833333,-10.35781,-0.0991177341747413,-0.2978944130630017,-0.1857823611258204,13.4053,60.56991,0.7777174,0.104185,0.5001586,-0.05303841,16.2599996365607,17
-3.758248,0.2833333,-10.20436,-0.2225653242412768,0.3456956234741176,-0.2716253578310743,3.300709,56.88422,-0.004550051,0.02530502,0.476074,-0.01375156,16.2799996361136,17
-3.710094,0.4833332,-10.17278,-0.1683674793559069,0.1046590809616079,-0.2258445177737149,6.600388,57.32542,0.01634025,0.05058129,0.4788499,-0.02748743,16.2999996356666,17
-3.661952,0.6833332,-10.14122,-0.1097718442949506,-0.1149814803717842,-0.176802709177986,9.898448,57.77106,0.06294055,0.07580368,0.4812187,-0.04119594,16.3199996352196,17
-3.471189,0.2833333,-10.00508,-0.2251454070727874,0.3527007942507005,-0.2569215924352743,3.2444,54.88597,359.904,0.02473727,0.4607019,-0.01379003,16.3399996347725,17
-3.424048,0.4833333,-9.973708,-0.1519743473572063,0.1758524220425988,-0.2062818906910486,6.48847,55.31796,359.8323,0.04944707,0.4635369,-0.0275646,16.3599996343255,17
-3.37692,0.6833333,-9.942348,-0.0438299717550536,0.0204001643906243,-0.136748635298912,9.732031,55.7489,359.7849,0.07410938,0.4659905,-0.04131237,16.3799996338785,17
-3.329803,0.8833333,-9.910995,0.1040106618858884,-0.1680172125165971,-0.0437866734459939,12.97455,56.18161,359.7621,0.0987021,0.4680612,-0.05501945,16.3999996334314,17
-3.092719,0.2833333,-9.741347,0.2964990458896759,-0.3157151503564678,0.0772728304716743,3.269577,52.49943,359.7984,0.02480856,0.4421485,-0.01419529,16.4199996329844,17
-3.045435,0.4833333,-9.709221,0.5851316222873987,-0.3716445122899205,0.260660046315877,6.539621,52.92054,359.6205,0.04958943,0.4450184,-0.02837456,16.4399996325374,17
-2.998165,0.6833332,-9.677103,0.883827147057501,-0.3820986030699206,0.4500170558831202,9.809939,53.3344,359.4656,0.07432219,0.4475153,-0.04252601,16.4599996320903,17
-2.95091,0.8833331,-9.644997,1.1984341148082862,-0.400393365648392,0.650400158906594,13.08067,53.74361,359.3335,0.09898973,0.4496376,-0.05663737,16.4799996316433,17
-2.779813,0.2833333,-9.523038,1.3863483670693777,0.2404432516981182,0.7526128146509841,3.531117,54.19924,359.8271,0.02674047,0.4553636,-0.01537761,16.4999996311963,17
-2.728153,0.4833333,-9.489229,1.7429453742321444,-0.0038342311092312,0.9535237587093182,7.062465,54.62024,359.6799,0.05344788,0.4580866,-0.03073627,16.5199996307492,17
-2.676521,0.6833333,-9.455435,2.113442418175964,-0.2272034939377312,1.1388425898701824,10.5958,55.03556,359.5572,0.0801096,0.4603632,-0.04607283,16.5399996303022,17
-2.624905,0.8833331,-9.42165,2.333049652471672,0.236261985025994,1.1890188147868388,14.12903,55.4483,359.4592,0.1066875,0.4621921,-0.06136078,16.5599996298552,17
-2.410092,0.2833334,-9.268277,2.5590879750575617,0.6950229032975168,1.2250078092234569,3.565666,56.14547,359.9064,0.02706703,0.4703865,-0.01536078,16.5799996294081,17
-2.357634,0.4833335,-9.234777,3.05668803546486,0.244102443996228,1.454944808406302,7.131176,56.57205,359.839,0.05410043,0.4730326,-0.0307056,16.5999996289611,17
-2.305191,0.6833335,-9.201287,3.552706663362995,-0.2115223641273165,1.662681938091234,10.69608,56.99811,359.7979,0.08107313,0.475211,-0.04601575,16.6199996285141,17
-2.111926,0.2833333,-9.062964,3.8257983489660856,0.233125534335412,1.6899521968478313,3.589545,57.48978,0.0675142,0.02774324,0.4806584,-0.01454559,16.639999628067,17
-2.059876,0.4833333,-9.028101,4.345926097447155,0.0327553684461212,1.8909818751922645,7.17765,57.93036,0.1634096,0.05545519,0.4832497,-0.02906857,16.65999962762,17
-2.007841,0.6833333,-8.993247,4.832328877543178,-0.146706686796877,2.054624868238548,10.76388,58.38097,0.2882725,0.0831041,0.4853572,-0.0435583,16.6799996271729,17
-1.95582,0.8833332,-8.958404,5.291485397718701,-0.359621971923992,2.1895628971510623,14.34799,58.84554,0.443932,0.1106628,0.4869791,-0.05800034,16.6999996267259,17
-1.797299,0.2833334,-8.844318,5.588764425800136,0.3000318588100502,2.1990824341385578,3.567417,58.45312,0.101479,0.02759619,0.4880035,-0.01442552,16.7199996262789,17
-1.745307,0.4833333,-8.81005,6.245755587478121,0.074571917126552,2.4785320226822254,7.132809,58.895,0.2304569,0.05515547,0.4905639,-0.02883377,16.7399996258318,17
-1.69333,0.6833333,-8.775792,6.833568539387432,-0.1299799437048641,2.717474415314115,10.69607,59.34893,0.3886006,0.08265277,0.492639,-0.04320945,16.7599996253848,17
-1.641368,0.8833333,-8.741544,7.36194268672412,-0.3679850775435993,2.924913737922669,14.25694,59.81886,0.5779791,0.1100612,0.4942274,-0.0575383,16.7799996249378,17
-1.435282,0.2833333,-8.593554,7.64275967329228,0.2665789947326341,2.964733332233518,3.638038,59.10342,0.1281299,0.02816436,0.4929292,-0.0146835,16.7999996244907,17
-1.382075,0.4833333,-8.558833,8.107872579656522,0.0160291985877564,3.1979019056135023,7.27396,59.54645,0.2846462,0.05629194,0.49543,-0.02934777,16.8199996240437,17
-1.328883,0.6833333,-8.524122,8.48401294690932,-0.2136124926605881,3.3929357891233414,10.90751,60.00366,0.471294,0.08435401,0.4974214,-0.04397776,16.8399996235967,17
-1.100831,0.2833332,-8.3688,8.612833149788678,0.2435805623262898,3.433301057436731,6.425946,57.63351,359.8511,0.04848147,0.4813157,-0.02815236,16.8599996231496,17
-1.004455,0.4833332,-8.310347,8.990879603667711,0.055755306592644,3.69168368479823,12.85174,58.04328,359.7473,0.09680172,0.4823066,-0.05621132,16.8799996227026,17
-0.9080939,0.6833331,-8.251903,9.251585232369065,-0.1111618586188697,3.906389262239654,19.27704,58.45378,359.6888,0.1448085,0.4817718,-0.08408803,16.8999996222556,17
-0.8117478,0.8833328,-8.193468,9.41107953704008,-0.3115323944093863,4.086200788591784,25.70154,58.87608,359.6783,0.1923505,0.4797136,-0.1116947,16.9199996218085,17
-0.5093445,0.2833333,-7.97977,9.257761916046771,0.3606665107840492,4.074095546204521,6.516556,52.51528,359.3542,0.04848239,0.4419733,-0.03019035,16.9399996213615,17
-0.4119712,0.4833332,-7.918875,9.517533027475316,0.1477514222813,4.375867432317413,13.03593,52.83646,358.7411,0.09679805,0.4431345,-0.06027685,16.9599996209145,17
-0.3146129,0.6833331,-7.85799,9.635882892878604,-0.0442554603556447,4.6229061160056695,19.55721,53.09423,358.1459,0.1447889,0.4428407,-0.09016081,16.9799996204674,17
-0.2172697,0.883333,-7.797114,9.632003062897198,-0.2697155843762278,4.823902721904889,26.07964,53.289,357.5542,0.1922979,0.4410938,-0.1197442,16.9999996200204,17
0.02674344,0.2833333,-7.652351,9.862160829934284,-0.2629201312167353,5.191131020481171,6.502859,52.38943,358.0681,0.043456,0.4415078,-0.04013519,17.0199996195734,17
0.1376545,0.4833333,-7.609365,9.93372420650691,-0.2106494364366463,5.481127135037268,13.01605,52.48381,356.1281,0.08676174,0.4424962,-0.08019232,17.0399996191263,17
0.2485248,0.6833332,-7.566388,9.867381509451237,-0.1662196569486512,5.703993320698705,19.52969,52.34713,354.1328,0.129767,0.4419218,-0.1199785,17.0599996186793,17
0.3593546,0.883333,-7.523427,9.684130632264296,-0.1829464710414881,5.870119933898383,26.03563,51.95135,352.0221,0.1723231,0.4397861,-0.1593492,17.0799996182323,17
0.7136024,0.2833333,-7.292468,9.639779259413192,-0.2075133914526125,6.073549670088901,7.167349,55.25574,358.0592,0.04753296,0.4636917,-0.04395692,17.0999996177852,17
0.8357967,0.4833332,-7.248589,9.45031174109665,-0.1866051026508814,6.183896980856426,14.3546,55.3124,356.1054,0.09495299,0.4640224,-0.08782117,17.1199996173382,17
0.957956,0.683333,-7.204723,9.13833519098741,-0.1735375619626175,6.214707336348358,21.53743,55.10842,354.0787,0.1419588,0.4623905,-0.1313018,17.1399996168911,17
1.3255,0.2833333,-6.97575,8.55772004347114,0.4986613212771889,6.0538899844438205,7.724566,61.55605,358.7797,0.05243122,0.5111386,-0.04359487,17.1599996164441,17
1.45407,0.4833332,-6.929846,8.453128273642664,0.2857463060403237,6.114248109987164,15.45279,61.73399,357.5725,0.1046055,0.5107195,-0.0869771,17.1799996159971,17
1.582586,0.683333,-6.883962,8.208818226058956,0.0937392455964039,6.065557082923178,23.18339,61.74348,356.3327,0.1562947,0.5079138,-0.1299554,17.19999961555,17
1.711066,0.8833328,-6.83809,7.8507127798862,-0.1317210810596599,5.9253191325906025,30.91012,61.55904,355.0061,0.207241,0.5027373,-0.1723151,17.219999615103,17
2.203213,0.2833334,-6.51823,7.79069807942248,-0.1040884316573731,5.873668335551842,7.894264,70.71543,0.4709791,0.05851182,0.5770712,-0.0364896,17.239999614656,17
2.330291,0.4833333,-6.464401,7.594420418598998,-0.0334809373679279,5.711366333764142,15.78195,71.24772,1.020243,0.1167283,0.5759298,-0.07279359,17.2599996142089,17
2.457334,0.6833332,-6.410585,7.2906698039844064,0.0268875191874096,5.458812809596794,23.66147,71.88879,1.67698,0.1743723,0.57204,-0.1087387,17.2799996137619,17
2.58434,0.8833328,-6.356782,6.908592631437509,0.0238027219012965,5.13645141104605,31.53041,72.68279,2.485669,0.2311694,0.5654227,-0.1441538,17.2999996133149,17
2.941086,0.2833333,-6.094788,6.983112762810729,0.0473196890074405,4.953104258832416,7.60159,70.34283,1.002621,0.05921246,0.5742615,-0.03104559,17.3199996128678,17
3.059749,0.4833332,-6.033033,6.945147091421613,0.1098232886185477,4.673209378383813,15.19082,70.97753,2.098797,0.1181434,0.5733821,-0.06194029,17.3399996124208,17
3.178379,0.6833331,-5.9713,6.825823789874484,0.1582789740857685,4.319809175922496,22.76357,71.79864,3.338041,0.1765341,0.5699314,-0.0925377,17.3599996119738,17
3.606806,0.2833333,-5.673242,6.44674309042479,0.859940339618928,3.77113603148325,7.528265,61.83662,0.6709469,0.05932152,0.5123684,-0.02871877,17.3799996115267,17
3.716691,0.4833332,-5.600334,6.381301201192955,0.7807789754796577,3.442046401436687,15.04681,62.40253,1.433384,0.1184077,0.5121453,-0.05721615,17.3999996110797,17
3.826544,0.683333,-5.527448,6.186308235658331,0.7039710165921804,3.061611780563587,22.55453,63.10178,2.310541,0.1769612,0.5096885,-0.08545577,17.4199996106327,17
3.936366,0.8833328,-5.454582,5.890840656132948,0.5759752175759103,2.6457546411910866,30.04804,63.97957,3.351585,0.2347278,0.5050108,-0.1133147,17.4399996101856,17
4.52178,0.2833333,-5.053172,5.357109952640993,0.5767279651771292,2.4835427398848,7.919442,55.95358,0.6531458,0.06365168,0.4676388,-0.02737257,17.4599996097386,17
4.629539,0.4833332,-4.965831,4.70273185835528,0.6172520581524898,2.269964125855664,15.83342,56.52189,1.397494,0.1270258,0.467461,-0.05457115,17.4799996092916,17
4.737267,0.683333,-4.878515,3.961003967175476,0.6446276311683445,2.018392190259889,23.73657,57.23057,2.264968,0.1897699,0.4650283,-0.08149862,17.4999996088445,17
5.299842,0.2833333,-4.499645,3.165145922808126,0.5982017183939435,1.7423927783034665,8.228676,52.9017,0.178093,0.06492673,0.4441816,-0.03057036,17.5199996083975,17
5.412211,0.4833332,-4.410122,2.050557674446269,0.4991079777046326,1.9281547800562189,16.45341,53.36827,0.4254435,0.1294997,0.4439728,-0.06097418,17.5399996079504,17
5.52455,0.6833329,-4.320623,0.8820202739997587,0.4472076318478564,2.065606048139583,24.67345,53.89916,0.7597947,0.193386,0.4414686,-0.09105445,17.5599996075034,17
5.636858,0.8833326,-4.231149,-0.3053874213571497,0.3893408347952166,2.172827780228584,32.88759,54.53008,1.211798,0.2562564,0.4366842,-0.1206559,17.5799996070564,17
6.152456,0.2833333,-3.929057,-1.476952216360898,0.2723476471282759,2.268233168015,7.891073,50.1802,359.0591,0.05884001,0.4235353,-0.03659506,17.5999996066093,17
6.268575,0.4833333,-3.853251,-3.0721970211914886,0.1178547099243625,2.529365785793535,15.78442,50.4031,358.1402,0.1173786,0.4237314,-0.07300484,17.6199996061623,17
6.384665,0.6833332,-3.77747,-4.651871887509712,0.0150007486010795,2.752293992547888,23.67795,50.4991,357.208,0.1753344,0.4218845,-0.1090541,17.6399996057153,17
6.500723,0.8833328,-3.701714,-6.180950234087911,-0.0895302726608382,2.9560783752413986,31.56959,50.45163,356.2215,0.232429,0.4180053,-0.1445694,17.6599996052682,17
7.152156,0.2833334,-3.355048,-7.919642524356821,0.4712333654213976,2.937911541599292,7.331892,52.86354,358.5509,0.05163346,0.4449095,-0.03975926,17.6799996048212,17
7.269341,0.4833332,-3.29796,-9.800829963047947,0.1530463962070007,3.3818227733197963,14.66716,52.99762,357.1071,0.1030289,0.445272,-0.0793407,17.6999996043742,17
7.386497,0.683333,-3.240896,-11.595283843874688,-0.1380687267943086,3.7883667441736737,22.0011,52.93827,355.619,0.1539677,0.443735,-0.1185756,17.7199996039271,17
7.98478,0.3028588,-2.942424,-13.268074772147411,-0.4564732230195059,4.178133220982056,7.143433,60.20181,358.8529,0.04888328,0.5010647,-0.03988575,17.7399996034801,17
8.102833,0.5028587,-2.897813,-15.39744686002475,-0.5364593117365634,4.628031848008995,14.28596,60.39678,357.7047,0.0974527,0.5011443,-0.07970955,17.7599996030331,17
8.220849,0.7028587,-2.853204,-17.37393797751684,-0.5648066487265119,5.007777235917354,21.42839,60.44558,356.534,0.1456095,0.4992202,-0.119213,17.779999602586,17
8.338832,0.9028584,-2.808608,-19.166961239651982,-0.5948311513287156,5.338743113008335,28.5682,60.3313,355.3005,0.1931721,0.495303,-0.1582295,17.799999602139,17
9.103777,0.3371884,-2.459601,-20.948706431197493,-1.3936607011747868,5.688917491903506,7.502149,64.66158,358.515,0.04835937,0.5343323,-0.04591176,17.819999601692,17
9.233155,0.5371883,-2.426711,-22.71765893556654,-1.3103852733839323,5.486932579622131,15.0101,64.77755,357.0257,0.09647441,0.5337561,-0.09166877,17.8399996012449,17
9.362496,0.7371881,-2.393831,-24.20177383580826,-1.197412364075069,5.134457963592759,22.51629,64.6879,355.4854,0.1441453,0.5307952,-0.1370033,17.8599996007979,17
9.491801,0.9371877,-2.360961,-25.37774986366505,-1.100133304788072,4.696475153981184,30.01508,64.35974,353.8289,0.1911599,0.525465,-0.1817135,17.8799996003509,17
10.00303,0.440202,-2.054243,-26.599459947698737,-0.3523684788576916,3.9293754524459152,7.678728,50.72825,358.6854,0.05559749,0.4280741,-0.03902449,17.8999995999038,17
10.12093,0.6402019,-1.986439,-27.95458022048138,-0.6392254845917738,3.387561662779024,15.36068,50.87252,357.3792,0.1109254,0.4283024,-0.07785331,17.9199995994568,17
10.2388,0.8402017,-1.918645,-28.998319677076857,-0.9490063317056586,2.6749517472307183,23.04184,50.83388,356.0325,0.165728,0.426547,-0.1163067,17.9399995990098,17
10.43198,0.359062,-1.420296,-29.639503746931272,-1.2727554571323214,1.9434347667955056,7.211208,34.22094,359.2269,0.05812227,0.2940314,-0.02493745,17.9599995985627,17
10.51304,0.5590618,-1.322838,-30.75753931355271,-1.2312827376526552,1.2977743340301666,14.42484,34.48536,358.4826,0.1160013,0.2956361,-0.04975815,17.9799995981157,17
10.59406,0.7590618,-1.225389,-31.47177930592129,-1.1398249726017862,0.6463240164865292,21.63954,34.66038,357.7443,0.1734048,0.2960529,-0.07436241,17.9999995976686,17
10.67504,0.9518158,-1.127949,-31.76642473477501,-1.0517790185162312,0.0095436355387108,28.85415,34.74057,356.9876,0.2301032,0.2952817,-0.09865166,18.0199995972216,17
10.64199,0.3131737,-0.4934582,-32.17269085109094,-0.3002546560861979,-0.942271140473375,6.1898,8.78618,358.6456,0.05292351,0.07711797,-0.01590282,18.0399995967746,17
10.68168,0.5131736,-0.3891509,-32.60424132527195,-0.4130093091230312,-1.3524029139956295,12.40277,8.127964,357.2145,0.1060074,0.07305384,-0.031756,18.0599995963275,17
10.72136,0.7131735,-0.2848786,-32.60169745895914,-0.5026586993871205,-1.7604389968758771,18.59845,7.288063,355.6691,0.1587786,0.06877077,-0.04747608,18.0799995958805,17
10.76103,0.9131733,-0.1806438,-32.157572913059475,-0.6235643526208361,-2.1499559419413425,24.77038,6.22998,353.9606,0.2110726,0.06428383,-0.06301606,18.0999995954335,17
10.63052,0.2833333,0.2838548,-32.14559691482273,-0.5100179283617268,-2.34574174073118,6.345333,351.2141,359.0479,0.05581612,-0.07601742,-0.0040326,18.1199995949864,17
10.62994,0.4833333,0.3965681,-31.701133237624735,-0.3487994681474475,-2.549248212870176,12.70185,350.1705,358.0053,0.1116764,-0.08321617,-0.007760264,18.1399995945394,17
10.62936,0.6833331,0.5092397,-30.823246250899693,-0.1932250083199738,-2.7415450332529745,19.03861,348.9734,356.8107,0.167188,-0.09013653,-0.0114352,18.1599995940924,17
10.6288,0.883333,0.6218677,-29.512041538535765,-0.0966099860265837,-2.9035777411983403,25.34936,347.5775,355.4185,0.222172,-0.09675474,-0.0150474,18.1799995936453,17
10.42258,0.2833333,1.174977,-28.41141305317934,0.7342830632105369,-3.341420968590974,7.320277,335.9191,359.5775,0.06320069,-0.2079452,0.00971841,18.1999995931983,17
10.37747,0.4833332,1.295182,-27.434478901870047,0.5706980326235543,-3.321034856526476,14.63288,334.9469,359.0293,0.1261355,-0.2140656,0.01941851,18.2199995927513,17
10.33239,0.6833332,1.41535,-26.07183966097769,0.430706009021662,-3.294767633991671,21.93572,333.8596,358.328,0.1885489,-0.2192863,0.02906876,18.2399995923042,17
10.12275,0.2833333,1.896107,-24.90832203883447,0.9567932057871642,-3.5272999671572336,7.269769,324.9729,358.6255,0.06405719,-0.2995795,0.007661988,18.2599995918572,17
10.07003,0.4833331,2.014306,-23.869407161417566,0.8378421566302032,-3.3694836333088114,14.51165,323.8178,357.0937,0.1278291,-0.3048986,0.01529459,18.2799995914102,17
10.01731,0.6833329,2.132476,-22.49808365465633,0.7396772157917494,-3.202512185048878,21.71669,322.4079,355.3421,0.1910469,-0.3089237,0.02286538,18.2999995909631,17
9.775454,0.214462,2.293976,-20.80865251761509,0.6078352219840637,-2.997183776181773,4.903668,319.0412,358.383,0.04500415,-0.34895,0.001759101,18.3199995905161,17
9.743885,0.3623371,2.138795,-19.59330875863104,1.307024122856468,-3.089621353999616,10.89962,320.5659,356.3821,0.0999627,-0.3328606,0.002443922,18.3399995900691,17
9.706708,0.5545336,2.107759,-18.77546222669457,1.11591574327822,-2.623145503340112,12.89541,321.9174,357.715,0.1125947,-0.3220052,0.01790041,18.359999589622,17
9.668949,0.7528324,2.101552,-17.734374016664475,0.9402507931181832,-2.1113034358310294,14.50517,323.2355,359.5039,0.1211552,-0.3123106,0.03573567,18.379999589175,17
9.626397,0.949836,2.10031,-16.495590329604674,0.7253865760525455,-1.5229760957223295,16.17813,323.7656,1.529179,0.129616,-0.3096253,0.05630874,18.399999588728,17
9.162073,0.2141465,2.364292,-16.036102458113508,0.613083809721049,-0.740159439887341,6.108123,324.1066,358.218,0.05546448,-0.3068694,0.001642085,18.4199995882809,17
9.04356,0.3608703,2.260171,-15.417933091963498,0.5256778462616438,0.0618088674355279,11.83414,327.4898,355.6153,0.1095464,-0.2744332,-0.00769457,18.4399995878339,17
8.983812,0.5608703,2.256309,-14.67377322162921,0.4090329153720178,0.9098961014001734,13.27346,331.7215,358.9782,0.1142318,-0.2416333,0.01964222,18.4599995873868,17
8.616549,0.2678076,2.691044,-13.92798789501665,1.0267072981875582,1.3142573600399912,5.080119,328.3856,359.545,0.0437221,-0.2719624,0.008255634,18.4799995869398,17
8.544365,0.4678075,2.753109,-13.484881354577483,0.7474686548347148,2.079258668720149,10.22933,331.0055,1.386835,0.08328683,-0.250363,0.03398553,18.4999995864928,17
8.472219,0.6678075,2.815171,-12.923980965684532,0.4769431339151679,2.834157486011879,15.28465,333.8459,3.505775,0.1226195,-0.2281091,0.05960705,18.5199995860457,17
8.40011,0.8678073,2.877229,-12.281313670319276,0.1690722229963695,3.600627244713568,20.22486,336.9605,5.946473,0.1616141,-0.2052621,0.08505218,18.5399995855987,17
7.948539,0.2833333,3.435519,-11.457042793898966,0.7681767598183624,3.7555641186212654,6.884881,330.4331,1.007628,0.0558162,-0.2552064,0.02380775,18.5599995851517,17
7.872602,0.4833332,3.53065,-11.100826488799209,0.4751792042504148,4.349007079608215,13.72175,333.0359,2.329226,0.1114383,-0.2337843,0.04746825,18.5799995847046,17
7.796691,0.6833329,3.625747,-10.62575203724782,0.1959455522119453,4.880241728271675,20.49026,335.8991,4.024451,0.1666197,-0.2114252,0.07090096,18.5999995842576,17
7.349688,0.2833334,4.108768,-10.069682055699236,-0.1240415003739685,5.368811052517988,7.148539,335.0486,1.845441,0.05739032,-0.2165571,0.02915874,18.6199995838106,17
7.266214,0.4833333,4.207162,-9.728089091663032,-0.1834065422688116,5.797395790825451,14.20411,337.8169,4.048807,0.1145083,-0.1950678,0.05816943,18.6399995833635,17
7.182775,0.683333,4.305544,-9.245154739112056,-0.2007753073074838,6.119918615717307,21.13721,340.98,6.699372,0.171093,-0.172709,0.08690081,18.6599995829165,17
7.09937,0.8833328,4.403915,-8.65794979588649,-0.2294634855395896,6.353958961957337,27.90615,344.6755,9.923979,0.2268862,-0.1495843,0.115223,18.6799995824695,17
7.015999,0.9766697,4.502275,-8.003994811280073,-0.3227871005008158,6.517022026805858,34.45047,349.0909,13.90166,0.2816337,-0.1258,0.1430083,18.6999995820224,17
6.484682,0.2833334,4.979812,-7.679977555901768,-0.4274297834085239,6.62146254640984,7.001122,328.3503,2.444641,0.05292452,-0.2733797,0.03713177,18.7199995815754,17
6.382779,0.4833333,5.059683,-7.204148292585335,-0.4900759642611277,6.571895613105252,13.87924,331.2079,5.254156,0.1055944,-0.2519059,0.07407849,18.7399995811284,17
6.28091,0.6833332,5.139544,-6.611853043106652,-0.5640416922068787,6.382947723354201,20.59747,334.5255,8.529076,0.157767,-0.2292945,0.1106714,18.7599995806813,17
5.779005,0.2833333,5.549783,-5.741016824584298,0.0176449782813512,5.636270622905808,7.180395,318.0793,1.93992,0.05242404,-0.357958,0.03817421,18.7799995802343,17
5.668736,0.4833332,5.61826,-5.23134504958972,-0.2892611927792393,5.062660541137172,14.2688,320.8469,4.229908,0.1046685,-0.3365641,0.076088,18.7999995797873,17
5.558497,0.683333,5.686717,-4.627685890073878,-0.5787379647942903,4.308752639224506,21.22941,324.0233,6.974043,0.1564132,-0.3136336,0.1136407,18.8199995793402,17
5.448291,0.8833328,5.755155,-3.7388879465625457,-0.1021806241802461,3.336404328347095,28.01872,327.7491,10.30354,0.2074187,-0.2892739,0.1506598,18.8399995788932,17
4.794585,0.2833333,6.282639,-2.827232068608948,0.4383079790985176,2.533640088543663,7.847994,311.5976,1.100441,0.05848832,-0.4095618,0.03679083,18.8599995784461,17
4.678747,0.4833332,6.356229,-2.5100287931709566,0.092124999607733,2.235008845044748,15.57871,314.1592,2.555535,0.1161954,-0.3885463,0.07311916,18.8799995779991,17
4.563558,0.683333,6.429408,-2.180445836043164,-0.2413659061885521,1.9497280833931183,23.19157,317.0074,4.440313,0.1729778,-0.3659376,0.1089105,18.8999995775521,17
3.988416,0.2833334,6.891403,-1.871796969817308,-0.6151076201745864,1.7084839843020203,8.153937,308.5885,0.4004801,0.06254788,-0.4328732,0.03397888,18.919999577105,17
3.871218,0.4833333,6.972541,-1.598564474778585,-0.6040438699720385,1.6001952740427807,16.28332,310.9361,1.140854,0.1247385,-0.4122781,0.06776391,18.939999576658,17
3.754052,0.6833332,7.053659,-1.2228068434095292,-0.4754430441845378,1.6381610917195657,24.37195,313.5226,2.284259,0.186234,-0.3894617,0.1011727,18.959999576211,17
3.636917,0.8833328,7.134756,-0.8430848088568703,-0.3388365837193629,1.7559839450988497,32.39713,316.5011,3.946953,0.2467006,-0.3645496,0.134025,18.9799995757639,17
3.151293,0.2833332,7.549084,-0.126274424589839,0.3450116791561872,1.4682345414185711,7.839812,304.9433,359.2428,0.06366761,-0.4606956,0.0257495,18.9999995753169,17
3.045152,0.4833331,7.636468,-0.0530568820981462,0.1460596406920324,1.6941744294201315,15.69983,307.0273,358.7659,0.1269944,-0.4404635,0.05135954,19.0199995748699,17
2.939044,0.683333,7.723831,0.0353547490653105,-0.0295894387365489,1.901314786288486,23.56942,309.1425,358.5757,0.1896586,-0.4180124,0.07670113,19.0399995744228,17
2.832967,0.8833327,7.811174,0.1046185803308374,-0.2362156131250292,2.124427120046299,31.43794,311.382,358.7104,0.2513427,-0.3934587,0.1016469,19.0599995739758,17
2.220831,0.2833333,8.335523,0.5757623438363617,0.4136464411596829,1.802641758586681,7.291427,304.6783,358.6068,0.06194812,-0.4625787,0.01877046,19.0799995735288,17
2.128588,0.4833332,8.426428,0.5941590143159594,0.1788828056909793,1.8087233938531837,14.62503,306.6309,357.4528,0.1235972,-0.4427882,0.03744701,19.0999995730817,17
2.036377,0.683333,8.517313,0.5903900214387927,-0.0344844384490617,1.780796801735848,21.99011,308.5067,356.5177,0.1846669,-0.4210019,0.05594561,19.1199995726347,17
1.512032,0.2833334,8.978997,0.976919800325764,0.439470432817305,1.2819285426759317,7.139325,311.4388,358.8717,0.06079275,-0.409829,0.0166434,19.1399995721877,17
1.430133,0.4833332,9.074872,1.336252178923174,0.9092085577334592,0.7482913978324426,14.30886,313.4362,357.969,0.1213354,-0.3900883,0.03306566,19.1599995717406,17
1.348256,0.683333,9.170719,1.0900549709457392,0.4697536001335793,0.6742802067085911,21.50263,315.3929,357.2973,0.1813352,-0.3686776,0.04934163,19.1799995712936,17
1.266403,0.8833328,9.26654,0.8246858863860229,0.0260823779436804,0.5677330665171656,28.71201,317.3703,356.8646,0.2405333,-0.3456909,0.06540201,19.1999995708466,17
0.6170546,0.2833334,9.853128,0.505170168432759,-0.3491651579356969,0.4567483094792806,7.520069,316.0774,358.6104,0.06534008,-0.3724107,0.01330093,19.2199995703995,17
0.5415256,0.4833333,9.963204,0.1770069232595927,-0.3925498284657399,0.3103243657362533,15.08455,318.0085,357.4583,0.1303909,-0.3523937,0.02649058,19.2399995699525,17
0.4660182,0.6833332,10.07325,-0.1227014676873885,-0.3904593899681342,0.1451545788083486,22.68,319.8623,356.529,0.1947964,-0.3307019,0.03955092,19.2599995695055,17
0.3905323,0.883333,10.18326,-0.4283844252331716,-0.3962098531722843,-0.0093004929156723,30.2976,321.6986,355.8203,0.2582479,-0.3074408,0.05242028,19.2799995690584,17
-0.09580781,0.2833333,10.60341,-0.2941901372450264,0.2571708715414123,-0.5201349651662106,7.892452,324.2553,359.6305,0.06648593,-0.3059572,0.01805928,19.2999995686114,17
-0.1731881,0.4833331,10.71758,-0.7674463504965505,0.0254381813680981,-0.4853084476216995,15.79092,326.3885,359.5536,0.1326139,-0.2858728,0.03602213,19.3199995681643,17
-0.2505472,0.6833329,10.83172,-1.192945300024034,-0.1853860837515967,-0.4410090593613596,23.68432,328.6162,359.7926,0.1980467,-0.2643495,0.05379801,19.3399995677173,17
-0.3278849,0.8833326,10.94583,-1.6067016285495477,-0.4296631560609283,-0.3555344192877161,31.55992,331.0469,0.4078531,0.2624516,-0.2414982,0.07129735,19.3599995672703,17
-0.9542468,0.2833335,11.46481,-1.3920990985766366,0.1986286068851869,-0.7481442301207011,7.703491,327.2058,0.9625975,0.06207468,-0.2821863,0.02700264,19.3799995668232,17
-1.043295,0.4833332,11.56695,-1.5788312208913575,-0.0581942141735731,-0.7526319953284659,15.36008,329.6057,2.257686,0.1238244,-0.2622805,0.05386733,19.3999995663762,17
-1.132321,0.683333,11.66905,-1.7165156355831268,-0.2941085798617977,-0.7185872308335011,22.95068,332.3036,3.959657,0.1849444,-0.2410995,0.0804624,19.4199995659292,17
-1.673106,0.2833332,12.11855,-1.2879668214187516,0.1568109244566256,-1.0838644511556588,7.420429,320.8971,0.8446602,0.0585159,-0.3343924,0.02858633,19.4399995654821,17
-1.768098,0.483333,12.20777,-0.8139997702875998,0.6030257124037389,-1.4159894274162248,14.79889,323.2561,2.012001,0.1167153,-0.3146571,0.05710853,19.4599995650351,17
-1.863052,0.683333,12.29697,-0.905205507859745,0.1395604025352294,-1.237954177902889,22.11784,325.8784,3.558577,0.1743484,-0.2934935,0.08538169,19.4799995645881,17
-1.957973,0.883333,12.38616,-0.9474660812936752,-0.3286089229308098,-1.022927412770226,29.35379,328.8894,5.584835,0.2311595,-0.271001,0.1132662,19.499999564141,17
-2.64583,0.2833333,12.93547,-0.5324449153206467,0.1034943266418812,-1.142933827237389,7.679376,311.5302,0.7532667,0.05836989,-0.4099501,0.03346781,19.519999563694,17
-2.756453,0.4833331,13.0123,-0.5868220497359964,-0.1094204313367838,-0.8493759585166565,15.32255,313.8721,1.837353,0.1164193,-0.3901777,0.06684104,19.539999563247,17
-2.867044,0.6833328,13.08911,-0.6053120830061118,-0.3014270197776773,-0.5412536898705227,22.91075,316.4785,3.309172,0.1738839,-0.3685213,0.09988062,19.5599995627999,17
-2.977604,0.8833327,13.1659,-0.6224112333570107,-0.5268864297826104,-0.1901327549945044,30.41993,319.4853,5.278398,0.2304838,-0.3450883,0.1324266,19.5799995623529,17
-3.483127,0.2833335,13.57116,-0.0649648130790669,0.1202226619818245,-0.2920970367886006,8.158225,310.3043,0.7840964,0.06167923,-0.4195774,0.03608376,19.5999995619059,17
-3.602152,0.4833335,13.65061,0.0524692577075462,-0.1177828174523332,-0.0679837290562552,16.27704,312.6611,1.913212,0.1230048,-0.3995253,0.07196209,19.6199995614588,17
-3.720638,0.6833334,13.72971,0.1661538179555375,-0.3348797225133446,0.1699684094187645,24.30502,315.2812,3.458587,0.1833759,-0.3775959,0.1073295,19.6399995610118,17
-3.837808,0.8833331,13.80794,0.7603171200689367,0.1348574548249416,0.0056264363449898,32.16596,318.2621,5.523923,0.2420609,-0.3543653,0.1418353,19.6599995605648,17
-4.467532,0.2833335,14.32446,1.3291253268844372,0.5998903293390474,-0.1441938061207643,7.973696,302.7435,359.3481,0.06374541,-0.4776104,0.02833086,19.6799995601177,17
-4.579787,0.4833335,14.40752,1.270692045818823,0.155242962467766,0.1592368343501746,15.96204,304.5894,358.9489,0.1271444,-0.4592738,0.05650768,19.6999995596707,17
-4.69201,0.6833335,14.49056,1.1732210910538434,-0.294108560957285,0.4624499918918161,23.95657,306.4687,358.8096,0.1898705,-0.4385879,0.08438632,19.7199995592237,17
-5.232576,0.2833334,14.94482,1.683061488876369,0.1568120983659586,0.2069313617981301,7.553504,302.5228,358.5923,0.06364486,-0.4790243,0.0209204,19.7399995587766,17
-5.331814,0.4833331,15.03496,1.6852231658113863,-0.0372861618960579,0.2951055864952039,15.14427,304.2099,357.3966,0.1269683,-0.4610083,0.04173296,19.7599995583296,17
-5.43102,0.6833327,15.12507,1.661294195637053,-0.2104759944909295,0.3380238771785926,22.76317,305.8022,356.3871,0.1896684,-0.4408095,0.06233925,19.7799995578825,17
-5.530194,0.8833324,15.21516,1.577636248710931,-0.4171187532780453,0.3632809437206568,30.40306,307.3471,355.5527,0.2514465,-0.4185265,0.08264208,19.7999995574355,17
-6.189887,0.2833333,15.7812,1.893366710982992,0.2488069219267332,0.026112099404866,7.073749,308.9464,358.7724,0.06027327,-0.4294915,0.01693473,19.8199995569885,17
-6.273674,0.4833333,15.87426,1.5376756605716544,0.0296190883317534,0.1680811134255222,14.17674,310.6707,357.7408,0.1202838,-0.4118262,0.03370716,19.8399995565414,17
-6.357451,0.6833334,15.96728,1.1489668361711427,-0.1686608148631989,0.2703796670994727,21.30364,312.325,356.8938,0.1797753,-0.3924518,0.05031054,19.8599995560944,17
-6.44122,0.8833332,16.06026,0.6919272298206991,-0.4003938363446533,0.3600017859033677,28.44835,313.955,356.2271,0.2385022,-0.3714524,0.06667812,19.8799995556474,17
-6.921883,0.2833331,16.48393,0.79012850104046,0.2404408206821717,-0.0222876378487875,7.377811,313.3707,358.3594,0.0647338,-0.3940743,0.01234145,19.8999995552003,17
-6.997472,0.4833331,16.59206,0.4630452549699964,-0.003836192648562,-0.0682771018493291,14.8013,314.9987,356.9095,0.1291922,-0.3761593,0.02456946,19.9199995547533,17
-7.07304,0.6833325,16.70015,0.1129512455230568,-0.2272048099358303,-0.1212761505254675,22.25869,316.4945,355.623,0.193035,-0.3565212,0.03668186,19.9399995543063,17
-7.148586,0.883332,16.80822,0.2471731967129233,0.2362613721538491,-0.5718228133126075,29.74234,317.8943,354.476,0.2559673,-0.3352522,0.0486236,19.9599995538592,17
-7.766343,0.2833333,17.3387,-0.0645713379658836,0.0547089791211626,-0.6523693889821729,7.821726,320.9509,359.2455,0.06647664,-0.3330019,0.01660283,19.9799995534122,17
-7.843976,0.4833332,17.45179,-0.366370925725425,-0.1059353194691034,-0.7323323378773132,15.66121,322.7461,358.731,0.132604,-0.314978,0.03311915,19.9999995529652,17
-7.921587,0.6833332,17.56485,-0.6941768033739173,-0.3000329831499612,-0.7841064960167294,23.51042,324.5525,358.4581,0.1980535,-0.295405,0.04946767,20.0199995525181,17
-8.456767,0.2833336,18.02841,-0.3720986127361758,0.3784384410655946,-1.3324648872688163,7.85233,326.4754,0.5389671,0.06420751,-0.2880304,0.02423986,20.0399995520711,17
-8.542201,0.4833335,18.13598,-0.6206018326016878,0.1717961854695965,-1.3702535818468498,15.67896,328.5391,1.367299,0.1280759,-0.2701259,0.04835407,20.0599995516241,17
-8.627613,0.6833335,18.24352,-0.8154941814133849,-0.0139370018837211,-1.3952828097935246,23.46707,330.8261,2.542233,0.1912868,-0.2508915,0.07222319,20.079999551177,17
-8.713004,0.8833331,18.35104,-0.9916293286507116,-0.2331236029392402,-1.3792292708163991,31.19846,333.4627,4.163249,0.2535259,-0.2304239,0.09572931,20.09999955073,17
-9.197816,0.283333,18.73095,-1.2002453126349142,-0.2200564613365907,-1.2767866159605497,7.561834,324.5867,1.005677,0.06015186,-0.3040214,0.02839706,20.119999550283,17
-9.290393,0.4833331,18.82659,-1.331175837239449,-0.1615140749771112,-1.1610163310687618,15.08081,326.7287,2.303885,0.1200018,-0.286279,0.05665597,20.1399995498359,17
-9.382937,0.6833327,18.92221,-1.4191189921500804,-0.1108122704236485,-1.0045079860763124,22.54185,329.1503,3.964909,0.1792721,-0.2672065,0.08465746,20.1599995493889,17
-9.475446,0.8833325,19.01781,-1.499561679239342,-0.1212668475810736,-0.7790232638855841,29.92029,331.9785,6.099014,0.2376695,-0.2468918,0.1122767,20.1799995489419,17
-10.10029,0.2833336,19.4997,-1.436693077807366,-0.1395612396484939,-0.6621412193407785,7.531865,311.7478,0.543233,0.0580091,-0.4081429,0.03116352,20.1999995484948,17
-10.20613,0.4833336,19.57821,-1.3186618418005356,-0.1123803834743841,-0.5234730902604667,15.0377,313.7899,1.374296,0.1156819,-0.3904598,0.06228107,20.2199995480478,17
-10.31194,0.6833335,19.6567,-1.1787304364371405,-0.0930405549740427,-0.3368675394770797,22.50573,316.04,2.530825,0.1728047,-0.3709941,0.09310442,20.2399995476007,17
-10.85784,0.2833331,20.07982,-0.5357655465623328,0.5854303503692334,-0.5216666027890362,7.957397,310.3719,0.8867077,0.05973806,-0.4191383,0.03612509,20.2599995471537,17
-10.97423,0.4833332,20.15549,-0.4855314895141678,0.3787872510395149,-0.2447814829936696,15.82499,312.4453,2.070184,0.1187411,-0.4015555,0.07186742,20.2799995467067,17
-11.09005,0.6833332,20.23079,-0.4090569740184726,0.1930524260500105,0.0330529134644024,23.60492,314.7645,3.612072,0.1768493,-0.3822142,0.1070996,20.2999995462596,17
-11.20549,0.8833324,20.30584,-0.3400350691751601,-0.026134865412295,0.3393021185164073,31.28875,317.4707,5.623553,0.2338709,-0.3611481,0.1417052,20.3199995458126,17
-11.88503,0.2833331,20.8396,-0.1281357753501524,-0.0130671226983717,0.4907879349038424,8.154586,304.205,359.9516,0.06303626,-0.4666804,0.03289558,20.3399995453656,17
-12.00351,0.4833326,20.91853,0.1206621702432819,0.0454757188504386,0.5987795088917878,16.30446,306.0108,0.1614581,0.1257209,-0.4494974,0.06560835,20.3599995449185,17
-12.12195,0.6833322,20.99743,0.3720125458072871,0.0961775017987423,0.6915109497990102,24.44108,307.9454,0.6634542,0.187722,-0.42995,0.09796596,20.3799995444715,17
-12.24036,0.8833312,21.07632,0.591473437856493,0.0857225468123944,0.7972044057008603,32.5535,310.1175,1.529763,0.2487125,-0.4081436,0.1297984,20.3999995440245,17
-12.71088,0.2833334,21.47123,0.7934644420957291,0.0674281532639728,0.8511406216966471,7.783397,301.9103,358.8936,0.06400906,-0.4837793,0.02452819,20.4199995435774,17
-12.81717,0.4833334,21.55797,0.9769837630317256,0.0946093047666629,0.8629161040230429,15.59266,303.4812,357.9922,0.1276845,-0.4669223,0.04892693,20.4399995431304,17
-12.92342,0.6833335,21.6447,1.1078672249797492,0.1139501004463298,0.8596313706811358,23.42054,304.9946,357.2788,0.190712,-0.4477765,0.07307671,20.4599995426834,17
-13.42562,0.2833333,22.06569,1.1517752035559106,0.0721350272762765,0.8682078433600893,7.264112,303.742,358.5511,0.06181129,-0.4697675,0.01873584,20.4799995422363,17
-13.51806,0.4833332,22.15594,1.1662661607516398,0.0224781665058442,0.8427008277816306,14.56308,305.2498,357.2832,0.1233327,-0.453309,0.03738059,20.4999995417893,17
-13.61047,0.683333,22.24617,1.1576830549404704,0.018296208120167,0.7635301348309866,21.88897,306.6468,356.1674,0.1842934,-0.434869,0.05585295,20.5199995413423,17
-13.70286,0.8833328,22.33637,1.0941589381821153,0.0062733671114841,0.655888912884862,29.23454,307.9658,355.1824,0.2444261,-0.4145353,0.07405023,20.5399995408952,17
-14.33284,0.2833334,22.87265,1.0397198159440215,0.0130689919797187,0.4973973362832389,7.15934,310.5859,358.6539,0.06161703,-0.4164684,0.01544498,20.5599995404482,17
-14.41369,0.4833339,22.97072,0.9942411484249014,0.065340035404345,0.2814502724067758,14.34873,312.107,357.4761,0.1229805,-0.4000942,0.03070838,20.5799995400012,17
-14.49452,0.6833336,23.06875,0.924564472239247,0.1097698900748071,0.0334911584273136,21.56341,313.531,356.4545,0.1838021,-0.382028,0.04583761,20.5999995395541,17
-15.03515,0.2833329,23.55206,0.3101623392526456,-0.5472709403647774,0.1796169962804548,7.558176,314.871,358.5111,0.06583378,-0.3820656,0.01331705,20.6199995391071,17
-15.11186,0.4833328,23.6625,0.1538146843707259,-0.2815623216487842,-0.0235486473355592,15.15449,316.3488,357.2009,0.1313756,-0.3654362,0.02653383,20.63999953866,17
-15.18855,0.6833327,23.77291,0.00262549461657,0.0008723076746481,-0.2464367256439068,22.77805,317.706,356.0419,0.1962751,-0.3470874,0.03962254,20.659999538213,17
-15.26522,0.8833325,23.88328,-0.1778207189921232,0.2477629346946898,-0.4628559580684488,30.42253,318.9767,355.012,0.2602249,-0.3271078,0.05252175,20.679999537766,17
-15.75944,0.2833336,24.29449,-0.4220048367610545,0.2930097068142778,-0.6466559918700803,7.904915,322.3828,359.5562,0.06649311,-0.3213861,0.01856576,20.6999995373189,17
-15.83923,0.4833336,24.40732,-0.6384777597472997,0.218855001768252,-0.8161538200290046,15.81721,324.0684,359.3426,0.132635,-0.3047599,0.03703439,20.7199995368719,17
-15.91899,0.6833333,24.52012,-0.8189515312586941,0.1906633702825665,-0.980737511270558,23.73001,325.806,359.3714,0.1980956,-0.2866266,0.0553145,20.7399995364249,17
-15.99874,0.8833328,24.6329,-0.9981355880453684,0.1551192978495278,-1.1124113360980736,31.63582,327.6773,359.6832,0.2625485,-0.267078,0.07331567,20.7599995359778,17
-16.63356,0.283333,25.14009,-1.1257697011970365,0.1388799258452835,-1.2392430789549032,7.723372,325.3629,0.8909912,0.06198358,-0.2974989,0.02745377,20.7799995355308,17
-16.72467,0.4833326,25.24063,-1.1862236447482033,0.1686035407193911,-1.3517722502752356,15.41148,327.3195,2.054993,0.1236492,-0.2810631,0.05477021,20.7999995350838,17
-16.81577,0.6833328,25.34115,-1.213948072690599,0.190974200042627,-1.4225399129281229,23.05088,329.5366,3.558078,0.1846994,-0.2632868,0.08181813,20.8199995346367,17
-17.36502,0.2833333,25.77963,-1.7268734024740873,-0.4876373534902581,-1.0403655279346822,7.433764,318.8294,0.7649952,0.05834353,-0.3512591,0.02902891,20.8399995341897,17
-17.462,0.4833331,25.86681,-1.5375889688166104,-0.2430123718285061,-1.1486339441547564,14.83655,320.746,1.795177,0.1163776,-0.334948,0.05799432,20.8599995337427,17
-17.55893,0.6833328,25.95397,-1.2774657845645798,0.0188271706648373,-1.236647149436994,22.19608,322.8893,3.139264,0.1738601,-0.317151,0.08671307,20.8799995332956,17
-17.65583,0.8833324,26.04112,-0.9789613406969444,0.2456104201329875,-1.278880103576597,29.49585,325.366,4.885577,0.2305384,-0.2979485,0.1150544,20.8999995328486,17
-18.15332,0.2833333,26.41323,-1.1109317050399774,-0.4686817586253171,-0.9586144646651248,7.640501,312.1936,0.8416448,0.05794104,-0.404729,0.03369568,20.9199995324016,17
-18.26324,0.4833335,26.49014,-0.7991814258280563,-0.2597391054247047,-0.9558857418262968,15.24898,314.1259,1.956848,0.1155757,-0.3883044,0.06728722,20.9399995319545,17
-18.37314,0.6833331,26.56703,-0.4654643628053776,-0.0335823795993922,-0.9170262938381768,22.81136,316.3065,3.400565,0.1726481,-0.3700622,0.1005535,20.9599995315075,17
-18.48301,0.8833331,26.6439,-0.6098766153695969,-0.482796282780408,-0.4998957028500612,30.30913,318.8526,5.27293,0.2288891,-0.3500902,0.1333375,20.9799995310605,17
-19.11652,0.2833333,27.12781,-0.2758075450708119,-0.2222107793192235,-0.4470777977490172,8.11634,307.0714,0.6219329,0.06093994,-0.4448601,0.0363836,20.9999995306134,17
