pX,pY,pZ,aX,aY,aZ,reX,reY,reZ,rtX,rtY,rtZ,t,ID
-45.00041,0.23,-38.99972,4.2920326795643575,-0.0567419844862501,-0.3343865615745471,0.01568732,0.009941189,0.02319565,0.0001369153,8.672552e-05,0.0002024084,1.85999995842576,6
-45.00082,0.43,-38.99944,4.223917973594872,0.0686845329712391,-0.1272384076831016,0.03137651,0.009950877,0.04642731,0.0002738469,8.672683e-05,0.0004051308,1.87999995797873,6
-45.00122,0.63,-38.99916,4.1046923268775615,0.3789046925880628,0.0895149990497614,0.04724953,0.009967063,0.06980331,0.0004123828,8.672784e-05,0.0006091128,1.89999995753169,6
-45.00179,0.2833333,-38.99868,3.9977963870792976,-0.0030769146266738,0.3058984000153373,0.02374333,7.122068,0.03545517,0.0002260172,0.0621117,0.0002959378,1.91999995708466,6
-45.00235,0.4833333,-38.99818,3.8497446671170223,-0.1432550836591694,0.5234915417713637,0.04756194,7.12209,0.07091355,0.0004526919,0.06211169,0.0005918627,1.93999995663762,6
-45.00291,0.6833333,-38.99769,3.725642866745112,-0.4938392865420716,0.757733174563846,0.07144681,7.122128,0.1064423,0.0006799819,0.06211167,0.0008883645,1.95999995619059,6
-44.98341,0.2833334,-38.97092,3.5601663248947237,-0.6010170076159905,0.9873275115728716,0.9097102,13.08448,0.5466766,0.008430379,0.1138932,0.003834937,1.97999995574355,6
-44.98917,0.4833334,-38.9531,3.357755171754235,-0.4901220370007497,1.2105560976372018,1.819349,13.09751,1.093688,0.01686019,0.1138786,0.007670043,1.99999995529652,6
-44.99492,0.6833334,-38.9353,3.1740342581347107,-0.8257571481714968,1.4337665022634596,2.730898,13.11929,1.642252,0.02530755,0.113854,0.01151108,2.01999995484948,6
-44.93931,0.2833335,-38.91332,2.961617651433997,-0.9140131878587824,1.645027807946839,1.376916,19.22789,0.1219105,0.01202447,0.1669839,-0.0009578505,2.03999995440245,6
-44.9333,0.4833333,-38.88979,2.723234910819585,-0.780223947227844,1.8430680371009915,2.753916,19.23227,0.243641,0.0240475,0.1669474,-0.001918451,2.05999995395541,6
-44.84393,0.2833331,-38.95324,2.5552916086802,-1.088991987361174,1.877303597798317,357.1602,25.62367,356.7973,-0.03034789,0.22092,-0.02174858,2.07999995350838,6
-44.81045,0.483333,-39.04344,2.373472881189116,-1.146408608523432,1.822583471721778,353.5448,26.02848,352.9604,-0.06855621,0.2210441,-0.04706641,2.09999995306134,6
-44.6026,0.2833331,-39.36168,2.2676812699146254,-1.404683376660008,1.5540233510116437,2.180016,32.23455,358.9093,0.0156328,0.2777155,-0.01442288,2.11999995261431,6
-44.56545,0.4833331,-39.33986,2.1368353669670483,-1.410003644302627,1.2945396794588646,4.34383,31.96343,357.7758,0.0310864,0.275788,-0.02907761,2.13999995216727,6
-44.52853,0.6833333,-39.31773,1.9836170956235928,-1.187702976894879,1.044817070531458,6.51358,31.62615,356.6481,0.04668091,0.273542,-0.04356878,2.15999995172024,6
-44.39737,0.283333,-39.26007,1.810904794447751,-0.7620698752652554,0.8049460916610087,3.398418,37.54113,359.0927,0.02552782,0.3218501,-0.01703464,2.1799999512732,6
-44.34796,0.4833329,-39.2221,1.722365137656098,-1.0100994436673651,0.6416229046212223,6.791217,36.72055,358.1355,0.0510913,0.315311,-0.03406936,2.19999995082617,6
-44.29865,0.683333,-39.18403,1.6194644708581478,-0.9977869572794912,0.5080899820182765,10.17327,35.82878,357.1255,0.07665214,0.3084038,-0.05103542,2.21999995037913,6
-44.11058,0.2833333,-39.1164,1.610822982332465,-1.177342315010394,0.4348544091243553,2.575484,43.52036,359.6419,0.01971387,0.3706922,-0.01123266,2.2399999499321,6
-44.07472,0.4833333,-39.08784,1.5816262325150277,-1.0949525230994364,0.3847002719977155,5.145994,42.75281,359.2495,0.03941804,0.3643919,-0.02245555,2.25999994948506,6
-44.14258,0.6833336,-39.06776,1.535357434719984,-0.7759514804762887,0.3545719216736174,3.688778,42.9542,2.529954,0.03802156,0.3651893,0.008751657,2.27999994903803,6
-44.21203,0.2833335,-39.04903,1.576410189639084,-0.8849409894293658,0.3705891761806512,358.6463,48.31024,2.159715,-0.003065244,0.4093103,0.02202769,2.29999994859099,6
-44.23091,0.4833335,-39.02952,1.5966870318709496,-0.7280128555052585,0.4009896730992466,358.6563,48.94244,3.612681,0.002389324,0.4143382,0.03354261,2.31999994814396,6
-44.18401,0.2833334,-38.99033,1.600830291496976,-0.3305009750201133,0.4428317045417458,1.045717,53.08557,0.8733552,0.01156902,0.4467722,0.002740071,2.33999994769692,6
-44.18184,0.4833336,-38.96624,1.7767695757738622,-0.3570080014010589,0.5517540862665555,1.93942,53.47088,1.891659,0.0225375,0.4494963,0.007127748,2.35999994724989,6
-44.17843,0.6833337,-38.94223,1.9251672570523295,-0.1136249948167094,0.6612568714155316,2.900937,53.89033,2.85963,0.03386103,0.4522883,0.01076986,2.37999994680285,6
-44.17485,0.8833336,-38.91824,2.052717484690604,0.1342180273268387,0.7685679525968894,3.863935,54.33024,3.828603,0.04521979,0.4550403,0.01431983,2.39999994635582,6
-44.11542,0.2833333,-38.901,2.2758223899327774,-0.305783874449843,0.8987256876793381,1.291376,59.7801,0.5751441,0.01227106,0.4982502,-0.001264601,2.41999994590878,6
-44.10302,0.4833332,-38.88061,2.4803650226606138,-0.1122086426735318,1.0205143683184232,2.461042,59.89936,1.218053,0.02391161,0.4988982,-0.001512751,2.43999994546175,6
-44.03246,0.2833335,-38.84379,2.673628577719903,0.0792758831542179,1.131778653422991,1.265462,61.46967,0.6350421,0.01232381,0.510974,-0.0008805332,2.45999994501472,6
-44.01904,0.4833335,-38.82309,3.04186882011588,-0.4239152499318233,1.2846691187527952,2.465812,60.93302,1.297385,0.02428363,0.5066748,-0.00115287,2.47999994456768,6
-44.00459,0.6833335,-38.80228,3.3735835814920705,-0.2366125900580027,1.386175085435582,3.658936,60.40631,1.953886,0.03615986,0.5022675,-0.001330058,2.49999994412065,6
-43.94109,0.2833333,-38.77389,3.870959643673132,-0.4782766648606394,1.4562256746116873,1.484877,60.7108,0.4723814,0.01326422,0.5052694,-0.002991386,2.51999994367361,6
-43.91925,0.4833333,-38.75424,4.357922150010957,-0.723077004793423,1.474180650506305,3.068371,59.81754,0.8509687,0.02690852,0.4982556,-0.00691466,2.53999994322658,6
-43.89742,0.6833333,-38.73453,4.7710986136298885,-0.3050870885656793,1.4313534238246604,4.655442,58.93341,1.196316,0.04049058,0.4911159,-0.01089657,2.55999994277954,6
-43.78793,0.2833333,-38.85476,5.294896025192308,-0.5561600531942039,1.3571646278417475,358.325,60.51645,351.6186,-0.04941048,0.5015745,-0.05576826,2.57999994233251,6
-43.74971,0.4833331,-38.92058,5.700934449270278,-0.3301769276072473,1.312666433789083,358.4543,60.19199,347.5254,-0.06607675,0.4971687,-0.08726733,2.59999994188547,6
-43.6286,0.2833332,-39.11203,6.05455935060953,-0.106284577314443,1.3377936602965337,0.9146608,60.28608,357.115,-0.005740472,0.5021592,-0.02577566,2.61999994143844,6
-43.5938,0.4833331,-39.11796,6.343142052195226,-0.0968760780366461,1.7792833969749182,2.463257,58.99381,355.8106,0.0007029697,0.4926177,-0.04238239,2.6399999409914,6
-43.55903,0.6833332,-39.12341,6.539033325976142,-0.0618549260635218,2.205308317828596,3.994573,57.67022,354.4972,0.00735846,0.4829075,-0.05881495,2.65999994054437,6
-43.52428,0.8833332,-39.12885,6.6481213791944285,-0.054537212621104,2.614697048647457,5.494395,56.3101,353.1461,0.01400905,0.4730001,-0.07521768,2.67999994009733,6
-43.39528,0.2833333,-39.07184,6.676373060128121,-0.048264614844692,2.99089964579656,2.802971,58.3294,359.6766,0.01998235,0.4872343,-0.01438262,2.6999999396503,6
-43.35036,0.4833332,-39.05117,6.588033677931016,-0.016379342419322,3.321387826555167,5.59973,57.0553,359.2929,0.0399725,0.4772684,-0.02874305,2.71999993920326,6
-43.20613,0.2833331,-38.99908,6.387409158166584,-0.012197352671318,3.603139569342197,2.940848,57.5601,359.7638,0.02149914,0.4813353,-0.01416025,2.73999993875623,6
-43.16026,0.4833331,-38.97536,6.096762205626412,-0.0090608285406214,3.853469788512584,5.875144,56.29341,359.4625,0.04297717,0.4713177,-0.02830529,2.75999993830919,6
-43.11441,0.683333,-38.95166,5.678688052888568,0.0196879664490737,4.049966799508667,8.802937,55.00422,359.0953,0.06443498,0.4609425,-0.04242001,2.77999993786216,6
-42.97425,0.2833336,-38.90076,5.263835760737813,0.0207330728806157,4.201227085916379,3.071246,56.39872,359.8482,0.02299192,0.4724021,-0.01383046,2.79999993741512,6
-42.9278,0.4833336,-38.87375,4.976842318948833,0.0207330111142546,4.329916401991163,6.137709,55.14129,359.6288,0.04595917,0.4623295,-0.02764582,2.81999993696809,6
-42.88135,0.6833335,-38.84674,4.664071230832903,0.04634552886446,4.410178826264136,9.197965,53.86416,359.34,0.06888355,0.4518799,-0.04143468,2.83999993652105,6
-42.66338,0.2833333,-38.76497,4.262199074132703,0.5244470765081977,4.418371850934122,3.139837,54.1681,359.7827,0.02352939,0.4551716,-0.01416134,2.85999993607402,6
-42.61642,0.4833331,-38.73645,4.003333432084936,0.3366221627981561,4.419372283037198,6.273363,52.90846,359.4961,0.04703213,0.4450265,-0.02830666,2.87999993562698,6
-42.56946,0.6833327,-38.70794,3.706734301866789,0.1487971351383218,4.356264511626733,9.398916,51.62471,359.1378,0.07048729,0.4345041,-0.04242368,2.89999993517995,6
-42.41951,0.2833332,-38.6538,3.5362948024093512,-0.5202657081702704,4.2783995804583554,3.282446,53.62066,359.7692,0.02465395,0.450904,-0.01471496,2.91999993473291,6
-42.37065,0.4833332,-38.62358,3.270896422447855,-0.2864415001997062,4.137801997448328,6.558155,52.3622,359.4659,0.04927754,0.440722,-0.02941224,2.93999993428588,6
-42.32181,0.6833333,-38.59336,2.9747381594326825,-0.0557535733018046,3.9317799601865815,9.825448,51.07704,359.0875,0.07384802,0.4301358,-0.04407779,2.95999993383884,6
-42.10554,0.2833332,-38.51243,2.5931172498207573,0.5997193649301,3.640919682838821,3.533055,55.68266,359.7874,0.02639258,0.4668524,-0.01603619,2.97999993339181,6
-42.05214,0.4833332,-38.4813,2.360315888347259,0.3491688958019517,3.3211845115569787,7.059679,54.42704,359.497,0.05274931,0.4566762,-0.03205139,2.99999993294477,6
-41.84295,0.2833334,-38.43673,2.10894226197356,0.0986187235705012,2.930659567181628,3.570849,57.45564,359.4147,0.02486744,0.4805493,-0.01945183,3.01999993249774,6
-41.78874,0.4833334,-38.40626,1.934612117724349,0.08711935465022,2.4986361308113203,7.126173,56.20703,359.176,0.05143793,0.4705375,-0.03560565,3.0399999320507,6
-41.73454,0.6833333,-38.37579,1.7391536527707814,0.1012326220471638,1.9928402420638636,10.6742,54.93241,358.8561,0.07794293,0.4600267,-0.05171715,3.05999993160367,6
-41.56532,0.2833332,-38.31209,1.537698013911367,0.0876425566741342,1.4145860260088696,3.589698,58.18379,359.9114,0.02699364,0.4859942,-0.01590406,3.07999993115664,6
-41.51094,0.4833332,-38.28096,1.2402839684671747,0.7133213052127443,0.9332926523458482,7.175878,56.94551,359.7452,0.05395281,0.4759276,-0.03178537,3.0999999307096,6
-41.45657,0.6833331,-38.24983,1.0873161862889589,0.4340225236391531,0.5371411409430138,10.7566,55.68563,359.4987,0.08084524,0.4653494,-0.04762765,3.11999993026257,6
-41.22334,0.2833328,-38.16158,0.8217921566481223,0.6359607828034884,0.3539136874071857,3.57603,59.66531,0.03926958,0.02723729,0.4972169,-0.01522472,3.13999992981553,6
-41.1695,0.4833328,-38.13004,0.6791056161393385,0.413113882098357,0.2260366817427268,7.150899,58.44286,0.002484812,0.05443712,0.4872347,-0.0304258,3.1599999293685,6
-41.11567,0.6833329,-38.09851,0.5276224045673885,0.1913118770002332,0.1229575284559416,10.72312,57.20724,359.8878,0.08156957,0.4767329,-0.04559002,3.17999992892146,6
-40.95562,0.2833328,-38.04179,0.3820454422872785,-0.0838062293424524,0.0526828990104562,3.576944,60.12496,0.04173543,0.02719367,0.5006902,-0.01531923,3.19999992847443,6
-40.90152,0.4833327,-38.01064,0.1440123045038248,0.4937824654097645,-0.0515467986740603,7.152938,58.90636,0.00717073,0.05434912,0.4907512,-0.03061893,3.21999992802739,6
-40.84745,0.6833328,-37.97951,0.0598452879149178,0.1663948313140324,-0.1168585750538113,10.7263,57.67478,359.8949,0.08143693,0.4802888,-0.04588159,3.23999992758036,6
-40.62042,0.283333,-37.89616,-0.1378290909803112,0.3202448913380422,-0.210397987916167,3.649853,61.23703,0.08008741,0.02776138,0.5090419,-0.01561843,3.25999992713332,6
-40.56491,0.4833327,-37.86488,-0.2113455309381251,0.0493096332870685,-0.2680954355454474,7.29955,60.02557,0.08300062,0.05548347,0.4991387,-0.03121513,3.27999992668629,6
-40.50943,0.6833327,-37.8336,-0.2819954890346494,-0.2205795785079578,-0.3189398662060156,10.9474,58.80307,0.007447678,0.08313456,0.4886831,-0.04677259,3.29999992623925,6
-40.35829,0.2833328,-37.78223,-0.4490615346110616,0.1765026876641173,-0.3910429715990986,3.625083,61.70088,0.07596809,0.02749402,0.5125242,-0.01565073,3.31999992579222,6
-40.3029,0.4833328,-37.75166,-0.4116661149047544,-0.0912975029491409,-0.4003225266722836,7.249834,60.49274,0.07550006,0.05494883,0.5026754,-0.03127939,3.33999992534518,6
-40.24753,0.683333,-37.72111,-0.3671823475227498,-0.358052311665084,-0.4038196439517136,10.87268,59.27354,-0.002672474,0.08233417,0.4922775,-0.04686895,3.35999992489815,6
-40.03149,0.2833335,-37.64426,-0.5070814479465966,0.0421651531437745,-0.4630714520769672,3.574801,63.96058,0.1766927,0.02727334,0.5293283,-0.01521229,3.37999992445111,6
-39.97649,0.4833336,-37.6147,-0.5191454375483815,-0.2224982471074731,-0.4897850025190351,7.151459,62.76568,0.2789688,0.05450889,0.519609,-0.03040388,3.39999992400408,6
-39.78101,0.2833333,-37.53873,-0.5161580190686337,-0.4861157382258407,-0.509315830815595,3.53237,65.05744,0.2364692,0.02709479,0.5374121,-0.014834,3.41999992355704,6
-39.72656,0.4833335,-37.50958,-0.6081302041690861,-0.0827615977017008,-0.5488483317694772,7.067814,63.87051,0.3999926,0.05415245,0.527769,-0.02964788,3.43999992311001,6
-39.67213,0.6833334,-37.48043,-0.4937941359247872,-0.3442880420675498,-0.5305159364019758,10.60486,62.6836,0.4906059,0.08114457,0.5175738,-0.04442644,3.45999992266297,6
-39.61689,0.8833335,-37.45166,-0.3597817791678537,-0.6047692810362902,-0.5063259294848308,14.17081,61.57209,0.4806947,0.1080967,0.507476,-0.05955726,3.47999992221594,6
-39.41231,0.283333,-37.38721,-0.3935964835692331,-0.1982782309732993,-0.5337136131505531,3.479035,65.2714,0.2536095,0.02675592,0.5389892,-0.01450775,3.4999999217689,6
-39.35876,0.4833333,-37.35831,-0.3110884469729527,-0.4566688250628987,-0.5369624888983822,6.960837,64.17738,0.4413235,0.05347471,0.5300496,-0.02899257,3.51999992132187,6
-39.1747,0.2833333,-37.2943,-0.3968631835730107,-0.2338220228877448,-0.5512606784207819,3.422119,65.38052,0.2434973,0.02627666,0.5398018,-0.01433929,3.53999992087483,6
-39.12192,0.4833334,-37.26607,-0.473944195948988,-0.0088849418143842,-0.5584301412713302,6.846839,64.28761,0.4217947,0.05251564,0.5309069,-0.02865953,3.5599999204278,6
-39.06915,0.6833335,-37.23785,-0.3646480101307929,-0.4744418145199309,-0.509828752965511,10.27335,63.19676,0.5353989,0.0786954,0.5214956,-0.0429472,3.57999991998076,6
-39.0164,0.8833336,-37.20964,-0.3813865546051858,-0.2453230552310159,-0.4922873067791187,13.70039,62.10005,0.5832781,0.1047893,0.5115775,-0.05718942,3.59999991953373,6
-38.82166,0.2833333,-37.15085,-0.2441312983663337,-0.4409896168919665,-0.4235803319718059,3.379142,63.94362,0.144607,0.02567968,0.5292397,-0.01454194,3.61999991908669,6
-38.76954,0.483333,-37.12319,-0.1051387434342103,-0.6356103491326154,-0.3506129766697512,6.75916,62.84624,0.2245083,0.05132449,0.5203478,-0.02906511,3.63999991863966,6
-38.5961,0.283333,-37.06469,-0.1664775053541873,-0.1632587147197729,-0.3388394196416016,3.334071,63.28034,0.08062728,0.02513597,0.5243434,-0.01466195,3.65999991819263,6
-38.54451,0.4833326,-37.03777,-0.2249022627753021,0.2845256678866844,-0.3249889360519944,6.667782,62.17956,0.09705181,0.05023776,0.5154642,-0.02930581,3.67999991774559,6
-38.49294,0.6833324,-37.01087,-0.1109138285047848,-0.197234467023598,-0.2659005256516238,10.0002,61.07141,0.04860961,0.07528451,0.5061099,-0.04391856,3.69999991729856,6
-38.44138,0.8833324,-36.98397,-0.1153662422713992,0.0167263744973376,-0.2339316771542954,13.33007,59.94811,359.9335,0.1002531,0.4962896,-0.05848623,3.71999991685152,6
-38.2553,0.2833332,-36.92941,-0.1133665367288827,0.2338240296406753,-0.1990245793369638,3.288021,61.62846,359.95,0.02441599,0.512056,-0.01507097,3.73999991640449,6
-38.20415,0.4833333,-36.90342,0.0821073131884091,-0.2385269290011336,-0.108655618980741,6.573458,60.52087,359.8363,0.04880195,0.5031726,-0.03012383,3.75999991595745,6
-38.04104,0.2833333,-36.84982,0.0795822451058185,-0.0151573906197414,-0.0786573526205103,3.2434,60.74693,359.9009,0.02397876,0.5054526,-0.01505553,3.77999991551042,6
-37.99058,0.4833338,-36.82416,0.0736801513221081,0.2113483085249408,-0.050741257299876,6.483262,59.63757,359.7388,0.04792843,0.4965734,-0.03009294,3.79999991506338,6
-37.94013,0.6833339,-36.7985,0.1711743449356433,-0.2515946085548136,-0.0023845822641632,9.718451,58.51107,359.5119,0.0718283,0.4872594,-0.0450999,3.81999991461635,6
-37.71401,0.283333,-36.72166,0.1617990912056868,-0.0188165678465112,0.0221169745268383,3.201344,58.0613,359.78,0.02349242,0.4851341,-0.0152335,3.83999991416931,6
-37.66433,0.4833329,-36.69584,0.1593799580952861,0.2170973853399918,0.0477929023726133,6.396878,56.94533,359.4973,0.04695722,0.4762074,-0.03044906,3.85999991372228,6
-37.61467,0.6833328,-36.67002,0.3391585749119983,-0.2364368092667372,0.1240261126378285,9.585315,55.80574,359.1496,0.07037393,0.466873,-0.04563377,3.87999991327524,6
-37.45612,0.283333,-36.61819,0.3360122888214008,0.0057497538926369,0.1454160561333708,3.429855,57.89667,359.7571,0.02516215,0.4838584,-0.01633873,3.89999991282821,6
-37.40286,0.483333,-36.59047,0.4788289829880767,-0.1758039330102828,0.2127011762772781,6.853414,56.77979,359.447,0.05029214,0.4748671,-0.0326569,3.91999991238117,6
-37.34962,0.683333,-36.56274,0.4472020883985195,0.1249256208431932,0.2203589418507121,10.26929,55.63512,359.0665,0.07536532,0.4654145,-0.04893868,3.93999991193414,6
-37.12725,0.2833337,-36.48897,0.4035711236758175,0.428790761355134,0.2213372896484671,3.553067,59.83517,359.7981,0.02599183,0.4985606,-0.01698852,3.9599999114871,6
-37.07159,0.4833337,-36.4614,0.3598859456859529,0.6835217526486066,0.2185988531999427,7.100778,58.72412,359.5268,0.0519497,0.4896044,-0.03395617,3.97999991104007,6
-37.01595,0.6833338,-36.43383,0.4811984677919056,-0.0169034617041957,0.2603449246326974,10.64234,57.58625,359.1825,0.07784951,0.4801404,-0.05089096,3.99999991059303,6
-36.86823,0.2833336,-36.38796,0.4260515875593853,0.1918308636660116,0.2571327515196344,3.568719,60.80044,359.8377,0.02614051,0.5058293,-0.01697778,4.019999910146,6
-36.81222,0.4833338,-36.36058,0.5034676367076258,-0.0231752823047158,0.2926708506490385,7.132797,59.69625,359.6062,0.05224613,0.4969213,-0.03393447,4.03999990969896,6
-36.75623,0.6833334,-36.33321,0.4163238386949146,0.2441014476325462,0.2792511808943985,10.6908,58.5677,359.3027,0.07828953,0.4874949,-0.05085104,4.05999990925193,6
-36.54464,0.2833333,-36.26319,0.3170885480620029,0.514514588186304,0.2581842955044138,3.59473,62.52187,359.9882,0.02675739,0.5186839,-0.01636468,4.07999990880489,6
-36.48863,0.4833333,-36.23495,0.2181432108558816,0.7357932220781789,0.2325938822709901,7.187783,61.43502,359.9083,0.05348149,0.5098441,-0.0327057,4.09999990835786,6
-36.29614,0.2833333,-36.16499,0.2792100091280893,0.0019138035182952,0.247158555745564,3.549239,63.04233,0.04561968,0.02660661,0.5225522,-0.01585128,4.11999990791082,6
-36.24104,0.4833336,-36.13672,0.1761698845149801,0.1771937548892645,0.2219466683780808,7.097303,61.96318,0.02455613,0.05317561,0.5137643,-0.03167841,4.13999990746379,6
-36.18596,0.6833335,-36.10846,0.202036042299035,-0.0712654722558799,0.2331513389255022,10.64338,60.87333,359.9354,0.07968178,0.504447,-0.04746822,4.15999990701675,6
-36.13089,0.8833334,-36.08021,0.0795117582746804,0.1625579096658334,0.2018033686779361,14.1861,59.76392,359.7756,0.1060964,0.4946106,-0.06320492,4.17999990656972,6
-35.92808,0.2833335,-36.0141,-0.0486543470644242,0.3995181817862964,0.1650078754443527,3.623551,63.49908,0.06007209,0.02716073,0.5259298,-0.01619109,4.19999990612268,6
-35.87168,0.4833334,-35.98547,0.0247881910537408,-0.0529692594311245,0.193362930093194,7.246584,62.42544,0.0522577,0.05428438,0.5171563,-0.03236011,4.21999990567565,6
-35.8153,0.6833338,-35.95685,0.0940308518335832,-0.5300234445594634,0.2146434452020216,10.86841,61.34148,359.9752,0.081345,0.5078287,-0.04849349,4.23999990522861,6
-35.59482,0.2833338,-35.88163,0.0113393020641261,-0.1266677776482829,0.1994333263212837,3.638059,64.07215,0.07688583,0.02726448,0.5301676,-0.01626953,4.25999990478158,6
-35.53804,0.4833336,-35.8532,0.0526192160616645,-0.3881947430643511,0.2199265337638394,7.275955,63.00333,0.08593748,0.05449184,0.5214297,-0.03251702,4.27999990433455,6
-35.48128,0.6833332,-35.82477,-0.0378415313723721,-0.1684843154390183,0.2051425679279219,10.91234,61.92525,0.0260914,0.08165164,0.5121292,-0.04872446,4.29999990388751,6
-35.33538,0.283333,-35.77777,-0.1265056181973705,0.053316358589668,0.1886526308790053,3.596653,64.99669,0.1140899,0.02700207,0.536984,-0.01602123,4.31999990344048,6
-35.27909,0.483333,-35.74997,-0.0113040281273519,-0.4153772502036356,0.2399920461806886,7.193711,63.93468,0.1615723,0.05396684,0.5283173,-0.0320207,4.33999990299344,6
-35.22282,0.6833326,-35.72218,-0.1003107309537014,-0.1893939467225892,0.2288881183977338,10.79001,62.86618,0.1417412,0.080866,0.5190927,-0.0479817,4.35999990254641,6
-35.0133,0.283333,-35.65079,-0.1919237302897336,0.0386805572734954,0.2134805998023665,3.542913,66.67062,0.20848,0.02682597,0.5492273,-0.01546847,4.37999990209937,6
-34.95773,0.4833333,-35.62349,-0.272797850620158,0.2165759196564769,0.1974758553791815,7.087914,65.62068,0.3522192,0.05361506,0.5406615,-0.03091613,4.39999990165234,6
-34.76606,0.2833331,-35.55188,-0.3029593927406822,0.1585556874707134,0.1998465075587532,3.503295,66.76925,0.2413852,0.02668203,0.5499446,-0.01506172,4.4199999012053,6
-34.71131,0.4833331,-35.52441,-0.3292996269476518,0.1313749577042045,0.1989708975180377,7.009347,65.7244,0.4191561,0.05332857,0.5414142,-0.0301034,4.43999990075827,6
-34.65657,0.6833327,-35.49694,-0.2107840668774301,-0.345157360389948,0.2349002329676963,10.51651,64.6818,0.5338047,0.07990975,0.532338,-0.04510636,4.45999990031123,6
-34.60185,0.8833327,-35.46948,-0.2809277586068113,-0.1259698510465839,0.2137419263938937,14.02408,63.63351,0.5842151,0.1064007,0.5227255,-0.06005942,4.4799998998642,6
-34.40276,0.2833336,-35.40006,-0.3500350473858553,0.0963539708188845,0.1883174460066854,3.442817,65.97491,0.2497437,0.02638302,0.5441535,-0.014528,4.49999989941716,6
-34.34941,0.4833336,-35.3721,-0.2089753579078497,-0.3707704363024606,0.2224259021611914,6.888212,64.93497,0.4377328,0.05273142,0.5356538,-0.02903212,4.51999989897013,6
-34.16897,0.2833334,-35.30402,-0.1770478031414128,-0.1421733270378506,0.2306446090924794,3.397625,64.96777,0.1802141,0.02585148,0.5367863,-0.01459545,4.53999989852309,6
-34.11633,0.4833334,-35.27658,-0.1442163338339526,0.0895595345828516,0.2364166276240666,6.796636,63.92353,0.2985454,0.05166728,0.5282896,-0.02917194,4.55999989807606,6
-34.06371,0.6833337,-35.24914,0.0234938242496625,-0.3681565099481739,0.2757455522273204,10.19621,62.87816,0.3550136,0.07742524,0.5192909,-0.04371631,4.57999989762902,6
-34.01111,0.8833337,-35.22171,0.0141539315436034,-0.1301514752492395,0.2654968663958783,13.59531,61.82415,0.3484534,0.1031013,0.5097997,-0.05821504,4.59999989718199,6
-33.82048,0.283333,-35.15535,0.0058599027564625,0.1109894856053519,0.2537372568917533,3.35237,62.85717,0.08953758,0.02536666,0.5211926,-0.01458594,4.61999989673495,6
-33.76889,0.483333,-35.12774,0.0418228133197473,0.1428741885431305,0.2479781753200427,6.704455,61.80914,0.1180645,0.05070036,0.5126789,-0.02915029,4.63999989628792,6
-33.59715,0.2833333,-35.06287,0.0628871810116145,0.2055981907419787,0.2345232490824322,3.308295,61.75025,0.01156165,0.02482736,0.5129523,-0.01472673,4.65999989584088,6
-33.54615,0.483333,-35.03584,0.0813257378567122,0.2458456533554725,0.2170492144757894,6.615315,60.69756,359.9623,0.04962489,0.5044371,-0.02943593,4.67999989539385,6
-33.49516,0.6833331,-35.00882,0.2237362463271424,-0.4300130841889006,0.2215312743534596,9.91953,59.63415,359.8509,0.07436617,0.4954679,-0.04411358,4.69999989494681,6
-33.26191,0.2833335,-34.91887,0.1983008239722465,-0.1977582914154756,0.1811181453862786,3.262655,59.77524,359.8954,0.02422751,0.4981208,-0.01497653,4.71999989449978,6
-33.21157,0.4833338,-34.89225,0.1730004599950376,0.0365874688334738,0.1393701747902227,6.521822,58.71588,359.7303,0.04842569,0.4895855,-0.02993526,4.73999989405274,6
-33.16123,0.6833343,-34.86564,0.3436020329898994,-0.4195609057268028,0.1428901691450939,9.776114,57.63939,359.503,0.07257123,0.480621,-0.04486166,4.75999989360571,6
-32.99956,0.2833333,-34.80349,0.318936843256516,-0.1810337795788091,0.0895157395473589,3.217939,57.18444,359.8244,0.02392071,0.4784212,-0.01478263,4.77999989315867,6
-32.95047,0.4833332,-34.77607,0.2854227816086094,0.05958425079735,0.0329157555767949,6.431159,56.12248,359.5888,0.04781333,0.469849,-0.02954836,4.79999989271164,6
-32.9014,0.6833332,-34.74866,0.3564235099114867,-0.3902908369736126,-0.0093391173447052,9.638484,55.03976,359.2912,0.07165728,0.4608749,-0.04428376,4.8199998922646,6
-32.67549,0.283333,-34.65963,0.3224915104063193,-0.1454901368967719,-0.0727509378058606,3.27919,55.7206,359.7641,0.02433434,0.4671771,-0.01519015,4.83999989181757,6
-32.62562,0.4833333,-34.63125,0.2911141379769049,0.1014013062407181,-0.1328752807215139,6.552458,54.65609,359.4669,0.04863894,0.4585654,-0.03036204,4.85999989137053,6
-32.57577,0.6833335,-34.60288,0.4458983390302755,-0.3422005257547846,-0.1553738389256267,9.818674,53.56667,359.1058,0.07289252,0.4495471,-0.04550263,4.8799998909235,6
-32.52593,0.8833339,-34.57452,0.4244069122707863,-0.0911269905061397,-0.2256493918173738,13.07702,52.4446,358.6772,0.09707803,0.4401309,-0.06059901,4.89999989047647,6
-32.32864,0.283333,-34.50262,0.4029041689383206,0.1620369083189956,-0.2925978373785511,3.531844,57.31324,359.7824,0.02613146,0.479382,-0.01644347,4.91999989002943,6
-32.2744,0.4833328,-34.47301,0.4195125946016773,0.2048993088960635,-0.3657119335249561,7.058145,56.25215,359.4991,0.05222878,0.4707522,-0.03286541,4.9399998895824,6
-32.09972,0.2833335,-34.40907,0.4171039330238315,0.2775559182451738,-0.4382209545499052,3.558631,59.3055,359.8304,0.02625171,0.494543,-0.01664728,4.95999988913536,6
-32.04455,0.4833332,-34.38042,0.4078155442285514,0.3266912623683118,-0.5059157363814109,7.112832,58.25068,359.5943,0.05246779,0.4859732,-0.03327838,4.97999988868833,6
-31.98939,0.6833333,-34.35178,0.5148065467252998,-0.341325431972712,-0.5488208200405147,10.66098,57.17175,359.2896,0.07862104,0.4769028,-0.04986975,4.99999988824129,6
-31.74934,0.2833337,-34.26667,0.4524799063447702,-0.1022751355116005,-0.631634743868311,3.594735,61.12271,359.9554,0.02681003,0.508221,-0.01628271,5.01999988779426,6
-31.69377,0.4833341,-34.23756,0.3888835534348658,0.1378207766704018,-0.7060483467549403,7.187322,60.08261,359.8455,0.0535861,0.4997125,-0.03254425,5.03999988734722,6
-31.63821,0.683334,-34.20845,0.3643636671059198,0.1665692267616152,-0.7811247662924679,10.77636,59.02618,359.6682,0.08029802,0.4906802,-0.04876702,5.05999988690019,6
-31.46854,0.2833333,-34.1491,0.3237823053885442,0.2240664105988656,-0.8497420187086959,3.563559,61.84228,0.04542802,0.02687744,0.5135988,-0.0156374,5.07999988645315,6
-31.41384,0.4833333,-34.11954,0.2803055561981473,0.256996021949939,-0.9077881370107796,7.126125,60.81391,0.02723595,0.05371897,0.5051473,-0.03125044,5.09999988600612,6
-31.35914,0.683333,-34.09,0.4480091194812878,-0.4282710009985809,-0.9080289125663334,10.68681,59.77534,359.9439,0.08049681,0.4961752,-0.0468268,5.11999988555908,6
-31.12172,0.2833331,-34.00978,0.4490169827135695,-0.2075141402281453,-0.9420592416792282,3.593803,63.52811,0.07944278,0.02702496,0.526145,-0.01591772,5.13999988511205,6
-31.06593,0.4833331,-33.98109,0.4451265295801221,0.0132426070280882,-0.964651224771398,7.187373,62.50594,0.09475876,0.05401281,0.5177529,-0.03181422,5.15999988466501,6
-31.01016,0.6833328,-33.95241,0.4272934485973287,0.0216061404821096,-0.9954540742130183,10.77995,61.47551,0.04447589,0.08093538,0.5088181,-0.0476785,5.17999988421798,6
-30.84728,0.2833329,-33.90285,0.4010956777618908,0.0576734189464711,-1.0146450568470726,3.650658,64.19767,0.08559333,0.02738009,0.5310915,-0.01629344,5.19999988377094,6
-30.79031,0.4833329,-33.87429,0.3801832169864596,0.0681282609413244,-1.0183949806192023,7.301159,63.1791,0.1063123,0.05472181,0.5227171,-0.0325644,5.21999988332391,6
-30.73335,0.6833329,-33.84573,0.350646647641728,0.0796278196908033,-1.0381313541235926,10.9504,62.15241,0.06122429,0.08199563,0.5137789,-0.04879552,5.23999988287687,6
-30.50398,0.2833331,-33.77685,0.3062052019777823,0.1188305925561187,-1.0481768643451446,3.619767,66.0336,0.1211059,0.02705839,0.5445848,-0.01632345,5.25999988242984,6
-30.44688,0.4833331,-33.74978,0.2604543268815931,0.1324197813521019,-1.044965423019736,7.24002,65.02153,0.1783218,0.05407921,0.5363022,-0.03262489,5.2799998819828,6
-30.38979,0.683333,-33.72272,0.0934055828557198,0.7873695267945542,-1.0674916062072022,10.85965,64.00392,0.1710516,0.08103354,0.52745,-0.04888692,5.29999988153577,6
-30.23749,0.2833333,-33.6827,0.0902220452896855,0.5394332821370363,-1.0495929779604616,3.565494,68.08093,0.1850338,0.0266823,0.5594651,-0.01607718,5.31999988108873,6
-30.18075,0.4833333,-33.657,0.0944133154116286,0.2946332485096494,-1.017190440748255,7.132636,67.07796,0.3078203,0.0533286,0.551293,-0.03213307,5.3399998806417,6
-30.12403,0.6833332,-33.6313,-0.0923223803180519,0.7188963089152377,-1.0409717616945926,10.70034,66.07393,0.3683142,0.07991114,0.5425509,-0.0481509,5.35999988019466,6
-29.90642,0.2833333,-33.57713,-0.093525857354809,0.4803684090760545,-1.019317311815925,3.509797,70.10879,0.2585287,0.02636412,0.5740265,-0.01574297,5.37999987974763,6
-29.84787,0.4833335,-33.55421,-0.0879997456038523,0.2449762837208283,-0.9872615635369896,7.103768,69.28432,0.3600718,0.05275185,0.5671944,-0.03263641,5.39999987930059,6
-29.78915,0.6833334,-33.53149,-0.0624085134652325,-0.0416418899637421,-0.9419618965003452,10.70576,68.46272,0.3854567,0.07901278,0.5598202,-0.0497095,5.41999987885356,6
-29.55265,0.2833335,-33.47182,0.0100077534768985,-0.1137749915062463,-0.8912155340947763,3.506253,71.07575,0.2103499,0.02596094,0.5809223,-0.01628888,5.43999987840652,6
-29.49576,0.4833335,-33.44925,0.0821723725901648,-0.1582047427681468,-0.8335437861503117,7.021736,70.2232,0.3331345,0.05176336,0.5739433,-0.03284841,5.45999987795949,6
-29.43911,0.6833335,-33.42665,0.0227274247996334,0.2519442836929504,-0.8073056973008903,10.5257,69.33178,0.3932512,0.07738548,0.5661299,-0.04936127,5.47999987751245,6
-29.27872,0.2833333,-33.38923,0.0784518422879152,-0.0017418170463325,-0.750957265330122,3.468743,70.71912,0.1346799,0.02536274,0.5784112,-0.01655695,5.49999987706542,6
-29.22275,0.4833331,-33.36732,0.1421976628222019,-0.2533372168027556,-0.6843996292133383,6.924788,69.83541,0.1975017,0.05050575,0.5712683,-0.03315842,5.51999987661839,6
-29.16677,0.6833333,-33.34533,0.004986949799683,0.1630844590083572,-0.6729013288772379,10.38536,68.96119,0.2035831,0.07560673,0.5636703,-0.04977899,5.53999987617135,6
-28.94175,0.2833329,-33.29039,0.0529627555065488,-0.0843305545732747,-0.616304263345576,3.394951,69.63034,0.05743256,0.02460579,0.5706682,-0.01650093,5.55999987572432,6
-28.88712,0.4833328,-33.26899,0.0992728121851378,-0.3296549411348709,-0.5552148319272625,6.773207,68.68179,0.05092336,0.04902655,0.5631087,-0.03295769,5.57999987527728,6
-28.83239,0.6833327,-33.24747,0.0196392374198524,0.0930390153446766,-0.5241203651128608,10.16234,67.76041,359.9845,0.0734536,0.5552776,-0.04948433,5.59999987483025,6
-28.5893,0.2833333,-33.18539,0.1453649616718699,-0.1481025034979837,-0.4495312464466678,3.359022,68.11098,359.951,0.02404286,0.5597653,-0.0167669,5.61999987438321,6
-28.53465,0.4833336,-33.16414,0.2701160580464474,-0.3871528696531583,-0.3753636723052054,6.737633,67.30829,359.8531,0.04820526,0.553283,-0.03363007,5.63999987393618,6
-28.48005,0.6833335,-33.14291,0.1878525517731546,0.0418141195808565,-0.3604161432209629,10.10968,66.48507,359.7078,0.07229808,0.5462384,-0.05042441,5.65999987348914,6
-28.31141,0.2833333,-33.1018,0.1046814720204309,0.4472594829221337,-0.3475529805393478,3.361584,67.12083,359.8875,0.02389895,0.5526019,-0.0170329,5.67999987304211,6
-28.25674,0.4833333,-33.08105,0.185379196683499,-0.0757939140534985,-0.3071397993017619,6.707582,66.47354,359.7455,0.04771588,0.5472687,-0.0339189,5.69999987259507,6
-28.202,0.6833335,-33.06033,0.1434694923083306,0.0979191953121647,-0.2939407809426271,10.05793,65.82422,359.5554,0.07148983,0.5415417,-0.05087426,5.71999987214804,6
-27.96799,0.2833333,-33.00185,0.2373669148476054,-0.1510623794077122,-0.2543332281973534,3.336925,65.7532,359.8015,0.02351316,0.5426428,-0.01725889,5.739999871701,6
-27.91319,0.4833335,-32.9814,0.3284615994557889,-0.3969076863839151,-0.2182067718091431,6.676746,65.37614,359.585,0.04705702,0.5393225,-0.03449211,5.75999987125397,6
-27.85847,0.6833332,-32.9611,0.2229058590173629,0.0263099978741168,-0.2321687484721657,10.0103,64.95338,359.3314,0.0704786,0.5353292,-0.05174965,5.77999987080693,6
-27.8038,0.8833331,-32.94083,0.1167598273100516,0.4270514402275511,-0.2495803197771096,13.33845,64.49763,359.0401,0.09377907,0.5307904,-0.06900448,5.7999998703599,6
-27.60699,0.2833335,-32.89646,0.1679518919442912,-0.0996610524328004,-0.2318926206045226,3.305972,65.2308,359.7417,0.02308278,0.5388263,-0.01744568,5.81999986991286,6
-27.5523,0.4833335,-32.87663,0.1115627499303961,0.0714379055538798,-0.2336710649285862,6.62221,64.78464,359.4548,0.04622551,0.5350453,-0.03495163,5.83999986946583,6
-27.49774,0.6833334,-32.85699,0.0622978480334168,0.2477639081465008,-0.2372634017181454,9.929671,64.27166,359.113,0.06918073,0.5304838,-0.0525639,5.85999986901879,6
-27.27878,0.2833333,-32.80561,0.198816446764674,-0.2632676508050967,-0.1940656726991747,3.52596,67.41852,359.7486,0.02437517,0.5547709,-0.01889808,5.87999986857176,6
-27.22,0.4833331,-32.78605,0.1542454746892509,-0.0764875451489011,-0.1851990897814772,7.0678,66.84869,359.4616,0.04886112,0.5500237,-0.03786654,5.89999986812472,6
-27.1614,0.6833327,-32.76675,0.1107514675072138,0.1155195789779657,-0.1750583164910537,10.59407,66.18743,359.1049,0.07309393,0.5442659,-0.05692148,5.91999986767769,6
-26.92459,0.2833332,-32.70868,0.2650839552192217,-0.3798314448277909,-0.1112048709038333,3.581887,69.26199,359.8247,0.02484692,0.56805,-0.01901844,5.93999986723065,6
-26.86506,0.4833329,-32.68935,0.2075730873016752,-0.177371326382733,-0.091443120049675,7.175788,68.7307,359.614,0.04975888,0.5635324,-0.03809886,5.95999986678362,6
-26.80542,0.6833329,-32.66997,0.1428717263507728,0.0303161232850921,-0.0741174640979664,10.76961,68.19976,359.3663,0.07462078,0.5585843,-0.05717106,5.97999986633658,6
-26.64564,0.2833333,-32.63073,0.1885505465000321,-0.4493534259860009,-0.0324589022697097,3.62332,70.3625,359.9445,0.0255604,0.5758893,-0.01861062,5.99999986588955,6
-26.58587,0.4833333,-32.61024,0.1143663851721399,-0.2312110030371399,-0.0101209540279292,7.256798,69.88689,359.8621,0.05118813,0.5716814,-0.03723206,6.01999986544251,6
-26.52605,0.6833333,-32.58978,0.0447487964820645,-0.0078415208465824,0.0109781038825076,10.88695,69.40224,359.7444,0.07672641,0.5669007,-0.05583066,6.03999986499548,6
-26.30005,0.2833331,-32.53349,0.1680356032221297,-0.4718294921744509,0.0808232698153332,3.608868,72.05492,0.05220581,0.02573337,0.5878696,-0.01815219,6.05999986454844,6
-26.2404,0.4833329,-32.51293,0.0963199706699988,-0.2380054635789752,0.1086862669735992,7.245454,71.73784,0.07668464,0.05159501,0.5847276,-0.03648176,6.07999986410141,6
-26.18089,0.6833329,-32.49277,0.0249889535026817,0.0010454539433335,0.1322836043119863,10.863,71.33337,0.05397197,0.07717377,0.5804147,-0.05480982,6.09999986365438,6
-25.93754,0.2833333,-32.43544,0.1629408628584201,-0.4472604509730633,0.2093613933374918,3.659124,73.58768,0.06304397,0.02589591,0.598618,-0.0186816,6.11999986320734,6
-25.87713,0.4833333,-32.41668,0.0774535271404417,-0.1977553752417533,0.2311612598734314,7.295801,73.11173,0.07548585,0.0514999,0.5943657,-0.03736728,6.13999986276031,6
-25.81672,0.6833332,-32.39817,-0.0166821445448732,0.0569760360455513,0.2434475125457602,10.92499,72.59293,0.04731303,0.07696642,0.5892434,-0.05602019,6.15999986231327,6
-25.75628,0.8833333,-32.37965,-0.1059510277150614,0.2646638223356864,0.2489068312514639,14.55019,72.07752,-0.002863618,0.1023836,0.5835987,-0.07452258,6.17999986186624,6
-25.55295,0.2833333,-32.33532,-0.1586625709680689,0.2395741101373096,0.2713880356345335,3.65072,73.96176,0.06385119,0.02578047,0.601229,-0.01871632,6.1999998614192,6
-25.49194,0.4833335,-32.31762,-0.2151548253444737,0.248460116179784,0.2851928696145371,7.277436,73.34295,0.07310073,0.05128371,0.5959893,-0.03739225,6.21999986097217,6
-25.30619,0.2833333,-32.27266,-0.1296254553962654,-0.1888703564156446,0.3382965726342135,3.551995,74.52595,0.1723074,0.02557544,0.6051456,-0.01756872,6.23999986052513,6
-25.24688,0.4833333,-32.25437,-0.2535739898173013,0.0726565588206989,0.3388874475908352,7.090157,73.79647,0.2790389,0.05090776,0.5991246,-0.03518104,6.2599998600781,6
-25.18762,0.6833335,-32.23634,-0.381934619991064,0.3404556821565395,0.3306557688526617,10.62981,73.01626,0.3157279,0.07608502,0.5921716,-0.0529035,6.27999985963106,6
-25.12842,0.8833336,-32.21833,-0.5010739767497299,0.5622569340361043,0.3166611143870206,14.1729,72.21625,0.2911104,0.1011541,0.5845541,-0.07066441,6.29999985918403,6
-24.93277,0.2833333,-32.16608,-0.4519708521908931,-0.1679622319176592,0.3509489194944777,3.512235,74.47774,0.104199,0.02494726,0.6048326,-0.01782105,6.31999985873699,6
-24.87342,0.4833333,-32.1481,-0.5510343556764425,0.0141133576505347,0.3547466969508406,7.061278,73.58511,0.1635602,0.05016885,0.5977118,-0.03574195,6.33999985828996,6
-24.81392,0.6833333,-32.12996,-0.6335519055121068,0.2024612364246891,0.3567088025478711,10.63479,72.73589,0.163972,0.07546733,0.5903093,-0.05380477,6.35999985784292,6
-24.5988,0.2833333,-32.06828,-0.5271572228204953,-0.295503082220047,0.4128259722023522,3.580349,74.20194,0.231595,0.02613418,0.6028755,-0.01723307,6.37999985739589,6
-24.53958,0.4833333,-32.04733,-0.5929339369894819,-0.0946101325583215,0.4293703838712481,7.190063,73.68404,0.4316383,0.05243526,0.5982375,-0.03458914,6.39999985694885,6
-24.4803,0.6833335,-32.02628,-0.6476667822321929,0.1125555998304265,0.4427973279434241,10.81599,73.20222,0.5991563,0.07876484,0.5931827,-0.05201437,6.41999985650182,6
-24.24804,0.283333,-31.95831,-0.5025662921087353,-0.3665908893312813,0.5185477935869578,3.499633,73.63171,0.2197664,0.02559418,0.5989177,-0.01676348,6.43999985605478,6
-24.19047,0.4833325,-31.9368,-0.5568773053384639,-0.1468807991994356,0.5442880926092428,7.035788,73.29107,0.4418762,0.05152885,0.5955438,-0.0335353,6.45999985560775,6
-24.13271,0.6833327,-31.91537,-0.609327940164313,0.0791023702076619,0.563889425159676,10.58397,72.95809,0.62811,0.07740457,0.5915793,-0.05044477,6.47999985516071,6
-23.977,0.2833333,-31.87084,-0.6479830887258835,0.259087621550582,0.5798477620502638,3.454767,72.57081,0.1417746,0.02503026,0.5915084,-0.01684258,6.49999985471368,6
-23.92057,0.4833333,-31.84978,-0.646202091856928,0.2073400056101556,0.6161058443833554,6.924772,72.34541,0.2861177,0.0502228,0.5890203,-0.03363339,6.51999985426664,6
-23.86417,0.6833331,-31.82946,-0.638005695736922,0.1906139273994793,0.6467467161165139,10.38527,71.98127,0.3677014,0.07510594,0.5850033,-0.05059936,6.53999985381961,6
-23.64349,0.2833335,-31.76447,-0.6111760088549119,0.1555931803488443,0.6741491139408353,3.372616,71.25825,0.07926216,0.02432147,0.5822672,-0.01658054,6.55999985337257,6
-23.58864,0.4833333,-31.74431,-0.5963166079102926,0.1289349058343935,0.7108175461902704,6.750338,70.90981,0.1134804,0.04853034,0.579008,-0.03334513,6.57999985292554,6
-23.53364,0.683333,-31.72473,-0.5796367545465628,0.1372981890867362,0.7382084967650826,10.12185,70.46172,0.09654646,0.07254115,0.5745624,-0.05020325,6.5999998524785,6
-23.29531,0.2833336,-31.65335,-0.548866713584026,0.1273665412752178,0.7592866464574115,3.312238,69.39832,359.9382,0.02345378,0.5690424,-0.0168956,6.61999985203147,6
-23.24109,0.4833335,-31.63446,-0.5236880354364146,0.125798353564719,0.8045326403555961,6.616653,68.90696,359.8264,0.04673024,0.5648655,-0.03389553,6.63999985158443,6
-23.18664,0.6833332,-31.6161,-0.5088762355350447,0.1592516441697857,0.837383266818108,9.909788,68.31426,359.6598,0.06981156,0.5595759,-0.05094171,6.6599998511374,6
-23.13215,0.883333,-31.59788,-0.4925994926173089,0.1744106579639837,0.861074699849901,13.1974,67.68535,359.4521,0.09279831,0.5536751,-0.06794192,6.67999985069036,6
-22.93225,0.2833334,-31.53759,-0.3550519917592893,-0.5223557528093312,0.9146544655732888,3.250847,66.26659,359.8236,0.02291196,0.5464047,-0.01679261,6.69999985024333,6
-22.87867,0.4833333,-31.51928,-0.3775364804750225,-0.3068269208120892,0.9298779831371746,6.471051,65.3828,359.532,0.04529707,0.5394425,-0.03391588,6.7199998497963,6
-22.70121,0.2833333,-31.45882,-0.396645894922937,-0.0850259788097417,0.9384685949987706,3.151905,63.01147,359.7251,0.02219467,0.522441,-0.01641671,6.73999984934926,6
-22.6494,0.4833333,-31.43962,-0.3728360865293822,-0.0693448969139931,0.9766820226048374,6.279245,61.82848,359.3362,0.04401621,0.513247,-0.03309998,6.75999984890223,6
-22.59738,0.6833333,-31.42021,-0.3600655385424609,-0.0196880763918791,1.0023692234648394,9.413802,60.66201,358.8799,0.06590395,0.50396,-0.04984497,6.77999984845519,6
-22.54537,0.8833332,-31.40077,-0.3462775792368511,0.0106287265847542,1.0194713444292989,12.5485,59.46476,358.3495,0.08778967,0.4942945,-0.06662767,6.79999984800816,6
-22.3571,0.2833335,-31.3334,-0.1221802915555336,-0.6720251047591118,1.108566715524038,3.43435,61.22727,359.6973,0.02444473,0.5090839,-0.01753203,6.81999984756112,6
-22.30176,0.4833335,-31.30966,-0.0617873912894424,-0.4434288913245328,1.1465436450476254,6.861282,60.10054,359.3267,0.04885889,0.500158,-0.03504194,6.83999984711409,6
-22.24644,0.6833334,-31.28594,-0.007308589609174,-0.2096056196936713,1.1740143604745723,10.27966,58.94229,358.8848,0.07322223,0.4907427,-0.05251164,6.85999984666705,6
-22.042,0.2833334,-31.21232,0.0533904243940099,-0.0228255150828854,1.194900555300844,3.542319,61.82297,359.7679,0.02547762,0.5135205,-0.01761439,6.87999984622002,6
-21.98535,0.4833334,-31.18723,0.1046058800973135,-0.068823820733157,1.2166876939589066,7.079345,60.70486,359.4666,0.05092879,0.5045961,-0.03520721,6.89999984577298,6
-21.92871,0.6833335,-31.16215,0.1448047433870947,-0.0808463861889481,1.2247162842048098,10.60873,59.55819,359.0923,0.07631885,0.4951505,-0.05275836,6.91999984532595,6
-21.70687,0.2833331,-31.07842,0.1862839823976045,-0.1122093944982229,1.222723469662494,3.578663,62.09366,359.8692,0.02616312,0.5155172,-0.01708129,6.93999984487891,6
-21.65036,0.483333,-31.05174,0.2130299754246998,-0.1362537219244046,1.2230977180555662,7.153436,60.98805,359.6697,0.05229603,0.506613,-0.03413578,6.95999984443188,6
-21.59387,0.6833332,-31.02506,0.2215196789983622,-0.1263216684063371,1.205903313443205,10.72261,59.86,359.3983,0.07836518,0.4971773,-0.05114935,6.97999984398484,6
-21.5374,0.8833333,-30.99839,0.2240878005866697,-0.1357296262483991,1.1753051031867194,14.2847,58.69997,359.0508,0.1043431,0.4872207,-0.06810415,6.99999984353781,6
-21.35462,0.2833336,-30.92938,0.3133490348335215,-0.1378205735126469,1.1836165206418308,3.572218,61.9449,0.0003532949,0.02672586,0.5143758,-0.01603744,7.01999984309077,6
-21.29935,0.4833339,-30.90056,0.3849140846560637,-0.1059356516484001,1.1747817269275274,7.142785,60.85609,359.9338,0.05342063,0.5055033,-0.03204503,7.03999984264374,6
-21.2441,0.683334,-30.87176,0.452014698486451,-0.0933904701215061,1.1542373204856702,10.71043,59.75346,359.7978,0.080051,0.4961034,-0.04801456,7.0599998421967,6
-21.04209,0.2833331,-30.7932,0.3306167053268822,0.5667863179231818,1.073032048826846,3.597124,62.27923,0.04082251,0.02704744,0.5168608,-0.01592556,7.07999984174967,6
-20.98658,0.4833331,-30.76389,0.3724560971067561,0.3303490200141755,1.0376385300260935,7.193319,61.19732,0.01368377,0.05405776,0.5080123,-0.03182951,7.09999984130263,6
-20.93108,0.6833328,-30.73459,0.4074167460977769,0.103320702184864,0.9920773273156768,10.7876,60.10399,359.9174,0.08100478,0.4986268,-0.04769541,7.1199998408556,6
-20.69857,0.2833333,-30.63735,0.2287314025844509,0.5516270858994579,0.8792122654708088,3.643401,62.16833,0.05975858,0.02749378,0.5160215,-0.01596633,7.13999984040856,6
-20.64255,0.4833335,-30.60726,0.2254775262878539,0.3434158724735924,0.8251537973811445,7.286202,61.09137,0.05101297,0.05494907,0.5071738,-0.03191066,7.15999983996153,6
-20.58654,0.6833338,-30.57718,0.2070774928347383,0.1446137022005454,0.7623902972060534,10.92715,60.00389,359.9726,0.08233617,0.4977775,-0.04781545,7.17999983951449,6
-20.42931,0.2833334,-30.51335,0.1868090922958849,-0.0991408716464112,0.6965260385852865,3.61503,62.21924,0.07606647,0.02734831,0.516402,-0.01572889,7.19999983906746,6
-20.37384,0.4833334,-30.48329,0.2011428606363132,-0.1221397220428838,0.6582535626863582,7.229798,61.14714,0.08452328,0.05465904,0.5075921,-0.03143624,7.21999983862042,6
-20.31839,0.6833333,-30.45324,0.1964164708060067,-0.111162837210578,0.6132307030343824,10.84304,60.06586,0.02431545,0.08190256,0.4982413,-0.04710525,7.23999983817339,6
-20.09636,0.2833334,-30.36172,0.037602219416005,0.3606660367773405,0.5165859057831739,3.560282,63.92416,0.185318,0.02721056,0.5290591,-0.01507275,7.25999983772635,6
-20.04171,0.4833333,-30.33201,-0.1279487034205182,0.8152454314670061,0.4177987044003757,7.122352,62.86563,0.3050665,0.05438457,0.5203485,-0.03012522,7.27999983727932,6
-19.98708,0.6833336,-30.30232,-0.1163714135786548,0.3475983170624598,0.3792864635098105,10.68491,61.80539,0.3590175,0.0814925,0.5110977,-0.04514196,7.29999983683228,6
-19.74765,0.2833334,-30.20066,-0.0999685418348903,-0.1372979313933884,0.3450791463304625,3.499625,64.04783,0.2327412,0.02696505,0.5299723,-0.01447081,7.31999983638525,6
-19.69425,0.4833333,-30.17078,-0.2290385268681838,0.2655335948019997,0.2631910122668977,7.001927,62.99682,0.4015429,0.05389471,0.5213142,-0.02892268,7.33999983593822,6
-19.64087,0.6833333,-30.14091,-0.168495435901768,0.0108017645662731,0.247897434748765,10.5053,61.94748,0.5069506,0.08075969,0.5121317,-0.04333689,7.35999983549118,6
-19.5875,0.8833336,-30.11104,-0.1078920682848725,-0.2355667818072854,0.2327077710749314,14.00895,60.89181,0.5477081,0.107534,0.5024345,-0.05770297,7.37999983504415,6
-19.38529,0.2833334,-30.02907,-0.2133607434182121,0.1923548227416472,0.1629961738090486,3.441842,63.31155,0.2482336,0.02669937,0.5245215,-0.01391768,7.39999983459711,6
-19.3333,0.4833333,-29.9987,-0.1160460991280931,-0.0372868250350248,0.1710145016045032,6.88625,62.26612,0.4344174,0.05336367,0.5158955,-0.02781213,7.41999983415008,6
-19.28133,0.6833332,-29.96834,-0.0268430419981804,-0.2585653367009431,0.1778175305084097,10.3325,61.22357,0.558435,0.07996741,0.5067661,-0.04167543,7.43999983370304,6
-19.06135,0.2833334,-29.87725,-0.1312282794022099,0.1944465159936974,0.1182155794231221,3.394932,61.96913,0.1594591,0.02611118,0.5145454,-0.01405717,7.45999983325601,6
-19.0101,0.4833333,-29.84743,-0.2407762088789269,0.6302091258271849,0.0578125560947775,6.79087,60.91878,0.2567734,0.05218665,0.505922,-0.02809551,7.47999983280897,6
-18.95886,0.6833335,-29.81762,-0.1841637845187271,0.1437449987539982,0.0541380325842091,10.18701,59.86601,0.2917068,0.07820374,0.4968191,-0.04210326,7.49999983236194,6
-18.72238,0.2833333,-29.71668,-0.1288801558278276,-0.3599686219918388,0.0533496272366136,3.341858,60.20044,0.07365909,0.02554919,0.5012845,-0.0140678,7.5199998319149,6
-18.67215,0.4833333,-29.68705,-0.2136755950485813,0.0240457192163464,0.0096281473529593,6.683129,59.1457,0.08597353,0.0510646,0.4926525,-0.02811556,7.53999983146787,6
-18.62194,0.6833334,-29.65742,-0.108224665765455,-0.2495040280555704,0.0332920773661342,10.02309,58.08368,0.03600243,0.07652469,0.4835684,-0.04213343,7.55999983102083,6
-18.57174,0.8833334,-29.62781,-0.0021878969214537,-0.5146907854000194,0.0583111299799021,13.3606,57.00685,359.9219,0.1019057,0.4740409,-0.05610844,7.5799998305738,6
-18.3695,0.2833332,-29.54751,-0.0587268027596472,-0.1055865017417067,0.0298262701433564,3.290301,58.15266,359.9426,0.0248477,0.4857866,-0.01438989,7.59999983012676,6
-18.31995,0.4833331,-29.51853,-0.1092558852199978,0.2862687611181593,0.0049508047177226,6.577983,57.09087,359.824,0.04966506,0.4771453,-0.02876274,7.61999982967973,6
-18.2704,0.683333,-29.48956,0.0983702044030767,-0.2441021440508805,0.0748787236355887,9.861594,56.0144,359.6426,0.07442704,0.4680791,-0.04310476,7.63999982923269,6
-18.05203,0.2833333,-29.39953,0.0957135800696526,-0.0714348699423966,0.0651258152153069,3.239936,56.42847,359.8635,0.02434811,0.4726101,-0.01441457,7.65999982878566,6
-18.00335,0.4833333,-29.3707,0.083468185540255,0.1116860578772092,0.0519877878708356,6.475838,55.36336,359.6665,0.04866751,0.4639609,-0.02881206,7.67999982833862,6
-17.95469,0.6833333,-29.34188,0.0739899849711616,0.2529898656993246,0.0401277056667375,9.706553,54.27947,359.4072,0.0729368,0.45491,-0.0431799,7.69999982789159,6
-17.72076,0.2833335,-29.24215,0.1077194535364753,0.166743571680988,0.0389785377266242,3.193256,53.88265,359.7628,0.02390131,0.4529524,-0.01446864,7.71999982744455,6
-17.67305,0.4833333,-29.21308,0.1370639286269099,0.1197000585427843,0.0374560883984997,6.380688,52.81257,359.4656,0.04777532,0.4442718,-0.02892079,7.73999982699752,6
-17.62536,0.6833333,-29.18402,0.1747168330397368,0.0585432894200402,0.0403842495032904,9.561001,51.71845,359.106,0.07160074,0.4352161,-0.04334385,7.75999982655048,6
-17.57768,0.8833331,-29.15497,0.2029185433319558,0.0099320145762858,0.0352607603397991,12.73274,50.59304,358.6808,0.09535726,0.4257938,-0.05772234,7.77999982610345,6
-17.36989,0.2833332,-29.07236,0.2217045686273735,0.0005236129572919,0.0283665454695061,3.528251,55.00686,359.762,0.02634711,0.4616385,-0.0160576,7.79999982565641,6
-17.31672,0.4833332,-29.04092,0.2439346740221513,-0.0229982174875134,0.0246752692492933,7.050556,53.93763,359.4577,0.05265953,0.4529016,-0.0320949,7.81999982520938,6
-17.26358,0.6833332,-29.00948,0.2485714808493462,-0.0339752590443397,0.0019677682517595,10.56678,52.84016,359.0834,0.07891794,0.4437041,-0.04810333,7.83999982476234,6
-17.04078,0.2833333,-28.91908,0.2348765718261702,-0.0057493745831521,-0.0256791163365868,3.559582,57.18764,359.8267,0.0265467,0.478407,-0.01619163,7.85999982431531,6
-16.98665,0.4833332,-28.88846,0.2159023115850473,0.008363278460649,-0.0533310624561806,7.114588,56.12725,359.5866,0.05305735,0.4697398,-0.03236684,7.87999982386827,6
-16.93254,0.6833333,-28.85785,0.2047269561016982,-0.044953485051723,-0.0760816256712431,10.66345,55.04244,359.2775,0.07950424,0.4605884,-0.04850381,7.89999982342124,6
-16.69178,0.2833335,-28.75642,0.1437268724688092,-0.1123824991246971,-0.1524390568875624,3.594896,58.68317,359.9482,0.02712101,0.4897865,-0.01576374,7.91999982297421,6
-16.63743,0.4833335,-28.72508,0.0847397885205349,-0.1406085016302013,-0.2239136351079267,7.18754,57.6372,359.8308,0.05420861,0.4811707,-0.03150588,7.93999982252717,6
-16.5831,0.6833334,-28.69374,0.0407758430003273,-0.1829474355201579,-0.285685693713642,10.77641,56.57437,359.6457,0.0812306,0.4720507,-0.04721044,7.95999982208014,6
-16.52879,0.8833333,-28.66241,-0.2138058271133527,-0.2127416689464735,-0.560186666816989,14.3602,55.48571,359.3894,0.1081582,0.4624366,-0.06286063,7.9799998216331,6
-16.32521,0.2833334,-28.58163,-0.4453337822722147,-0.2033331042433814,-0.806934210536987,3.556153,59.38899,0.04345153,0.02714139,0.4951265,-0.01504142,7.99999982118607,6
-16.27192,0.4833333,-28.54986,-0.641728848281268,-0.2080379121752621,-1.021903623556181,7.111234,58.35632,0.02326779,0.05424668,0.4865774,-0.0300582,8.01999982073903,6
-16.21864,0.6833335,-28.51809,-1.0417607420256996,-0.2001973301950084,-1.440429036624174,10.66431,57.31333,359.9377,0.08128691,0.477529,-0.04504,8.039999820292,6
-15.99494,0.2833333,-28.42738,-1.4030808172256517,-0.1531537274999387,-1.8138609463982824,3.625201,60.69437,0.07588608,0.02763096,0.5049675,-0.01540977,8.05999981984496,6
-15.94012,0.4833332,-28.39575,-1.7146042771176615,-0.1202233004670059,-2.1389281750314595,7.250171,59.66768,0.08682204,0.05522421,0.4964493,-0.03079886,8.07999981939793,6
-15.88533,0.6833332,-28.36413,-1.9652130198891555,-0.154721899180802,-2.412402119035708,10.87428,58.63225,0.03139957,0.08275223,0.4874022,-0.04615616,8.09999981895089,6
-15.83055,0.8833334,-28.33253,-2.390344079569965,-0.2033333277870803,-2.895782385510966,14.49574,57.57938,359.9076,0.1101825,0.4778369,-0.06145988,8.11999981850386,6
-15.55099,0.2833335,-28.21979,-2.744542963768094,-0.2127417228722551,-3.3065265002832227,3.630399,61.70172,0.1012329,0.02764671,0.5125235,-0.01548552,8.13999981805682,6
-15.49576,0.4833334,-28.1887,-3.017716508948176,-0.2362630263428455,-3.6423065162083432,7.260979,60.68157,0.137886,0.0552554,0.5040622,-0.03094999,8.15999981760979,6
-15.44055,0.6833332,-28.15762,-3.414076179086212,-0.2472399387914222,-4.167110649763096,10.89062,59.65443,0.1091508,0.08279627,0.4950629,-0.0463771,8.17999981716275,6
-15.38536,0.8833329,-28.12654,-3.7297806030909904,-0.2190139228698159,-4.601195784542675,14.51823,58.61162,0.01260286,0.110239,0.4855356,-0.06175281,8.19999981671572,6
-15.19,0.2833334,-28.05302,-3.955483955549553,-0.2049008291853169,-4.943195760149759,3.576524,63.35996,0.1768853,0.02736637,0.524877,-0.0150756,8.21999981626868,6
-15.13533,0.4833333,-28.02277,-4.252294493988504,-0.178242720107142,-5.465230460822543,7.154561,62.35112,0.29098,0.05469578,0.5165162,-0.03013096,8.23999981582165,6
-15.08069,0.683333,-27.99253,-4.465787569012463,-0.112381417385762,-5.882551787030881,10.73303,61.34057,0.3421291,0.08195958,0.5076187,-0.04515058,8.25999981537461,6
-14.86721,0.2833336,-27.90938,-4.587759998042186,-0.0606332092200557,-6.195077848253579,3.513561,65.0779,0.2505595,0.02701995,0.5375621,-0.01464697,8.27999981492758,6
-14.8132,0.4833335,-27.88007,-4.609966877891383,-0.0763138102267863,-6.402812242446654,7.029992,64.07887,0.4401273,0.05400462,0.5293013,-0.02927509,8.29999981448054,6
-14.7592,0.6833335,-27.85076,-4.648958849135649,-0.1061080218737106,-6.71943230701828,10.54777,63.0831,0.568868,0.08092199,0.520507,-0.04386963,8.31999981403351,6
-14.52907,0.2833332,-27.76595,-4.60596814632337,-0.0966995144068635,-6.926634900682739,3.453954,65.8917,0.2813681,0.02662508,0.5435354,-0.01433018,8.33999981358647,6
-14.47581,0.4833331,-27.73733,-4.47407162283735,-0.1014043252136253,-7.025711497939959,6.910879,64.89833,0.5030181,0.0532123,0.5353472,-0.02864127,8.35999981313944,6
-14.42258,0.6833329,-27.70871,-4.334111548822335,-0.0935637050758727,-7.151767964067712,10.37013,63.9104,0.6657769,0.07973915,0.5266359,-0.04292028,8.3799998126924,6
-14.36935,0.8833328,-27.6801,-4.129258394207785,-0.0465201565679354,-7.172592479650522,13.83063,62.92073,0.7692476,0.1061789,0.5174108,-0.05715304,8.39999981224537,6
-14.21493,0.2833333,-27.65231,-3.853025889594978,-0.0135898499314917,-7.090274612009889,3.402858,66.87997,0.2361509,0.02591128,0.5507681,-0.01464277,8.41999981179833,6
-14.1617,0.4833333,-27.62569,-3.5602710750421664,0.0318853915148695,-6.991294166421024,6.807985,65.88634,0.4126909,0.05178358,0.5426645,-0.02927184,8.4399998113513,6
-14.10849,0.6833333,-27.59907,-3.22938280681764,0.116563304247453,-6.801378557216424,10.21468,64.8955,0.5308124,0.07759853,0.5340464,-0.04386893,8.45999981090426,6
-14.08992,0.2833333,-27.71705,-2.8538549091564143,0.1871282895158725,-6.523792977266112,3.35238,67.32119,0.1507648,0.02507544,0.5540024,-0.01511831,8.47999981045723,6
-14.03675,0.4833331,-27.69255,-2.427152701422875,0.1902644022773786,-6.161877348895676,6.705587,66.32291,0.242371,0.05011363,0.5459592,-0.03022305,8.49999981001019,6
-13.98359,0.683333,-27.66806,-1.8850044342785492,0.1792879040728721,-5.731040105435152,10.05888,65.32244,0.2754928,0.07509752,0.5374138,-0.04529532,8.51999980956316,6
-13.95712,0.2833332,-27.78782,-1.3268611885913622,0.2075143782329264,-5.23104875621047,3.301039,68.67323,0.04804911,0.02402016,0.5638098,-0.01590036,8.53999980911613,6
-13.90357,0.4833333,-27.7666,-0.7455104480048647,0.2216275227069718,-4.666245066955362,6.601406,67.66909,0.0381756,0.04801084,0.5558569,-0.03178199,8.55999980866909,6
-13.85005,0.6833333,-27.74537,-0.3382954313741297,0.8885998432752666,-4.111790919548934,9.899793,66.65676,359.9681,0.07194157,0.5474077,-0.04763939,8.57999980822206,6
-13.79654,0.8833333,-27.72415,0.2345107389894583,0.6641851149165762,-3.444244943248375,13.19546,65.62932,359.8375,0.09579983,0.5384707,-0.06344955,8.59999980777502,6
-13.80305,0.2833333,-27.89392,0.8065573050759856,0.4544061379556875,-2.736834434777922,3.251543,70.24539,359.9579,0.02299441,0.5751062,-0.01662287,8.61999980732799,6
-13.74924,0.4833333,-27.87594,1.3849603876442431,0.2049014123499116,-1.9946654684975973,6.500892,69.23767,359.8585,0.04596134,0.5672575,-0.03322684,8.63999980688095,6
-13.69545,0.6833333,-27.85797,1.879447509052989,0.1813796238086608,-1.2420065529720254,9.747029,68.21705,359.7004,0.0688807,0.5589169,-0.04979726,8.65999980643392,6
-13.65261,0.2833331,-28.02081,2.3406315327350318,0.1970607969165112,-0.4827513995318462,3.206189,72.05465,359.8723,0.02197001,0.5879657,-0.01735492,8.67999980598688,6
-13.59857,0.4833331,-28.00621,2.7755384563171965,0.1986291092922596,0.2775644713738678,6.408669,71.04292,359.6878,0.04391404,0.5802212,-0.03469021,8.69999980553985,6
-13.54454,0.6833332,-27.9916,3.3845147376860254,-0.5075455346146577,1.1190717099732446,9.606406,70.01374,359.4445,0.06581304,0.5719858,-0.05199149,8.71999980509281,6
-13.44184,0.2833335,-28.1534,3.787903803036404,-0.2972437459165942,1.8911782216635336,3.450459,75.19805,359.859,0.02310277,0.609884,-0.01934343,8.73999980464578,6
-13.38283,0.4833336,-28.14095,4.143423921098108,-0.0764877769687794,2.6344659257146894,6.896976,74.18649,359.6567,0.04617604,0.6021628,-0.0386632,8.75999980419874,6
-13.32384,0.6833336,-28.1285,4.458707706600697,0.102451974606743,3.3432935844995733,10.33876,73.15423,359.3904,0.06919738,0.5938569,-0.05794514,8.77999980375171,6
-13.26488,0.8833336,-28.11605,4.703545258457366,0.053840025995659,4.016727445707389,13.77576,72.09284,359.0552,0.09214583,0.5849732,-0.07718558,8.79999980330467,6
-13.14283,0.2833332,-28.24348,4.881460003455475,0.0444310335452662,4.63248937602372,3.546967,77.90623,359.8534,0.02326339,0.6284134,-0.02045087,8.81999980285764,6
-13.08167,0.483333,-28.23357,5.000377593713619,0.0209089342556233,5.184772457616273,7.090609,76.89735,359.6431,0.04649608,0.6207712,-0.04088578,8.8399998024106,6
-13.02052,0.6833327,-28.22366,5.031216588237378,0.009932066411244,5.675976344105685,10.62892,75.86645,359.3671,0.06967156,0.6124943,-0.06127539,8.85999980196357,6
-12.85078,0.2833332,-28.27271,4.972849450380725,0.0381582096116296,6.077234469997421,3.580414,79.34512,359.9168,0.02358212,0.638105,-0.02050226,8.87999980151653,6
-12.78902,0.4833331,-28.26312,4.833448401136613,0.0522714363246664,6.38275313319572,7.158098,78.34504,359.7707,0.04713345,0.6305212,-0.04098004,8.8999998010695,6
-12.72729,0.683333,-28.25354,4.814959276894687,-0.6413584680028193,6.670792891914907,10.73162,77.32678,359.5597,0.07062801,0.6222823,-0.06140932,8.91999980062246,6
-12.51313,0.2833332,-28.24327,4.5855956359375405,-0.4185120077641506,6.842997907447895,3.572277,77.87183,359.9921,0.02420119,0.6281471,-0.01964205,8.93999980017543,6
-12.45206,0.483333,-28.23081,4.262075739154463,-0.1852115425562939,6.89543943848706,7.14289,76.88198,359.9236,0.04837743,0.6205333,-0.03924917,8.95999979972839,6
-12.391,0.683333,-28.21836,3.853140220970319,0.0062723950535847,6.822964942157327,10.71071,75.87906,359.7919,0.07249576,0.6122784,-0.05880965,8.97999979928136,6
-12.32996,0.883333,-28.20591,3.5670089339126285,-0.0297943202827672,6.856870954489668,14.27468,74.85475,359.594,0.0965313,0.6033917,-0.07830375,8.99999979883432,6
-12.04694,0.2833335,-28.14904,3.1975873135953368,-0.0266581244982139,6.77076595516041,3.605919,73.22113,359.9601,0.02504736,0.5960864,-0.01904292,9.01999979838729,6
-11.98635,0.4833335,-28.13201,2.754686540513964,-0.0376350395603188,6.560877814127494,7.209589,72.23196,359.8578,0.05006129,0.588318,-0.03805967,9.03999979794025,6
-11.92578,0.6833335,-28.115,2.457036363752336,-0.0360669800868929,6.468942383932205,10.81042,71.22764,359.6934,0.07502828,0.5799326,-0.05701937,9.05999979749322,6
-11.86523,0.8833334,-28.098,2.086693652792766,0.0047037791602037,6.260558144895526,14.40678,70.19945,359.4616,0.09990837,0.5709387,-0.07591335,9.07999979704618,6
-11.66104,0.2833333,-28.01995,1.6544925897840592,0.0313612947063344,5.933617688016135,3.629953,69.46622,359.9713,0.0258858,0.5694753,-0.01825116,9.09999979659915,6
-11.60137,0.4833333,-27.99867,1.171221816162486,-0.0094101512014919,5.486077078158168,7.257838,68.48196,359.8801,0.05173653,0.561601,-0.03647708,9.11999979615211,6
-11.54173,0.6833334,-27.97738,0.954324895420294,-0.0642942836933864,5.24457897819255,10.88256,67.48281,359.7248,0.07752431,0.5531304,-0.05465829,9.13999979570508,6
-11.32054,0.2833335,-27.88269,0.6862920163759956,-0.0799756133515201,4.897532516647075,3.589912,68.59895,0.06507447,0.02619569,0.5632272,-0.01718206,9.15999979525805,6
-11.26245,0.4833335,-27.85924,0.3794480221745289,-0.1097699769314949,4.444876902877564,7.179355,67.62666,0.06929126,0.05235625,0.5553656,-0.03434075,9.17999979481101,6
-11.20438,0.6833335,-27.83579,0.0592188437106422,0.5132948106671495,4.103660157834078,10.76732,66.64595,0.01168601,0.07845422,0.5469266,-0.05145833,9.19999979436398,6
-10.9652,0.2833334,-27.73202,-0.117015138416372,0.2449729502538939,3.745054457208479,3.531296,67.57108,0.1389102,0.02628195,0.5557904,-0.0161268,9.21999979391694,6
-10.90898,0.4833335,-27.70671,-0.3090036476081863,-0.0087132508448338,3.3068541059503644,7.063384,66.60869,0.2186852,0.05252948,0.5479441,-0.03223205,9.23999979346991,6
-10.85278,0.6833335,-27.6814,-0.5626662429802476,0.4181625958073295,3.002428411144109,10.59528,65.64301,0.2389786,0.07871574,0.5395454,-0.04829961,9.25999979302287,6
-10.79659,0.8833334,-27.65612,-0.6494138616213148,0.1937474194029471,2.7140882361771688,14.12567,64.66684,0.2000246,0.1048195,0.5306047,-0.06429958,9.27999979257584,6
-10.59717,0.2833335,-27.56691,-0.7463634632326848,-0.0160320468973619,2.371467661096656,3.470272,65.8083,0.2035637,0.02638636,0.5429402,-0.01495794,9.2999997921288,6
-10.54318,0.4833335,-27.53929,-0.8413982231453865,-0.2655370651310759,1.9780095115086525,6.942113,64.85572,0.3499477,0.05273783,0.535095,-0.02989303,9.31999979168177,6
-10.4892,0.6833335,-27.51167,-0.8113676622999622,-0.2890588839892428,1.7820701052673051,10.41484,63.90442,0.440152,0.079034,0.5267278,-0.04478608,9.33999979123473,6
-10.27177,0.2833335,-27.41392,-0.788636990640879,-0.2733776390093932,1.5559734169547887,3.418214,64.2243,0.1950472,0.02616652,0.5312979,-0.0144133,9.3599997907877,6
-10.21931,0.4833335,-27.38535,-0.7609703869893014,-0.2718092326337792,1.3048838025894265,6.837831,63.27376,0.3342634,0.05230052,0.5234501,-0.02880186,9.37999979034066,6
-10.16687,0.6833334,-27.35679,-0.8465378090234958,0.3826177081280186,1.1048385885676917,10.25831,62.32405,0.4171014,0.07837662,0.5151061,-0.04315898,9.39999978989363,6
-9.932845,0.2833333,-27.24949,-0.7713822483957973,0.1456583429886355,0.9537610312746878,3.368575,61.65242,0.1037397,0.02570347,0.5121913,-0.0142845,9.41999978944659,6
-9.881741,0.4833333,-27.22041,-0.6896309133189877,-0.0766651274445321,0.7972525468940646,6.737031,60.69656,0.1518103,0.05137441,0.5043144,-0.02854638,9.43999978899956,6
-9.83065,0.6833332,-27.19134,-0.7720333973895643,0.3815736996392824,0.6405831650628606,10.10488,59.73619,0.1432862,0.07699007,0.4959741,-0.04277789,9.45999978855252,6
-9.779575,0.8833331,-27.16227,-0.6752153424462994,0.1885217821814407,0.5510466131416365,13.47113,58.76442,0.07668525,0.1025262,0.4871784,-0.05696588,9.47999978810549,6
-9.580534,0.2833335,-27.07431,-0.5756116211319853,0.0101055496506903,0.4627715846977622,3.315684,59.10565,359.9937,0.02513992,0.4930207,-0.01431699,9.49999978765845,6
-9.530598,0.4833333,-27.04511,-0.4610667250894424,-0.2080362440479236,0.3821886374404428,6.629875,58.14404,359.9317,0.05025004,0.4851255,-0.02861705,9.51999978721142,6
-9.480673,0.6833331,-27.01592,-0.3983714336202286,-0.2001954857416973,0.3382451471270755,9.941257,57.17166,359.8132,0.07530602,0.4767987,-0.04288337,9.53999978676438,6
-9.264993,0.2833333,-26.91897,-0.348260337803091,-0.1531518450633652,0.2945007727444739,3.264931,57.35947,359.8961,0.02455825,0.4797409,-0.01446656,9.55999978631735,6
-9.21581,0.4833332,-26.89018,-0.2989797373191534,-0.1202212793392497,0.2572057734675113,6.526723,56.39252,359.737,0.04908774,0.471841,-0.02891629,9.57999978587031,6
-9.166638,0.683333,-26.8614,-0.2388060353275056,-0.154719732566697,0.2326825331118591,9.784092,55.40944,359.5209,0.07356445,0.463533,-0.04333518,9.59999978542328,6
-9.117481,0.883333,-26.83263,-0.1814388234210042,-0.2033310094141567,0.205590874968113,13.03629,54.40339,359.2451,0.09796884,0.4548246,-0.05771212,9.61999978497624,6
-8.848478,0.2833333,-26.71075,-0.1266327863472689,-0.2127394870867937,0.1836531622924049,3.20828,53.73956,359.7592,0.02402228,0.4518386,-0.01452562,9.63999978452921,6
-8.800623,0.4833332,-26.68142,-0.0626048006973558,-0.2362611223882294,0.1728384125898436,6.411132,52.76521,359.4636,0.04801705,0.4438975,-0.02903474,9.65999978408217,6
-8.752782,0.6833332,-26.6521,-0.171564493137474,0.3930761225532961,0.091077173987049,9.607465,51.7674,359.1106,0.07196329,0.4355841,-0.0435147,9.67999978363514,6
-8.704949,0.883333,-26.62279,-0.0708229030327034,0.1310265403691843,0.0846455447314937,12.79601,50.73945,358.6974,0.09584131,0.4269063,-0.05794867,9.6999997831881,6
-8.509954,0.2833333,-26.53812,0.0293158473876289,-0.1163873236089207,0.0843979914285313,3.450309,53.98652,359.7593,0.02587244,0.4537353,-0.015535,9.71999978274107,6
-8.458482,0.4833333,-26.50652,-0.0765564704800718,0.3167613976793096,-3.5927276840652667e-05,6.895152,53.01369,359.4596,0.05171238,0.4457459,-0.03105086,9.73999978229403,6
-8.407024,0.6833332,-26.47493,-0.139217140553697,0.0986189808286776,-0.2613111369252827,10.3338,52.01463,359.0979,0.07749745,0.4373277,-0.04653402,9.759999781847,6
-8.195922,0.2833333,-26.38209,-0.1955648450927078,-0.1048877204294773,-0.4920022580762833,3.548168,56.06152,359.8149,0.02656837,0.4697638,-0.01597385,9.77999978139997,6
-8.142477,0.4833333,-26.35065,-0.2340520849814433,-0.3481202744380214,-0.6872847803739894,7.092478,55.09574,359.5691,0.05310523,0.4618069,-0.03193411,9.79999978095293,6
-8.089047,0.6833334,-26.31921,-0.3149114171033229,-0.3653695173862896,-1.069517098555309,10.63107,54.10611,359.2603,0.07957954,0.4533826,-0.04785733,9.8199997805059,6
-7.860564,0.2833332,-26.21572,-0.3843682181111312,-0.3434160121235153,-1.4019432184953189,3.581086,57.56325,359.9079,0.02699904,0.4812593,-0.01574785,9.83999978005886,6
-7.806699,0.4833331,-26.184,-0.4308244746341003,-0.3355753824899499,-1.6809223486089309,7.159393,56.60886,359.756,0.05396407,0.4733472,-0.03147601,9.85999977961183,6
-7.75285,0.6833329,-26.15228,-0.6389106313029194,0.3251243971025922,-1.9869967522456624,10.73364,55.63636,359.542,0.08086503,0.4649484,-0.04716703,9.87999977916479,6
-7.699016,0.8833328,-26.12058,-0.7034687526647163,0.0944367414888197,-2.365318632521678,14.30267,54.63749,359.2626,0.1076733,0.4560724,-0.06280507,9.89999977871776,6
-7.507249,0.2833333,-26.03757,-0.7462245281244044,-0.1216150837115107,-2.677446801641274,3.573461,58.47834,0.03403014,0.02735166,0.4882108,-0.01497071,9.91999977827072,6
-7.454144,0.4833333,-26.00488,-0.9735940338367596,0.3428956823656081,-3.0152071220249645,7.145954,57.5397,0.01004089,0.05466914,0.4803522,-0.02991739,9.93999977782369,6
-7.401055,0.6833333,-25.97221,-1.0149878148615352,0.1561155436047322,-3.385702768759643,10.71653,56.59124,359.9263,0.08192171,0.4720023,-0.04482908,9.95999977737665,6
-7.190081,0.2833333,-25.87978,-1.04402774868709,-0.0160288581327431,-3.684839799479097,3.596724,59.69036,0.06960461,0.0275222,0.4973963,-0.015091,9.97999977692962,6
-7.13624,0.4833332,-25.8475,-1.0490377027413134,-0.227898756135487,-3.910664768073208,7.193086,58.7578,0.08070398,0.05500764,0.4895781,-0.03016191,9.99999977648258,6
-7.082418,0.6833332,-25.81522,-0.982960582778718,-0.2137861306208403,-4.18299325534618,10.78834,57.81754,0.03206283,0.08242751,0.4812525,-0.04520068,10.0199997760355,6
-6.852833,0.2833333,-25.71197,-0.9146334580246328,-0.160470291077476,-4.38153059481041,3.643078,60.27356,0.08403346,0.02785788,0.5017921,-0.01532503,10.0399997755885,6
-6.798083,0.4833333,-25.67962,-0.8318649564295586,-0.1212672866536445,-4.504836131829286,7.285994,59.34514,0.1090529,0.05567758,0.4939897,-0.03062953,10.0599997751415,6
-6.743348,0.6833333,-25.64728,-0.9214503168437496,0.5707943762118023,-4.6328385432437535,10.92779,58.40975,0.07428144,0.08342919,0.485663,-0.04589706,10.0799997746944,6
-6.688632,0.8833332,-25.61495,-0.813241912437022,0.3714694452524776,-4.70065360831186,14.56792,57.45943,359.9775,0.1110854,0.4768211,-0.06111467,10.0999997742474,6
-6.496131,0.2833333,-25.53432,-0.6999495841849908,0.1867802683044823,-4.695954120388976,3.605576,61.38277,0.1283903,0.02762442,0.5101304,-0.01509429,10.1199997738004,6
-6.441722,0.4833332,-25.50267,-0.5690164774154862,-0.0376346003135029,-4.617928413734767,7.211707,60.46235,0.1989346,0.05521142,0.5023983,-0.03016873,10.1399997733533,6
-6.387329,0.6833332,-25.47103,-0.67180844587199,0.6042471733829191,-4.577591103193704,10.81741,59.53812,0.2112769,0.08273171,0.4941429,-0.045207,10.1599997729063,6
-6.33295,0.8833331,-25.43939,-0.5343754436435701,0.3547424892451107,-4.4033349217660565,14.42161,58.60247,0.1636136,0.1101542,0.4853738,-0.06019444,10.1799997724593,6
-6.093458,0.2833333,-25.34701,-0.3957873381546735,0.1198734411614334,-4.174030268119516,3.536533,65.14677,0.269413,0.02726851,0.5380604,-0.01463251,10.1999997720122,6
-6.039202,0.4833333,-25.31726,-0.24363672493409,-0.1547210841087656,-3.889466274162008,7.07583,64.24319,0.4833566,0.0545008,0.5304793,-0.02924594,10.2199997715652,6
-5.984961,0.6833333,-25.28753,-0.0561375987234042,-0.2033328266867835,-3.549499056505791,10.61701,63.34523,0.6425191,0.08166905,0.5223632,-0.04382593,10.2399997711182,6
-5.890745,0.2833333,-25.42818,0.1249963715555146,-0.2127417753170338,-3.171262577589033,3.468356,66.96793,0.3061529,0.02671335,0.5513815,-0.01446859,10.2599997706711,6
-5.836917,0.4833333,-25.40003,0.3116410529403497,-0.2362636467071012,-2.7550329652797707,6.939806,66.07018,0.5580071,0.05338884,0.5438997,-0.02891973,10.2799997702241,6
-5.783105,0.683333,-25.37189,0.3240348226397982,0.3930737047792196,-2.374628922675736,10.41364,65.18047,0.7565898,0.08000174,0.5358881,-0.04334006,10.2999997697771,6
-5.635431,0.2833334,-25.48471,0.4804086685496678,0.1310240008047369,-1.915954120389003,3.415519,67.49911,0.2626103,0.02605182,0.5552588,-0.014652,10.31999976933,6
-5.581913,0.4833333,-25.45811,0.6358246967896601,-0.1163901984017976,-1.4331173194858131,6.833399,66.59992,0.4713073,0.05206555,0.5478369,-0.02928848,10.339999768883,6
-5.528411,0.6833335,-25.43152,0.5916494972468174,0.316758321557714,-1.0132342486957455,10.25311,65.70621,0.6273555,0.07802167,0.5398979,-0.04389303,10.359999768436,6
-5.474924,0.8833336,-25.40493,0.6999138956040785,0.0986159717004976,-0.5186870335833333,13.67384,64.81161,0.7305245,0.1038956,0.53145,-0.0584518,10.3799997679889,6
-5.310724,0.2833333,-25.49278,0.7964372596666562,-0.1048904722123389,-0.0182400507263444,3.366733,66.84624,0.1573289,0.02527391,0.5505457,-0.01503543,10.3999997675419,6
-5.25759,0.4833333,-25.46759,0.8927033132578623,-0.3481222424240549,0.4871231947170145,6.734172,65.94123,0.261061,0.0505115,0.5431557,-0.0300549,10.4199997670949,6
-5.204471,0.6833333,-25.44241,1.0103957559823655,-0.365371557679911,1.0095050676402764,10.10188,65.03541,0.311749,0.07569525,0.5352688,-0.04504228,10.4399997666478,6
-4.997158,0.2833334,-25.50418,1.111526376590496,-0.3434179665192076,1.5184514241219311,3.315185,66.69118,0.05096551,0.02440864,0.5494469,-0.01552911,10.4599997662008,6
-4.944199,0.4833333,-25.48091,1.2078352397583871,-0.3355775319418932,2.0127762977578563,6.629799,65.77962,0.04914765,0.04878797,0.5420957,-0.03104014,10.4799997657537,6
-4.891255,0.6833333,-25.45765,1.1215161298211869,0.325122024542537,2.4195450284721787,9.942625,64.86104,359.9931,0.07310984,0.5342636,-0.04652293,10.4999997653067,6
-4.638721,0.2833333,-25.48223,1.2714209364462632,0.094434783695542,2.9160789947437245,3.2654,65.20779,359.9178,0.02361611,0.5386264,-0.01595599,10.5199997648597,6
-4.586222,0.4833334,-25.46007,1.3994362125131048,-0.121616694254132,3.37387092138383,6.528093,64.28761,359.7831,0.04720437,0.5312733,-0.03189345,10.5399997644126,6
-4.533735,0.6833334,-25.43792,1.3065465608613909,0.3428943259449566,3.7066335590949286,9.786929,63.353,359.5939,0.0707407,0.5234626,-0.04779932,10.5599997639656,6
-4.481264,0.8833332,-25.41576,1.1902841836318003,0.7964285161958067,3.988549649188428,13.0413,62.39747,359.348,0.09420773,0.5152015,-0.06366003,10.5799997635186,6
-4.259181,0.2833335,-25.40196,1.2135109994669482,0.3340085014555075,4.285863317761812,3.212585,60.92309,359.7719,0.02315371,0.5068078,-0.01592547,10.5999997630715,6
-4.208084,0.4833333,-25.37859,1.2161781571863055,-0.1393882221395967,4.521353258295289,6.420205,59.9945,359.4916,0.04628141,0.4993843,-0.03183267,10.6199997626245,6
-4.157001,0.6833332,-25.35522,1.0446949987559686,0.2812153885354473,4.635889662116629,9.621873,59.0436,359.1565,0.06936286,0.4915426,-0.04770813,10.6399997621775,6
-4.10593,0.883333,-25.33186,1.0293753486898092,0.0505281239053556,4.759128554190202,12.8164,58.06403,358.7642,0.09238046,0.4832904,-0.06353194,10.6599997617304,6
-3.84277,0.2833334,-25.24042,0.9878141947652106,-0.1655233741684776,4.801562079124061,3.396286,59.90411,359.7506,0.02458989,0.4991105,-0.01668023,10.6799997612834,6
-3.789082,0.4833333,-25.21487,0.9321442379580668,-0.4213003523037102,4.76229183691979,6.787231,58.9756,359.4458,0.04914997,0.4916185,-0.03334023,10.6999997608364,6
-3.735408,0.6833332,-25.18932,0.8430227786340849,-0.4510945506216461,4.657733880210259,10.17182,58.02149,359.0826,0.07365683,0.4836694,-0.04996449,10.7199997603893,6
-3.50744,0.2833333,-25.10153,0.7141752844839956,-0.441685837818673,4.453089258936451,3.531472,60.71186,359.791,0.02566709,0.5051779,-0.01714541,10.7399997599423,6
-3.451683,0.4833332,-25.07499,0.557879726609132,-0.4463901701757078,4.147825771828906,7.05902,59.78851,359.5245,0.05130707,0.4976726,-0.03427279,10.7599997594953,6
-3.395944,0.6833332,-25.04847,0.3383942297688401,0.2017646112724368,3.945929561966235,10.58097,58.84053,359.1979,0.07688893,0.4896695,-0.05136196,10.7799997590482,6
-3.340221,0.8833334,-25.02195,0.1109012280107457,0.6984552031840974,3.6678115716640782,14.09596,57.85999,358.807,0.1023851,0.4811774,-0.06839454,10.7999997586012,6
-3.154108,0.2833334,-24.94934,0.0813852482951656,0.1676302665621272,3.397642127979441,3.575171,60.9229,359.8787,0.02635208,0.50674,-0.01672614,10.8199997581542,6
-3.098337,0.4833333,-24.9213,-0.0691455543887988,0.3466040732691376,3.211661279907222,7.147357,60.01109,359.7008,0.05267489,0.4992506,-0.03342752,10.8399997577071,6
-3.042582,0.6833333,-24.89326,-0.2275133784705762,0.5427924435083823,2.963052695689832,10.7152,59.07995,359.4635,0.07893538,0.4912517,-0.05008987,10.8599997572601,6
-2.841485,0.2833333,-24.80705,-0.2162758275721776,0.0636104109856426,2.725172649622017,3.572003,61.31526,0.01711962,0.02688653,0.5096552,-0.01576359,10.879999756813,6
-2.786725,0.4833332,-24.77729,-0.208200308133683,-0.4260607143295096,2.41967337008434,7.142847,60.41923,359.9792,0.05374182,0.5021975,-0.03149975,10.899999756366,6
-2.73198,0.6833333,-24.74753,-0.3226206949531842,-0.0212431977728119,2.1864324481712245,10.71161,59.51287,359.8842,0.08053344,0.4942288,-0.04719944,10.919999755919,6
-2.512523,0.2833333,-24.64776,-0.2445488010432715,-0.2672286891246513,1.9903152001109632,3.596745,60.92073,0.03663833,0.02721298,0.5066838,-0.01563358,10.9399997554719,6
-2.457746,0.4833333,-24.61711,-0.1670165408387952,-0.4980906665716575,1.7417497216699402,7.192576,60.02908,0.0172946,0.05438957,0.4992265,-0.03124629,10.9599997550249,6
-2.402984,0.6833332,-24.58648,-0.2611685681257986,-0.0479022753370723,1.5489871100941317,10.7869,59.12825,359.9412,0.08150476,0.4912548,-0.04682088,10.9799997545779,6
-2.348239,0.8833332,-24.55585,-0.3491248620309358,0.3917972760074161,1.3258824226457513,14.37856,58.2107,359.8058,0.108527,0.4827774,-0.06234248,10.9999997541308,6
-2.068299,0.2833333,-24.41784,-0.2690221395631814,-0.0839696010191627,1.1376920811971267,3.637825,60.36907,0.05830654,0.02769268,0.5025193,-0.01551918,11.0199997536838,6
-2.013377,0.4833333,-24.38598,-0.4147393014555625,0.150062597723908,0.9783942314330928,7.275074,59.48298,0.06037765,0.05534784,0.4950591,-0.03101739,11.0399997532368,6
-1.958471,0.6833334,-24.35413,-0.5598605116493978,0.4013091455157412,0.8035773351534807,10.91086,58.58888,0.005273467,0.08293577,0.4870777,-0.04647827,11.0599997527897,6
-1.903581,0.8833334,-24.3223,-0.5247400854267141,-0.0228144714491901,0.6904489430128748,14.54473,57.67925,359.8913,0.1104323,0.4785843,-0.06188407,11.0799997523427,6
-1.706379,0.2833334,-24.22704,-0.4841380500204226,-0.457426796495325,0.5643544674867975,3.591723,61.18209,0.1358345,0.02757984,0.5086246,-0.0149285,11.0999997518957,6
-1.652375,0.4833334,-24.19517,-0.6278607333027861,0.0024489728835502,0.4412700784336003,7.184063,60.30698,0.2169567,0.05512293,0.501228,-0.02983715,11.1199997514486,6
-1.598386,0.6833333,-24.16331,-0.7603516873535301,0.4518360203295269,0.3168278487115223,10.77617,59.42922,0.2430654,0.08260033,0.4933158,-0.04471081,11.1399997510016,6
-1.383422,0.2833333,-24.05772,-0.6385475425868073,-0.0142431231130497,0.2974102645515692,3.530335,62.0919,0.2172129,0.02736776,0.5154297,-0.01426268,11.1599997505546,6
-1.330528,0.4833333,-24.02595,-0.5023258505457342,-0.4908109479788501,0.2782544164358675,7.062521,61.22699,0.3814061,0.05469984,0.508098,-0.0285067,11.1799997501075,6
-1.277649,0.6833333,-23.99418,-0.5927105537536208,-0.0728909842023333,0.1838781172949666,10.59572,60.36491,0.4929357,0.08196834,0.5002596,-0.04271808,11.1999997496605,6
-1.046026,0.2833333,-23.87786,-0.4787157225701031,-0.3057737892837298,0.1768580872219125,3.469801,61.79111,0.2540364,0.02711693,0.5131805,-0.01364401,11.2199997492135,6
-0.9945349,0.4833333,-23.84573,-0.3651589083989091,-0.5235328419323703,0.1657100343868087,6.941694,60.93207,0.456612,0.05419803,0.5058855,-0.02726732,11.2399997487664,6
-0.9430567,0.6833333,-23.8136,-0.4484184567727247,-0.0602416203348715,0.0818674610729779,10.4151,60.07841,0.6082996,0.08121797,0.4981022,-0.04085863,11.2599997483194,6
-0.8915932,0.8833333,-23.78148,-0.533045111065839,0.3925607869851003,-0.0035629171740936,13.88937,59.22388,0.7087036,0.1081506,0.4898384,-0.05440645,11.2799997478724,6
-0.8401445,0.9766706,-23.74938,-0.4507997753495862,-0.0701031017343962,-0.0200713841312705,17.36372,58.36199,0.7565674,0.1349694,0.4811027,-0.06789778,11.2999997474253,6
-0.6070232,0.2833333,-23.63898,-0.3650118716685677,-0.5432561505010792,-0.033170870660335,3.413425,60.28054,0.1939962,0.02660624,0.5018517,-0.01349136,11.3199997469783,6
-0.5567397,0.4833333,-23.60689,-0.419855527148216,-0.1219206641149373,-0.0921801695903639,6.827958,59.4203,0.3371841,0.05317723,0.4945786,-0.02696242,11.3399997465312,6
-0.5064707,0.6833333,-23.57482,-0.2903486540332589,-0.3513881989663264,-0.0698361405419696,10.24328,58.56184,0.4295914,0.07969028,0.486844,-0.04040434,11.3599997460842,6
-0.3018456,0.2833334,-23.47592,-0.1607571107715897,-0.5657321131938502,-0.0433233873999974,3.357061,58.80054,0.1084092,0.02598347,0.4906729,-0.01355566,11.3799997456372,6
-0.2524873,0.4833334,-23.44434,-0.1929771525270869,-0.0990256582170778,-0.076472774876418,6.713961,57.9352,0.1662403,0.05193236,0.4834091,-0.02709288,11.3999997451901,6
-0.2031429,0.6833333,-23.41276,-0.2188959341616976,0.3571917578059386,-0.1035453020004482,10.07041,57.06666,0.1731208,0.07782625,0.4757095,-0.04060185,11.4199997447431,6
0.01807465,0.2833334,-23.30416,0.0089650968486321,-0.1020571206423974,-0.018357485219159,3.304242,57.06504,359.9863,0.02527212,0.4774619,-0.01387654,11.4399997442961,6
0.06682266,0.4833333,-23.27339,0.0427480092326977,0.1484931839206499,-0.0122858780567689,6.606916,56.19169,359.9221,0.05051403,0.4701998,-0.02773715,11.459999743849,6
0.1155582,0.6833334,-23.24263,0.0701837934999227,0.4162579452969024,-0.0059791405577307,9.90688,55.3081,359.8062,0.07570015,0.4625272,-0.04156885,11.479999743402,6
0.16428,0.8833334,-23.21188,0.103279108046602,0.6489666314419009,0.0061758607752082,13.20372,54.40809,359.6367,0.1008117,0.4544511,-0.05536021,11.499999742955,6
0.3523359,0.2833333,-23.12436,0.3009703230666787,-0.0594034240694274,0.0842543432566707,3.252646,55.04798,359.8829,0.02469672,0.4619593,-0.014021,11.5199997425079,6
0.4002474,0.4833332,-23.09389,0.2407173113336358,0.1554635507901848,0.04350393859551,6.502192,54.16943,359.7158,0.04936494,0.4546985,-0.02802592,11.5399997420609,6
0.448145,0.6833332,-23.06342,0.1741185200638195,0.3875449957919918,0.0024265903848039,9.747806,53.27502,359.4969,0.07398304,0.4470523,-0.0420028,11.5599997416139,6
0.6522455,0.2833333,-22.96578,0.2782573948270399,-0.0557438291138826,0.0313804302661893,3.204589,52.68911,359.7847,0.02422428,0.4436409,-0.01409122,11.5799997411668,6
0.6992174,0.4833333,-22.93523,0.3788472238413276,-0.5095216006288802,0.0615685084001391,6.404555,51.80517,359.5197,0.04842082,0.436367,-0.0281665,11.5999997407198,6
0.7461758,0.6833333,-22.90468,0.3173508166136654,-0.0688109437100842,0.0225621627558858,9.59908,50.90016,359.2028,0.07256953,0.428733,-0.04221407,11.6199997402728,6
0.7931233,0.8833333,-22.87415,0.4428947889572789,-0.2789033085515239,0.0643555390323449,12.78701,49.96798,358.8311,0.09664924,0.4207458,-0.05621933,11.6399997398257,6
1.055565,0.2833333,-22.74947,0.5595218842394742,-0.4738720538145082,0.1055919726478755,3.461264,53.81139,359.7822,0.02607177,0.4523673,-0.01536055,11.6599997393787,6
1.106846,0.4833333,-22.71724,0.4866783047437732,0.0122095818876746,0.0635683794659698,6.917884,52.92849,359.5107,0.05211119,0.445054,-0.03070224,11.6799997389317,6
1.158108,0.6833331,-22.68502,0.4093163065540275,0.4878023899833409,0.0224964064097612,10.36959,52.02163,359.1822,0.07809616,0.437315,-0.04601641,11.6999997384846,6
1.392363,0.2833333,-22.57165,0.582724996314365,0.0479287686625297,0.0911088847827841,3.53984,55.59005,359.8287,0.02662558,0.4661277,-0.01572435,11.7199997380376,6
1.445265,0.4833333,-22.5396,0.5306246342623884,0.3178542220659561,0.0576306197466713,7.076255,54.71333,359.6024,0.05321912,0.4588397,-0.03143463,11.7399997375906,6
1.498152,0.6833333,-22.50757,0.457843261803347,0.6049940368017226,0.0173473656612266,10.60775,53.81484,359.319,0.07975106,0.4510945,-0.04710891,11.7599997371435,6
1.551024,0.8833333,-22.47555,0.3769931920482601,0.8570776797799623,-0.0242960899792983,14.13332,52.88703,358.9749,0.1061945,0.4429003,-0.0627315,11.7799997366965,6
1.750587,0.2833333,-22.3829,0.458782644888851,0.1680828031645775,-0.0029402704381702,3.588837,56.86234,359.9484,0.02732249,0.4758815,-0.01530399,11.7999997362494,6
1.803765,0.4833333,-22.34981,0.537953712314331,-0.4300125299469057,0.0202222630802459,7.17587,56.00009,359.843,0.0546132,0.4686273,-0.03058696,11.8199997358024,6
1.856928,0.6833334,-22.31673,0.4098991866520687,-0.034498642272816,-0.0430065407779878,10.75986,55.12343,359.6817,0.08183932,0.4608946,-0.04583402,11.8399997353554,6
2.073332,0.2833334,-22.21423,0.4595505496674765,-0.2902756448009725,-0.0343694255545514,3.554764,58.12872,0.05775077,0.02735517,0.4855444,-0.01462711,11.8599997349083,6
2.125717,0.4833334,-22.18101,0.5003887955289152,-0.5314170157179932,-0.0266547896277096,7.108721,57.27942,0.06304403,0.0546736,0.4783483,-0.02923254,11.8799997344613,6
2.178086,0.6833334,-22.1478,0.3607895328833201,-0.091996006966156,-0.0943383420037093,10.66136,56.42303,0.01487161,0.08192866,0.4706727,-0.04380433,11.8999997340143,6
2.230441,0.8833332,-22.1146,0.2194460274549809,0.336448172360151,-0.1600965262642546,14.21188,55.55264,359.9114,0.1090926,0.462526,-0.0583279,11.9199997335672,6
2.503481,0.2833333,-21.98708,0.3258653672169735,-0.1510617337793796,-0.1249086485007886,3.625227,59.48846,0.09034882,0.02785436,0.495859,-0.01500873,11.9399997331202,6
2.557441,0.4833333,-21.95401,0.2213743829015682,0.0707395386599337,-0.1817348855268186,7.250365,58.64555,0.1274104,0.05567129,0.4886876,-0.02999768,11.9599997326732,6
2.611381,0.6833333,-21.92094,0.1034416573584797,0.3092674897242511,-0.2417689920576755,10.87525,57.79727,0.1101684,0.08342434,0.4810069,-0.04495692,11.9799997322261,6
2.665305,0.8833332,-21.88788,-0.0144994759889574,0.5122512405540481,-0.2992512679869286,14.49843,56.93655,0.03733341,0.1110813,0.4728257,-0.05986493,11.9999997317791,6
2.85689,0.2833333,-21.80379,0.0328444087056647,-0.2263316628830971,-0.295242997044312,3.625725,60.09954,0.09745177,0.02780872,0.500478,-0.01510561,12.0199997313321,6
2.911131,0.4833332,-21.77118,-0.0794483935531618,-0.0421649960712323,-0.3518133087685093,7.251443,59.26073,0.1418844,0.05557992,0.4933446,-0.03019117,12.039999730885,6
2.965357,0.6833332,-21.73859,-0.1881318443500736,0.1587283483202271,-0.4023623847123616,10.87636,58.41711,0.13277,0.08328424,0.4856974,-0.04524086,12.059999730438,6
3.174746,0.2833333,-21.645,-0.1070915824398444,-0.3162365682995471,-0.3782393799226256,3.574728,62.31882,0.1899791,0.0275479,0.5171242,-0.01472049,12.079999729991,6
3.228671,0.4833333,-21.6135,-0.2022731018401016,-0.0818902930114895,-0.4243437258699849,7.150789,61.49127,0.3285287,0.05505925,0.5100768,-0.02942181,12.0999997295439,6
3.28258,0.6833333,-21.582,-0.2922502483736453,0.1691825547052493,-0.4634939549021517,10.7274,60.6652,0.4158716,0.08250551,0.5025114,-0.04408897,12.1199997290969,6
3.509479,0.2833334,-21.47838,-0.169391356979685,-0.2556027513475117,-0.4175240052387252,3.51391,63.27444,0.2442822,0.02722098,0.5242357,-0.01426815,12.1399997286499,6
3.562543,0.4833333,-21.44739,-0.0321603512247374,-0.6913648740195175,-0.3611292702766207,7.029949,62.45433,0.4385459,0.05440675,0.5172528,-0.02851815,12.1599997282028,6
3.615594,0.6833333,-21.41641,-0.1251202422929731,-0.2331264377451458,-0.401548985332429,10.547,61.63935,0.5834563,0.08152742,0.5097607,-0.0427343,12.1799997277558,6
3.66863,0.8833334,-21.38544,-0.210434734127479,0.214135181909978,-0.4350450223539468,14.06467,60.82338,0.6787707,0.1085585,0.5017673,-0.05690397,12.1999997273088,6
3.94961,0.2833333,-21.25768,-0.0264821382851243,-0.2545571505237276,-0.3628521161639,3.450508,63.26795,0.2722974,0.02687911,0.5241907,-0.01376845,12.2199997268617,6
4.001461,0.4833332,-21.22673,-0.0583001209208964,-0.013938396723219,-0.3831306833237171,6.903113,62.45354,0.4961229,0.05372225,0.5172585,-0.02751586,12.2399997264147,6
4.053297,0.6833331,-21.19579,-0.0999016033136088,0.2434069305513804,-0.4039038430956978,10.35754,61.64618,0.6720986,0.08050582,0.5098339,-0.04123314,12.2599997259676,6
4.105118,0.883333,-21.16485,-0.1388043530928042,0.4652081792075934,-0.4199683937345604,13.81309,60.84008,0.8002222,0.1072038,0.5019248,-0.05490728,12.2799997255206,6
4.305059,0.2833333,-21.07871,-0.0030409835941078,-0.2545572109833245,-0.3718135352744198,3.397411,61.68185,0.1670707,0.02619894,0.5123933,-0.01394574,12.2999997250736,6
4.356077,0.4833333,-21.0484,-0.0349966555581451,-0.0515732417497646,-0.3865636385088429,6.79546,60.86111,0.2855432,0.05236216,0.5054744,-0.02787339,12.3199997246265,6
4.40708,0.6833333,-21.01809,-0.0659495702509112,0.1681371937161511,-0.3958816124327526,10.19386,60.04103,0.3556459,0.07846885,0.4980906,-0.0417712,12.3399997241795,6
4.624033,0.2833334,-20.92284,0.0965889644662789,-0.2880105245874316,-0.3347594944999557,3.342456,60.42784,0.0896113,0.02559575,0.502996,-0.01400086,12.3599997237325,6
4.674196,0.4833333,-20.89306,0.067761645439921,-0.0348469581158473,-0.3501909878520628,6.684467,59.6027,0.1311188,0.05115763,0.4960909,-0.02798348,12.3799997232854,6
4.724344,0.6833333,-20.8633,0.0352558329552437,0.235043166410018,-0.3634611464234929,10.02578,58.77374,0.1241746,0.07666602,0.4887444,-0.04193704,12.3999997228384,6
4.774478,0.8833333,-20.83354,0.0117547091384606,0.4693893030940131,-0.3697857168902843,13.36568,57.93513,0.06751373,0.1020976,0.4809637,-0.05584927,12.4199997223914,6
5.046199,0.2833333,-20.71612,0.2523566306036677,-0.2378310949636211,-0.2819797120501555,3.285501,58.59499,359.9426,0.02475558,0.4891557,-0.014465,12.4399997219443,6
5.095854,0.4833333,-20.68747,0.2351399500271904,-0.0223023491256616,-0.3012411292440013,6.568856,57.76047,359.8372,0.04948208,0.4822578,-0.02891332,12.4599997214973,6
5.145495,0.6833333,-20.65883,0.2062193306908666,0.2099530870981777,-0.3221039068658839,9.848954,56.91371,359.6822,0.07415365,0.4749455,-0.04333314,12.4799997210503,6
5.195123,0.8833332,-20.63019,0.1779456046546954,0.4066645482864284,-0.33989511043006,13.12546,56.04876,359.4756,0.09875326,0.4672253,-0.05771146,12.4999997206032,6
5.387028,0.2833333,-20.55171,0.3132595624583789,-0.3381906319859793,-0.3096750514340982,3.229795,56.24756,359.8352,0.0241767,0.471226,-0.01455163,12.5199997201562,6
5.435678,0.4833334,-20.52314,0.2906559718203336,-0.1602965616437616,-0.3345041093272449,6.455885,55.40747,359.6229,0.04832559,0.4643238,-0.02908674,12.5399997197092,6
5.484314,0.6833334,-20.49458,0.2690604770186171,0.0343241996070389,-0.3546933548367974,9.677546,54.54939,359.361,0.07242644,0.4570348,-0.04359301,12.5599997192621,6
5.694488,0.2833333,-20.40705,0.4320878798519674,-0.4469131806280797,-0.3170741910609926,3.282063,55.38647,359.7816,0.02447145,0.4645944,-0.01499605,12.5799997188151,6
5.744005,0.4833333,-20.37801,0.413617029392725,-0.2188393694780741,-0.3456801007688987,6.559665,54.54386,359.5145,0.04891445,0.457675,-0.02997484,12.5999997183681,6
5.793509,0.6833333,-20.34897,0.3920777315254966,0.0259609068588799,-0.3693507127001538,9.832003,53.67964,359.1965,0.07330751,0.4503619,-0.04492337,12.619999717921,6
6.024655,0.2833333,-20.25191,0.3800241995175861,0.2352171158156137,-0.3832119378869514,3.533628,57.2541,359.7968,0.02621351,0.4789258,-0.01632767,12.639999717474,6
6.078701,0.4833333,-20.22192,0.4022210094461504,0.2231947985577966,-0.4055590160505993,7.062973,56.41322,359.5413,0.0523934,0.4719684,-0.03263482,12.6599997170269,6
6.132716,0.6833333,-20.19194,0.4087826974014179,0.2566479577895587,-0.4260626863140295,10.58909,55.54898,359.23,0.07852478,0.4645427,-0.04891898,12.6799997165799,6
6.186716,0.8833333,-20.16196,0.4126990096446858,0.2822604237919267,-0.439817323147011,14.10911,54.65414,358.8598,0.10457,0.4566571,-0.06514984,12.6999997161329,6
6.474113,0.2833333,-20.04419,0.6044229837045405,-0.3935979410634588,-0.3930437051366908,3.56588,59.70232,359.8789,0.02645925,0.4975359,-0.01640278,12.7199997156858,6
6.529119,0.4833333,-20.01502,0.5238032040074163,-0.1467067244316648,-0.4528090626585346,7.128862,58.87213,359.7053,0.05288333,0.4906389,-0.03278936,12.7399997152388,6
6.584108,0.6833333,-19.98586,0.4283018223226111,0.1169111804951852,-0.5111312826931496,10.68792,58.02365,359.4776,0.07924582,0.4832485,-0.04913815,12.7599997147918,6
6.639082,0.8833332,-19.95671,0.3308917982258581,0.3449850287572804,-0.5633725042906761,14.24218,57.14972,359.1926,0.1055199,0.4753723,-0.06543265,12.7799997143447,6
6.843471,0.2833333,-19.87666,0.369660923582769,-0.3685073925363541,-0.5808806280046497,3.590107,61.10125,0.03265208,0.02712078,0.5080424,-0.01567695,12.7999997138977,6
6.898253,0.4833333,-19.84626,0.2379232433147002,-0.1592507899824133,-0.6509504875885632,7.179507,60.28882,0.0148941,0.05420968,0.5011888,-0.03133041,12.8199997134507,6
6.95302,0.6833332,-19.81588,0.1077662025593024,0.0667323706258096,-0.7097105954052836,10.76729,59.468,359.9453,0.08123513,0.493825,-0.04694733,12.8399997130036,6
7.176401,0.2833333,-19.72908,0.1232329532653508,-0.3831426363871613,-0.6832670397537051,3.568351,62.5274,0.07239287,0.02694126,0.5187092,-0.01561846,12.8599997125566,6
7.23127,0.4833333,-19.69963,-0.0509879899741321,-0.1237065848693079,-0.7203933619807259,7.136205,61.72111,0.09418992,0.05384436,0.511912,-0.03121918,12.8799997121096,6
7.286123,0.6833333,-19.67019,-0.2234897967926983,0.1524561452735509,-0.7472887703618092,10.70299,60.90909,0.06518845,0.08068483,0.5045996,-0.04678377,12.8999997116625,6
7.340961,0.8833333,-19.64075,-0.3808527591039254,0.3930749019489375,-0.7599657889196259,14.26799,60.08474,359.9837,0.1074352,0.4967799,-0.06229688,12.9199997112155,6
7.622923,0.2833333,-19.53408,-0.349829598896493,-0.3078729945972067,-0.6142551098730209,3.638512,64.04955,0.107312,0.02741176,0.5299932,-0.01604125,12.9399997107685,6
7.679415,0.4833332,-19.50501,-0.5672390401767018,-0.0860717590086282,-0.5626601090279628,7.277139,63.24983,0.1639317,0.05478668,0.5232214,-0.03206116,12.9599997103214,6
7.73589,0.6833333,-19.47596,-0.7823781129320881,0.1524560618149142,-0.5068238848431008,10.91514,62.44638,0.1694179,0.08209535,0.5159026,-0.04804311,12.9799997098744,6
7.792345,0.8833333,-19.44691,-0.981513626063368,0.3554399219772665,-0.4430914542801787,14.55246,61.63239,0.1218509,0.1093119,0.5080443,-0.06397667,12.9999997094274,6
7.989876,0.2833333,-19.38012,-1.0750796768669293,-0.3831426320312812,-0.2371192134245241,3.603662,65.7137,0.1479476,0.02711287,0.5422391,-0.01597495,13.0199997089803,6
8.046325,0.4833333,-19.35231,-1.3112782091100428,-0.1989759477087851,-0.0857845808777284,7.207971,64.92106,0.2462167,0.05418961,0.5355418,-0.03192866,13.0399997085333,6
8.102757,0.6833333,-19.32451,-1.5230882718870191,0.0019172823844159,0.06765655464757,10.81223,64.12756,0.2947111,0.08120182,0.5282946,-0.04784504,13.0599997080863,6
8.319621,0.2833333,-19.25135,-1.604323886597383,-0.4730476807561429,0.3913149788299925,3.543738,67.98377,0.2347361,0.02678095,0.5587544,-0.01558899,13.0799997076392,6
8.375591,0.4833333,-19.22477,-1.837562466790029,-0.2387014776014389,0.6396954369638834,7.089325,67.20159,0.4213817,0.05352695,0.5521513,-0.03115782,13.0999997071922,6
8.431545,0.6833332,-19.1982,-2.0379176695388,0.0123712990273576,0.8785636054213803,10.63606,66.42435,0.5605366,0.08021067,0.5449975,-0.04669127,13.1199997067451,6
8.487485,0.8833331,-19.17164,-2.192000862467712,0.2279001037567997,1.111341453861204,14.18296,65.64605,0.6515745,0.1068012,0.5373009,-0.0621749,13.1399997062981,6
8.749453,0.2833333,-19.08565,-2.3806011321837417,0.2221502653599021,1.4733097796530217,3.477396,69.11407,0.2875546,0.02641063,0.5669007,-0.01514467,13.1599997058511,6
8.804523,0.4833333,-19.05972,-2.544600699209424,0.2618756936734626,1.8047965020633043,6.957349,68.33971,0.5284638,0.05278757,0.5603758,-0.03027019,13.179999705404,6
8.859581,0.6833332,-19.03379,-2.671363469339303,0.2937605519418801,2.1095180830033726,10.43879,67.57375,0.7236518,0.07910174,0.553311,-0.045361,13.199999704957,6
9.080902,0.2833332,-18.96204,-2.6390978443665745,-0.3758250840251415,2.5740930624871403,3.419072,69.00938,0.248887,0.02581419,0.5661668,-0.01511028,13.21999970451,6
9.135214,0.4833333,-18.937,-2.841135524460414,-0.1226614806157038,2.895540521006147,6.839767,68.23362,0.4514897,0.05159184,0.5596842,-0.03020182,13.2399997040629,6
9.18951,0.6833333,-18.91196,-3.017576416927742,0.147228802464149,3.17258347171321,10.26191,67.46394,0.6088352,0.07731345,0.5526804,-0.04526098,13.2599997036159,6
9.243792,0.8833331,-18.88693,-3.156602714239161,0.3815751003156574,3.409516218687223,13.68487,66.69489,0.7208872,0.102955,0.5451626,-0.0602737,13.2799997031689,6
9.415282,0.2833334,-18.83937,-3.161600271462378,-0.3256453596825738,3.754359825215378,3.369467,64.64601,0.09150004,0.02527107,0.5344406,-0.01504542,13.2999997027218,6
9.467897,0.4833334,-18.8131,-3.298790114598514,-0.1101165654072413,3.991097446243476,6.738489,63.85938,0.1376059,0.05051237,0.5279037,-0.03006504,13.3199997022748,6
9.520498,0.6833334,-18.78684,-3.396988226063746,0.1221388033875948,4.177466263726871,10.10687,63.0694,0.1371896,0.07570042,0.5208916,-0.04505318,13.3399997018278,6
9.695703,0.2833334,-18.69535,-3.4447749064834383,0.318850321376506,4.318399066456095,3.312992,58.36958,359.9301,0.0249403,0.4874395,-0.01462817,13.3599997013807,6
9.745734,0.4833333,-18.66638,-3.5092051749623945,0.294283197807194,4.549044302779921,6.623738,57.57119,359.814,0.04985157,0.4808107,-0.02923879,13.3799997009337,6
9.795759,0.6833333,-18.63744,-3.53944251372957,0.3151914364292025,4.715794102845029,9.931309,56.7603,359.6519,0.07471636,0.4737646,-0.04380573,13.3999997004867,6
9.84577,0.8833333,-18.6085,-3.5246761447727764,0.3282591882033522,4.82451411044166,13.23529,55.93095,359.4398,0.0995078,0.4663071,-0.05833028,13.4199997000396,6
10.04553,0.2833334,-18.44818,-3.34772589587785,-0.3601440164166757,5.05111399858265,3.237127,47.21918,359.7083,0.02486194,0.4004072,-0.01364416,13.4399996995926,6
10.09063,0.4833332,-18.4138,-3.3905893747963205,-0.1257978574305821,5.119095580184798,6.468928,46.40541,359.3703,0.04969612,0.3936367,-0.02727179,13.4599996991456,6
10.13571,0.6833332,-18.37943,-3.4030544188691394,0.1252752121746213,5.117957450041592,9.694573,45.5666,358.9834,0.07448089,0.3865379,-0.04087134,13.4799996986985,6
10.18079,0.8833332,-18.34508,-3.375644578590548,0.3408040750114858,5.054549898341568,12.91341,44.69736,358.5466,0.09920539,0.3791189,-0.0544115,13.4999996982515,6
10.29695,0.2833334,-18.18831,-3.2139698294456505,-0.3852339348223538,5.06534706771734,3.175658,37.75921,359.6217,0.02515062,0.3235412,-0.01208855,13.5199996978045,6
10.3363,0.4833334,-18.14876,-3.174315611299757,-0.1885226856782837,4.966662795750169,6.344783,36.94198,359.1978,0.05027357,0.3166987,-0.02416272,13.5399996973574,6
10.37565,0.6833335,-18.10921,-3.0972859564770605,0.0249151554959255,4.80801652446951,9.506533,36.09554,358.7251,0.07534815,0.3096018,-0.03621243,13.5599996969104,6
10.50128,0.2833335,-17.91546,-2.878247709247857,-0.4375050313015877,4.746678172002145,3.418205,33.75398,359.5622,0.02743164,0.2902957,-0.01231289,13.5799996964633,6
10.54103,0.4833333,-17.87028,-2.8097484784960685,-0.1906140204415048,4.568710328841688,6.829026,32.93071,359.0748,0.05483049,0.2833843,-0.02460988,13.5999996960163,6
10.58078,0.6833333,-17.82512,-2.711836846208937,0.0730035814032992,4.332905371154611,10.23183,32.07151,358.5339,0.0821742,0.2762106,-0.03687744,13.6199996955693,6
10.62052,0.8833333,-17.77999,-2.576391858344428,0.3010772416656648,4.048505646097723,13.62734,31.16981,357.9365,0.1094568,0.268783,-0.04909147,13.6399996951222,6
10.77639,0.2833333,-17.5349,-2.2658809982674946,-0.4124154798351352,3.929739030598,3.529689,31.63954,359.6977,0.02891195,0.2725601,-0.01093309,13.6599996946752,6
10.8135,0.4833332,-17.48545,-2.166504296643476,-0.2031589439261398,3.684956284408072,7.05486,30.83048,359.3461,0.05779804,0.2656431,-0.02184484,13.6799996942282,6
10.85061,0.6833332,-17.43601,-2.049949741875281,0.0228240501132796,3.388734094516094,10.57369,29.99263,358.9417,0.08662051,0.2584672,-0.03272423,13.6999996937811,6
10.9901,0.2833334,-17.21528,-1.7967063963513257,-0.4270508770999923,3.2301606622403938,3.583659,30.61909,359.8714,0.02986235,0.2639383,-0.009338083,13.7199996933341,6
11.02421,0.4833333,-17.16282,-1.725372480782216,-0.1676146056102607,2.9643432467400395,7.16473,29.82825,359.6949,0.05969428,0.257028,-0.01864927,13.7399996928871,6
11.05831,0.6833334,-17.11037,-1.6507735187010493,0.1085481389069987,2.6529358623058545,10.74197,29.01917,359.4665,0.08945636,0.2498611,-0.02793912,13.75999969244,6
11.09241,0.8833334,-17.05794,-1.5660926051165038,0.3491668110783369,2.307893165981952,14.3146,28.18488,359.1829,0.1191184,0.2424452,-0.037198,13.779999691993,6
11.20607,0.2833333,-16.87097,-1.3713443461612638,-0.3517809092289516,2.08217864505016,3.552124,29.53194,-0.005401745,0.0299576,0.2547504,-0.007944833,13.799999691546,6
11.23704,0.4833333,-16.81728,-1.3063164293341636,-0.1299795962799684,1.8026204182760743,7.102651,28.7559,359.9425,0.05987817,0.2478703,-0.01586645,13.8199996910989,6
11.268,0.6833333,-16.76362,-1.2375880715179477,0.1085482830865856,1.5048351038600352,10.65112,27.96981,359.8411,0.08972993,0.2407478,-0.02377012,13.8399996906519,6
11.29895,0.8833333,-16.70996,-1.158726942160559,0.3115321829745553,1.201836926359661,14.19686,27.16723,359.6881,0.1194829,0.2333901,-0.03164808,13.8599996902049,6
11.44616,0.2833334,-16.47091,-1.082707542818838,0.2932375383532803,1.0237279178796257,3.625036,29.33997,0.04606986,0.0306998,0.2531122,-0.007621379,13.8799996897578,6
11.47682,0.4833334,-16.41557,-1.0134846638269224,0.3204183657785908,0.8300940521416909,7.249339,28.5716,0.04355853,0.06135887,0.2462419,-0.01523252,13.8999996893108,6
11.50748,0.6833335,-16.36024,-0.9447001761566972,0.339758496054214,0.6347847411893728,10.8729,27.79613,359.9921,0.09195153,0.2391212,-0.02282304,13.9199996888638,6
11.63793,0.2833333,-16.1457,-0.7625654906424248,-0.3423720878774803,0.6211644483697807,3.626344,29.14261,0.07165948,0.03078007,0.2514395,-0.007355344,13.9399996884167,6
11.66802,0.4833333,-16.09002,-0.7622318564631296,-0.1017534261602499,0.4552686444748524,7.252268,28.379,0.09504324,0.06151901,0.244588,-0.01470091,13.9599996879697,6
11.6981,0.6833335,-16.03436,-0.7721784185422571,0.155591934306146,0.2851489797729538,10.8771,27.60992,0.0695321,0.09218448,0.2374875,-0.02202912,13.9799996875226,6
11.72817,0.8833334,-15.97872,-0.7860106161528346,0.3773932480391877,0.124557120387621,14.50033,26.82898,359.9938,0.1227462,0.2301457,-0.02933034,13.9999996870756,6
11.83792,0.2833333,-15.80175,-0.7057194343680635,-0.3423718317518068,0.1224756114414926,3.575985,30.12658,0.1615195,0.0304953,0.2597166,-0.006748339,14.0199996866286,6
11.86716,0.4833332,-15.74657,-0.7133561958941748,-0.1393876792228707,-0.0041971853986115,7.152749,29.37455,0.2763094,0.06095067,0.2529031,-0.0134878,14.0399996861815,6
11.89639,0.6833332,-15.6914,-0.7200634564471944,0.0803230130656596,-0.1171767807201131,10.72963,28.62315,0.3444719,0.09133477,0.2458385,-0.02021182,14.0599996857345,6
12.01549,0.2833333,-15.49644,-0.7190238824173445,0.2644894734959864,-0.2032059441997677,3.514701,30.7117,0.2310619,0.03010559,0.2646284,-0.006177446,14.0799996852875,6
12.04369,0.4833332,-15.44185,-0.6789626039146732,0.2273771503664461,-0.2433979164894477,7.031093,29.96831,0.4167936,0.06017258,0.2578482,-0.01234721,14.0999996848404,6
12.07189,0.6833332,-15.38727,-0.6421645494244057,0.235740419331505,-0.2774283414315874,10.54819,29.23022,0.5581895,0.09016892,0.25082,-0.01849996,14.1199996843934,6
12.10009,0.8833331,-15.3327,-0.6023541521159679,0.2362630039531615,-0.2928916239870656,14.06574,28.49187,0.6547834,0.1200671,0.2435509,-0.02463312,14.1399996839464,6
12.24969,0.2833333,-15.0862,-0.4488099303634421,-0.4646848999108596,-0.1176050507220551,3.451174,30.2247,0.261597,0.02966604,0.2605273,-0.005647806,14.1599996834993,6
12.27641,0.4833334,-15.03204,-0.430929553248923,-0.2428834519296317,-0.1576096679535776,6.903971,29.48696,0.4795804,0.05929223,0.2537842,-0.01128337,14.1799996830523,6
12.30311,0.6833333,-14.97791,-0.4157355598315817,-0.004355424724552,-0.1924436218544993,10.3583,28.75653,0.654339,0.0888534,0.2468053,-0.01690702,14.1999996826053,6
12.43486,0.2833334,-14.75659,-0.2850689622781619,-0.4416856373611357,-0.0303788220594789,3.397956,28.38541,0.1613057,0.0290884,0.2450354,-0.005905217,14.2199996821582,6
12.46092,0.4833333,-14.70327,-0.2822632971964562,-0.1697047574910429,-0.0657456218999144,6.796318,27.6407,0.2786868,0.05813804,0.2383176,-0.01180186,14.2399996817112,6
12.48697,0.6833333,-14.64996,-0.2882130530059399,0.119002821128216,-0.1077250029121419,10.19494,26.89718,0.3522637,0.0871257,0.2313862,-0.01768612,14.2599996812642,6
12.51301,0.8833332,-14.59666,-0.2963211467514917,0.3721662191144111,-0.1450375389571014,13.59326,26.14955,0.3814093,0.1160245,0.2242478,-0.02355293,14.2799996808171,6
12.62648,0.2833333,-14.41139,-0.300015785710114,0.4236857173345996,-0.1663660035795384,3.342539,26.30869,0.07538281,0.02854938,0.2274594,-0.005996921,14.2999996803701,6
12.65149,0.4833333,-14.3587,-0.2699973080722984,0.3558032804120785,-0.148324154038578,6.684383,25.55936,0.1074008,0.05706192,0.2207731,-0.01198345,14.3199996799231,6
12.67649,0.6833333,-14.30601,-0.2437269857199133,0.3338842043636617,-0.1326753110472065,10.02541,24.80624,0.09532804,0.08551528,0.213896,-0.01795812,14.339999679476,6
12.70148,0.8833333,-14.25335,-0.2141719126022003,0.3046123066640873,-0.1080237465026385,13.36503,24.04401,0.03807098,0.1138841,0.2068345,-0.02391516,14.359999679029,6
12.84634,0.2833334,-14.01775,-0.0743336986518556,-0.4256424297442727,0.0865557543832657,3.285386,24.2461,359.9362,0.0279104,0.2099412,-0.006563932,14.379999678582,6
12.87123,0.4833334,-13.96611,-0.0678531790129728,-0.2326600450051803,0.0731156032864692,6.568676,23.48776,359.8289,0.05578837,0.2032864,-0.01312042,14.3999996781349,6
12.89612,0.6833333,-13.91448,-0.0635791123471527,-0.0224633261144289,0.0585655655645371,9.848912,22.71763,359.6765,0.08360644,0.1964625,-0.01966461,14.4199996776879,6
13.02179,0.2833333,-13.7041,0.0538518774653109,-0.4876368935965786,0.221430723238635,3.22998,21.77801,359.8331,0.02740059,0.1888721,-0.006754036,14.4399996772408,6
13.04573,0.4833333,-13.653,0.0500210563124472,-0.243011069333633,0.1929012679150652,6.456516,21.01339,359.6228,0.05477013,0.1822423,-0.0135003,14.4599996767938,6
13.06966,0.6833332,-13.60192,0.0387998334255836,0.0188292070381671,0.1534531490448341,9.678988,20.23141,359.3673,0.08208567,0.1754663,-0.02023362,14.4799996763468,6
13.09359,0.8833331,-13.55086,0.0269592307113128,0.2456130433303062,0.114046428446537,12.8964,19.4267,359.0643,0.1093222,0.16855,-0.02694519,14.4999996758997,6
13.20349,0.2833334,-13.3732,0.1627825353597316,-0.4686817882452938,0.3085218151178583,3.280625,20.14122,359.7699,0.02783281,0.1748463,-0.006982046,14.5199996754527,6
13.22731,0.4833335,-13.32098,0.1983974112084272,-0.2597392766107406,0.3516332280429584,6.556969,19.3738,359.4954,0.05563349,0.1682352,-0.01395611,14.5399996750057,6
13.25112,0.6833335,-13.26878,0.2269104971394178,-0.0335821949101313,0.3849430773817826,9.828382,18.58488,359.1744,0.08337821,0.161485,-0.02091627,14.5599996745586,6
13.27493,0.8833334,-13.2166,0.2555124778446274,0.1575186985677258,0.4200562779595138,13.09462,17.7688,358.8037,0.1110476,0.1546018,-0.02785586,14.5799996741116,6
13.41879,0.2833333,-12.98577,0.2760985700463596,0.1278288393148801,0.4395115840295709,3.524814,22.5854,359.8147,0.02984296,0.1957771,-0.00760758,14.5999996736646,6
13.44579,0.4833333,-12.93036,0.2875023913717029,0.1441023506061892,0.4480112364304673,7.045929,21.82302,359.5821,0.05964824,0.1891538,-0.01520576,14.6199996732175,6
13.47278,0.6833332,-12.87498,0.2971375603884887,0.1530230632453821,0.4572886135641489,10.56455,21.03945,359.299,0.08940123,0.1823491,-0.02279729,14.6399996727705,6
13.59768,0.2833334,-12.66998,0.312442968473281,0.1012752610475777,0.4790696627036368,3.563977,24.17939,359.8751,0.03017869,0.2093744,-0.007578101,14.6599996723235,6
13.6255,0.4833334,-12.61431,0.3226484352753669,0.0421745540013339,0.4884450993803799,7.125296,23.42459,359.7027,0.06032022,0.2027623,-0.01514975,14.6799996718764,6
13.65332,0.6833333,-12.55867,0.322396229893938,0.0290369912549003,0.4835207697065673,10.683,22.65227,359.481,0.09039226,0.195952,-0.02270421,14.6999996714294,6
13.78606,0.2833332,-12.33439,0.3193773532576234,0.0085468422489979,0.4761610769179505,3.589829,25.3701,0.02932816,0.0306137,0.2194761,-0.006628491,14.7199996709824,6
13.81279,0.4833332,-12.27773,0.3036584328882927,0.0073619645533632,0.4456733988278234,7.178921,24.63206,0.01305838,0.06119034,0.2128783,-0.01324317,14.7399996705353,6
13.83952,0.6833332,-12.22109,0.2731180599901517,0.0521405492238075,0.3931476782347545,10.76648,23.88638,359.9496,0.09169572,0.2060693,-0.01984269,14.7599996700883,6
13.86623,0.8833331,-12.16447,0.2355539283868939,0.0895663070160383,0.330613732871333,14.35189,23.12688,359.8372,0.1220987,0.1990564,-0.02642049,14.7799996696413,6
13.89294,0.9766704,-12.10787,0.1987730970412435,0.0663235217451814,0.2701045707158638,17.93447,22.34687,359.6729,0.1523682,0.1918467,-0.03297008,14.7999996691942,6
14.03048,0.2833333,-11.88864,0.1566200384302725,0.0357279234478065,0.195778922604628,3.587132,26.29897,0.07236073,0.03062144,0.2273617,-0.006505567,14.8199996687472,6
14.05744,0.4833334,-11.83214,0.1088439584772089,0.0510956818428919,0.1133247072464662,7.173882,25.56862,0.09892157,0.06120273,0.2207952,-0.01300383,14.8399996683002,6
14.0844,0.6833333,-11.77565,0.0633853018650487,0.059110614405177,0.0349174186415481,10.75968,24.83345,0.07927565,0.09171302,0.2140099,-0.01948722,14.8599996678531,6
14.20505,0.2833333,-11.57904,0.0281983736829722,0.0064568849017632,-0.0272384869717807,3.640095,27.06477,0.09273432,0.031068,0.2338519,-0.006645394,14.8799996674061,6
14.23288,0.4833333,-11.52191,-0.0084212117418953,-0.0535496704344515,-0.0946712304611185,7.280029,26.33856,0.1394057,0.06209442,0.2272939,-0.01328212,14.899999666959,6
14.26071,0.6833332,-11.4648,-0.0506479282630678,-0.0675929891262235,-0.1687854015287211,10.91923,25.60868,0.1396266,0.09304688,0.2205037,-0.01990327,14.919999666512,6
14.39031,0.2833333,-11.25062,-0.0904957251466864,-0.0889889079291594,-0.2372062142660294,3.60478,28.33162,0.1380362,0.03079066,0.2445709,-0.006529932,14.939999666065,6
14.4184,0.4833333,-11.1943,-0.1369553104322225,-0.0910795554218276,-0.3181292328203788,7.209963,27.61193,0.2309396,0.06154058,0.2380388,-0.01305143,14.9599996656179,6
14.44648,0.6833333,-11.13799,-0.191454889654377,-0.0472069534637731,-0.4095877308785907,10.81496,26.89169,0.2787277,0.092218,0.2312677,-0.01955764,14.9799996651709,6
14.47455,0.8833332,-11.0817,-0.2457537412705335,-0.0106869382878906,-0.4991221623580397,14.41903,26.165,0.2801723,0.1227894,0.2242647,-0.0260442,14.9999996647239,6
14.63522,0.2833333,-10.81659,-0.1740505055495571,-0.6751496331481361,-0.3903320024624808,3.539263,30.0058,0.2381919,0.0303661,0.2586819,-0.005987275,15.0199996642768,6
14.66284,0.4833333,-10.76121,-0.1994711440517171,-0.416375423957924,-0.4234826749231155,7.080163,29.29829,0.4329819,0.06069286,0.2521892,-0.01196694,15.0399996638298,6
14.69046,0.6833333,-10.70585,-0.2222077336077283,-0.1403868976039841,-0.4528237358758185,10.62214,28.5969,0.5851834,0.09095021,0.2454513,-0.01793301,15.0599996633828,6
14.71808,0.8833332,-10.65051,-0.2343192719821747,0.1005455062138603,-0.4664332278584542,14.16427,27.89634,0.6947407,0.1211047,0.2384751,-0.02387921,15.0799996629357,6
14.83248,0.2833333,-10.46517,-0.2278226878623304,0.1403217487282815,-0.4523541625603773,3.471865,29.78436,0.2647257,0.02986896,0.2568147,-0.00555379,15.0999996624887,6
14.8589,0.4833333,-10.41047,-0.219139766217653,0.0611839279395879,-0.4390067420247261,6.9454,29.08196,0.4875025,0.05969832,0.2503597,-0.01109764,15.1199996620417,6
14.8853,0.6833332,-10.35578,-0.2095445406092544,0.028497233145559,-0.4234529721858839,10.42022,28.38748,0.6690963,0.08946045,0.2436702,-0.01662866,15.1399996615946,6
14.91171,0.8833332,-10.30111,-0.1916187229673394,-0.0110541718866999,-0.3942048273547121,13.89596,27.69591,0.8096921,0.1191279,0.2367527,-0.02214245,15.1599996611476,6
15.05764,0.2833332,-10.06488,-0.1769425389959327,-0.0308126553090993,-0.3698398857322598,3.413719,28.83251,0.2103826,0.02930486,0.2488008,-0.005638289,15.1799996607006,6
15.08348,0.4833332,-10.01109,-0.1659856134100064,-0.004120026065818,-0.3469983212400311,6.828329,28.12783,0.3790377,0.05857011,0.2423804,-0.0112687,15.1999996602535,6
15.10932,0.6833332,-9.957326,-0.1514039171611791,0.0157078790875346,-0.3143769899789497,10.24377,27.42774,0.5065346,0.08777261,0.235741,-0.01688728,15.2199996598065,6
15.23684,0.2833333,-9.745995,-0.2518079336299124,0.6956431257261115,-0.4631492123658045,3.357371,27.14091,0.1127257,0.02870726,0.2345121,-0.005917816,15.2399996593595,6
15.26214,0.4833334,-9.69313,-0.2142056880872882,0.4914396884150458,-0.4013075572712514,6.714447,26.42959,0.1838848,0.05737652,0.2281181,-0.01182765,15.2599996589124,6
15.28743,0.6833333,-9.640281,-0.1805839491159684,0.3091202341021138,-0.3461024415530112,10.07121,25.71704,0.2134098,0.08598633,0.2215257,-0.01772511,15.2799996584654,6
15.31272,0.8833333,-9.587446,-0.1433192144848547,0.0943235161696554,-0.2862081177858764,13.4271,24.99825,0.200414,0.1145106,0.2147408,-0.02360545,15.2999996580184,6
15.42329,0.2833333,-9.412281,0.0203149213175297,-0.7195796604856313,-0.0309104640364461,3.304222,25.2582,359.9883,0.02811095,0.2185509,-0.006403049,15.3199996575713,6
15.4484,0.4833334,-9.360393,0.0569446820751906,-0.5106371532940741,0.0361719439630388,6.607056,24.5389,359.9351,0.05618903,0.2121881,-0.01279881,15.3399996571243,6
15.4735,0.6833333,-9.308516,0.0920438828585137,-0.2844803166552048,0.0999003479515447,9.907636,23.81114,359.8392,0.0842068,0.2056471,-0.01918202,15.3599996566772,6
15.4986,0.8833333,-9.256654,0.1330848246343663,-0.0933795764171639,0.1714847143541149,13.20579,23.06983,359.6993,0.1121434,0.1989336,-0.02554719,15.3799996562302,6
15.64013,0.2833333,-9.030595,0.0750751563257736,0.6168532511405733,0.093921602026425,3.248675,23.12014,359.8642,0.02753385,0.2003474,-0.006840948,15.3999996557832,6
15.66488,0.4833333,-8.979555,0.1419859670942038,0.3308978031558577,0.1981440698233649,6.494431,22.39325,359.687,0.05503643,0.1940158,-0.01367394,15.4199996553361,6
15.68963,0.6833333,-8.92853,0.2087332930201704,0.0668264459337217,0.3015399625781061,9.736704,21.651,359.4667,0.08248445,0.1875268,-0.02049378,15.4399996548891,6
15.81184,0.2833333,-8.727577,0.1605860399244711,0.4905657012875373,0.2268826752799784,3.196578,20.68012,359.7714,0.02708079,0.1794747,-0.006968325,15.4599996544421,6
15.83557,0.4833333,-8.676955,0.2116403890951215,0.2702621798208929,0.300123355877286,6.389063,19.94787,359.5016,0.0541313,0.1731681,-0.0139289,15.479999653995,6
15.8593,0.6833333,-8.626348,0.2578792184439482,0.0718426295915095,0.3662741285230062,9.576871,19.19537,359.1884,0.08112952,0.1667258,-0.02087627,15.499999653548,6
15.9932,0.2833333,-8.403398,0.3067164601621215,-0.1590543032600089,0.436830761045373,3.528797,21.94565,359.7745,0.02985241,0.1903123,-0.007791212,15.519999653101,6
16.02024,0.4833333,-8.347867,0.3147780941045077,-0.1567199063662723,0.4401988528393525,7.053533,21.21303,359.5035,0.05966727,0.1839748,-0.01557306,15.5399996526539,6
16.04728,0.6833333,-8.292358,0.3084733864448985,-0.1079345014350686,0.4222533100358321,10.57474,20.4571,359.1837,0.08942473,0.177461,-0.02334333,15.5599996522069,6
16.07429,0.8833333,-8.236875,0.2952114169256461,-0.0660139246992936,0.3944256869691704,14.09182,19.67141,358.8118,0.1190972,0.1707776,-0.03109217,15.5799996517599,6
16.1013,0.9766704,-8.181407,0.2824015005061717,-0.0842741191108763,0.3681426942364663,17.60246,18.84874,358.3829,0.1486433,0.1639314,-0.0388087,15.5999996513128,6
16.24047,0.2833333,-7.962824,0.3154999154889779,-0.1093991283888964,0.4210509986321868,3.56233,24.0574,359.8521,0.03013086,0.20834,-0.007739228,15.6199996508658,6
16.26852,0.4833333,-7.907289,0.3352408365308186,-0.0880730095814316,0.4537281330563241,7.121761,23.33528,359.6586,0.06022412,0.2020241,-0.0154726,15.6399996504188,6
16.29656,0.6833333,-7.851769,0.3495850241332583,-0.0736115989213768,0.4781606665921849,10.67743,22.59461,359.4177,0.09024827,0.1955113,-0.0231882,15.6599996499717,6
16.41693,0.2833333,-7.656102,0.3664721563446207,-0.1193309588859733,0.5063467871942331,3.592866,25.69173,-0.001708344,0.03056062,0.2222202,-0.006984217,15.6799996495247,6
16.44448,0.4833333,-7.599783,0.3456928373601222,-0.171915132671599,0.4709516933075592,7.184665,24.98545,359.9526,0.06108413,0.2159159,-0.01395686,15.6999996490777,6
16.47202,0.6833333,-7.54348,0.3157171170284272,-0.1780481634746312,0.4214859749447175,10.7746,24.26994,359.8614,0.09153654,0.2093976,-0.02091369,15.7199996486306,6
16.49955,0.8833332,-7.487194,0.2844460977353336,-0.1910460070532817,0.3699253541796912,14.36209,23.53918,359.7228,0.121887,0.2026719,-0.02784761,15.7399996481836,6
16.65162,0.2833333,-7.240836,0.1377295765840003,0.4560633760323239,0.1390582651088818,3.57043,26.92109,0.07085481,0.03044094,0.2326439,-0.006650574,15.7599996477365,6
16.67907,0.4833333,-7.184897,0.1278696529338496,0.2190339336893465,0.0933383751208918,7.140299,26.22448,0.09831274,0.06084123,0.226367,-0.0132927,15.7799996472895,6
16.7065,0.6833333,-7.128974,0.1106113040209031,0.0038884523908752,0.0364423891502703,10.70921,25.52345,0.08191954,0.09117141,0.219868,-0.01991981,15.7999996468425,6
16.84178,0.2833333,-6.904974,0.0940477351972077,-0.2437344217224895,-0.0192992410286825,3.647595,27.4626,0.08979167,0.03110219,0.2372243,-0.006793674,15.8199996463954,6
16.8701,0.4833333,-6.847935,0.0961375638717498,-0.2581260830023847,-0.0510662320050654,7.294978,26.76988,0.1355804,0.06216293,0.2309499,-0.0135783,15.8399996459484,6
16.89841,0.6833333,-6.790912,0.089549201385946,-0.2260667336312869,-0.0925993610767967,10.9416,26.07371,0.1369873,0.09314952,0.224439,-0.0203469,15.8599996455014,6
16.92671,0.8833332,-6.733909,0.0825961037462654,-0.2008721036457641,-0.131228551214424,14.58762,25.36818,0.09251485,0.1240349,0.2176985,-0.02709544,15.8799996450543,6
16.955,0.9766705,-6.676923,0.0835748261496256,-0.2358583627647986,-0.1542815230563445,18.23177,24.64704,3.550653e-05,0.1547813,0.2107357,-0.03381404,15.8999996446073,6
17.09388,0.2833333,-6.459077,0.1032722058271389,-0.2777092217440942,-0.135647696521393,3.611184,28.7544,0.142232,0.03082955,0.248143,-0.006621907,15.9199996441603,6
17.12236,0.4833333,-6.402822,0.1134315264494105,-0.2731089638760718,-0.1262533335513036,7.222753,28.07016,0.2415155,0.06161829,0.241905,-0.01323509,15.9399996437132,6
17.15083,0.6833333,-6.346582,0.1226592552767442,-0.2753736516379669,-0.1131164369929931,10.83418,27.3861,0.2978871,0.0923344,0.2354238,-0.01983318,15.9599996432662,6
17.27195,0.2833333,-6.152734,0.0225640793253489,0.382468993983424,-0.2632588437380327,3.546688,30.44686,0.2249184,0.03037493,0.262399,-0.006232839,15.9799996428192,6
17.30025,0.4833333,-6.097575,0.0269111592313144,0.1561728275052178,-0.2563853776608003,7.094747,29.77237,0.408403,0.06071064,0.2561928,-0.01245749,15.9999996423721,6
17.32855,0.6833332,-6.042432,0.0346580199494539,-0.0482393645994926,-0.2402052394226519,10.64366,29.10355,0.5511249,0.09097674,0.2497371,-0.01866849,16.0199996419251,6
17.45843,0.2833334,-5.830239,-0.0781077627061606,0.4351591657270131,-0.4093119993981031,3.484445,30.69234,0.2622062,0.02992401,0.2644601,-0.00584052,16.0399996414781,6
17.48585,0.4833333,-5.775793,-0.18997436130498,0.9148291031940234,-0.5742691558456303,6.970712,30.02312,0.4840396,0.0598103,0.2582845,-0.01167387,16.059999641031,6
17.51326,0.6833333,-5.721359,-0.1634335824390405,0.4902552083240235,-0.5312244523329368,10.45787,29.36206,0.6667579,0.08962709,0.2518658,-0.01749164,16.079999640584,6
17.54066,0.8833332,-5.666941,-0.1355824942534162,0.0614171575449271,-0.485593637452586,13.94588,28.70438,0.8104219,0.1193489,0.2452102,-0.02329141,16.099999640137,6
17.70132,0.2833333,-5.404229,-0.0985468265756424,-0.2990231536739066,-0.4256253055625287,3.42636,29.85444,0.2388847,0.02942398,0.2574159,-0.005687583,16.1199996396899,6
17.72778,0.4833333,-5.350464,-0.070085993766515,-0.3185524679540439,-0.3665982085118426,6.853863,29.18563,0.4383473,0.05880889,0.2512744,-0.01136496,16.1399996392429,6
17.75423,0.6833333,-5.296715,-0.0472011997908445,-0.2936745218554315,-0.3117309242977875,10.28246,28.52357,0.5989052,0.08813037,0.2449043,-0.01703065,16.1599996387959,6
17.78068,0.8833333,-5.242981,-0.0220938535141606,-0.2776390856490171,-0.2494184692722667,13.71167,27.86359,0.7207373,0.1173612,0.2383117,-0.02267922,16.1799996383488,6
