pX,pY,pZ,aX,aY,aZ,reX,reY,reZ,rtX,rtY,rtZ,t,ID
-45.00955,0.2300002,-37.90419,3.2430333120378805,0.098477815770572,5.17944429442484,4.636579,359.1752,0.3944313,0.0404247,-0.007330727,0.003730289,2.07999995350838,7
-45.0185,0.4300001,-37.81921,3.467270188210684,-0.0359507127090393,5.388271648298172,8.811053,358.3692,0.7132468,0.07671762,-0.01466651,0.00729831,2.09999995306134,7
-45.11319,0.2833333,-37.43076,3.557388981736807,-0.3844786989688623,6.267404375409292,0.7710565,1.687993,0.2576923,0.006761063,0.01471448,0.00214938,2.11999995261431,7
-45.11707,0.4833333,-37.41792,3.604469715336528,-0.4932937756236209,6.997086631475781,1.474632,359.5399,0.4789226,0.01285124,-0.004068719,0.004230666,2.13999995216727,7
-45.12079,0.6833334,-37.40519,3.610502102166393,-0.3877299734118827,7.583505245365437,2.192634,357.3714,0.6687652,0.01899397,-0.02304426,0.006272295,2.15999995172024,7
-45.10525,0.2833333,-37.38827,3.577531924254856,-0.0920753519116127,8.03313801864882,0.890156,1.731613,0.3150818,0.007808629,0.01508873,0.002631828,2.1799999512732,7
-45.11043,0.4833332,-37.37154,3.693052103298889,-0.4833264400972566,8.372926079010831,1.834875,359.0644,0.6061785,0.01596767,-0.008248254,0.005419754,2.19999995082617,7
-45.11555,0.6833332,-37.35477,3.7666889658814497,-0.6274767816852764,8.579256852249024,2.786852,356.395,0.8532661,0.02407062,-0.03162537,0.008205071,2.21999995037913,7
-45.06005,0.2833332,-37.32193,3.945959756926477,-0.976737302700658,8.682058100469625,1.279832,2.385711,359.9128,0.01115015,0.02082495,-0.0009930861,2.2399999499321,7
-45.05708,0.4833332,-37.29942,4.073460249140673,-1.077294851438588,8.663049768544703,2.554719,359.7068,359.7663,0.02229738,-0.002512933,-0.001981663,2.25999994948506,7
-45.0541,0.6833333,-37.27692,4.150738338896225,-0.954482863624597,8.531781885484278,3.82413,357.0239,359.5605,0.03345366,-0.02582566,-0.002965025,2.27999994903803,7
-44.99684,0.2833332,-37.21571,4.324215941838752,-1.2729034781694035,8.277291958889563,2.529802,3.182586,0.1059796,0.02209205,0.02774254,0.0003112504,2.29999994859099,7
-44.99482,0.4833332,-37.16891,4.4432084532119305,-1.3386482647052116,7.92913241350378,5.188678,0.9593742,0.08919611,0.04526919,0.008328207,0.0003986043,2.31999994814396,7
-44.90527,0.2833331,-37.08584,4.509325378937213,-1.177051443886901,7.497968470422926,3.732616,5.668576,0.02258617,0.03253736,0.04941484,-0.001413623,2.33999994769692,7
-44.8979,0.4833331,-37.02057,4.728448244338786,-1.4527140341189353,6.983293479962285,7.467489,3.438483,359.899,0.06506428,0.02999562,-0.002833089,2.35999994724989,7
-44.89053,0.683333,-36.95532,4.881037465803843,-1.471728322185399,6.40231002707462,11.19686,1.178368,359.6259,0.09751654,0.01055241,-0.004252344,2.37999994680285,7
-44.88316,0.8833328,-36.8901,4.969448354107016,-1.2594278852907572,5.767141994694562,14.91465,358.8677,359.1965,0.1298469,-0.00888689,-0.005669459,2.39999994635582,7
-44.7441,0.2833331,-36.83615,5.120173912835455,-1.480416056640578,5.057588663928442,3.931726,7.271519,0.07389499,0.03427587,0.06335399,-0.001532157,2.41999994590878,7
-44.73534,0.4833331,-36.7678,5.201797967391975,-1.440783323866773,4.315867255481031,7.864727,5.054177,-0.004807165,0.06851028,0.04399079,-0.003065569,2.43999994546175,7
-44.60196,0.2833333,-36.69604,5.218172299417887,-1.1658637993370762,3.557677410602629,3.470813,10.25949,0.07615085,0.03022201,0.08935032,-0.002046151,2.45999994501472,7
-44.59128,0.4833335,-36.63631,5.362412433788201,-1.320258726132181,2.844116035399232,6.941081,8.049602,0.01832297,0.06039723,0.0700499,-0.004089658,2.47999994456768,7
-44.58062,0.6833336,-36.5766,5.428544396006856,-1.210060269420032,2.1319225193861726,10.40678,5.81769,359.823,0.09049645,0.05067787,-0.006138906,2.49999994412065,7
-44.45096,0.2833333,-36.52786,5.577825676007876,-1.2874789791390444,1.4397566196444913,3.596287,11.94348,0.07122651,0.03127272,0.1039672,-0.002646647,2.51999994367361,7
-44.43798,0.4833333,-36.46642,5.640783509358961,-1.0987010478504171,0.7661293661305351,7.191646,9.739069,0.003978723,0.06249433,0.08471785,-0.005289404,2.53999994322658,7
-44.42501,0.6833338,-36.405,5.622808600963147,-0.6690606135344509,0.126962802552967,10.78066,7.510608,359.7955,0.09362205,0.06537303,-0.007925347,2.55999994277954,7
-44.31432,0.2833328,-36.1839,5.655849866816283,-0.6631603311863907,-0.459606620571904,9.826454,16.81769,5.288205,0.09135735,0.1416347,0.032957,2.57999994233251,7
-44.34682,0.4833328,-36.01165,5.604280086509277,-0.3870910491049034,-0.982167311030917,18.51887,15.99215,9.769703,0.1704529,0.1232256,0.06092538,2.59999994188547,7
-44.41215,0.2833334,-35.26462,5.485680675772464,-0.1062824783906933,-1.5261821854858049,3.97182,23.55077,1.308378,0.03625087,0.2035523,0.004098995,2.61999994143844,7
-44.40322,0.4833336,-35.20536,5.605373499201079,-0.096873836849897,-2.437055138440712,7.272287,23.77447,2.191397,0.0659797,0.2043472,0.005613357,2.6399999409914,7
-44.39428,0.6833336,-35.14612,5.663076583337471,-0.0618529720162995,-3.318805086605714,10.56984,24.05231,3.099084,0.09566438,0.2049605,0.007150845,2.65999994054437,7
-44.38532,0.8833339,-35.08692,5.667663802840529,-0.0545352809631002,-4.158401270507568,13.8635,24.38797,4.037992,0.125278,0.2053921,0.008708314,2.67999994009733,7
-44.20261,0.283333,-35.00888,5.710787560325997,-0.048263025645878,-4.949346522338367,3.184706,33.70146,0.5341644,0.02794553,0.2896403,-0.003595568,2.6999999396503,7
-44.17942,0.4833334,-34.9574,5.709020676504366,-0.0163782012661983,-5.6804984693291125,6.367019,33.88344,1.078918,0.05586103,0.2904361,-0.007189173,2.71999993920326,7
-44.01917,0.2833329,-34.88588,5.672582835765532,-0.0121964306188973,-6.339152659597339,3.147467,40.62149,0.6003351,0.02757325,0.3468409,-0.004621424,2.73999993875623,7
-43.99125,0.4833326,-34.83734,5.711712356950031,-0.0090606277346091,-6.914065010604581,6.295258,40.80795,1.209051,0.05513373,0.3475488,-0.009268332,2.75999993830919,7
-43.96338,0.6833326,-34.78881,5.699883976831686,0.0196877847218119,-7.404451429323178,9.442244,41.02921,1.830131,0.08265418,0.3479815,-0.01393341,2.77999993786216,7
-43.79995,0.283333,-34.75975,5.646846735810293,0.0207330495331062,-7.796593563390132,3.295165,47.10719,0.4562366,0.0279465,0.3993334,-0.00784112,2.79999993741512,7
-43.76323,0.483333,-34.71477,5.590399181461912,0.0207333316198161,-8.11193246818274,6.589918,47.28304,0.9192798,0.05586231,0.3999147,-0.01571124,2.81999993696809,7
-43.72652,0.6833326,-34.6698,5.498682703869463,0.0463461443501333,-8.339982480640753,9.882252,47.48719,1.396282,0.08372349,0.4001576,-0.02356625,2.83999993652105,7
-43.49859,0.2833336,-34.63553,5.278468420768618,0.5244474102556307,-8.51582332205712,3.305262,54.61914,0.3701165,0.02710649,0.458522,-0.01036292,2.85999993607402,7
-43.45531,0.4833336,-34.59687,5.181414127353072,0.3366216278091235,-8.591581880923211,6.609408,54.78719,0.7463646,0.05417263,0.4589923,-0.02074914,2.87999993562698,7
-43.41203,0.6833338,-34.55822,5.045716411401749,0.1487958112996436,-8.589550839188753,9.9114,54.9785,1.135457,0.08118509,0.4590749,-0.03111503,2.89999993517995,7
-43.25264,0.2833333,-34.55006,5.024691473124406,-0.5202666209882272,-8.477840782161682,3.285976,59.97754,0.2411655,0.02588459,0.4995714,-0.01250884,2.91999993473291,7
-43.20509,0.4833333,-34.51775,4.819019029981675,-0.2864424786171989,-8.26928141937448,6.570372,60.13417,0.4914808,0.05173963,0.499973,-0.02500503,2.93999993428588,7
-43.15683,0.683333,-34.48328,4.580197652373997,-0.0557542652767077,-7.974660711875224,9.938531,60.17075,0.8132802,0.07849414,0.4988612,-0.03730338,2.95999993383884,7
-42.93066,0.2833339,-34.40401,4.171248760771,0.5997187409940239,-7.593582658012128,4.312596,69.54527,2.717419,0.04441154,0.5690244,-0.001989117,2.97999993339181,7
-42.87943,0.4833339,-34.37252,3.8666658535877048,0.3491682436397795,-7.079251816822353,7.690842,69.64794,3.384875,0.07185804,0.5678968,-0.01409073,2.99999993294477,7
-42.68113,0.2833333,-34.33691,3.5310483990586405,0.0986174949513329,-6.461405877285383,3.262058,70.66171,0.148507,0.02396998,0.5780322,-0.01540319,3.01999993249774,7
-42.62827,0.4833335,-34.31572,3.1544513073918523,0.0871178139758945,-5.693785075699179,6.523,70.70739,0.2996579,0.04791232,0.5775617,-0.03079021,3.0399999320507,7
-42.57542,0.6833334,-34.29454,2.739592106817568,0.1012310203905349,-4.817214711704491,9.782872,70.7621,0.4544124,0.0718078,0.5766226,-0.0461494,3.05999993160367,7
-42.40425,0.2833332,-34.2714,2.3003801549830314,0.0876404125363635,-3.8272256362485457,3.209356,70.73002,0.03210229,0.02299821,0.5785499,-0.01597945,3.07999993115664,7
-42.35155,0.4833332,-34.25247,1.7332341964544185,0.713318789605631,-2.9114123675447274,6.417731,70.76556,0.06614162,0.04597101,0.5781019,-0.03194226,3.0999999307096,7
-42.29888,0.6833332,-34.23355,1.3283576072118135,0.4340200070737467,-1.9991408377427755,9.625137,70.80327,0.1023496,0.0689005,0.5772008,-0.04787609,3.11999993026257,7
-42.06442,0.2833334,-34.2015,1.0122743088706798,0.6359577693194296,-1.8276341566957972,3.452587,73.40353,0.009319098,0.02420147,0.5973765,-0.01793899,3.13999992981553,7
-42.00666,0.4833331,-34.18422,0.8281551285425124,0.413110900847801,-1.630705783024272,6.904286,73.43713,0.02057209,0.04837425,0.5967913,-0.03585789,3.1599999293685,7
-41.94891,0.6833334,-34.16693,0.6714297388219777,0.191309364355117,-1.4470884609139851,10.35531,73.4716,0.03337679,0.07249536,0.5956644,-0.05374491,3.17999992892146,7
-41.7924,0.2833333,-34.15095,0.560003423738678,-0.083808567491065,-1.2777529589337815,3.552027,75.59145,359.9453,0.02419781,0.6125653,-0.01937053,3.19999992847443,7
-41.73211,0.4833332,-34.13649,0.2879848311055681,0.4937815042415521,-1.1396459541580306,7.103428,75.61894,359.8917,0.04836482,0.6119062,-0.03872288,3.21999992802739,7
-41.67184,0.6833335,-34.12203,0.1634240082276719,0.1663932703413114,-0.9746656514419244,10.65426,75.64294,359.8369,0.07246901,0.6106584,-0.05805063,3.23999992758036,7
-41.45006,0.283333,-34.09089,-0.0998995359940053,0.320242887982274,-0.8424593465686989,3.571155,77.46164,359.9353,0.02395395,0.6253722,-0.01993539,3.25999992713332,7
-41.38898,0.483333,-34.07847,-0.2423245930996316,0.0493077456234396,-0.6932719096200053,7.141455,77.48804,359.8712,0.04787334,0.6246814,-0.03985313,3.27999992668629,7
-41.32872,0.6833333,-34.06462,-0.3633411419543151,-0.2205819903580378,-0.5609706640130128,10.68051,77.70267,359.8865,0.07186232,0.6246505,-0.05915079,3.29999992623925,7
-41.18233,0.2833336,-34.03851,-0.6088654677949634,0.1765003912448248,-0.4243894800154457,3.568066,79.05263,0.1072965,0.0246089,0.6361013,-0.01909167,3.31999992579222,7
-41.12118,0.4833336,-34.02344,-0.6643157611198873,-0.0912987497758824,-0.2583258353993862,7.166527,79.32003,0.2838207,0.04969207,0.6368619,-0.03798563,3.33999992534518,7
-41.06001,0.6833333,-34.00812,-0.6943904731528079,-0.3580521569442686,-0.1151744355070114,10.77147,79.60406,0.5048511,0.07491638,0.636987,-0.05671322,3.35999992489815,7
-40.85548,0.283333,-33.97075,-0.9136852650900522,0.0421657465887013,0.0162034596277358,3.510475,80.38631,0.217474,0.02462151,0.6450181,-0.01831845,3.37999992445111,7
-40.7959,0.4833328,-33.95641,-1.0159922256100415,-0.2224974963282071,0.1487621812295536,7.016271,80.94007,0.4822957,0.04927642,0.6476324,-0.03651937,3.39999992400408,7
-40.60435,0.2833333,-33.91697,-1.0928154135209809,-0.4861156183520568,0.2584657636785046,3.642493,81.39407,0.1818519,0.02512987,0.6516907,-0.01952075,3.41999992355704,7
-40.54125,0.4833336,-33.90372,-1.2689607744229932,-0.0827612727531446,0.3809395195088711,7.326153,81.76492,0.4057292,0.05061603,0.6529972,-0.03914437,3.43999992311001,7
-40.4781,0.6833339,-33.89035,-1.2480234067328198,-0.3442882491460286,0.5150957422301659,11.01662,82.14273,0.6645488,0.07615743,0.6535341,-0.05871246,3.45999992266297,7
-40.41499,0.8833337,-33.87666,-1.2005442234775998,-0.6047696527669866,0.6291882123095505,14.70291,82.5587,0.9595416,0.1016342,0.6534798,-0.07817219,3.47999992221594,7
-40.22866,0.2833333,-33.83579,-1.3253773236263129,-0.1982801089668785,0.6690066679937026,3.657037,81.94842,0.1554183,0.02497974,0.6553521,-0.01989936,3.4999999217689,7
-40.16599,0.4833332,-33.82396,-1.3310388248014249,-0.4566714916447703,0.6958718814231339,7.308883,82.34132,0.3467111,0.04996702,0.6568173,-0.0396864,3.51999992132187,7
-39.99124,0.2833333,-33.78567,-1.484065942760601,-0.2338247389524002,0.6897938798306278,3.606492,83.03665,0.1966175,0.02469775,0.66249,-0.01957436,3.53999992087483,7
-39.92902,0.4833336,-33.77391,-1.6177866124508,-0.0088871837851918,0.6675099880445359,7.227173,83.4109,0.4476968,0.04964823,0.6637898,-0.03902076,3.5599999204278,7
-39.86647,0.6833338,-33.76203,-1.5682079566052636,-0.4744437791083783,0.659953331129234,10.86441,83.74236,0.7249635,0.07469649,0.6640012,-0.05849578,3.57999991998076,7
-39.80395,0.883333,-33.7501,-1.6318589148116018,-0.2453246867689726,0.6315253852048492,14.50116,84.10532,1.038735,0.09973306,0.6635806,-0.07785612,3.59999991953373,7
-39.63103,0.2833331,-33.70975,-1.538619682979629,-0.4409906339896611,0.6173465119138228,3.554648,83.8573,0.2587703,0.02458275,0.6678294,-0.0190452,3.61999991908669,7
-39.56945,0.4833328,-33.69836,-1.425060424733516,-0.635610937263368,0.587333278754123,7.136055,84.09759,0.5439435,0.04938562,0.668238,-0.03816328,3.63999991863966,7
-39.40807,0.2833336,-33.65564,-1.497685956804105,-0.163259327156329,0.5278680674155254,3.505701,83.45969,0.2579329,0.02432522,0.6652547,-0.01868104,3.65999991819263,7
-39.34786,0.4833336,-33.64409,-1.5566951337695445,0.2845255618645955,0.4567307910245759,7.009959,83.7042,0.5338745,0.04863998,0.6657427,-0.03732584,3.67999991774559,7
-39.28693,0.6833336,-33.63201,-1.4465213429179613,-0.1972344435018533,0.4030171255874677,10.55413,83.86177,0.8446651,0.07332555,0.664879,-0.05599669,3.69999991729856,7
-39.23972,0.8833338,-33.61284,-1.4360218630098842,0.0167266955256021,0.3408839384954341,13.35017,84.1928,1.681533,0.09601225,0.6644984,-0.06710155,3.71999991685152,7
-39.07889,0.2833334,-33.5638,-1.412944364957205,0.2338239346825178,0.2741722000989988,2.705647,82.05221,0.8641728,0.02275912,0.6560669,-0.009808972,3.73999991640449,7
-39.03408,0.4833332,-33.54238,-1.2044805091680215,-0.2385278908662861,0.237190728264995,5.407197,82.13458,1.735789,0.04549827,0.6555998,-0.01957678,3.75999991595745,7
-38.89362,0.2833333,-33.49516,-1.1721768504040924,-0.0151581692766321,0.1776347578362234,2.642187,80.36835,0.7576535,0.0218784,0.6449447,-0.009826246,3.77999991551042,7
-38.85038,0.4833332,-33.4743,-1.1352012328712604,0.2113480546643265,0.1180020890938422,5.27608,80.47867,1.529329,0.04374293,0.644771,-0.01955291,3.79999991506338,7
-38.80754,0.6833335,-33.45328,-0.9894996488995104,-0.2515947563062213,0.0737556474110903,7.893211,80.62714,2.321661,0.06554655,0.6442404,-0.02910866,3.81999991461635,7
-38.61115,0.2833333,-33.39088,-0.9285406499153268,-0.0188170564018738,0.0176097028213888,2.90276,77.86456,0.529753,0.02260681,0.628102,-0.0123214,3.83999991416931,7
-38.56522,0.4833331,-33.37066,-0.8525859109806149,0.2170968662934776,-0.036284574773596,5.70449,77.76929,1.108254,0.04479594,0.6265728,-0.02371708,3.85999991372228,7
-38.52023,0.6833333,-33.35026,-0.5999101730513061,-0.2364375698031732,-0.0604422436465661,8.461599,77.73414,1.70438,0.0667422,0.6248821,-0.03474081,3.87999991327524,7
-38.38632,0.2833335,-33.31225,-0.5007406736114319,0.0057497930955454,-0.1080241646589001,2.842727,77.60557,0.3719459,0.02136391,0.6263828,-0.01301499,3.89999991282821,7
-38.34085,0.4833335,-33.29349,-0.256030461515067,-0.175802556639706,-0.1272879340272084,5.610935,77.67521,0.8629807,0.04284059,0.6260587,-0.02483438,3.91999991238117,7
-38.29547,0.6833333,-33.27467,-0.1659140724339778,0.124927049571432,-0.1756110078141759,8.377211,77.76323,1.365646,0.06431407,0.6253147,-0.0365927,3.93999991193414,7
-38.09686,0.2833333,-33.23258,-0.0857496118748741,0.4287923839199807,-0.2217816415247391,2.766519,75.81082,0.3531337,0.02093977,0.6141191,-0.01239982,3.9599999114871,7
-38.05153,0.4833331,-33.21481,-0.0066850716901498,0.6835233098752714,-0.2634590294610888,5.530623,75.80233,0.6971346,0.04180092,0.6133429,-0.02484164,3.97999991104007,7
-38.00572,0.6833329,-33.19713,0.2219757656491268,-0.0169025373867182,-0.2781704089331178,8.315757,75.79405,1.030927,0.06272399,0.612088,-0.03745344,3.99999991059303,7
-37.87372,0.2833333,-33.16954,0.3031083289792065,0.1918311035006979,-0.3212752531930682,2.904682,73.5256,0.002450597,0.02031752,0.5983108,-0.0151522,4.019999910146,7
-37.82767,0.4833333,-33.15456,0.499684913168771,-0.0231743425674273,-0.3376586367350569,5.669545,73.4608,0.06812245,0.03999196,0.597295,-0.02910127,4.03999990969896,7
-37.7823,0.6833335,-33.13959,0.5510381278942518,0.2441028591986245,-0.3812203865438341,8.396894,73.44836,0.1436861,0.05942819,0.5962847,-0.04277524,4.05999990925193,7
-37.59474,0.2833332,-33.09689,0.5855986807075837,0.5145156971059229,-0.4203432780806864,2.864194,71.97248,359.8865,0.01964062,0.5874272,-0.01548666,4.07999990880489,7
-37.54631,0.4833331,-33.08323,0.6098586604614127,0.735793624212908,-0.4515048515636657,5.739727,71.96686,359.77,0.03933617,0.5868945,-0.03103934,4.09999990835786,7
-37.3744,0.2833333,-33.04262,0.7583962874134684,0.0019160241452943,-0.4504881894560597,2.98467,72.7817,359.8886,0.0203881,0.5931092,-0.01623322,4.11999990791082,7
-37.32682,0.4833335,-33.0287,0.7681329309822473,0.1771970041134822,-0.4725123663256738,5.815506,72.67418,359.8409,0.040042,0.591828,-0.03117523,4.13999990746379,7
-37.28008,0.6833335,-33.01457,0.8769979719187972,-0.0712611946957981,-0.4645648128485398,8.607399,72.56305,359.8154,0.05954289,0.5901814,-0.04570207,4.15999990701675,7
-37.2332,0.8833336,-33.00044,0.8476615813393735,0.1625625776868881,-0.4818909740822619,11.40723,72.44213,359.7784,0.07903881,0.5881309,-0.0602778,4.17999990656972,7
-37.05087,0.2833336,-32.96091,0.7966028153074376,0.399522402371482,-0.4878700623794714,3.026166,74.15862,359.9326,0.0207119,0.602722,-0.01638893,4.19999990612268,7
-37.00338,0.4833337,-32.94588,0.915166629802762,-0.0529665407529412,-0.4550678471537495,5.866489,73.65696,0.004328677,0.04098273,0.5986347,-0.03064365,4.21999990567565,7
-36.95692,0.6833335,-32.93099,1.0236619960189517,-0.5300229161042501,-0.4174348403951278,8.650235,73.28762,0.06166646,0.06083104,0.5951062,-0.04458053,4.23999990522861,7
-36.75861,0.2833333,-32.88619,0.9966841656995556,-0.1266683369431182,-0.4083583302555915,3.072059,75.02552,0.05024303,0.02152953,0.6087099,-0.01597526,4.25999990478158,7
-36.70917,0.4833333,-32.87029,1.0847965717648478,-0.3881952256957196,-0.3889504684171641,6.03851,74.66136,0.1802216,0.04283407,0.6055059,-0.03069192,4.27999990433455,7
-36.6604,0.6833335,-32.85447,1.055262023547883,-0.1684847302929119,-0.3980887971884108,8.966597,74.41085,0.3030248,0.06385294,0.6026576,-0.04516658,4.29999990388751,7
-36.52449,0.2833333,-32.82502,1.0227292194248534,0.0533161765139367,-0.4054828317253047,3.265765,75.5005,0.157387,0.02337137,0.6119406,-0.01635987,4.31999990344048,7
-36.47201,0.4833332,-32.80801,1.1835571500164832,-0.4153767800300808,-0.3966169544599829,6.416679,75.40637,0.3406387,0.0460953,0.6104782,-0.03187932,4.33999990299344,7
-36.42019,0.6833332,-32.7908,1.1565310042896506,-0.189393736072292,-0.4343259103210677,9.537642,75.33772,0.5458202,0.06870636,0.6086611,-0.04704605,4.35999990254641,7
-36.22572,0.283333,-32.74956,1.11353192076648,0.038680902346214,-0.471765690296845,3.44991,76.84693,0.1560998,0.02442894,0.6211544,-0.01764045,4.37999990209937,7
-36.17117,0.4833334,-32.73243,1.066945143820469,0.216575326298669,-0.5075105978390724,6.710462,76.86319,0.3978492,0.04800075,0.6203515,-0.03366355,4.39999990165234,7
-35.99004,0.2833333,-32.69198,1.0668167238022157,0.1585547594071799,-0.5581734319130724,3.490968,77.75892,0.1602709,0.02458939,0.627359,-0.01803078,4.4199999012053,7
-35.93517,0.4833329,-32.67641,1.056551807966521,0.13137400420234,-0.6077843996675156,6.746309,78.10799,0.369404,0.04771862,0.6288104,-0.03457225,4.43999990075827,7
-35.88135,0.6833327,-32.66026,1.1708099756746613,-0.3451589094275574,-0.6439929643704971,9.948426,78.38686,0.6471247,0.07075386,0.629171,-0.05043283,4.45999990031123,7
-35.8274,0.8833329,-32.6442,1.098701373162509,-0.1259712195765788,-0.7050049221289925,13.1586,78.69642,0.9429721,0.09378415,0.6291057,-0.06632221,4.4799998998642,7
-35.64044,0.283333,-32.60915,1.0157220217702196,0.096352627640104,-0.7630126564274242,3.467771,79.97871,0.1920756,0.02425878,0.6423112,-0.0181611,4.49999989941716,7
-35.58544,0.483333,-32.59552,1.1267537987772052,-0.3707716009773283,-0.7927115519507559,6.69833,80.48264,0.4251694,0.04698675,0.6447352,-0.03491264,4.51999989897013,7
-35.41573,0.2833336,-32.56218,1.121024825039601,-0.1421754791033216,-0.8298985428574888,3.303055,82.38645,0.2362007,0.02304422,0.6582808,-0.0174308,4.53999989852309,7
-35.35844,0.4833335,-32.55012,1.102599588471712,0.0895572521023703,-0.858112937468718,6.635502,82.70833,0.492412,0.04627601,0.6594114,-0.03501706,4.55999989807606,7
-35.3011,0.6833333,-32.53804,1.208908634586475,-0.3681580940070511,-0.8614643767383257,9.974284,83.01667,0.7750618,0.06956397,0.6597646,-0.05256531,4.57999989762902,7
-35.24504,0.883333,-32.5256,1.1497473677575591,-0.1301524236111684,-0.8868549422532723,13.24421,83.24678,1.109277,0.09258804,0.6589346,-0.069408,4.59999989718199,7
-35.07073,0.2833336,-32.49343,1.0851708114456038,0.1109897926076859,-0.9012817173173387,3.34645,84.13686,0.3251387,0.02357602,0.6696678,-0.01745845,4.61999989673495,7
-35.01235,0.4833333,-32.48168,1.0592991391190625,0.1428751085918456,-0.9121379175623688,6.735157,84.23436,0.6535745,0.04739068,0.6692316,-0.03517089,4.63999989628792,7
-34.85,0.2833336,-32.45234,1.014176704078281,0.2055994576057628,-0.9155566900060884,3.33658,84.55952,0.3256063,0.02345052,0.6724021,-0.01748434,4.65999989584088,7
-34.79292,0.4833336,-32.44054,0.9628811786112372,0.2458477760623198,-0.9098491471921868,6.661012,84.75858,0.7060046,0.04706005,0.6726199,-0.03461428,4.67999989539385,7
-34.73582,0.6833335,-32.42863,1.0119666095904876,-0.4300108729705952,-0.8787828716253046,9.989475,84.98486,1.110282,0.07071518,0.6722741,-0.05169137,4.69999989494681,7
-34.50655,0.2833333,-32.39344,0.9054722382569196,-0.1977561577318131,-0.8671031402263054,3.398003,85.0664,0.3169938,0.02371695,0.6756571,-0.0180055,4.71999989449978,7
-34.44826,0.4833333,-32.38225,0.7993814478043326,0.0365894661781313,-0.8470335245715432,6.784789,85.32737,0.6830311,0.04754473,0.6762348,-0.03572568,4.73999989405274,7
-34.38996,0.6833336,-32.37098,0.8666698609925447,-0.4195583026536429,-0.7958978598557529,10.16743,85.61534,1.068642,0.07131795,0.6762308,-0.05339756,4.75999989360571,7
-34.22298,0.2833333,-32.35265,0.7587765120708845,-0.1810301313560936,-0.769910582506494,3.457026,84.70412,0.209539,0.02352281,0.6733359,-0.01897002,4.77999989315867,7
-34.1636,0.4833333,-32.34259,0.6466337420455659,0.0595890163900901,-0.7370603306496797,6.895463,84.82947,0.4679863,0.047148,0.6730846,-0.03755261,4.79999989271164,7
-34.10436,0.6833328,-32.33229,0.622966710646633,-0.3902864890225305,-0.6872291557994181,10.3276,85.02479,0.756965,0.07078853,0.6725543,-0.0559689,4.8199998922646,7
-33.87202,0.2833331,-32.30991,0.5054432542392604,-0.145486047510654,-0.6457154356524448,3.323313,84.34856,0.2074944,0.02270524,0.6710657,-0.01812704,4.83999989181757,7
-33.81397,0.4833333,-32.30004,0.3949638287971559,0.1014053905740161,-0.5983715634155864,6.689538,84.67265,0.4553371,0.04579941,0.6721573,-0.03636107,4.85999989137053,7
-33.75583,0.6833338,-32.29004,0.4528198217022279,-0.3421976576699592,-0.5214380236716494,10.06207,85.01347,0.733508,0.06895582,0.6726462,-0.05455183,4.8799998909235,7
-33.6977,0.8833336,-32.28002,0.3481732838417812,-0.0911248984646782,-0.4610731317061614,13.42904,85.37587,1.032866,0.09201036,0.6725525,-0.07269087,4.89999989047647,7
-33.50339,0.2833333,-32.2672,0.2406070527048101,0.1620382504523652,-0.3889878244337481,3.329917,83.66091,0.06377092,0.02202044,0.666635,-0.01896306,4.91999989002943,7
-33.44452,0.4833335,-32.25984,0.160091003033898,0.2048995799188399,-0.3083950938728712,6.726589,83.72752,0.111593,0.04433995,0.6661693,-0.03842799,4.9399998895824,7
-33.27052,0.2833336,-32.24264,0.0626961234564724,0.2775551949950612,-0.2196552147571786,3.289998,81.93246,359.973,0.02152189,0.655349,-0.01899838,4.95999988913536,7
-33.21268,0.4833333,-32.23562,-0.0372650133930712,0.3266894328121058,-0.1239790691175031,6.641193,81.8499,359.9172,0.04329238,0.6540015,-0.03848831,4.97999988868833,7
-33.15471,0.683333,-32.22865,-0.0326841273377382,-0.3413280827863041,-0.0186930446931405,10.00952,81.73077,359.856,0.0651551,0.6518719,-0.0580252,4.99999988824129,7
-32.9153,0.2833331,-32.19981,-0.1767293448442757,-0.1022774175564932,0.0680396454800948,3.233704,78.58714,359.7956,0.02070694,0.6330798,-0.01924898,5.01999988779426,7
-32.85945,0.4833329,-32.19244,-0.3159671880222312,0.1378188559892121,0.1589250388247371,6.478212,78.47518,359.598,0.0415473,0.6316767,-0.03845304,5.03999988734722,7
-32.80387,0.6833332,-32.18425,-0.4167834274353232,0.1665674626307082,0.2481829887390638,9.723634,78.50871,359.4513,0.06260817,0.6307946,-0.05732254,5.05999988690019,7
-32.63219,0.2833338,-32.16304,-0.5253321357430565,0.2240648532850832,0.3383637664202439,3.550804,79.1341,359.7961,0.02275015,0.6367165,-0.02110577,5.07999988645315,7
-32.57061,0.4833336,-32.15485,-0.6293532303928586,0.2569952173320093,0.429576408225877,7.100773,79.12801,359.5915,0.04547306,0.6358835,-0.04218622,5.09999988600612,7
-32.50905,0.6833338,-32.14666,-0.5372173252326071,-0.4282709959457621,0.5453471199938242,10.65067,79.10889,359.384,0.06814975,0.634438,-0.06322867,5.11999988555908,7
-32.27818,0.2833336,-32.11694,-0.5775475269794654,-0.2075153180577691,0.6344741757508636,3.577858,80.36082,359.8326,0.02290848,0.6449162,-0.0212573,5.13999988511205,7
-32.21613,0.4833333,-32.10937,-0.6138287390289214,0.0132407035090611,0.7191145979574642,7.154981,80.35795,359.6644,0.04578843,0.644057,-0.04249109,5.15999988466501,7
-32.15411,0.6833336,-32.1018,-0.6525552978673588,0.0216036323671059,0.7858610265723627,10.73098,80.34438,359.4945,0.06861673,0.6425694,-0.06367683,5.17999988421798,7
-32.00361,0.2833333,-32.08078,-0.6870430813697368,0.0576699450460249,0.8449711728079841,3.581284,81.36899,359.8936,0.02309023,0.6515966,-0.02107389,5.19999988377094,7
-31.94155,0.4833331,-32.07323,-0.7049486093284401,0.0681238032220966,0.8972083173029723,7.161623,81.37186,359.7871,0.04615164,0.6507263,-0.04212166,5.21999988332391,7
-31.87951,0.6833333,-32.06568,-0.7391104337098682,0.079623316844673,0.928700432291155,10.74087,81.36797,359.6799,0.06916098,0.6492208,-0.06312182,5.23999988287687,7
-31.66796,0.2833336,-32.03853,-0.7779075142256957,0.1188261433744133,0.94740412276591,3.594225,82.61269,0.05318265,0.02386384,0.6597492,-0.02035205,5.25999988242984,7
-31.60589,0.4833338,-32.02953,-0.8088926310591695,0.1324160853889563,0.9546836586731722,7.187528,82.63065,0.1082759,0.04770215,0.6588596,-0.04067443,5.2799998819828,7
-31.54383,0.683334,-32.02052,-0.9499786823157556,0.78736597954111,0.943227401278989,10.77979,82.65232,0.1650817,0.07148701,0.6573226,-0.06095085,5.29999988153577,7
-31.40701,0.2833336,-32.00317,-0.9478309727239173,0.5394297860216086,0.925318545428965,3.557822,82.87102,0.07133849,0.02368465,0.6614431,-0.02007694,5.31999988108873,7
-31.34557,0.4833338,-31.99422,-0.9325002134246034,0.2946305191160041,0.8975161995269332,7.114333,82.89054,0.1439858,0.0473378,0.6605701,-0.04012736,5.3399998806417,7
-31.28415,0.6833339,-31.98528,-1.0995845885390416,0.718893917276434,0.8472355851040412,10.66982,82.91482,0.2185662,0.0709388,0.6590611,-0.06013342,5.35999988019466,7
-31.08352,0.2833334,-31.95464,-1.1039894709564742,0.4803662469049444,0.7949007295363373,3.634844,83.35723,0.098938,0.02426108,0.6645964,-0.02044418,5.37999987974763,7
-31.02704,0.4833334,-31.93834,-1.096863322964662,0.2449742294012782,0.7318227436249707,6.950439,83.59914,0.6676222,0.04906403,0.6650267,-0.03606683,5.39999987930059,7
-30.97254,0.6833334,-31.91944,-1.0663330382818543,-0.0416425179072277,0.6603363174144512,10.1677,83.90816,1.421337,0.07415444,0.6650363,-0.05004892,5.41999987885356,7
-30.75941,0.2833333,-31.8768,-1.0006577986650242,-0.1137758034420526,0.5908155511978492,3.168784,84.30432,0.8629664,0.02554963,0.6706719,-0.0129741,5.43999987840652,7
-30.70585,0.4833329,-31.8561,-0.9265238693313478,-0.158205909969425,0.5156922885401016,6.329071,84.53445,1.752657,0.05111773,0.6708604,-0.02582422,5.45999987795949,7
-30.65213,0.6833329,-31.83537,-0.9705194646667828,0.2519432681633704,0.4256015381616329,9.501572,84.77808,2.659689,0.07674669,0.6702443,-0.03873801,5.47999987751245,7
-30.51008,0.2833331,-31.81167,-0.9051539541666288,-0.0017429071485556,0.3382863798776974,3.105131,85.93515,0.8621346,0.02495124,0.6811657,-0.01296317,5.49999987706542,7
-30.4572,0.4833331,-31.79211,-0.8223870215590239,-0.2533375677994672,0.2512433594764118,6.197371,86.13773,1.784224,0.05010147,0.6811811,-0.02555153,5.51999987661839,7
-30.40442,0.6833332,-31.77255,-0.9284359781518284,0.1630852370554258,0.1407579664802973,9.282996,86.40485,2.720201,0.07516565,0.6807406,-0.03813565,5.53999987617135,7
-30.20302,0.2833334,-31.73612,-0.8603181446614627,-0.0843279594278149,0.0446937730235141,3.05806,87.26853,0.9400523,0.02497051,0.6896251,-0.01247717,5.55999987572432,7
-30.15051,0.4833333,-31.71657,-0.7794274458565909,-0.3296505138196776,-0.0479959908355631,6.101344,87.41435,1.93579,0.05012106,0.6892455,-0.02457402,5.57999987527728,7
-30.09825,0.6833332,-31.69703,-0.8133962525374265,0.0930436960849002,-0.1505000287352835,9.130919,87.64937,2.941965,0.07512736,0.6885552,-0.03663814,5.59999987483025,7
-29.87966,0.2833335,-31.65521,-0.6615151662858629,-0.1480978279848168,-0.2367685564655772,3.02224,87.60822,0.9382521,0.02469708,0.6917752,-0.01234614,5.61999987438321,7
-29.82796,0.4833333,-31.63666,-0.5056666149640456,-0.3871487930733239,-0.318963022060224,6.008889,87.9006,1.897032,0.04920269,0.6923605,-0.0244702,5.63999987393618,7
-29.7762,0.6833333,-31.61818,-0.5386683817085505,0.0418179997976753,-0.4200966830719146,9.002506,88.23536,2.866879,0.07368523,0.6923606,-0.03671253,5.65999987348914,7
-29.62546,0.2833332,-31.59293,-0.5705549825027774,0.4472635939134105,-0.5143177038460784,3.008825,87.95796,0.9106876,0.02440816,0.693983,-0.01251325,5.67999987304211,7
-29.57336,0.4833332,-31.57519,-0.4578996562213255,-0.0757901989244863,-0.5966124679054232,6.02542,88.40422,1.84251,0.04886691,0.6955321,-0.02512757,5.69999987259507,7
-29.5216,0.6833332,-31.55716,-0.4458282877610848,0.0979226723488441,-0.6860523628764454,9.014902,88.91698,2.817792,0.07324395,0.6966358,-0.03753114,5.71999987214804,7
-29.31888,0.2833332,-31.52647,-0.3160362025671261,-0.1510590376646278,-0.7613177491471106,2.907628,87.58757,0.7227759,0.0226771,0.6917129,-0.01300669,5.739999871701,7
-29.26906,0.4833331,-31.51134,-0.1886508188055842,-0.3969047116671766,-0.8240962945275001,5.78814,88.29196,1.492182,0.04528429,0.6950698,-0.02583065,5.75999987125397,7
-29.21943,0.6833331,-31.49582,-0.2333026447028316,0.0263121449738867,-0.8947459302889129,8.650092,89.0134,2.321012,0.06792926,0.6977637,-0.0384514,5.77999987080693,7
-29.16988,0.8833331,-31.48015,-0.2810247204707252,0.4270523082670745,-0.9515733695374742,11.49797,89.77296,3.202054,0.09056157,0.6998979,-0.05096731,5.7999998703599,7
-29.00169,0.2833335,-31.4623,-0.2007663733003291,-0.0996612941840728,-0.994131681686696,2.906828,87.31953,0.6317636,0.02215437,0.6900408,-0.01352327,5.81999986991286,7
-28.95238,0.4833336,-31.44823,-0.2079442429968381,0.071437064869274,-1.029989441336344,5.75729,87.95136,1.331333,0.0441948,0.6930102,-0.02651851,5.83999986946583,7
-28.90331,0.6833336,-31.43365,-0.2131837466358277,0.2477621230202578,-1.0477182687163804,8.59113,88.58237,2.095404,0.06633808,0.6952469,-0.03924387,5.85999986901879,7
-28.71612,0.2833333,-31.41368,-0.0645141975389336,-0.2632703165157946,-1.040109297696972,3.027227,86.12821,0.4185387,0.02179109,0.6825029,-0.01536861,5.87999986857176,7
-28.6648,0.4833333,-31.40232,-0.0799589501860467,-0.076490457663689,-1.0381375220490945,5.999719,86.61964,0.8897694,0.0433984,0.6846867,-0.0302545,5.89999986812472,7
-28.61363,0.6833335,-31.39043,-0.0957479130861962,0.1155163325415098,-1.0249850854575584,8.966388,87.07923,1.422338,0.06518238,0.6859921,-0.04487157,5.91999986767769,7
-28.40952,0.2833332,-31.36729,0.0611817325020318,-0.3798345530957702,-0.998591282653404,3.054749,84.0631,0.2125101,0.02103955,0.669264,-0.01646926,5.93999986723065,7
-28.35796,0.4833332,-31.3573,0.0317534590155368,-0.1773733297385006,-0.9919745721085604,6.051823,84.56839,0.4923668,0.04193959,0.6716964,-0.03234126,5.95999986678362,7
-28.30663,0.6833331,-31.34727,-0.0038285996425706,0.0303154103148527,-0.9806974197382096,9.033879,85.11151,0.8108956,0.06278107,0.6737794,-0.04806408,5.97999986633658,7
-28.16897,0.2833333,-31.33305,0.054990033761431,-0.4493536968345435,-0.970110996489698,3.036728,82.88259,0.1667038,0.0208258,0.6615903,-0.01644715,5.99999986588955,7
-28.11762,0.4833336,-31.323,0.0125922096099806,-0.2312113039412465,-0.9581072312680838,6.027142,83.42406,0.3907669,0.04151094,0.6643292,-0.03243875,6.01999986544251,7
-28.06642,0.6833336,-31.31288,-0.0251585975343964,-0.0078416969983205,-0.9387682445849528,9.008183,83.98327,0.6562156,0.06218543,0.6666108,-0.04829457,6.03999986499548,7
-27.86903,0.2833333,-31.29091,0.1036739572581453,-0.4718296283392212,-0.9194246755172202,3.17619,84.60101,0.3199477,0.02237624,0.6727007,-0.01658764,6.05999986454844,7
-27.81599,0.4833334,-31.27912,0.0639794698840319,-0.2380060179952282,-0.9132930966156144,6.260586,85.30366,0.7309372,0.04447691,0.6762607,-0.03231324,6.07999986410141,7
-27.76281,0.6833333,-31.26698,0.0243186186058785,0.0010446346025347,-0.9010060773086151,9.351612,85.95496,1.208268,0.06680076,0.6787754,-0.04787988,6.09999986365438,7
-27.54747,0.2833333,-31.2453,0.1668781591129118,-0.4472623700861373,-0.8954644324939594,3.233066,87.15252,0.2912155,0.02218803,0.688991,-0.01760534,6.11999986320734,7
-27.4926,0.4833333,-31.23574,0.1127999763159124,-0.1977580331989859,-0.9119643445052644,6.400223,87.69595,0.7077004,0.04452962,0.6914052,-0.03422388,6.13999986276031,7
-27.43798,0.6833333,-31.22577,0.050035848894165,0.0569734905571104,-0.9244978107219808,9.54935,88.23171,1.179523,0.06689604,0.6930439,-0.0505753,6.15999986231327,7
-27.38331,0.8833335,-31.2159,-0.0107247572351454,0.2646615608505413,-0.9326010607302208,12.69677,88.80698,1.676922,0.08916496,0.6941858,-0.06697043,6.17999986186624,7
-27.20337,0.2833336,-31.20353,-0.0405120770978442,0.2395719450913196,-0.9634910016122724,3.273723,89.38492,0.303665,0.02216934,0.7029579,-0.01820647,6.1999998614192,7
-27.14762,0.4833336,-31.19581,-0.0754880587822377,0.2484584069329507,-0.9909382475642694,6.464083,89.78287,0.7253282,0.04440138,0.7043762,-0.0353131,6.21999986097217,7
-26.98482,0.2833333,-31.18401,0.0131776310059308,-0.1888715824212865,-1.0268682102605349,3.169348,90.14679,0.3896817,0.02193608,0.7076707,-0.01717884,6.23999986052513,7
-26.9308,0.4833333,-31.17573,-0.0781250990846587,0.0726557383473729,-1.073601475409898,6.251705,90.42796,0.8832096,0.04387479,0.7083696,-0.03327919,6.2599998600781,7
-26.87729,0.6833332,-31.16686,-0.1759303982725946,0.3404556440861589,-1.1142566692725957,9.308147,90.69452,1.425298,0.06583996,0.7082697,-0.04900405,6.27999985963106,7
-26.82396,0.8833331,-31.15785,-0.268886010125577,0.5622574842707112,-1.1489616020440288,12.35504,90.9852,1.996401,0.08777465,0.707597,-0.06458976,6.29999985918403,7
-26.65685,0.2833333,-31.15043,-0.215938264989834,-0.1679616327229737,-1.192812878403629,3.203277,90.44161,0.4326957,0.02236658,0.7094699,-0.017181,6.31999985873699,7
-26.60281,0.4833331,-31.14293,-0.2867912593079786,0.0141140523260814,-1.2342821337399634,6.289273,90.55864,0.8946182,0.04413764,0.7091527,-0.03349191,6.33999985828996,7
-26.54951,0.683333,-31.13528,-0.3438799467424438,0.2024623788845755,-1.2688777165305112,9.332814,90.75031,1.373022,0.06564337,0.7086267,-0.04950863,6.35999985784292,7
-26.36299,0.2833333,-31.12302,-0.2379551152712942,-0.295501739389735,-1.3103217687522566,3.095545,91.02177,0.3521785,0.02111978,0.7130618,-0.01711579,6.37999985739589,7
-26.31101,0.4833333,-31.11695,-0.2776294087913982,-0.0946085838691801,-1.3507093461344155,6.062514,91.49096,0.7674142,0.04169176,0.7149816,-0.03320794,6.39999985694885,7
-26.25955,0.6833332,-31.11077,-0.3075833584409331,0.1125573593441008,-1.380344863621474,8.995936,92.01334,1.215487,0.06207541,0.7165868,-0.04907187,6.41999985650182,7
-26.05802,0.2833332,-31.10098,-0.1524940977730011,-0.3665896614961711,-1.4267218614452233,3.130515,93.5308,0.4311537,0.02145081,0.7282078,-0.01732439,6.43999985605478,7
-26.00661,0.4833334,-31.09585,-0.1702245978105416,-0.1468791417875598,-1.4723646149182343,6.044288,94.17886,0.9286291,0.04182191,0.7310838,-0.03310337,6.45999985560775,7
-25.95608,0.6833334,-31.09036,-0.187576057988263,0.079103872114666,-1.5030185891349,8.899491,94.85832,1.486902,0.06200846,0.7334788,-0.04838041,6.47999985516071,7
-25.82141,0.2833332,-31.09033,-0.1938392541230484,0.2590890616041064,-1.5186124260891771,3.004478,96.16529,0.5353407,0.02098869,0.7437635,-0.01638746,6.49999985471368,7
-25.77081,0.4833331,-31.08604,-0.1382539198442778,0.2073412896361021,-1.555654078744368,5.847339,96.93866,1.128037,0.04117559,0.7472574,-0.03166276,6.51999985426664,7
-25.72047,0.6833332,-31.08092,-0.0750852706719804,0.1906145327795139,-1.575819157838399,8.664103,97.61338,1.806872,0.06157315,0.7494643,-0.04647887,6.53999985381961,7
-25.52881,0.2833334,-31.08307,0.0060506902435371,0.1555930338170824,-1.5793064221201192,2.902995,98.45133,0.6000746,0.02050714,0.7569476,-0.01576353,6.55999985337257,7
-25.47733,0.4833334,-31.07983,0.1032082005625412,0.1289352367069463,-1.6136362004755682,5.7831,99.11295,1.254468,0.04104265,0.7596731,-0.03129683,6.57999985292554,7
-25.42695,0.6833333,-31.07569,0.198517145620972,0.1372984536628124,-1.633300449339135,8.58763,99.72089,1.980691,0.06143462,0.7613828,-0.04611779,6.5999998524785,7
-25.21642,0.2833332,-31.08383,0.3017617787426658,0.1273670752188389,-1.6393426020492328,2.966932,99.81702,0.5226218,0.02016012,0.7646767,-0.01686876,6.61999985203147,7
-25.16488,0.4833331,-31.08282,0.4119898351320614,0.1257991867572132,-1.6791134131311871,5.862703,100.341,1.102763,0.04013411,0.7665982,-0.03311519,6.63999985158443,7
-25.11431,0.683333,-31.08107,0.504173803058805,0.1592527413285333,-1.70143422534586,8.690398,100.813,1.73934,0.05994484,0.7675489,-0.04873123,6.6599998511374,7
-25.06397,0.883333,-31.07915,0.5884468243137206,0.1744115451693744,-1.707592392531463,11.499,101.3025,2.410753,0.07968908,0.7679044,-0.06418094,6.67999985069036,7
-24.88547,0.2833333,-31.09521,0.7770194986665047,-0.5223554166226076,-1.7194072868492365,3.199228,99.34506,0.3090592,0.02012053,0.7620096,-0.01953635,6.69999985024333,7
-24.83391,0.4833335,-31.09643,0.8150745987906838,-0.3068271453140828,-1.7164515443198418,6.120837,99.47752,0.7221328,0.03930525,0.7617849,-0.03667378,6.7199998497963,7
-24.67228,0.2833333,-31.10878,0.8447823106126577,-0.0850264422752433,-1.6948459064189016,3.048578,97.89896,0.2285739,0.01897303,0.7538276,-0.01875089,6.73999984934926,7
-24.62243,0.4833334,-31.11055,0.9221194573725596,-0.0693457050166242,-1.6968293906688745,5.886055,97.7274,0.5147342,0.03715432,0.7519941,-0.03571726,6.75999984890223,7
-24.57349,0.6833334,-31.11243,0.9763537287298938,-0.0196892024736621,-1.6802555332593592,8.675166,97.61391,0.7868199,0.05496246,0.7499799,-0.05240281,6.77999984845519,7
-24.52479,0.8833334,-31.11429,1.0184257505719678,0.0106276682804452,-1.647337512640444,11.45494,97.51945,1.052654,0.07265807,0.747562,-0.06901388,6.79999984800816,7
-24.35472,0.2833333,-31.13029,1.2601480389066886,-0.6720256823486377,-1.6389120757023043,3.138524,95.44283,0.04600651,0.01872006,0.7395977,-0.01999196,6.81999984756112,7
-24.30007,0.4833333,-31.13479,1.3516213452103685,-0.4434292934592629,-1.6119258908073846,6.276342,95.3059,0.0845248,0.03742099,0.7379425,-0.03996398,6.83999984711409,7
-24.24544,0.6833336,-31.13927,1.4242007311010738,-0.2096055107967009,-1.568229796985264,9.415183,95.17008,0.1147451,0.05609294,0.7357329,-0.05991784,6.85999984666705,7
-24.0613,0.2833335,-31.15635,1.4894892819349828,-0.0228250910816448,-1.5098451659193906,3.206751,94.00558,359.9255,0.01860639,0.7311128,-0.02090775,6.87999984622002,7
-24.00556,0.4833333,-31.16163,1.5556134471307423,-0.0688233832286941,-1.4758449097937358,6.412428,93.85896,359.8427,0.03719284,0.7294221,-0.04179363,6.89999984577298,7
-23.94985,0.6833336,-31.16691,1.6000045911064331,-0.0808458104288902,-1.426618435459492,9.616915,93.70663,359.7509,0.05574439,0.7271604,-0.06264059,6.91999984532595,7
-23.73975,0.2833332,-31.19775,1.634601567778038,-0.1122079954770768,-1.364343203160466,3.193043,91.8872,359.8157,0.01821831,0.7184069,-0.02114018,6.93999984487891,7
-23.68418,0.4833332,-31.20287,1.6737354361294514,-0.1362525189178043,-1.3279363327199576,6.384634,91.7318,359.6225,0.03641665,0.7167222,-0.04225782,6.95999984443188,7
-23.62863,0.6833332,-31.20798,1.6823447259992363,-0.1263215088069375,-1.2781361630149704,9.574748,91.56444,359.4191,0.0545814,0.7144797,-0.06333633,6.97999984398484,7
-23.57309,0.8833333,-31.2131,1.6732613161474958,-0.1357306957037578,-1.2177053491800116,12.7633,91.38378,359.204,0.07269865,0.7116819,-0.08435892,6.99999984353781,7
-23.38271,0.2833333,-31.24776,1.766322566772601,-0.1378216361728338,-1.1751487009765036,3.44784,92.75045,359.8033,0.01951374,0.7235805,-0.02296027,7.01999984309077,7
-23.32274,0.4833334,-31.25417,1.827968374587737,-0.105936672230797,-1.1200223107977685,6.894211,92.59314,359.5969,0.03900431,0.7217595,-0.04589351,7.03999984264374,7
-23.26279,0.6833334,-31.26057,1.8712666285772064,-0.0933918668775958,-1.0559994825082306,10.3394,92.42184,359.3785,0.05845365,0.7192832,-0.0687836,7.0599998421967,7
-23.04986,0.2833335,-31.29796,1.7394452701353806,0.5667845915141865,-0.9772126034605152,3.547994,94.95673,359.8478,0.01994477,0.7366961,-0.02371308,7.07999984174967,7
-22.98841,0.4833334,-31.30605,1.7601576915335355,0.3303473285393269,-0.9178727978721212,7.095403,94.80334,359.6852,0.03986503,0.7348185,-0.04740613,7.09999984130263,7
-22.92698,0.6833334,-31.31413,1.7599843449814865,0.1033188895294678,-0.8517969567954182,10.64132,94.63838,359.5114,0.05974132,0.7322356,-0.07104658,7.1199998408556,7
-22.6934,0.2833336,-31.35511,1.5598680691532962,0.5516260353486139,-0.7674004115299766,3.581319,96.85063,359.9426,0.02036152,0.7477363,-0.02370833,7.13999984040856,7
-22.63149,0.4833338,-31.36364,1.5295436607251247,0.3434152832103109,-0.7073647020357576,7.161724,96.7065,359.8759,0.04069745,0.7458417,-0.04738963,7.15999983996153,7
-22.56959,0.6833338,-31.37216,1.4712084775952228,0.1446133950239737,-0.6413867375553188,10.74096,96.55686,359.7995,0.06098816,0.7432192,-0.07101789,7.17999983951449,7
-22.41178,0.2833332,-31.40034,1.398639467407598,-0.0991413155104617,-0.5727563129616939,3.587425,97.97155,0.06564359,0.02097324,0.7541651,-0.02324237,7.19999983906746,7
-22.34964,0.4833333,-31.40795,1.3805279499413317,-0.1221399359165327,-0.5156282483831234,7.173995,97.83952,0.1235429,0.04192283,0.7522687,-0.04645305,7.21999983862042,7
-22.28752,0.6833333,-31.41556,1.330164634803911,-0.1111628412179866,-0.4515103573950547,10.75968,97.71001,0.1736013,0.06282542,0.7496354,-0.06961171,7.23999983817339,7
-22.06161,0.2833332,-31.45707,1.1293910568676004,0.3606663159020524,-0.3699936404035568,3.567381,99.10329,0.0913619,0.02079996,0.760606,-0.02316979,7.25999983772635,7
-21.99991,0.4833331,-31.46542,0.9111523651644866,0.8152460675124259,-0.2852205642643852,7.133827,98.97398,0.1744462,0.04157069,0.7587234,-0.04631178,7.27999983727932,7
-21.93823,0.6833334,-31.47377,0.8581838337751115,0.3475990380475128,-0.2283471356478017,10.69937,98.84879,0.2500664,0.06229428,0.7561057,-0.06940228,7.29999983683228,7
-21.68808,0.2833333,-31.51866,0.795606991717456,-0.1372973841207803,-0.170749272119135,3.646363,99.8714,0.1127091,0.02123008,0.7649147,-0.02371609,7.31999983638525,7
-21.62506,0.4833334,-31.52771,0.5926279800838152,0.2655345223428265,-0.098480164185652,7.291924,99.74474,0.2174981,0.04243222,0.762984,-0.04740156,7.33999983593822,7
-21.56205,0.6833335,-31.53676,0.5748812326183739,0.0108029742809281,-0.0563994654329604,10.93667,99.62372,0.3151605,0.06358544,0.760281,-0.07103216,7.35999983549118,7
-21.49907,0.8833335,-31.5458,0.5435079547150607,-0.2355656403928108,-0.0129966703526953,14.58128,99.50743,0.4060522,0.08467078,0.7568082,-0.09459005,7.37999983504415,7
-21.28883,0.2833333,-31.58443,0.3575859022945096,0.1923558650163253,0.0439790604330916,3.618631,100.6249,0.1285638,0.02102562,0.7691318,-0.02358072,7.39999983459711,7
-21.22638,0.4833333,-31.59394,0.377252024185978,-0.0372858732755118,0.0668510307016809,7.236488,100.5003,0.2494515,0.04202404,0.7672213,-0.04713109,7.41999983415008,7
-21.16394,0.6833335,-31.60346,0.3811903484271361,-0.258564680792716,0.090021378666659,10.8535,100.3823,0.3634756,0.06297378,0.7645455,-0.07062756,7.43999983370304,7
-20.92999,0.2833333,-31.64339,0.1989070577523648,0.1944470960225162,0.1411662081514855,3.559902,102.2263,0.2191159,0.02098725,0.7779731,-0.02297762,7.45999983325601,7
-20.86849,0.4833332,-31.65288,0.0093874414877177,0.6302094892817107,0.1899274746318511,7.11922,102.1104,0.4314394,0.04194839,0.776099,-0.04592589,7.47999983280897,7
-20.80702,0.6833331,-31.66237,0.0034236510367904,0.1437454574280352,0.2026452816385564,10.67789,102.0069,0.6384252,0.06286245,0.7734739,-0.06882311,7.49999983236194,7
-20.54984,0.2833332,-31.70241,0.0034072380854759,-0.3599678758298046,0.2092049737302908,3.497947,102.4602,0.2646163,0.02091136,0.7792575,-0.0223505,7.5199998319149,7
-20.48926,0.4833331,-31.71113,-0.138344130096037,0.0240468533129454,0.2422059825518374,6.9954,102.3485,0.5228307,0.04179696,0.7774226,-0.04467337,7.53999983146787,7
-20.42871,0.6833331,-31.71985,-0.0812111520862828,-0.2495024568900939,0.2371598450837098,10.49185,102.252,0.7767403,0.06263655,0.7748603,-0.06694352,7.55999983102083,7
-20.36816,0.8833329,-31.72857,-0.0229897880691005,-0.5146885792345353,0.2260076106050377,13.98773,102.1703,1.02794,0.08341195,0.7715734,-0.0891447,7.5799998305738,7
-20.15205,0.2833332,-31.76148,-0.1335134779514888,-0.1055847672307747,0.2433777139439605,3.439529,102.0198,0.2824002,0.02079708,0.7768558,-0.02177629,7.59999983012676,7
-20.09234,0.4833332,-31.76921,-0.2382739220420724,0.2862701019447662,0.2557912976647252,6.878177,101.91,0.5590137,0.04156936,0.775059,-0.04352126,7.61999982967973,7
-20.03264,0.6833332,-31.77695,-0.072153738119475,-0.2441018013303375,0.2214419439901149,10.31633,101.8161,0.8313774,0.06229801,0.7725602,-0.06522063,7.63999982923269,7
-19.79697,0.2833332,-31.81298,-0.110828357459292,-0.071435214056821,0.2226031951378253,3.393837,100.4048,0.1840681,0.02018785,0.767942,-0.02172385,7.65999982878566,7
-19.73816,0.4833332,-31.82058,-0.1580608411640369,0.1116850149055935,0.2223960295429563,6.786696,100.2862,0.3613253,0.04034962,0.7661782,-0.04341997,7.67999982833862,7
-19.67937,0.683333,-31.82818,-0.2007803643868868,0.2529884688561156,0.2185405192692684,10.17896,100.1773,0.5329835,0.06047027,0.7637412,-0.06507188,7.69999982789159,7
-19.42479,0.2833334,-31.86631,-0.186896087889778,0.1667422977606788,0.2064194589438379,3.341267,98.64974,0.1001611,0.01966425,0.758078,-0.02154138,7.71999982744455,7
-19.36691,0.4833335,-31.87341,-0.1748714144501075,0.119698917999486,0.1913510542234568,6.681361,98.52395,0.1932148,0.03930429,0.7563486,-0.04305486,7.73999982699752,7
-19.30904,0.6833334,-31.88051,-0.1513432920255599,0.0585426934487073,0.1708718901340198,10.02072,98.40272,0.279674,0.05890583,0.7539764,-0.06452537,7.75999982655048,7
-19.25119,0.8833334,-31.88761,-0.1213021463946102,0.0099311630891014,0.153090164962073,13.35928,98.28531,0.3598702,0.07845129,0.750964,-0.08593497,7.77999982610345,7
-19.03599,0.2833333,-31.92133,-0.0952580161155314,0.0005225718151449,0.1335468004465099,3.290726,96.82365,359.9727,0.0188811,0.7476313,-0.02163331,7.79999982565641,7
-18.97906,0.4833332,-31.92869,-0.0599620254406456,-0.0229994901881749,0.1100136164907645,6.580432,96.68724,359.9376,0.03774112,0.7459335,-0.04324258,7.81999982520938,7
-18.92213,0.6833333,-31.93605,-0.0298264443577949,-0.0339761664610056,0.0915788579719247,9.868704,96.54776,359.8941,0.05656116,0.7436214,-0.06480842,7.83999982476234,7
-18.68816,0.2833333,-31.97148,-0.0156171583212127,-0.0057499590549675,0.0740366190154802,3.240809,94.78009,359.8852,0.01840726,0.735704,-0.02148949,7.85999982431531,7
-18.63199,0.4833333,-31.97825,-0.0042259167738603,0.0083629356529886,0.0553336341930261,6.480373,94.63667,359.7622,0.03679437,0.7340343,-0.04295539,7.87999982386827,7
-18.57584,0.6833333,-31.98501,0.0174702275764442,-0.0449532128964162,0.0334182845989552,9.718652,94.48518,359.63,0.05514657,0.7317775,-0.06438049,7.89999982342124,7
-18.32352,0.2833333,-32.02209,0.0389440565855299,-0.1123822093716413,0.0154352219980715,3.194992,92.20882,359.7867,0.01798834,0.7203591,-0.02137893,7.91999982297421,7
-18.26797,0.4833333,-32.02801,0.0578603400800314,-0.140608310929828,-0.0023230598343033,6.388495,92.05767,359.5647,0.03595719,0.718713,-0.04273499,7.93999982252717,7
-18.21244,0.6833334,-32.03393,0.0874993248465259,-0.1829478206669597,-0.0217631725993356,9.58042,91.89295,359.3325,0.0538928,0.7165064,-0.06405104,7.95999982208014,7
-18.15692,0.8833333,-32.03986,0.1109579797163036,-0.2127420817095475,-0.0368390607194228,12.77053,91.71337,359.0888,0.07178223,0.7137418,-0.08530751,7.9799998216331,7
-17.93584,0.2833335,-32.0746,0.1269544479697248,-0.203333329355197,-0.0494436323013403,3.530055,93.52193,359.7927,0.01978266,0.7281935,-0.02367685,7.99999982118607,7
-17.87453,0.4833336,-32.08208,0.1489928598511412,-0.208037399314093,-0.0615224580260118,7.058674,93.36983,359.5758,0.03954175,0.7263636,-0.0473248,8.01999982073903,7
-17.81324,0.6833336,-32.08956,0.1536480049280228,-0.2001967654117659,-0.0696080841486903,10.58696,93.20276,359.3468,0.05926229,0.723842,-0.07093187,8.039999820292,7
-17.57532,0.2833332,-32.12683,0.1405739131722665,-0.1531531021699816,-0.0731140787091568,3.56079,95.36938,359.8497,0.0199465,0.7391211,-0.02385625,8.05999981984496,7
-17.51371,0.4833331,-32.13534,0.1234666871177641,-0.1202225782623038,-0.0741689331617614,7.120392,95.2228,359.6896,0.03986629,0.7372748,-0.04768665,8.07999981939793,7
-17.45213,0.6833331,-32.14384,0.115977990623147,-0.1547208960219193,-0.0748727124964467,10.67853,95.06481,359.5187,0.05974167,0.7347162,-0.07146404,8.09999981895089,7
-17.39056,0.8833333,-32.15234,0.100640627811531,-0.2033324449375667,-0.0749611542592312,14.23511,94.89384,359.3354,0.07955333,0.7314482,-0.09516538,8.11999981850386,7
-17.09264,0.2833332,-32.19793,0.0821123137281993,-0.212741175338292,-0.073339948447419,3.589782,97.19755,0.001982724,0.02072684,0.7497286,-0.02348282,8.13999981805682,7
-17.03049,0.4833331,-32.20581,0.0742279030698629,-0.2362630306987244,-0.0722360555114818,7.178782,97.06583,-0.004013677,0.04143067,0.7478678,-0.04693589,8.15999981760979,7
-16.96837,0.6833329,-32.21368,0.0568119323273688,-0.2472395937187068,-0.0693808640879858,10.76675,96.93257,359.9815,0.06208796,0.7452739,-0.07033629,8.17999981716275,7
-16.90626,0.8833326,-32.22156,0.0321809623776516,-0.2190133525981664,-0.0639689024964802,14.35365,96.79663,359.9583,0.08267859,0.74195,-0.09366086,8.19999981671572,7
-16.6997,0.2833333,-32.25377,0.014363571270211,-0.2049001169120188,-0.0582986285813156,3.560925,98.02637,0.07429166,0.02086746,0.7544827,-0.02302844,8.21999981626868,7
-16.63801,0.4833333,-32.26122,-0.0191891880047645,-0.178241935177785,-0.0507686296441605,7.120785,97.90196,0.1411581,0.04170889,0.7526417,-0.04602561,8.23999981582165,7
-16.57633,0.6833335,-32.26868,-0.0687233441927528,-0.1123811093380136,-0.0402812068084976,10.67973,97.78071,0.2008019,0.06250384,0.7500745,-0.06897159,8.25999981537461,7
-16.34759,0.2833332,-32.30438,-0.1200325558309671,-0.060633249903963,-0.029168898314726,3.63562,98.84699,0.1026679,0.02131378,0.7591372,-0.02351115,8.27999981492758,7
-16.28462,0.4833331,-32.31245,-0.1588875695346097,-0.0763146338363459,-0.0197773971568011,7.270399,98.72581,0.1978015,0.0425998,0.7572506,-0.04699185,8.29999981448054,7
-16.22168,0.683333,-32.32051,-0.2017994657880972,-0.1061088395592756,-0.0095820534170378,10.90498,98.60962,0.2858717,0.06383925,0.7546017,-0.07042387,8.31999981403351,7
-15.97267,0.2833333,-32.35906,-0.2443642856202572,-0.0967000180335687,0.0016607659167284,3.628508,99.48224,0.1177006,0.02124309,0.7627283,-0.02349687,8.33999981358647,7
-15.9099,0.4833334,-32.36754,-0.2722005289710463,-0.1014043523071897,0.0116294732836337,7.256187,99.36286,0.2279898,0.04245826,0.7608476,-0.04696342,8.35999981313944,7
-15.84714,0.6833333,-32.37602,-0.3044724072434785,-0.0935636513243284,0.0225122792361247,10.88305,99.2495,0.3317437,0.06362518,0.7582041,-0.0703759,8.3799998126924,7
-15.7844,0.8833333,-32.38449,-0.3390093599055852,-0.0465200569925471,0.0350139301142817,14.50905,99.14137,0.4292816,0.08472026,0.7548011,-0.09371249,8.39999981224537,7
-15.57816,0.2833333,-32.41763,-0.3612863171326452,-0.0135895255927577,0.046620500173276,3.57473,101.2299,0.203063,0.0211601,0.7724867,-0.02298307,8.41999981179833,7
-15.51631,0.4833333,-32.42637,-0.3876959230650474,0.0318860277345246,0.0573985385294726,7.148811,101.1189,0.3995219,0.04229324,0.7706392,-0.04593696,8.4399998113513,7
-15.45447,0.6833332,-32.43511,-0.4192323983228263,0.1165644616044459,0.0685050885516211,10.7222,101.0194,0.5908199,0.06337882,0.7680401,-0.06883934,8.45999981090426,7
-15.22798,0.2833333,-32.4706,-0.4418613889612288,0.1871295934917457,0.0774399542248716,3.512851,102.0418,0.260928,0.02104958,0.7769644,-0.02239531,8.47999981045723,7
-15.1671,0.4833333,-32.47899,-0.441542939375358,0.1902658134078664,0.0816961966348657,7.025177,101.9363,0.5158266,0.04207329,0.7751552,-0.04476268,8.49999981001019,7
-15.10624,0.6833334,-32.48739,-0.3389922325905345,0.1792888375376933,0.0692817330264645,10.53653,101.8458,0.7665076,0.063049,0.7726145,-0.06707868,8.51999980956316,7
-14.85982,0.2833333,-32.5251,-0.2453049637788336,0.2075145949814549,0.0567237780593394,3.453442,101.9267,0.2867846,0.0209209,0.7763405,-0.02182955,8.53999980911613,7
-14.79985,0.4833333,-32.53271,-0.1469049303256824,0.2216271284128258,0.0418091881304363,6.905982,101.8235,0.5679815,0.04181546,0.774569,-0.04362866,8.55999980866909,7
-14.73989,0.6833332,-32.54033,-0.2422645952366888,0.8885990887499422,0.0581142529720644,10.35802,101.7368,0.8454111,0.06266615,0.7720902,-0.06538162,8.57999980822206,7
-14.67995,0.8833331,-32.54794,-0.163725861891482,0.6641842504488742,0.0456606822839305,13.80944,101.6662,1.120986,0.08345351,0.7689069,-0.08706862,8.59999980777502,7
-14.4742,0.2833332,-32.58054,-0.0846783183457713,0.4544050675420349,0.0336711433624365,3.404732,100.7668,0.2187442,0.02041271,0.7699511,-0.02166784,8.61999980732799,7
-14.41514,0.4833331,-32.58796,0.0081966661908001,0.2049000533157336,0.0200241577176747,6.808512,100.6577,0.4313332,0.04079926,0.7682149,-0.04330744,8.63999980688095,7
-14.3561,0.683333,-32.59536,0.0315254897376,0.181378253100727,0.0167962337469198,10.21169,100.5606,0.6391817,0.06114373,0.7657986,-0.06490245,8.65999980643392,7
-14.13099,0.2833333,-32.63034,0.0389321214758435,0.1970594785662386,0.016549002779115,3.354286,99.08511,0.1274285,0.01983693,0.7605406,-0.021548,8.67999980598688,7
-14.07286,0.4833332,-32.63745,0.0434372675109848,0.1986278011347441,0.01701242472258,6.707481,98.96806,0.2482841,0.03964962,0.7588388,-0.04306815,8.69999980553985,7
-14.01475,0.683333,-32.64455,0.2690036450053874,-0.5075464345392148,-0.0190728163403655,10.05995,98.8573,0.3631715,0.05942235,0.7564869,-0.06454538,8.71999980509281,7
-13.77067,0.2833334,-32.68233,0.3202252076507008,-0.2972446516780274,-0.0263893946407485,3.303665,97.35344,0.006837176,0.01907874,0.7506827,-0.02160877,8.73999980464578,7
-13.7135,0.4833333,-32.68966,0.3648637481176333,-0.0764885562354933,-0.0335997069225229,6.606403,97.22614,0.00639647,0.03813661,0.7490133,-0.0431931,8.75999980419874,7
-13.65635,0.6833333,-32.69698,0.4161199312875219,0.1024509339873021,-0.0429462815464489,9.907774,97.09785,-0.001645429,0.0571539,0.7467222,-0.06473359,8.77999980375171,7
-13.59921,0.8833331,-32.7043,0.4518393046681783,0.0538393883821227,-0.0515665917895233,13.2082,96.96767,359.9826,0.07611813,0.743812,-0.08621449,8.79999980330467,7
-13.39386,0.2833332,-32.737,0.4763191430475739,0.04443075781814,-0.0591163489928803,3.253186,95.48666,359.9062,0.01848238,0.739857,-0.0215595,8.81999980285764,7
-13.33753,0.4833332,-32.74412,0.5025212697617736,0.0209091137178288,-0.0677359361600906,6.505161,95.35125,359.8046,0.03694402,0.7382178,-0.04309527,8.8399998024106,7
-13.28121,0.6833332,-32.75123,0.5063467506072072,0.0099323018900503,-0.0746717235374418,9.75593,95.20903,359.6944,0.05537084,0.735984,-0.06458959,8.85999980196357,7
-13.05718,0.2833333,-32.78568,0.4889769870268488,0.0381582610109991,-0.0788692574131317,3.205535,92.83739,359.8012,0.01802592,0.7241458,-0.02145663,8.87999980151653,7
-13.0015,0.4833333,-32.79197,0.4634377727924779,0.0522711548477785,-0.0823588651575555,6.409652,92.69365,359.5942,0.03603269,0.7225322,-0.0428899,8.8999998010695,7
-12.94584,0.6833333,-32.79825,0.6511988510989166,-0.6413590336572377,-0.1212701132561413,9.612277,92.53719,359.3775,0.05400611,0.7203517,-0.06428293,8.91999980062246,7
-12.69848,0.2833334,-32.83622,0.658536176449914,-0.4185123441251099,-0.1296207771792374,3.451107,93.38918,359.7945,0.01934875,0.727414,-0.02314242,8.93999980017543,7
-12.63854,0.4833334,-32.84344,0.6530580690966321,-0.1852115625062191,-0.135503983872617,6.900778,93.24381,359.5798,0.03867462,0.7256665,-0.0462576,8.95999979972839,7
-12.57862,0.6833333,-32.85065,0.6482923430674568,0.006272886396712,-0.1409629018374509,10.34929,93.08408,359.3542,0.05796085,0.723259,-0.06932792,8.97999979928136,7
-12.51873,0.8833333,-32.85786,0.6253899182367544,-0.0297938943649406,-0.1432173478828815,13.79781,92.90842,359.1157,0.07719811,0.7201933,-0.09233949,8.99999979883432,7
-12.21151,0.2833334,-32.90635,0.5878297609372165,-0.026657887712643,-0.141745966877707,3.546656,95.61305,359.8543,0.01984272,0.7405521,-0.02378028,9.01999979838729,7
-12.15017,0.4833334,-32.91501,0.5493351944603848,-0.0376350499273097,-0.1387476238540479,7.092683,95.47317,359.6992,0.03966115,0.7387502,-0.0475392,9.03999979794025,7
-12.08885,0.6833333,-32.92368,0.4880500473100504,-0.0360671766241439,-0.1324041575851353,10.63733,95.32227,359.5337,0.0594356,0.7362399,-0.0712463,9.05999979749322,7
-12.02754,0.8833332,-32.93233,0.4052257756564383,0.0047034968992585,-0.1216749224947584,14.18049,95.15891,359.3564,0.07914768,0.7330245,-0.09487791,9.07999979704618,7
-11.80985,0.2833333,-32.96662,0.3147506573072061,0.0313612539353084,-0.108905663847981,3.590933,97.03426,359.975,0.02059093,0.7487906,-0.0236164,9.09999979659915,7
-11.74772,0.4833332,-32.97479,0.2305238109807561,-0.0094099551869474,-0.0964420746385705,7.181152,96.90619,359.9423,0.04115966,0.7469648,-0.04720376,9.11999979615211,7
-11.68561,0.6833332,-32.98296,0.2421053983326437,-0.0642940674675642,-0.0981021436009399,10.77026,96.77487,359.901,0.06168199,0.7444062,-0.07073802,9.13999979570508,7
-11.44825,0.2833333,-33.01955,0.2374377388159683,-0.0799752461509395,-0.0962529946524597,3.554888,97.99885,0.075968,0.02084948,0.7543262,-0.0229741,9.15999979525805,7
-11.38665,0.4833333,-33.02693,0.231130949917512,-0.1097693136182746,-0.0933895096358057,7.108639,97.88064,0.1450412,0.04167348,0.7525233,-0.04591586,9.17999979481101,7
-11.32507,0.6833332,-33.03431,0.0384058032550367,0.5132953165589116,-0.0588981891598443,10.66152,97.76576,0.2072866,0.06245123,0.7499969,-0.06880714,9.19999979436398,7
-11.06583,0.2833334,-33.0745,0.0080283088610091,0.2449733782625447,-0.0531372955426583,3.624391,98.92218,0.09887162,0.02120953,0.7595666,-0.02347222,9.21999979391694,7
-11.00308,0.4833333,-33.08268,-0.0227371880490006,-0.0087126744749544,-0.0470527688437343,7.247965,98.80661,0.1905493,0.04239158,0.7577211,-0.04691462,9.23999979346991,7
-10.94036,0.6833335,-33.09085,-0.2623999193244479,0.4181632276711066,-0.0063224796307999,10.87127,98.69586,0.2754445,0.06352681,0.7551175,-0.07030872,9.25999979302287,7
-10.87765,0.8833336,-33.09902,-0.3194693258969874,0.1937483612310573,0.0037923500456464,14.4937,98.58918,0.354308,0.08459237,0.7517592,-0.09362583,9.27999979257584,7
-10.66015,0.2833334,-33.13416,-0.3804093881338453,-0.0160305390663654,0.0152437637025286,3.637729,99.32789,0.1064817,0.02125219,0.7618577,-0.02359288,9.2999997921288,7
-10.59722,0.4833333,-33.14268,-0.4303331123405467,-0.2655349460831651,0.0255632151405791,7.274635,99.21358,0.2058762,0.04247684,0.7600059,-0.04715528,9.31999979168177,7
-10.53431,0.6833332,-33.1512,-0.4333407917548646,-0.2890566794789915,0.0302316195125555,10.91069,99.10466,0.298875,0.06365256,0.7573885,-0.07066347,9.33999979123473,7
-10.29681,0.2833334,-33.18944,-0.4396694820118858,-0.2733753678541955,0.0368686720113409,3.590097,101.0778,0.1838817,0.02114661,0.7716444,-0.0231648,9.3599997907877,7
-10.23474,0.4833334,-33.19839,-0.4340466436167656,-0.2718070870150095,0.0428209542304784,7.179493,100.9711,0.3613965,0.04226632,0.7698208,-0.04629987,9.37999979034066,7
-10.17268,0.6833333,-33.20735,-0.6025444918126919,0.3826203091974742,0.0782806562534652,10.76815,100.8747,0.5338205,0.06333821,0.7672406,-0.06938271,9.39999978989363,7
-9.91532,0.2833334,-33.24826,-0.5863784491983219,0.145660449056027,0.0806141789223815,3.528302,102.1849,0.2511362,0.02103977,0.7777475,-0.02258011,9.41999978944659,7
-9.854239,0.4833334,-33.25703,-0.5508671213000209,-0.0766636413929283,0.0797757767981615,7.056015,102.0846,0.496516,0.0420534,0.7759615,-0.04513177,9.43999978899956,7
-9.793174,0.6833334,-33.2658,-0.7114193526425181,0.3815745586185779,0.1111851649365149,10.58309,101.9987,0.7379374,0.06302102,0.7734371,-0.06763368,9.45999978855252,7
-9.732124,0.8833334,-33.27456,-0.6757062944149235,0.1885219916120924,0.1073824827606522,14.10909,101.9271,0.9770805,0.08392014,0.7701777,-0.09006236,9.47999978810549,7
-9.516201,0.2833334,-33.30888,-0.629532269217119,0.0101052850746127,0.1007637162410688,3.467186,102.1974,0.2856065,0.02093656,0.7778229,-0.02197868,9.49999978765845,7
-9.456032,0.4833333,-33.31684,-0.5589951536452133,-0.2080371416203058,0.0889962487314406,6.933569,102.1003,0.5660516,0.04184788,0.7760761,-0.04392703,9.51999978721142,7
-9.39588,0.6833333,-33.32481,-0.5479780515939527,-0.2001966833470083,0.0858588834805225,10.39928,102.0197,0.8430485,0.06271405,0.7736151,-0.06582795,9.53999978676438,7
-9.160327,0.2833333,-33.36199,-0.5441316782115857,-0.153153316566334,0.0842651545521881,3.415853,101.4637,0.2514014,0.02056249,0.7738049,-0.02168636,9.55999978631735,7
-9.101057,0.4833332,-33.36959,-0.5341239569809177,-0.1202228785565864,0.0821297198267814,6.830781,101.3635,0.4972453,0.04109875,0.7720931,-0.04334409,9.57999978587031,7
-9.041804,0.6833332,-33.3772,-0.5046246190745372,-0.1547214195114304,0.0773092517266142,10.24512,101.2774,0.7392011,0.06159257,0.7696927,-0.06495671,9.59999978542328,7
-8.982569,0.8833331,-33.3848,-0.4757745066057923,-0.2033329836726553,0.0725192312191147,13.65883,101.2051,0.9788241,0.08202517,0.7666062,-0.08650567,9.61999978497624,7
-8.688412,0.2833333,-33.43126,-0.4418740349512955,-0.2127415085630198,0.0680535930044499,3.362276,99.24503,0.1257835,0.01984105,0.7614438,-0.02163805,9.63999978452921,7
-8.63017,0.4833332,-33.43858,-0.3897484819725276,-0.2362630571824667,0.0616033902818458,6.723367,99.13388,0.2452379,0.03965681,0.7597713,-0.04324805,9.65999978408217,7
-8.571944,0.6833332,-33.44589,-0.5166275462252372,0.3930743026671405,0.0849796232133748,10.08372,99.02898,0.3591169,0.05943295,0.7574449,-0.06481449,9.67999978363514,7
-8.513736,0.8833331,-33.45321,-0.4039170353155867,0.1310249713816482,0.065700076852007,13.44332,98.92978,0.4680132,0.079152,0.7544669,-0.08631919,9.6999997831881,7
-8.308683,0.2833334,-33.48699,-0.2835689570422177,-0.116388610858219,0.0445104515099004,3.305692,97.52097,0.006600942,0.01905724,0.7516465,-0.02165129,9.71999978274107,7
-8.251504,0.4833333,-33.49448,-0.3795640566786398,0.3167599710418908,0.0584509188434161,6.610435,97.39977,0.006237946,0.03809327,0.750011,-0.04327814,9.73999978229403,7
-8.194338,0.6833332,-33.50198,-0.2825338660828604,0.0986177801742504,0.0385739375719182,9.913805,97.2776,-0.001427047,0.05708835,0.7477524,-0.06486127,9.759999781847,7
-7.970272,0.2833333,-33.53802,-0.1899237982531501,-0.1048887955474774,0.0188340009587761,3.254088,95.74747,359.9078,0.01844902,0.7413845,-0.02159787,9.77999978139997,7
-7.913957,0.4833335,-33.54537,-0.0887259838589438,-0.3481212572113916,-0.0029660049652306,6.506977,95.61817,359.8081,0.0368773,0.7397797,-0.04317195,9.79999978095293,7
-7.857658,0.6833334,-33.55271,0.0567468894703218,-0.3653706405931916,-0.0323048871073439,9.758705,95.48222,359.7003,0.0552708,0.7375787,-0.06470489,9.8199997805059,7
-7.614952,0.2833332,-33.59051,0.189277775264343,-0.3434172156528235,-0.0601338561405526,3.205814,93.06974,359.8013,0.01798448,0.7255415,-0.02149449,9.83999978005886,7
-7.559296,0.4833333,-33.59702,0.3221718751393609,-0.335576793533322,-0.088591587564089,6.410171,92.93196,359.5947,0.03594949,0.7239633,-0.04296521,9.85999977961183,7
-7.503655,0.6833333,-33.60353,0.2591231450522482,0.325122663114367,-0.0841320475796401,9.61308,92.78151,359.3786,0.05388095,0.7218171,-0.06439612,9.87999977916479,7
-7.448029,0.8833334,-33.61003,0.364156961481509,0.0944354202636684,-0.1083682790824589,12.81421,92.61723,359.1521,0.07176599,0.7191055,-0.08576615,9.89999977871776,7
-7.238129,0.2833332,-33.64462,0.4647484253529219,-0.121615762793013,-0.1311829434096552,3.450821,93.59903,359.7943,0.01930365,0.7286682,-0.02317692,9.91999977827072,7
-7.17822,0.4833332,-33.65206,0.3398487246888608,0.3428953961843735,-0.1163130796440832,6.900204,93.45971,359.5799,0.03858453,0.7269567,-0.04632621,9.93999977782369,7
-7.11833,0.6833331,-33.65949,0.3980559582353677,0.1561154016030829,-0.13124766305652,10.34846,93.3061,359.3549,0.05782597,0.7245842,-0.0694306,9.95999977737665,7
-6.890597,0.2833333,-33.69718,0.4419891538648031,-0.016028985150167,-0.1421464463725676,3.548947,95.44811,359.8394,0.01979397,0.7395872,-0.0238541,9.97999977692962,7
-6.829216,0.4833333,-33.70593,0.4852078573113068,-0.227899011738454,-0.1512306402822751,7.097249,95.31274,359.6696,0.03956415,0.7378184,-0.04768639,9.99999977648258,7
-6.767852,0.6833332,-33.71467,0.5636250442150343,-0.2137860730361213,-0.1649973690347757,10.64413,95.16547,359.4897,0.05929072,0.735341,-0.07146618,10.0199997760355,7
-6.519892,0.2833332,-33.75473,0.6221100809002027,-0.160470131652312,-0.174217387956677,3.581594,96.96947,359.9337,0.02028002,0.7484253,-0.023783,10.0399997755885,7
-6.458005,0.4833332,-33.76353,0.6746575843718072,-0.1212671438679373,-0.1812901677216167,7.162259,96.84325,359.8593,0.04053584,0.7466383,-0.04753755,10.0599997751415,7
-6.396137,0.6833332,-33.77232,0.5246782024883774,0.5707948230378475,-0.1535490480518433,10.74172,96.71117,359.7762,0.06074598,0.7441224,-0.07123907,10.0799997746944,7
-6.334286,0.8833331,-33.78112,0.5398067104952871,0.3714697569591638,-0.1544091947228452,14.31997,96.57203,359.6835,0.08089144,0.740881,-0.09486394,10.0999997742474,7
-6.127899,0.2833332,-33.81424,0.5460279447073746,0.1867805644171221,-0.1528168248285872,3.573172,98.08376,0.06328019,0.02085342,0.7548105,-0.02318253,10.1199997738004,7
-6.066024,0.4833332,-33.82197,0.557466748095151,-0.0376341212539557,-0.1512599901934734,7.145392,97.97029,0.1200598,0.04168344,0.7530298,-0.0463328,10.1399997733533,7
-6.004167,0.6833332,-33.8297,0.3062068362929326,0.6042482473683912,-0.1055778334409893,10.7167,97.85941,0.1701274,0.06246655,0.7505177,-0.06943183,10.1599997729063,7
-5.942328,0.8833331,-33.83743,0.2868661185834509,0.3547435717681056,-0.1004178333017336,14.28707,97.75033,0.2137898,0.0831831,0.7472774,-0.09245656,10.1799997724593,7
-5.67556,0.2833334,-33.88175,0.2539724717197451,0.1198746522699683,-0.0928480826147506,3.608596,99.28134,0.105924,0.02109351,0.7616012,-0.02339376,10.1999997720122,7
-5.613123,0.4833333,-33.89016,0.2218182047879606,-0.1547197577436764,-0.0853561714816493,7.216371,99.1724,0.2051482,0.04216004,0.7597986,-0.04675773,10.2199997715652,7
-5.550705,0.6833332,-33.89855,0.2263713386684389,-0.2033315184421505,-0.082786952211876,10.82365,99.06879,0.2981033,0.06317897,0.7572427,-0.07007249,10.2399997711182,7
-5.312562,0.2833333,-33.93757,0.2163841414673042,-0.2127401655584713,-0.0771921918113776,3.633397,99.72761,0.109417,0.02116497,0.7641102,-0.02362148,10.2599997706711,7
-5.249758,0.4833334,-33.94647,0.2065879809130377,-0.2362616548508508,-0.0711034747570522,7.265932,99.61942,0.2121096,0.04230213,0.7622933,-0.04721247,10.2799997702241,7
-5.186971,0.6833333,-33.95537,0.0113421368569386,0.3930756139608893,-0.0328021368053441,10.89763,99.51685,0.3088725,0.06339096,0.7597103,-0.07074922,10.2999997697771,7
-4.928819,0.2833332,-33.99768,-0.0177016440807356,0.1310256021128951,-0.0233982823753038,3.588911,101.4289,0.1839459,0.02106941,0.7735875,-0.02322111,10.31999976933,7
-4.866821,0.483333,-34.00701,-0.0449416155410631,-0.1163887849191339,-0.0129552285209584,7.177116,101.328,0.3618305,0.04211171,0.7717964,-0.04641288,10.339999768883,7
-4.804842,0.6833329,-34.01634,-0.279338452650423,0.316759572827455,0.0324161624156076,10.76453,101.2375,0.5349938,0.06310613,0.7692473,-0.06955211,10.359999768436,7
-4.742878,0.883333,-34.02566,-0.3232441017025447,0.098617058666489,0.0433704047802692,14.3509,101.157,0.7043954,0.08402902,0.7659434,-0.09261625,10.3799997679889,7
-4.526949,0.2833333,-34.06161,-0.3643345044819839,-0.1048898194403454,0.0535537524299982,3.527676,102.5085,0.2507617,0.02096995,0.7795175,-0.02263722,10.3999997675419,7
-4.465929,0.4833335,-34.07073,-0.3883095505236658,-0.3481226426421964,0.0603031430424749,7.054735,102.414,0.4960949,0.04191362,0.7777641,-0.04524611,10.4199997670949,7
-4.404927,0.6833335,-34.07984,-0.3657796883611335,-0.3653719003133353,0.0586631546814118,10.58112,102.3341,0.7377703,0.06281096,0.7752706,-0.06780544,10.4399997666478,7
-4.169073,0.2833334,-34.11821,-0.3464182758716783,-0.3434182476476234,0.0562073799186819,3.46733,102.5576,0.2862484,0.02087251,0.7797923,-0.02204186,10.4599997662008,7
-4.10895,0.4833333,-34.12654,-0.3164583952576427,-0.3355776270742856,0.0505299362270932,6.933829,102.4664,0.5677189,0.04172008,0.7780768,-0.04405316,10.4799997657537,7
-4.048843,0.6833333,-34.13486,-0.463634713390175,0.3251220008465558,0.0755413573413008,10.39962,102.3917,0.8461013,0.06252251,0.775645,-0.06601686,10.4999997653067,7
-3.793572,0.2833333,-34.17594,-0.3353688558135108,0.0944344773030284,0.0531563568970128,3.415917,101.7977,0.2512909,0.02049879,0.7756461,-0.02174726,10.5199997648597,7
-3.734346,0.4833333,-34.18389,-0.2120781235554911,-0.1216170649394172,0.0318150772791696,6.830874,101.7033,0.4974059,0.04097164,0.773966,-0.04346552,10.5399997644126,7
-3.675138,0.6833334,-34.19184,-0.3038720744595611,0.3428940026516333,0.0468079075028455,10.24523,101.623,0.7398856,0.06140162,0.7715953,-0.0651392,10.5599997639656,7
-3.615946,0.8833333,-34.19978,-0.3993187855968968,0.7964280323447905,0.062623754886701,13.65893,101.5567,0.9804581,0.08177093,0.7685369,-0.08674861,10.5799997635186,7
-3.400909,0.2833332,-34.2354,-0.321030109052307,0.3340079953895107,0.0484123518930061,3.367147,100.0283,0.1514291,0.01989138,0.7658468,-0.02166197,10.5999997630715,7
-3.342609,0.4833333,-34.24309,-0.2407736548596429,-0.1393887321258841,0.0351835741701407,6.733171,99.92518,0.2970174,0.03975747,0.7642028,-0.04329604,10.6199997626245,7
-3.284326,0.6833333,-34.25077,-0.3183397371126288,0.281214892923562,0.0497251614870606,10.0985,99.82994,0.4377582,0.05958403,0.7618986,-0.06488626,10.6399997621775,7
-3.22606,0.8833334,-34.25845,-0.198011888237268,0.0505276476335683,0.028209820953279,13.46307,99.74213,0.5744131,0.07935302,0.7589369,-0.08641432,10.6599997617304,7
-2.952435,0.2833333,-34.30413,-0.0766651099323744,-0.1655238394634487,0.0057547431311846,3.311055,97.86594,0.008608027,0.0190359,0.7536254,-0.02173233,10.6799997612834,7
-2.895205,0.4833333,-34.31195,0.0594519156296197,-0.4213007082661253,-0.0201401460291918,6.621119,97.75062,0.01058117,0.0380503,0.7520195,-0.04343979,10.6999997608364,7
-2.837987,0.6833333,-34.31976,0.1873132291535185,-0.4510951519071533,-0.0448843078448319,9.929817,97.63453,0.005689832,0.05702427,0.7497867,-0.0651028,10.7199997603893,7
-2.595263,0.2833333,-34.35952,0.3034840839685571,-0.4416864665462164,-0.0681885119647915,3.255674,96.06533,359.908,0.01839966,0.7432411,-0.02165802,10.7399997599423,7
-2.538961,0.4833334,-34.36717,0.421583380668316,-0.446390608464231,-0.0924311030505791,6.510175,95.94175,359.8089,0.03677912,0.7416685,-0.04329191,10.7599997594953,7
-2.482676,0.6833335,-34.37482,0.3442586471173781,0.2017640220962728,-0.0832257547283745,9.763499,95.81157,359.702,0.0551237,0.7394975,-0.06488433,10.7799997590482,7
-2.426404,0.8833333,-34.38247,0.2712665019864156,0.6984542413189456,-0.07484394627199,13.01528,95.67378,359.5863,0.0734164,0.7367309,-0.08641593,10.7999997586012,7
-2.221463,0.2833333,-34.41643,0.420135944102836,0.1676288020285637,-0.1073886680795297,3.205919,93.36607,359.8012,0.01792868,0.7273172,-0.02154234,10.8199997581542,7
-2.165839,0.4833331,-34.42322,0.3385645538630972,0.3466026676270545,-0.1008525848507773,6.410474,93.23407,359.5948,0.0358384,0.7257733,-0.0430613,10.8399997577071,7
-2.11023,0.6833331,-34.43002,0.2487346545012609,0.5427912452932464,-0.0925001175939073,9.613556,93.08945,359.3792,0.05371438,0.72366,-0.06454007,10.8599997572601,7
-1.882124,0.2833333,-34.46806,0.3382448620675565,0.0636098232033591,-0.1155623613593661,3.451069,93.98637,359.7959,0.01923657,0.7309764,-0.02323439,10.879999756813,7
-1.82226,0.4833332,-34.47587,0.4231877627691555,-0.4260606062166002,-0.136888944242159,6.90074,93.85284,359.5833,0.03845033,0.7292978,-0.04644137,10.899999756366,7
-1.762414,0.683333,-34.48368,0.3325784340448769,-0.0212429192579234,-0.1267753951939951,10.34932,93.70518,359.3605,0.05762464,0.726956,-0.06960352,10.919999755919,7
-1.514912,0.2833333,-34.52524,0.4421151781474053,-0.2672284855308787,-0.1502409149288155,3.548996,95.79525,359.8393,0.01972099,0.7416207,-0.0239151,10.9399997554719,7
-1.453584,0.4833333,-34.53436,0.5431707467899084,-0.4980905708294433,-0.1702620670761305,7.097381,95.6655,359.6697,0.03941841,0.739884,-0.04780838,10.9599997550249,7
-1.392274,0.6833332,-34.54347,0.4400815671412128,-0.0479020813262331,-0.1541134479768686,10.64435,95.52394,359.4903,0.05907229,0.7374368,-0.07164894,10.9799997545779,7
-1.330981,0.8833333,-34.55258,0.3338259207897416,0.3917975609690044,-0.1362147239008564,14.18982,95.36911,359.2995,0.07866366,0.7342822,-0.09541382,10.9999997541308,7
-1.023865,0.2833332,-34.60396,0.3925518187541046,-0.0839690189866392,-0.1478616990915569,3.586523,97.73354,359.9651,0.02035595,0.7528194,-0.02376956,11.0199997536838,7
-0.9619402,0.4833333,-34.61305,0.2212512165973705,0.1500635506159503,-0.1194985163728077,7.17221,97.61601,359.9229,0.04068819,0.7510611,-0.04751034,11.0399997532368,7
-0.9000336,0.6833334,-34.62213,0.0425508947850055,0.4013105446240067,-0.0888823076251767,10.75678,97.49477,359.8728,0.0609745,0.7485679,-0.071198,11.0599997527897,7
-0.8381441,0.8833332,-34.63121,0.0464512828066274,-0.0228129888822902,-0.0905939240568471,14.34025,97.3687,359.8142,0.08119574,0.745343,-0.09480928,11.0799997523427,7
-0.6221226,0.2833333,-34.66717,0.047691689157804,-0.4574252592185846,-0.0907079609634351,3.553376,98.6355,0.07201628,0.02068678,0.7579589,-0.02310204,11.0999997518957,7
-0.5606464,0.4833333,-34.67529,-0.1264216748525719,0.0024508967880903,-0.0586253891828292,7.105623,98.52853,0.1379778,0.04134946,0.756222,-0.04617098,11.1199997514486,7
-0.4991876,0.6833332,-34.6834,-0.2949288092593725,0.4518378911794644,-0.0266501549672497,10.657,98.42479,0.197794,0.06196638,0.7537587,-0.0691893,11.1399997510016,7
-0.2610853,0.2833333,-34.72365,-0.2042754642058688,-0.0142413181239999,-0.0411674626159594,3.623809,99.60608,0.09885627,0.02106568,0.7634305,-0.02359459,11.1599997505546,7
-0.1984488,0.4833333,-34.73257,-0.1104045393483059,-0.4908095951300178,-0.0558559650125687,7.246734,99.50209,0.191313,0.04210421,0.7616493,-0.04715855,11.1799997501075,7
-0.1358342,0.6833334,-34.74149,-0.2568465554581465,-0.0728895509439785,-0.0277954897339682,10.86941,99.40305,0.2777176,0.06309631,0.7591064,-0.07067432,11.1999997496605,7
0.1228324,0.2833332,-34.78492,-0.1907247368613771,-0.3057723956638724,-0.0366284975380111,3.637873,100.0528,0.107507,0.02111017,0.765935,-0.02372207,11.2199997492135,7
0.1856544,0.4833333,-34.79422,-0.1318030350021679,-0.5235315140862817,-0.0431245502405417,7.274855,99.95002,0.2086517,0.04219267,0.7641458,-0.04741321,11.2399997487664,7
0.2484589,0.6833334,-34.80351,-0.2876413205631736,-0.0602404905941499,-0.0116683538288953,10.91096,99.85281,0.3041931,0.06322671,0.7615868,-0.07104959,11.2599997483194,7
0.3112449,0.8833332,-34.81281,-0.4450070715080065,0.3925613728507977,0.0208778751127312,14.54639,99.76053,0.394537,0.08419093,0.7582612,-0.09461005,11.2799997478724,7
0.3740126,0.9766704,-34.82209,-0.4211502281611361,-0.0701029802053792,0.0208843043898383,18.18089,99.67265,0.4803954,0.1050641,0.754173,-0.1180684,11.2999997474253,7
0.6287332,0.2833332,-34.86693,-0.391047675616222,-0.5432560680007352,0.0213761789336146,3.581355,102.2431,0.2116517,0.02105065,0.7780614,-0.02316723,11.3199997469783,7
0.690565,0.4833332,-34.87663,-0.5179841785773966,-0.1219207278850038,0.051084056278988,7.162012,102.1505,0.4178188,0.04207415,0.7763046,-0.04630513,11.3399997465312,7
0.7523791,0.6833332,-34.88634,-0.4329086460712616,-0.3513881689107629,0.0410460033220019,10.74191,102.0702,0.620076,0.06305011,0.7737881,-0.06939091,11.3599997460842,7
0.9779005,0.2833333,-34.92526,-0.3338024027031352,-0.5657320811345817,0.0281182778051274,3.514724,103.0567,0.2637807,0.02088006,0.7825016,-0.02257816,11.3799997456372,7
1.038661,0.4833333,-34.93468,-0.4130350447875948,-0.0990258349786391,0.0470228004268094,7.028823,102.9689,0.5225868,0.04173404,0.7807857,-0.04512816,11.3999997451901,7
1.099407,0.6833333,-34.94411,-0.4777884110978823,0.3571915882751377,0.0630044238455482,10.54191,102.8966,0.7783799,0.06254101,0.7783324,-0.06762627,11.4199997447431,7
1.344939,0.2833334,-34.98563,-0.264031225553166,-0.1020570525164524,0.0264151553369274,3.45403,102.9496,0.2880716,0.02073718,0.7819293,-0.02201246,11.4399997442961,7
1.404785,0.4833333,-34.99429,-0.2641488501357081,0.1484930552479904,0.0268344783637033,6.907094,102.864,0.5716398,0.04144852,0.7802521,-0.04399425,11.459999743849,7
1.464615,0.6833334,-35.00294,-0.2661457557194739,0.4162576255754008,0.0274007774522857,10.35953,102.7952,0.8525625,0.06211636,0.7778621,-0.06592911,11.479999743402,7
1.524427,0.8833334,-35.01159,-0.2566829216453894,0.6489660197022858,0.0258553290842016,13.81128,102.7429,1.132753,0.08272127,0.7747623,-0.08779766,11.499999742955,7
1.72917,0.2833335,-35.04734,-0.0677229840564743,-0.0594044293191319,-0.0084313173595163,3.404837,101.8087,0.2199892,0.02022387,0.7757145,-0.0218464,11.5199997425079,7
1.788093,0.4833335,-35.0558,-0.1535808573074195,0.1554625030271034,0.0056950153216419,6.808669,101.7171,0.4348591,0.04042183,0.7740735,-0.04366444,11.5399997420609,7
1.846999,0.6833335,-35.06425,-0.2399613194487768,0.3875438035008511,0.0208133732598341,10.21186,101.6377,0.6460341,0.06057808,0.7717475,-0.06543787,11.5599997416139,7
2.07134,0.2833334,-35.10284,-0.1392431695473615,-0.0557451612287304,0.0014000665729128,3.354398,100.1346,0.1283328,0.01964543,0.7664486,-0.02172445,11.5799997411668,7
2.129335,0.4833335,-35.11098,-0.0352070528656129,-0.5095230412051098,-0.017404575748479,6.707636,100.0349,0.2511366,0.03926685,0.7648437,-0.04342049,11.5999997407198,7
2.187315,0.6833334,-35.11913,-0.0993262616812575,-0.0688125547754099,-0.0058138959352049,10.06014,99.94183,0.369027,0.0588489,0.7625836,-0.06507343,11.6199997402728,7
2.245277,0.8833333,-35.12727,0.0450710621538901,-0.2789048324992739,-0.033743555462216,13.41186,99.85477,0.4827312,0.0783748,0.7596705,-0.08666438,11.6399997398257,7
2.527962,0.2833334,-35.17651,0.1893725901089977,-0.4738732591732849,-0.0621835671708979,3.30013,97.98582,359.9795,0.01875878,0.7543189,-0.02184713,11.6599997393787,7
2.584917,0.4833334,-35.18492,0.1351424914221679,0.0122084612942994,-0.0551121638635478,6.599263,97.87352,359.9524,0.03749656,0.7527507,-0.04366986,11.6799997389317,7
2.64186,0.6833332,-35.19333,0.0821918710578577,0.4878009207454274,-0.0482704373326257,9.896996,97.75877,359.9184,0.05619417,0.7505592,-0.0654488,11.6999997384846,7
2.893631,0.2833334,-35.23618,0.3037505142538501,0.0479274095412313,-0.0931125977090374,3.243693,95.97393,359.8882,0.01821812,0.7427131,-0.02168176,11.7199997380376,7
2.949701,0.4833335,-35.24406,0.2848532884258699,0.3178531789201061,-0.0960164355867405,6.486177,95.85421,359.7693,0.03641596,0.7411789,-0.04333977,11.7399997375906,7
3.005756,0.6833333,-35.25194,0.2473241146663376,0.6049931835721878,-0.0956690455421735,9.727492,95.72684,359.6428,0.05457994,0.7390512,-0.06495652,11.7599997371435,7
3.061796,0.8833332,-35.25982,0.2040035047387238,0.8570768781240318,-0.0943510263170992,12.9672,95.59081,359.5077,0.07269356,0.7363322,-0.0865118,11.7799997366965,7
3.27566,0.2833334,-35.29678,0.3306487439374042,0.1680820486392547,-0.1265542036693148,3.195709,93.43636,359.7886,0.0177747,0.7277413,-0.02156354,11.7999997362494,7
3.331086,0.4833334,-35.30385,0.4565768278559821,-0.4300130945559123,-0.1587614668357204,6.390024,93.30888,359.5699,0.03553015,0.7262353,-0.04310401,11.8199997358024,7
3.386496,0.6833334,-35.31092,0.3651066347859544,-0.0344992066204716,-0.1507045023953424,9.582879,93.16814,359.3422,0.05325264,0.7241628,-0.06460442,11.8399997353554,7
3.624805,0.2833335,-35.35279,0.4604345516130195,-0.2902761717751869,-0.1772747792725297,3.530087,94.8923,359.7962,0.01952065,0.7363285,-0.02389141,11.8599997349083,7
3.68593,0.4833334,-35.36166,0.5467354635597577,-0.5314174682066802,-0.2006925063051454,7.058815,94.76385,359.5841,0.03901752,0.7346343,-0.04775394,11.8799997344613,7
3.747029,0.6833334,-35.37053,0.4413828146627043,-0.0919962411381982,-0.1882934537959641,10.58731,94.62092,359.3615,0.05847594,0.7322406,-0.07157544,11.8999997340143,7
3.808101,0.8833334,-35.3794,0.3333856878002876,0.336448074091525,-0.1738609725305835,14.11567,94.46201,359.1268,0.07788105,0.7291496,-0.09533197,11.9199997335672,7
4.104088,0.2833334,-35.43245,0.4849256329510192,-0.1510615651197515,-0.2067290225082345,3.5634,97.22031,359.8756,0.01974309,0.7498875,-0.02404306,11.9399997331202,7
4.165493,0.4833333,-35.44248,0.4075150835352765,0.0707397589802826,-0.1971928539042693,7.125779,97.09951,359.743,0.03945997,0.7481725,-0.04806023,11.9599997326732,7
4.226879,0.6833333,-35.45251,0.3129854487495151,0.3092678927301573,-0.182879758564546,10.68682,96.96925,359.6016,0.05913266,0.7457342,-0.07202413,11.9799997322261,7
4.288248,0.8833331,-35.46254,0.2150261248167,0.5122518372223237,-0.1663868159593491,14.24655,96.82827,359.4499,0.07874287,0.7425755,-0.09591153,11.9999997317791,7
4.494555,0.2833332,-35.49916,0.2817576188656483,-0.2263308615756358,-0.1820190804761097,3.592508,98.61788,0.01430844,0.02053121,0.757861,-0.02368585,12.0199997313321,7
4.556566,0.4833332,-35.50836,0.1788819914012691,-0.0421644326818707,-0.1642038585963376,7.184241,98.51063,0.02232472,0.04104044,0.7561291,-0.0473408,12.039999730885,7
4.618558,0.6833332,-35.51756,0.0759339570350716,0.1587283491914028,-0.1446977455561011,10.77495,98.40293,0.02358337,0.06150337,0.753655,-0.07094243,12.059999730438,7
4.844482,0.2833333,-35.55789,0.1628296860087719,-0.3162365777953628,-0.1616761421397328,3.561874,99.5607,0.08062533,0.02060479,0.7631915,-0.02327642,12.079999729991,7
4.90599,0.4833331,-35.56688,0.0567826163826072,-0.0818902286316015,-0.1417015543365707,7.122665,99.45995,0.1551689,0.04118298,0.7614781,-0.04652201,12.0999997295439,7
4.967481,0.6833331,-35.57587,-0.0505287453174245,0.1691824565237403,-0.1199859043610089,10.68254,99.36302,0.2240543,0.06171536,0.7590297,-0.06971595,12.1199997290969,7
5.215364,0.2833334,-35.62022,0.0520062559108813,-0.2556026898425019,-0.1390121563712156,3.635682,100.3924,0.1051059,0.02101145,0.7678353,-0.02378324,12.1399997286499,7
5.278097,0.4833335,-35.62993,0.1570181622698978,-0.6913644506280987,-0.1573429574870744,7.270503,100.2944,0.2041596,0.04199565,0.7660752,-0.04753577,12.1599997282028,7
5.340808,0.6833334,-35.63963,0.0099715700480569,-0.2331257960370846,-0.1285082421784693,10.90512,100.2019,0.2976573,0.06293388,0.7635438,-0.0712394,12.1799997277558,7
5.403502,0.8833331,-35.64933,-0.1340465138183582,0.2141357921685959,-0.0987188314940965,14.53887,100.1143,0.3864287,0.08380283,0.7602447,-0.09486469,12.1999997273088,7
5.710414,0.2833335,-35.70508,-0.0012553459724262,-0.2545564751882809,-0.1219705385629268,3.622609,101.4249,0.1390408,0.02095318,0.7735665,-0.02369592,12.2199997268617,7
5.77284,0.4833334,-35.71528,-0.1028336716423812,-0.0139376798326896,-0.1012933300888079,7.24442,101.3306,0.2723417,0.04187937,0.7718142,-0.04736141,12.2399997264147,7
5.835249,0.6833333,-35.72548,-0.2152808539986903,0.2434073319891682,-0.0769035625707772,10.86538,101.244,0.4009162,0.06275767,0.7692906,-0.07097251,12.2599997259676,7
5.89764,0.8833332,-35.73568,-0.3239276131378084,0.4652084935278058,-0.0516795571486525,14.48547,101.1646,0.5253296,0.08356506,0.7659984,-0.09450758,12.2799997255206,7
6.112669,0.2833333,-35.77608,-0.2577201548279664,-0.2545566359202075,-0.0621110243653788,3.560521,103.2817,0.2273753,0.02083458,0.7837179,-0.02312945,12.2999997250736,7
6.174024,0.4833333,-35.78654,-0.3637166744808677,-0.0515725372299302,-0.0387843351991108,7.120353,103.1959,0.4497758,0.04164274,0.7820014,-0.04622969,12.3199997246265,7
6.235362,0.6833332,-35.79701,-0.4585058168432212,0.168138097038292,-0.0165837800859591,10.67944,103.1234,0.6688932,0.06240456,0.779528,-0.06927822,12.3399997241795,7
6.470482,0.2833333,-35.84048,-0.3661177681550107,-0.2880094587910117,-0.0328910490021669,3.49775,103.8132,0.272854,0.02070149,0.7865924,-0.02255015,12.3599997237325,7
6.530865,0.4833332,-35.85048,-0.4695571953047128,-0.0348460852848563,-0.0098710485491722,6.994884,103.7316,0.5411475,0.04137744,0.7849147,-0.04507247,12.3799997232854,7
6.591233,0.6833333,-35.86047,-0.5666744259415957,0.2350438504572218,0.0144274023261843,10.49091,103.6659,0.8069407,0.06200701,0.7825025,-0.06754252,12.3999997228384,7
6.651584,0.8833332,-35.87046,-0.6443661865355637,0.4693898153453577,0.037152858255979,13.98622,103.6161,1.07208,0.08257266,0.7793589,-0.08994302,12.4199997223914,7
6.945228,0.2833334,-35.92453,-0.4834320761715922,-0.2378308714199215,0.0617116600059333,3.435129,103.3643,0.2744552,0.020462,0.7841838,-0.02203164,12.4399997219443,7
7.004635,0.4833332,-35.93377,-0.5825056818112611,-0.0223024255277751,0.1371203024179124,6.869236,103.2828,0.5447063,0.04089897,0.782548,-0.04403241,12.4599997214973,7
7.064024,0.6833333,-35.943,-0.6785513453597805,0.2099528318436808,0.2143564363490213,10.30267,103.2171,0.8123379,0.06129266,0.7802055,-0.06598712,12.4799997210503,7
7.123396,0.8833332,-35.95224,-0.7588486637065941,0.4066641280312446,0.2903454560497494,13.7354,103.1672,1.079323,0.08162544,0.7771593,-0.08787588,12.4999997206032,7
7.327455,0.2833333,-35.99121,-0.7122455034294752,-0.3381910838648452,0.4161245049697655,3.382607,101.782,0.1721669,0.01978298,0.7755803,-0.02195436,12.5199997201562,7
7.38583,0.4833332,-36.00037,-0.8105514882327256,-0.1602972319263892,0.5686415843705745,6.764102,101.6914,0.339172,0.03954028,0.7739842,-0.04388072,12.5399997197092,7
7.44419,0.683333,-36.00953,-0.887382752814073,0.0343231364241445,0.7149336861168649,10.14488,101.6101,0.5022127,0.0592576,0.7717131,-0.06576234,12.5599997192621,7
7.667435,0.2833334,-36.05198,-0.8246239090734342,-0.4469141596553945,0.9348293976671016,3.329343,100.1926,0.07393461,0.01913023,0.7667877,-0.02187115,12.5799997188151,7
7.724823,0.4833333,-36.06104,-0.9258158682954782,-0.218840160767012,1.1772069844056716,6.657453,100.0935,0.1422106,0.03823657,0.7652285,-0.04371484,12.5999997183681,7
7.782196,0.6833332,-36.0701,-1.0032630523941624,0.0259605274618373,1.404633165327979,9.98472,99.9977,0.2051814,0.0573049,0.7630241,-0.06551558,12.619999717921,7
8.024093,0.2833334,-36.11643,-1.0447241596236996,0.2352171605940473,1.6132505397088863,3.278891,98.6087,359.9545,0.01835377,0.7578809,-0.02195036,12.639999717474,7
8.080522,0.4833335,-36.12584,-1.1293505123419525,0.2231950412673622,1.9884860359392675,6.556711,98.49954,359.9026,0.03668671,0.7563541,-0.04387643,12.6599997170269,7
8.136938,0.6833335,-36.13524,-1.1991613417535714,0.2566480393316101,2.3363480138218837,9.833138,98.38656,359.8438,0.05498116,0.754209,-0.0657591,12.6799997165799,7
8.193338,0.8833333,-36.14464,-1.242123868128484,0.2822603308374725,2.6530685685170567,13.10852,98.26891,359.7777,0.07322544,0.7514478,-0.08758183,12.6999997161329,7
8.492956,0.2833334,-36.20216,-1.1437002197141195,-0.3935974092106592,3.097327729365624,3.22339,95.39284,359.8061,0.01767945,0.7393274,-0.02193965,12.7199997156858,7
8.548616,0.4833334,-36.21085,-1.3037292272533405,-0.1467063665526622,3.545657232429555,6.445444,95.2716,359.6052,0.03533976,0.7378342,-0.04385544,12.7399997152388,7
8.604261,0.6833332,-36.21955,-1.4496077583465183,0.1169112315460851,3.946525332935387,9.666127,95.13807,359.3958,0.05296724,0.7357559,-0.0657299,12.7599997147918,7
8.659892,0.8833331,-36.22824,-1.569650420694531,0.3449848653247076,4.297227709677074,12.88505,94.99115,359.1768,0.07054754,0.7330952,-0.08754226,12.7799997143447,7
8.862046,0.2833334,-36.26841,-1.6041177890642544,-0.3685077992011968,4.767989692264052,3.372957,95.0951,359.7922,0.0185277,0.7375529,-0.02293798,12.7999997138977,7
8.920367,0.4833335,-36.27731,-1.7841033083808693,-0.1592512295777003,5.206277622820906,6.744529,94.97222,359.5769,0.03703383,0.7359789,-0.0458497,12.8199997134507,7
8.978673,0.6833335,-36.2862,-1.9338128313773364,0.0667318949638469,5.578243073732793,10.1147,94.83553,359.3525,0.05550299,0.7337658,-0.06871519,12.8399997130036,7
9.188395,0.2833335,-36.3273,-1.972260355234578,-0.3831431379230416,6.060164887450966,3.535304,94.15708,359.7802,0.01960226,0.7319784,-0.02389409,12.8599997125566,7
9.249666,0.4833333,-36.33565,-2.1793010138783178,-0.1237069820383351,6.496064629060278,7.069321,94.03246,359.5525,0.03918218,0.7303138,-0.04775881,12.8799997121096,7
9.310912,0.6833332,-36.34399,-2.3566088725806384,0.1524559699058696,6.849412601050226,10.60305,93.89251,359.3151,0.05872796,0.7279519,-0.07157764,12.8999997116625,7
9.37214,0.8833332,-36.35234,-2.492399544727583,0.3930746133284105,7.119651233513338,14.13514,93.73569,359.0656,0.07821199,0.7248955,-0.09532128,12.9199997112155,7
9.626464,0.2833333,-36.35484,-2.4760802352912474,-0.3078734786224568,7.537684179638084,3.564293,89.36056,359.7941,0.0208499,0.7028485,-0.02314458,12.9399997107685,7
9.688698,0.4833331,-36.35775,-2.694458077284408,-0.086072414916855,7.903449742757338,7.127673,89.2377,359.5827,0.04169243,0.7011855,-0.04624756,12.9599997103214,7
9.750914,0.6833332,-36.36066,-2.88574046454996,0.1524557900951959,8.169911497270533,10.68952,89.10039,359.3615,0.06248814,0.6988428,-0.06929906,12.9799997098744,7
9.813111,0.8833332,-36.36357,-3.038201394930871,0.355439791736492,8.338151974883935,14.24978,88.94711,359.1286,0.08321726,0.6958233,-0.0922768,12.9999997094274,7
9.967517,0.2833332,-36.31581,-3.088670420276894,-0.383142956370015,8.563517973242583,3.557144,83.6565,359.9006,0.02254865,0.6665985,-0.02134484,13.0199997089803,7
10.0294,0.483333,-36.31067,-3.261977494049834,-0.1989765493427612,8.713559136297071,7.113382,83.54418,359.7976,0.04509222,0.6649669,-0.04264112,13.0399997085333,7
10.09126,0.6833329,-36.30553,-3.391064764081266,0.0019166788338516,8.759008192552365,10.66835,83.42438,359.6866,0.06758547,0.662695,-0.06389017,13.0599997080863,7
10.25214,0.2833333,-36.22219,-3.395221076533705,-0.4730479847093641,8.869929861655308,3.579643,76.22134,359.8944,0.02400655,0.6169037,-0.02000113,13.0799997076392,7
10.31324,0.4833334,-36.20906,-3.541620703147794,-0.2387018868798091,8.90310133343722,7.15804,76.10835,359.7817,0.04798339,0.6152966,-0.039976,13.0999997071922,7
10.37433,0.6833333,-36.19596,-3.642091108436219,0.0123708048093508,8.827192697123337,10.7358,75.98761,359.6634,0.07192467,0.6130906,-0.05989174,13.1199997067451,7
10.4354,0.8833332,-36.18288,-3.685595882479406,0.2278997835125908,8.646835123034215,14.31227,75.85789,359.5367,0.09579405,0.6102879,-0.07973658,13.1399997062981,7
10.6205,0.2833334,-36.03234,-3.7838872968681336,0.2221502307742247,8.635249618004842,3.613126,66.64389,359.8728,0.02573291,0.5490988,-0.01824522,13.1599997058511,7
10.67926,0.4833333,-36.00933,-3.842812539534176,0.2618758963960606,8.508796636231601,7.224994,66.52916,359.7383,0.0514338,0.547535,-0.03646604,13.179999705404,7
10.73799,0.6833331,-35.98632,-3.8517576450074777,0.2937609302935113,8.274266191252362,10.83556,66.40477,359.5953,0.07707688,0.5454274,-0.05464455,13.199999704957,7
10.89276,0.2833334,-35.81126,-3.713053790751737,-0.3758246717847739,8.131235292390645,3.566598,60.31416,359.8755,0.02636196,0.502158,-0.01657235,13.21999970451,7
10.94786,0.4833333,-35.78225,-3.808710415085093,-0.1226610433725932,7.929773154560202,7.131935,60.20018,359.744,0.05269186,0.50066,-0.03312213,13.2399997040629,7
11.00294,0.6833332,-35.75325,-3.868652880895821,0.1472290285342565,7.626530350907547,10.69598,60.07688,359.6041,0.07896385,0.4986776,-0.04963385,13.2599997036159,7
11.05801,0.8833331,-35.72425,-3.883298024875064,0.3815755710990356,7.230588679609106,14.25906,59.94328,359.4557,0.10516,0.4962137,-0.06608532,13.2799997031689,7
11.15813,0.2833334,-35.5334,-3.768422359950208,-0.325644961468135,6.913571193369236,3.505893,53.78046,359.9502,0.02708578,0.4520828,-0.01422294,13.2999997027218,7
11.20794,0.4833334,-35.49788,-3.7719205409352607,-0.1101163313223156,6.547055905105815,7.010687,53.67399,359.894,0.05413925,0.4506595,-0.02842693,13.3199997022748,7
11.25773,0.6833334,-35.46237,-3.732267482324337,0.122138646837311,6.107932952586644,10.51435,53.56316,359.8308,0.08113497,0.4488155,-0.04259855,13.3399997018278,7
11.37237,0.2833333,-35.26015,-3.641578873644312,0.3188499719479084,5.606791816887032,3.44836,47.4096,359.9583,0.02740328,0.4018525,-0.01242917,13.3599997013807,7
11.41708,0.4833333,-35.21989,-3.57556763634824,0.2942827183120572,5.304330457887687,6.895877,47.30431,359.9108,0.05477766,0.4004996,-0.02483983,13.3799997009337,7
11.46179,0.6833334,-35.17965,-3.479230876390305,0.3151909152918641,4.941055481714376,10.34228,47.19568,359.8593,0.08210422,0.3987863,-0.03720166,13.3999997004867,7
11.5065,0.8833332,-35.13943,-3.345920415486088,0.3282584198263349,4.529674162858754,13.78738,47.08314,359.8031,0.1093563,0.3967153,-0.04950416,13.4199997000396,7
11.64387,0.2833331,-34.8826,-3.0855113671062497,-0.3601443454597585,4.266306972731556,3.394707,39.73038,0.01878001,0.02791319,0.3396546,-0.009911078,13.4399996995926,7
11.68146,0.4833331,-34.83683,-3.018482757694452,-0.1257982194912257,3.953473308060989,6.788329,39.6313,0.03588831,0.05580506,0.3383828,-0.01977596,13.4599996991456,7
11.71904,0.6833334,-34.79107,-2.9343237088789973,0.1252745042572033,3.605325584530245,10.18097,39.53246,0.04718136,0.08363971,0.3368151,-0.02962069,13.4799996986985,7
11.75661,0.8833333,-34.74532,-2.827685023796885,0.3408029730612716,3.235882013197532,13.57271,39.43317,0.05259537,0.1113934,0.334953,-0.03943686,13.4999996982515,7
11.84248,0.2833332,-34.55532,-2.6277043342787003,-0.3852347212327092,3.000601294233494,3.346415,34.57936,0.01150255,0.02790928,0.2970733,-0.008582173,13.5199996978045,7
11.87546,0.4833331,-34.50714,-2.514518997734813,-0.1885227398654162,2.695083336687631,6.691613,34.47985,0.01953186,0.0557905,0.295859,-0.0171345,13.5399996973574,7
11.90843,0.6833332,-34.45897,-2.384625864864848,0.0249157992948093,2.3791480162605723,10.03585,34.38008,0.02175426,0.08361612,0.2943934,-0.02566963,13.5599996969104,7
12.00627,0.2833332,-34.25412,-2.156469115953445,-0.4375037878724297,2.230096787641223,3.298503,30.38235,359.9328,0.0276215,0.2619482,-0.00810776,13.5799996964633,7
12.0364,0.4833331,-34.20508,-2.029977053235724,-0.1906125137430347,1.9879966442456976,6.595928,30.27612,359.8594,0.05521232,0.2607812,-0.01620582,13.5999996960163,7
12.06653,0.683333,-34.15606,-1.8946094519136596,0.0730050955938812,1.7420965803013324,9.891956,30.165,359.7805,0.08274986,0.2593997,-0.02427648,13.6199996955693,7
12.09665,0.8833331,-34.10704,-1.7464796833153908,0.3010788405345301,1.506990436247193,13.18689,30.04803,359.6942,0.110211,0.2578043,-0.03232478,13.6399996951222,7
12.21942,0.2833334,-33.84855,-1.478469065425303,-0.4124139458688634,1.5169360313211513,3.243454,25.6115,359.8168,0.02724261,0.2216014,-0.007830728,13.6599996946752,7
12.24678,0.4833334,-33.79892,-1.351605184894881,-0.2031573981989957,1.375949747112294,6.485596,25.49588,359.6269,0.05445538,0.2204875,-0.01565249,13.6799996942282,7
12.27413,0.6833334,-33.74929,-1.2275671023178916,0.0228256842647615,1.2344752472977485,9.726382,25.36856,359.429,0.08161651,0.2191975,-0.02345915,13.6999996937811,7
12.38318,0.2833333,-33.51931,-1.0134058877595091,-0.427049277447068,1.2977140783888783,3.19282,21.85013,359.7483,0.02693785,0.1895111,-0.007436047,13.7199996933341,7
12.40801,0.4833333,-33.46926,-0.9218353233944594,-0.1676133901458448,1.1832505484195508,6.384193,21.72932,359.4895,0.05384677,0.188439,-0.01486363,13.7399996928871,7
12.43283,0.6833332,-33.41922,-0.8430634547050815,0.1085491791779697,1.0612801230940505,9.574055,21.59307,359.222,0.08070585,0.1872207,-0.02227739,13.75999969244,7
12.45764,0.8833334,-33.36919,-0.7737810683107647,0.3491681113952713,0.9463268878086276,12.76207,21.44035,358.9448,0.1074935,0.1858579,-0.02966374,13.779999691993,7
12.55253,0.283333,-33.16713,-0.6404055236081501,-0.3517796056886674,1.0039701047470473,3.527967,22.28803,359.7684,0.02981159,0.1932448,-0.007931269,13.799999691546,7
12.57969,0.4833331,-33.11166,-0.5738586203766012,-0.129978425768221,0.8849119851275979,7.054501,22.16713,359.5291,0.05958663,0.1921228,-0.01585266,13.8199996910989,7
12.60684,0.683333,-33.05622,-0.5167034535203605,0.1085495178039863,0.7689696952942775,10.5808,22.03021,359.2799,0.08930774,0.1908188,-0.02375866,13.8399996906519,7
12.63398,0.8833333,-33.00081,-0.4652863467647332,0.3115333333621393,0.6703022980014843,14.10688,21.87573,359.0187,0.1189473,0.1893339,-0.0316431,13.8599996902049,7
12.75327,0.2833334,-32.74763,-0.3960828801822487,0.2932384830562715,0.6127161953456906,3.562661,23.78178,359.8529,0.03015359,0.2059879,-0.007660802,13.8799996897578,7
12.78074,0.4833333,-32.69181,-0.3415741449029053,0.3204189967711909,0.5464199903613824,7.124276,23.66897,359.6984,0.06027141,0.2048483,-0.01531308,13.8999996893108,7
12.8082,0.6833331,-32.63599,-0.2975254165581944,0.3397587981779659,0.4854977549941139,10.68458,23.54541,359.5353,0.09032256,0.2035114,-0.02294845,13.9199996888638,7
12.91404,0.2833335,-32.40864,-0.1746910201000719,-0.34237201025572,0.6250680214170679,3.592592,24.73161,-0.0002597909,0.03061843,0.2140472,-0.006715063,13.9399996884167,7
12.94031,0.4833332,-32.35172,-0.1761026471601798,-0.1017533219676288,0.515701313921177,7.184468,24.63294,359.994,0.06120203,0.2128954,-0.01341615,13.9599996879697,7
12.96657,0.683333,-32.29481,-0.1904372169823496,0.1555920770918516,0.3960695686250624,10.77528,24.53304,359.982,0.09171668,0.2115353,-0.0201017,13.9799996875226,7
12.99282,0.8833328,-32.23792,-0.2129158949557101,0.3773930556835818,0.2796501619654137,14.36505,24.43105,359.9633,0.1221325,0.2099684,-0.02676578,13.9999996870756,7
13.08062,0.2833333,-32.04881,-0.1703168988987062,-0.3423722933007227,0.3227904543668209,3.561712,25.24808,0.06893066,0.03045691,0.2184288,-0.006205207,14.0199996866286,7
13.10608,0.4833336,-31.99211,-0.1932134189000205,-0.139388304030122,0.2050678297581356,7.122261,25.15627,0.1325517,0.06087408,0.2172801,-0.01239969,14.0399996861815,7
13.13154,0.6833334,-31.93543,-0.2198557855709726,0.0803226916018051,0.0911628541248035,10.68195,25.06769,0.1910001,0.09122433,0.2159223,-0.01858042,14.0599996857345,7
13.22911,0.2833333,-31.72632,-0.2449764869720123,0.2644895644467359,-0.0055407300664178,3.635798,25.82025,0.09726591,0.03111063,0.2232836,-0.006260691,14.0799996852875,7
13.25527,0.4833333,-31.66848,-0.2451438136995669,0.2273771122960641,-0.0584715743926764,7.270705,25.73153,0.1890584,0.062181,0.2221173,-0.01251333,14.0999996848404,7
13.28142,0.6833332,-31.61066,-0.2506315850054363,0.2357401915190442,-0.1152617621660034,10.90538,25.64793,0.2759754,0.09318544,0.2207282,-0.01875343,14.1199996843934,7
13.30756,0.8833332,-31.55286,-0.2557979882867123,0.2362627524447209,-0.162286043576632,14.53911,25.5689,0.3586584,0.124087,0.2191178,-0.02497283,14.1399996839464,7
13.43058,0.2833333,-31.28946,-0.174313853268389,-0.4646849151564343,-0.0131091914134344,3.622942,26.57289,0.1318426,0.03102901,0.2296691,-0.006145599,14.1599996834993,7
13.45685,0.4833335,-31.23192,-0.2033505680994576,-0.2428834762354357,-0.0995665552008802,7.245008,26.48784,0.2584851,0.06201766,0.2285,-0.01228356,14.1799996830523,7
13.48312,0.6833334,-31.17439,-0.2351291082528952,-0.0043557295489502,-0.1853391835556053,10.86622,26.41017,0.3809239,0.09293546,0.2271033,-0.01840739,14.1999996826053,7
13.59334,0.2833333,-30.9382,-0.1727297943909533,-0.4416860544800884,-0.0624946640351353,3.561152,28.26751,0.2225043,0.03060516,0.2440095,-0.005705294,14.2199996821582,7
13.61939,0.4833332,-30.88166,-0.2092109674116464,-0.169705211547847,-0.1491941014298916,7.121587,28.19107,0.4406108,0.06117174,0.2428358,-0.01140345,14.2399996817112,7
13.64543,0.6833332,-30.82515,-0.2485979994378109,0.1190020997075728,-0.2403427379527691,10.68121,28.12775,0.6559551,0.09166984,0.2414278,-0.01708891,14.2599996812642,7
13.67147,0.8833334,-30.76864,-0.2847815788202883,0.3721656802050874,-0.3228401723402143,14.23962,28.07739,0.8700166,0.1220666,0.2397868,-0.02275655,14.2799996808171,7
13.76351,0.2833334,-30.57071,-0.3116722392934701,0.4236847991153513,-0.3835595282974466,3.49791,28.61956,0.2683676,0.03015184,0.2469793,-0.005275281,14.2999996803701,7
13.78867,0.4833333,-30.51492,-0.3124674659472646,0.3558026744222216,-0.3978853340915442,6.995178,28.54738,0.5327874,0.06026677,0.2458172,-0.01054374,14.3199996799231,7
13.81382,0.6833335,-30.45914,-0.3132544338549294,0.3338838044068722,-0.4127517131540266,10.49127,28.49103,0.7953316,0.09031304,0.2444259,-0.01579835,14.339999679476,7
13.83897,0.8833334,-30.40338,-0.3084968820679474,0.3046123421209391,-0.4157878303586955,13.9866,28.45052,1.057769,0.1202663,0.2428068,-0.02103668,14.359999679029,7
13.95583,0.2833333,-30.15116,-0.2156901105930071,-0.4256424199871041,-0.2321329344380203,3.435383,28.01835,0.270764,0.02965499,0.2418991,-0.004964667,14.379999678582,7
13.97985,0.4833333,-30.09605,-0.2258008718786808,-0.2326600808105032,-0.2681236267962603,6.869678,27.94637,0.537917,0.05927125,0.2407584,-0.009919878,14.3999996781349,7
14.00387,0.6833333,-30.04095,-0.2355223744129677,-0.0224631995325905,-0.3011654502020526,10.30328,27.89009,0.8030584,0.08882545,0.2394011,-0.0148646,14.4199996776879,7
14.10765,0.2833332,-29.8163,-0.1552492085428465,-0.487636474648157,-0.1375119917214462,3.383045,26.32669,0.1694535,0.02907932,0.227586,-0.005282869,14.4399996772408,7
14.13122,0.4833332,-29.76211,-0.1692351860979197,-0.2430109190558154,-0.1742283473493557,6.764911,26.24559,0.3343596,0.058121,0.2264746,-0.0105587,14.4599996767938,7
14.15478,0.6833333,-29.70793,-0.1869992873842996,0.0188297281755043,-0.217649585220542,10.14601,26.17374,0.4958155,0.08710345,0.2251664,-0.0158238,14.4799996763468,7
14.17833,0.8833332,-29.65377,-0.2029624331651529,0.2456144846034779,-0.2559525261356832,13.52636,26.11088,0.6548792,0.1160019,0.2236625,-0.02107372,14.4999996758997,7
14.26607,0.2833335,-29.4658,-0.0981114477782298,-0.4686798322814856,-0.0369018899160771,3.329305,24.57205,0.07062987,0.02851537,0.2126848,-0.005579528,14.5199996754527,7
14.28915,0.4833334,-29.41248,-0.0670402413566773,-0.2597374345096024,0.0238238517594453,6.657364,24.48245,0.1361698,0.05699512,0.2116027,-0.01115181,14.5399996750057,7
14.31222,0.6833337,-29.35918,-0.0374465315940764,-0.0335809345801655,0.0798123226194071,9.984522,24.39603,0.1969673,0.08541819,0.2103429,-0.01671308,14.5599996745586,7
14.33528,0.8833337,-29.30589,-0.0035568625189519,0.1575196813410972,0.1433538611505547,13.31085,24.3123,0.2533646,0.1137614,0.2089066,-0.02225848,14.5799996741116,7
14.44838,0.2833331,-29.06402,0.0265323633019676,0.1278295419181278,0.1947023366800628,3.274767,22.41559,359.9306,0.02791131,0.1943053,-0.006147263,14.5999996736646,7
14.47133,0.4833331,-29.01168,0.0535088955694256,0.144102997192836,0.2379207561234047,6.548416,22.31421,359.8554,0.05579137,0.1932546,-0.0122875,14.6199996732175,7
14.49427,0.683333,-28.95937,0.0829784714985297,0.1530237456373515,0.2850774736724446,9.820594,22.20772,359.7736,0.08361427,0.1920469,-0.01841663,14.6399996727705,7
14.59283,0.2833335,-28.74516,0.1205244652225054,0.1012757391488349,0.3482469591734052,3.218808,19.56717,359.8157,0.02740399,0.1699045,-0.006357013,14.6599996723235,7
14.6147,0.4833336,-28.69335,0.1546340016350011,0.0421749350536093,0.4007584978962235,6.436326,19.45647,359.6249,0.05477823,0.1688888,-0.01270702,14.6799996718764,7
14.63657,0.6833334,-28.64154,0.1827192357285998,0.0290370500592633,0.4392688831823506,9.65254,19.33412,359.4264,0.08210137,0.1677404,-0.01904525,14.6999996714294,7
14.74369,0.2833335,-28.40748,0.2102867213585622,0.0085465803735657,0.4759636075161637,3.371445,19.23571,359.7947,0.02870445,0.1670554,-0.006680366,14.7199996709824,7
14.76651,0.4833333,-28.35311,0.2268620597667539,0.0073615169432593,0.4890533455884451,6.741605,19.12263,359.5825,0.05737638,0.1660258,-0.01335287,14.7399996705353,7
14.78932,0.6833332,-28.29875,0.2318173597386756,0.0521399579568198,0.4784909667906838,10.11038,18.99599,359.3617,0.08599041,0.1648528,-0.02001224,14.7599996700883,7
14.81213,0.8833333,-28.24441,0.2307696227919358,0.0895656146926649,0.4566850455833524,13.47893,18.85455,359.1306,0.1145324,0.1635375,-0.02665447,14.7799996696413,7
14.83493,0.9766703,-28.19009,0.2293104295355075,0.0663224113445632,0.4360110169006681,16.84596,18.69677,358.8871,0.1429671,0.1620811,-0.03327169,14.7999996691942,7
14.94661,0.2833335,-27.95402,0.2202187957847492,0.0357265171087839,0.4000790853471834,3.532501,21.42307,359.8438,0.03003164,0.1858173,-0.007067677,14.8199996687472,7
14.97173,0.4833336,-27.89764,0.2047775801112497,0.0510939010725274,0.3537190144682824,7.06424,21.31404,359.68,0.06002972,0.1847466,-0.01413258,14.8399996683002,7
14.99684,0.6833336,-27.84127,0.1888108450863228,0.0591083796651278,0.3094451307492569,10.59542,21.19379,359.5078,0.08996869,0.1835007,-0.02118379,14.8599996678531,7
15.09407,0.2833335,-27.63266,0.1781391772899514,0.0064543285236248,0.2797736685503516,3.576789,22.9528,359.9352,0.03047178,0.1988847,-0.006763763,14.8799996674061,7
15.1195,0.4833335,-27.57565,0.1634088933041226,-0.0535520703494237,0.2410570759627148,7.152812,22.85252,359.8639,0.06090827,0.1977933,-0.01351997,14.899999666959,7
15.14493,0.6833335,-27.51866,0.1422967764689371,-0.0675953136844938,0.1906941005838049,10.72767,22.74682,359.7856,0.09127666,0.1965101,-0.02026096,14.919999666512,7
15.24934,0.2833334,-27.29137,0.1208082855718348,-0.088991237714485,0.141346158213814,3.572293,24.07298,0.06426419,0.03060072,0.2084161,-0.005951616,14.939999666065,7
15.27378,0.4833335,-27.23401,0.0901979311252549,-0.091081744250916,0.073372905051805,7.143646,23.98519,0.1236674,0.06116374,0.2073158,-0.01189136,14.9599996656179,7
15.29821,0.6833338,-27.17668,0.05038472863089,-0.0472088546306248,-0.0121821297342421,10.71404,23.9004,0.1780505,0.09165832,0.2060149,-0.01781806,14.9799996651709,7
15.32264,0.8833338,-27.11936,0.0074892888875019,-0.010688870904188,-0.1024795578492252,14.28351,23.81801,0.227751,0.1220554,0.2045148,-0.02372569,14.9999996647239,7
15.45337,0.2833334,-26.83679,0.0578753242885472,-0.6751513699241238,0.0059971477821605,3.608111,25.17766,0.1050961,0.03092445,0.2178167,-0.005966841,15.0199996642768,7
15.47855,0.4833334,-26.77905,0.0296636738809041,-0.4163770838962098,-0.0491581654317165,7.215352,25.09414,0.2050718,0.06180936,0.2167008,-0.01192635,15.0399996638298,7
15.50372,0.6833334,-26.72132,-0.0018771311203416,-0.1403882395631191,-0.1109451211429544,10.82205,25.01622,0.3004441,0.09262669,0.2153706,-0.01787496,15.0599996633828,7
15.52888,0.8833334,-26.66362,-0.0304467040874367,0.1005439374005583,-0.1660272468815335,14.42784,24.94349,0.3920864,0.1233434,0.2138278,-0.02380422,15.0799996629357,7
15.62215,0.2833333,-26.46449,-0.0497535792322878,0.1403199535835197,-0.2010907730177322,3.633081,25.56816,0.1087203,0.03112333,0.2211369,-0.00608956,15.0999996624887,7
15.64785,0.4833336,-26.4065,-0.070361677333695,0.0611824923290592,-0.2366033902561852,7.265235,25.48541,0.2123674,0.06220602,0.2200152,-0.01217122,15.1199996620417,7
15.67355,0.6833335,-26.34853,-0.0933688018089728,0.0284962103852208,-0.2741669643071169,10.89653,25.4086,0.3117207,0.0932176,0.2186731,-0.0182389,15.1399996615946,7
15.69923,0.8833334,-26.29058,-0.1123621843579822,-0.0110547274354803,-0.3002778005138218,14.5272,25.33723,0.4072625,0.1241287,0.217112,-0.0242887,15.1599996611476,7
15.81786,0.2833334,-26.03766,-0.1335520100705896,-0.0308130483835985,-0.3306963133472465,3.580384,27.74443,0.2120195,0.03077183,0.2395837,-0.005694547,15.1799996607006,7
15.84372,0.4833333,-25.98068,-0.1566123372494132,-0.0041203618169542,-0.363209150122028,7.160018,27.67167,0.4197997,0.06150448,0.2384504,-0.0113822,15.1999996602535,7
15.86956,0.6833333,-25.92371,-0.1750140869187983,0.0157077212304876,-0.3844641049342421,10.73883,27.61147,0.6249579,0.09216783,0.2370844,-0.01705701,15.2199996598065,7
15.97484,0.2833333,-25.6976,-0.2845664245447139,0.6956430257151334,-0.5998878099749874,3.514616,28.50245,0.2632285,0.03028741,0.2459893,-0.005323791,15.2399996593595,7
16.0001,0.4833334,-25.64155,-0.2812686671253743,0.4914396452047287,-0.5808909601466503,7.028512,28.43436,0.522707,0.06053703,0.2448626,-0.0106408,15.2599996589124,7
16.02536,0.6833333,-25.58551,-0.2771081146605567,0.3091203923076309,-0.5634293659298599,10.54134,28.38187,0.7803792,0.09071803,0.2435054,-0.01594523,15.2799996584654,7
16.05061,0.8833333,-25.52948,-0.2659667698788368,0.0943236730684092,-0.5347529606799064,14.05325,28.34504,1.038134,0.1208038,0.241919,-0.02123289,15.2999996580184,7
16.13809,0.2833333,-25.34133,-0.1508307009375222,-0.7195790288832079,-0.2902151281303489,3.453732,28.35614,0.2876069,0.02983138,0.244751,-0.004948833,15.3199996575713,7
16.16233,0.4833332,-25.28594,-0.1332399897618899,-0.5106364775230382,-0.2497466010969482,6.9064,28.29025,0.5719694,0.05962378,0.2436405,-0.00988831,15.3399996571243,7
16.18656,0.6833332,-25.23056,-0.1150848351021167,-0.2844794818945959,-0.2091255573239507,10.35836,28.24124,0.8548121,0.08935305,0.2423082,-0.01481753,15.3599996566772,7
16.21079,0.8833332,-25.1752,-0.0906044391701712,-0.093378815706494,-0.1559120948707217,13.80952,28.2092,1.13821,0.1189922,0.2407554,-0.01973186,15.3799996562302,7
16.32397,0.2833334,-24.93273,-0.1406349477451307,0.616853942767004,-0.260411334334421,3.402519,26.75562,0.196649,0.02927947,0.2312192,-0.005200201,15.3999996557832,7
16.34767,0.4833333,-24.8782,-0.0943173031256421,0.3308986553399829,-0.1590222794380658,6.80393,26.68155,0.3892216,0.05852131,0.2301382,-0.01039319,15.4199996553361,7
16.37136,0.6833333,-24.82368,-0.0469548051511594,0.0668273271279992,-0.0524414700462188,10.20458,26.61851,0.5789875,0.08770291,0.2288545,-0.01557557,15.4399996548891,7
16.47094,0.2833333,-24.6087,-0.0874668387018928,0.4905668251913788,-0.1326922031406106,3.343949,25.08434,0.1063206,0.02868243,0.2170391,-0.005430791,15.4599996544421,7
16.49404,0.4833334,-24.55509,-0.0473785189037592,0.2702634261249298,-0.0459377771322451,6.68661,25.0023,0.2080488,0.05732816,0.2159871,-0.01085406,15.479999653995,7
16.51712,0.6833333,-24.5015,-0.0072793268321795,0.0718436235159287,0.0392372159418883,10.02847,24.92567,0.305813,0.08591709,0.2147519,-0.01626624,15.499999653548,7
16.62474,0.2833335,-24.26927,0.0387439300757712,-0.159053632280441,0.1350841207414639,3.291922,23.33082,359.977,0.02808957,0.2021183,-0.00600459,15.519999653101,7
16.64791,0.4833334,-24.21671,0.0553357337057782,-0.1567193647563042,0.165448307054536,6.582874,23.23771,359.9485,0.05614805,0.2010933,-0.01200245,15.5399996526539,7
16.67106,0.6833334,-24.16417,0.0643958047589343,-0.1079338572005961,0.178155738357951,9.872434,23.14223,359.9142,0.08414837,0.1999031,-0.01798994,15.5599996522069,7
16.69421,0.8833332,-24.11164,0.0715609988480743,-0.0660132931839874,0.1850489339526042,13.16102,23.0437,359.874,0.1120716,0.1985491,-0.02396088,15.5799996517599,7
16.71735,0.9766704,-24.05913,0.082474025887663,-0.0842736167038169,0.1979884551891295,16.44858,22.94135,359.8271,0.1398943,0.1970324,-0.02991053,15.5999996513128,7
16.82598,0.2833333,-23.82615,0.1340648799360515,-0.1093983127941544,0.2978608802113456,3.234754,20.36505,359.8427,0.02753773,0.1767521,-0.006339791,15.6199996508658,7
16.84822,0.4833333,-23.77422,0.1772663114520085,-0.0880723583775552,0.3779874097781643,6.468266,20.26103,359.6794,0.05504522,0.1757655,-0.01267273,15.6399996504188,7
16.87046,0.6833333,-23.7223,0.217818532340356,-0.0736111510499197,0.4507286688362164,9.700489,20.14691,359.5089,0.0825005,0.1746395,-0.01899365,15.6599996499717,7
16.96595,0.2833333,-23.51566,0.2614884560427555,-0.1193305280895614,0.5284574178103334,3.283209,18.97887,359.7901,0.02795357,0.1648496,-0.006528813,15.6799996495247,7
16.98809,0.4833333,-23.46268,0.2736000118407595,-0.1719148667016404,0.5390530319630322,6.565098,18.87035,359.5737,0.05587612,0.1638717,-0.0130502,15.6999996490777,7
17.01022,0.6833333,-23.40972,0.2782605756307994,-0.1780479710319078,0.5345035430817546,9.8456,18.74847,359.3493,0.0837446,0.1627596,-0.01955878,15.7199996486306,7
17.03234,0.8833333,-23.35678,0.2811380604418119,-0.1910459040803084,0.5271262351194075,13.12516,18.61212,359.1154,0.1115407,0.1615144,-0.02604859,15.7399996481836,7
17.15572,0.2833332,-23.09326,0.1925231689118867,0.4560635998373777,0.3261878655770438,3.52613,21.09932,359.8298,0.02997453,0.1830457,-0.007092457,15.7599996477365,7
17.18071,0.4833332,-23.03691,0.2011617651340493,0.2190340489459007,0.3337145017757486,7.050991,20.99341,359.6528,0.0599124,0.1820166,-0.01417617,15.7799996472895,7
17.20569,0.6833332,-22.98058,0.2013598008069834,0.0038884692916851,0.3264692379227263,10.57643,20.87541,359.4668,0.08980037,0.1808151,-0.02125341,15.7999996468425,7
17.31581,0.2833333,-22.74447,0.1990752382156131,-0.2437344935073719,0.317133326489877,3.564754,22.61642,359.8925,0.03031563,0.1960203,-0.007018412,15.8199996463954,7
17.34151,0.4833332,-22.6878,0.2108454063699198,-0.2581261276065846,0.340358305886479,7.128611,22.51647,359.7784,0.06059545,0.1949712,-0.01403058,15.8399996459484,7
17.3672,0.6833333,-22.63113,0.2138366754464797,-0.2260665151404078,0.3466866485442423,10.69121,22.40841,359.6568,0.09080765,0.1937341,-0.02102726,15.8599996455014,7
17.39289,0.8833331,-22.57449,0.2142909936032815,-0.2008716118670505,0.3491914269433174,14.25258,22.29116,359.5267,0.1209237,0.1923104,-0.02800173,15.8799996450543,7
17.41857,0.9766703,-22.51786,0.2184270834528519,-0.2358575997890714,0.3609348064430975,17.81265,22.16341,359.3866,0.150914,0.1907017,-0.03494713,15.8999996446073,7
17.52755,0.2833333,-22.28298,0.2379381012126558,-0.2777085354318338,0.4092153494294486,3.57651,24.16348,0.05734788,0.03061935,0.2091898,-0.006042474,15.9199996441603,7
17.55222,0.4833333,-22.22565,0.247749064785264,-0.2731082490763635,0.438406288504563,7.152203,24.07955,0.1100991,0.06120217,0.2081258,-0.01207284,15.9399996437132,7
17.57688,0.6833333,-22.16833,0.2543264417447624,-0.2753728031998987,0.4619646842866238,10.72695,23.99822,0.1580177,0.09171666,0.20686,-0.01808989,15.9599996432662,7
17.67417,0.2833333,-21.96015,0.1730204098980579,0.382469854966424,0.3007288256470843,3.596956,25.04409,0.08926785,0.03080647,0.2166845,-0.006044467,15.9799996428192,7
17.69938,0.4833333,-21.90264,0.1653492282177673,0.1561735799397192,0.2918393395187344,7.193002,24.96342,0.173592,0.06157365,0.2156092,-0.01208143,15.9999996423721,7
17.72457,0.6833333,-21.84515,0.1548901795765616,-0.048238615562577,0.2764729578426959,10.78835,24.88738,0.2534098,0.09227285,0.2143222,-0.01810669,16.0199996419251,7
17.83064,0.2833332,-21.61713,0.046653796489231,0.4351595629831581,0.0538122825420543,3.642842,25.57248,0.1079506,0.03120463,0.2211732,-0.006116126,16.0399996414781,7
17.85643,0.4833333,-21.559,-0.0631885032754588,0.914829145533164,-0.1715647449017758,7.284757,25.49397,0.2110704,0.06236845,0.2200859,-0.01222442,16.059999641031,7
17.88221,0.6833332,-21.50088,-0.0692300026037671,0.4857930884397858,-0.1756640449992268,10.9258,25.4214,0.3101356,0.09346058,0.2187769,-0.01831876,16.079999640584,7
17.90798,0.8833331,-21.44278,-0.0779206864244947,0.0530285405015919,-0.1826136056653773,14.56633,25.35435,0.4057394,0.1244527,0.2172476,-0.02439461,16.099999640137,7
18.03968,0.2833334,-21.1609,-0.0825366111688659,-0.3108247906131507,-0.1784606934118926,3.598237,27.40098,0.1917548,0.03089819,0.2366783,-0.005810912,16.1199996396899,7
18.06565,0.4833333,-21.10365,-0.1048203984138815,-0.3423262365906722,-0.1947364257659138,7.195675,27.33065,0.3794201,0.06175682,0.2355813,-0.0116143,16.1399996392429,7
18.09161,0.6833333,-21.04642,-0.1303014093958943,-0.327864446969164,-0.2153862357625051,10.79225,27.27169,0.5643994,0.09254518,0.2342524,-0.01740464,16.1599996387959,7
18.11756,0.8833334,-20.9892,-0.1521571531447776,-0.3207552707878036,-0.2266609836878395,14.38771,27.22389,0.7478762,0.1232307,0.2326929,-0.02317769,16.1799996383488,7
18.21018,0.2833333,-20.79182,-0.2514717991773914,0.3459734386350129,-0.4005728241860673,3.530506,28.47627,0.2534967,0.0304021,0.2457692,-0.005433251,16.1999996379018,7
18.2357,0.4833333,-20.73559,-0.3015737006056405,0.1280750971794161,-0.4494792459710801,7.060283,28.41172,0.5034512,0.06076626,0.2446763,-0.01085943,16.2199996374547,7
18.26121,0.6833333,-20.67938,-0.3412897931384684,-0.0684270418184195,-0.4802233955902757,10.58925,28.36228,0.751672,0.09106336,0.2433508,-0.01627384,16.2399996370077,7
18.28672,0.8833334,-20.62318,-0.3641702922176719,-0.2978942516341336,-0.4799780115150724,14.11696,28.32798,1.000019,0.1212613,0.2417945,-0.02167063,16.2599996365607,7
18.40409,0.2833333,-20.37116,-0.4853101385771055,0.345695815568371,-0.6886957889018213,3.462055,28.44144,0.2885194,0.02990001,0.2454714,-0.004981161,16.2799996361136,7
18.42846,0.4833332,-20.31567,-0.5465020202644908,0.1046592079790332,-0.7463993957437189,6.922976,28.38002,0.5740985,0.05976054,0.2443948,-0.009952474,16.2999996356666,7
18.45283,0.6833332,-20.26019,-0.5943841048835417,-0.1149813941253817,-0.7844825912861957,10.38315,28.33563,0.8584377,0.08955741,0.2430946,-0.01491346,16.3199996352196,7
18.55713,0.2833333,-20.0355,-0.7255505133918341,0.3527006505938181,-1.0068136485277392,3.407535,27.29249,0.2207127,0.02934682,0.2357662,-0.005143666,16.3399996347725,7
18.581,0.4833333,-19.98092,-0.9939484647349524,0.1758525119479363,-1.2367344934985134,6.813928,27.22481,0.4377351,0.0586554,0.2347143,-0.01028027,16.3599996343255,7
18.60487,0.6833334,-19.92635,-1.2311877610340325,0.0204003521290007,-1.4245417615437308,10.21957,27.16971,0.6525314,0.08790345,0.2334549,-0.01540649,16.3799996338785,7
