pX,pY,pZ,aX,aY,aZ,reX,reY,reZ,rtX,rtY,rtZ,t,ID
-43.00035,0.2299999,-37.08107,5.041076172141906,0.1134869054441723,3.253456267864138,356.0591,0.007759485,0.01977903,-0.03438432,7.360913e-05,0.0001748308,5.43999987840652,15
-43.00065,0.43,-37.15662,5.42282115460516,-0.0565904287405958,3.610572580281705,352.2707,0.02188112,0.02598979,-0.06739967,0.0002058011,0.0002391578,5.45999987795949,15
-43.0008,0.63,-37.23299,5.748096141232637,-0.0110348299553654,3.9352065906347695,348.3021,0.06251248,0.02021681,-0.1019064,0.0005606631,0.0002310989,5.47999987751245,15
-43.00457,0.2833333,-37.46526,6.0771266968510105,-0.4144473017074999,4.227401352429169,0.05147761,6.504838,359.9456,0.0004215715,0.05673515,-0.0004994152,5.49999987706542,15
-43.00358,0.4833333,-37.46447,6.343081705850331,-0.57292022312571,4.480804626656216,0.1033615,6.971208,359.8917,0.0008428856,0.06079855,-0.0009979324,5.51999987661839,15
-43.00257,0.6833333,-37.46369,6.546580199587396,-0.5117871447564833,4.694422044595775,0.1552686,7.437068,359.8401,0.00126165,0.06485687,-0.001479897,5.53999987617135,15
-42.98009,0.2833333,-37.44249,6.797217769564547,-0.8956504137215517,4.897140278478638,1.155959,15.68198,0.5441613,0.01064085,0.1363684,0.003327886,5.55999987572432,15
-42.98392,0.4833334,-37.42028,6.974902210539852,-1.0306019956896115,5.052147343713983,2.307306,16.16379,1.098144,0.02127978,0.1403624,0.006655432,5.57999987527728,15
-42.98775,0.6833332,-37.39808,7.0808003404739495,-0.9419750698249284,5.1584872904328805,3.455842,16.65682,1.663686,0.03193412,0.1443326,0.009991098,5.59999987483025,15
-42.91365,0.2833333,-37.36202,7.241340391037021,-1.2943715456576492,5.246666062667465,1.873572,25.42026,0.1034902,0.01614731,0.2199748,-0.002716268,5.61999987438321,15
-42.90121,0.4833333,-37.33145,7.318190210790647,-1.3938838567649698,5.271619716117193,3.74695,25.88973,0.2214206,0.0322942,0.2238316,-0.005441393,5.63999987393618,15
-42.88879,0.6833333,-37.3009,7.31514228044292,-1.2658452772693112,5.235541357342576,5.621748,26.36376,0.3536732,0.04844995,0.2276202,-0.008181585,5.65999987348914,15
-42.79289,0.2833333,-37.25931,7.236178526581334,-0.9345439387077622,5.140530920657064,3.254754,32.96612,0.08828015,0.02745065,0.2835963,-0.007319342,5.67999987304211,15
-42.76326,0.4833332,-37.21041,7.180651578501589,-1.276973976238021,5.015380242098303,6.511565,33.43821,0.2022152,0.05489944,0.2871191,-0.014651,5.69999987259507,15
-42.73365,0.6833332,-37.16153,7.048694037865651,-1.3591314125071623,4.833152192678206,9.769397,33.92023,0.3441168,0.08231989,0.2904006,-0.02197695,5.71999987214804,15
-42.5636,0.2833333,-37.09409,6.933757921183883,-1.633225852402137,4.62221036456814,4.601992,43.07043,0.2329561,0.03809198,0.3667004,-0.01284816,5.739999871701,15
-42.51168,0.4833333,-37.03216,6.7415350291242575,-1.6454444723900494,4.352955751256872,9.205437,43.56417,0.504045,0.07614303,0.3695495,-0.0257059,5.75999987125397,15
-42.45978,0.683334,-36.97026,6.477113306879367,-1.4211215396465589,4.027488470004826,13.80801,44.08794,0.8201377,0.1140825,0.3717896,-0.03852871,5.77999987080693,15
-42.4079,0.883334,-36.90838,6.146780674552183,-0.9845454302477888,3.6489133128012057,18.40916,44.65028,1.187988,0.1518494,0.3734167,-0.05129312,5.7999998703599,15
-42.28633,0.2833333,-36.8936,5.841954578656562,-1.2127117773381535,3.251097489810043,3.672558,51.6394,0.2945141,0.0299634,0.4352414,-0.0116439,5.81999986991286,15
-42.23941,0.4833337,-36.84971,5.474615079722,-1.17161525376501,2.8017487459583634,7.34136,52.12993,0.6208796,0.05988536,0.4381705,-0.02327291,5.83999986946583,15
-42.19252,0.6833339,-36.80581,5.052046548681112,-0.886589742515517,2.304273857599483,11.00493,52.6459,0.9797546,0.08971643,0.440636,-0.03489032,5.85999986901879,15
-42.04345,0.2833338,-36.7608,4.691337551003571,-1.0222375640534238,1.8004102366794328,3.648702,57.78784,0.2833984,0.02906682,0.4828742,-0.0132184,5.87999986857176,15
-41.99232,0.4833336,-36.72253,4.279628060240682,-0.8846494845255306,1.2519499701345185,7.293949,58.27569,0.5983005,0.05809543,0.4856297,-0.02642029,5.89999986812472,15
-41.94121,0.6833336,-36.68428,3.8255314694999,-0.499159759869337,0.6625912774555971,10.93526,58.78844,0.9477943,0.08705508,0.4878794,-0.03959156,5.91999986767769,15
-41.77492,0.2833333,-36.6238,3.464571172463792,-0.5303714698653822,0.0793161531823258,3.587636,63.65028,0.3431272,0.02817499,0.5269882,-0.01396392,5.93999986723065,15
-41.72158,0.4833331,-36.59051,3.065701679819128,-0.2843747691822046,-0.5372683935535036,7.171253,64.14183,0.7174959,0.05631299,0.5295869,-0.02791081,5.95999986678362,15
-41.66825,0.6833326,-36.55724,2.6384410397139533,-0.0266000615052257,-1.0933180819340365,10.75045,64.66157,1.126586,0.0843862,0.5316507,-0.04182652,5.97999986633658,15
-41.55835,0.2833335,-36.52234,2.261570067812798,-0.4493525253645041,-1.5454389070420331,3.528803,67.43203,0.422851,0.027658,0.5547155,-0.01402263,5.99999986588955,15
-41.50441,0.4833333,-36.49177,1.8773552323866485,-0.2312097692780335,-1.7224201523703648,7.052964,67.92898,0.87686,0.05528072,0.5572144,-0.02802886,6.01999986544251,15
-41.45048,0.6833333,-36.4612,1.491265783544506,-0.0078400847133487,-1.866870815073817,10.57188,68.45856,1.365988,0.08284063,0.5591661,-0.04200425,6.03999986499548,15
-41.29471,0.2833335,-36.40278,1.2329687317775253,-0.4718281840169349,-1.9245220468292457,3.469649,70.69196,0.4700857,0.02706543,0.5781411,-0.01416903,6.05999986454844,15
-41.24037,0.4833329,-36.37488,0.9601474378027248,-0.238003961149267,-1.965610668054236,6.934292,71.1911,0.9710684,0.05409759,0.5805569,-0.02832145,6.07999986410141,15
-41.18677,0.6833328,-36.34785,0.713188808196918,0.0010472467359228,-1.9884083444542424,10.33889,71.63935,1.467577,0.08051836,0.5818723,-0.04238407,6.09999986365438,15
-41.01689,0.2833333,-36.29245,0.6444264875938046,-0.4472596974931527,-1.931896619299696,3.119329,73.31841,0.04977052,0.02209346,0.5968235,-0.01590228,6.11999986320734,15
-40.96513,0.4833326,-36.27622,0.5193924246216071,-0.1977549541153919,-1.8690779824110564,6.225163,73.65914,0.09896778,0.04397831,0.5985148,-0.03185799,6.13999986276031,15
-40.91332,0.6833323,-36.25985,0.4147961710258698,0.056977070828115,-1.7923050264943043,9.337002,74.00717,0.1738502,0.06590834,0.5997689,-0.04777853,6.15999986231327,15
-40.86153,0.8833322,-36.24349,0.3427793817265865,0.2646658063513543,-1.6988106359950272,12.4474,74.36267,0.2687279,0.08778223,0.6005735,-0.06365921,6.17999986186624,15
-40.72065,0.2833331,-36.20221,0.3181703305589138,0.2395760230650353,-1.5487657704436373,3.296583,73.95346,0.1606117,0.02382177,0.6012089,-0.0161821,6.1999998614192,15
-40.66692,0.4833332,-36.18532,0.3071716495190983,0.2484622182397651,-1.4036906663816708,6.521338,74.31869,0.2493833,0.04664228,0.6029558,-0.03262497,6.21999986097217,15
-40.53034,0.2833336,-36.14413,0.4159485448924727,-0.1888678973478376,-1.2183313847880513,3.294899,73.51339,0.1190459,0.02365501,0.5981466,-0.01637221,6.23999986052513,15
-40.47717,0.483334,-36.13012,0.3804065690310665,0.0726590908059169,-1.0655522557197727,6.441082,74.02603,0.03729238,0.04505481,0.6010311,-0.03356037,6.2599998600781,15
-40.42495,0.683334,-36.11705,0.3334969866203821,0.340458883378973,-0.9416725528953052,9.523829,74.44913,359.943,0.06580303,0.6028852,-0.0506139,6.27999985963106,15
-40.37293,0.883334,-36.10416,0.2829763371413918,0.5622597360858055,-0.8487771654225469,12.59375,74.85262,359.8648,0.08638788,0.6041764,-0.06758851,6.29999985918403,15
-40.24162,0.2833336,-36.06271,0.3290211817846469,-0.1679607127613754,-0.7320351449568676,3.117142,73.3178,359.8108,0.02083367,0.5968642,-0.01756294,6.31999985873699,15
-40.1899,0.4833335,-36.05133,0.2939810118704855,0.0141148519783097,-0.6008559563001938,6.141274,73.76201,359.5939,0.04072348,0.5994415,-0.03497877,6.33999985828996,15
-40.13866,0.6833333,-36.04038,0.2648591483209088,0.2024624166064845,-0.4866346567499988,9.13298,74.15232,359.3843,0.06029037,0.6012949,-0.05227115,6.35999985784292,15
-39.98532,0.2833333,-35.99405,0.3593480991986908,-0.2955027738238284,-0.3210954512274426,3.122833,72.27158,359.8017,0.02098636,0.5895192,-0.01746546,6.37999985739589,15
-39.93335,0.4833336,-35.98306,0.3409199790392208,-0.0946109109538614,-0.1790529970904728,6.147501,72.83685,359.5081,0.04060387,0.5930034,-0.03528311,6.39999985694885,15
-39.88184,0.6833335,-35.97261,0.3203773759311517,0.1125536477869099,-0.0534273186623579,9.142675,73.37167,359.2184,0.05985029,0.5959485,-0.05306603,6.41999985650182,15
-39.71218,0.2833329,-35.92226,0.4328952132546746,-0.3665936140205768,0.1347532220588689,3.06812,69.92701,359.716,0.02051969,0.5729018,-0.0173716,6.43999985605478,15
-39.66023,0.4833331,-35.90821,0.4082950480797649,-0.1468838991912473,0.271915515132946,6.138467,70.47934,359.463,0.04102998,0.5763689,-0.03471584,6.45999985560775,15
-39.60957,0.6833329,-35.8952,0.3749923423820434,0.0790985836422377,0.3878480652212346,9.122415,70.92282,359.205,0.06075884,0.5787526,-0.05176836,6.47999985516071,15
-39.49524,0.2833333,-35.85644,0.3401817882619866,0.2590832474642277,0.4825875313995524,3.284388,70.09589,359.686,0.0218885,0.574088,-0.01869907,6.49999985471368,15
-39.44199,0.4833335,-35.84406,0.3311145474324561,0.2073353533573807,0.6358385153923578,6.391486,70.4004,359.3217,0.04214568,0.5757983,-0.03696392,6.51999985426664,15
-39.38953,0.6833334,-35.83225,0.3183164267326575,0.1906089174419408,0.7666883821897343,9.446989,70.62892,358.9541,0.06193373,0.5766897,-0.0550222,6.53999985381961,15
-39.22657,0.2833333,-35.77602,0.3097440137325762,0.1555877705216334,0.8759664562640026,3.296847,71.00016,359.6821,0.02180891,0.5805265,-0.01896212,6.55999985337257,15
-39.17083,0.4833338,-35.76378,0.2995206965392754,0.1289298646016456,1.0259689391148967,6.543264,71.37247,359.3113,0.04285226,0.5826634,-0.03816444,6.57999985292554,15
-39.11573,0.6833339,-35.75283,0.2813481532113187,0.1372938719752767,1.147188062468203,9.731751,71.78272,358.9071,0.06314376,0.5847662,-0.05742425,6.5999998524785,15
-38.93043,0.2833333,-35.68874,0.2640834447153324,0.1273633197543884,1.2416455987483062,3.400508,72.24853,359.8262,0.02307239,0.5893146,-0.01871658,6.61999985203147,15
-38.87438,0.4833333,-35.67506,0.2488500567302125,0.1257951631448637,1.3850469912356118,6.696814,72.74088,359.6068,0.04499799,0.5921491,-0.03739394,6.63999985158443,15
-38.81934,0.6833335,-35.66244,0.2196377128665503,0.1592489009244473,1.5015357434854693,9.923408,73.22013,359.3724,0.06617151,0.5945025,-0.05595867,6.6599998511374,15
-38.76451,0.8833337,-35.65003,0.1849181269191433,0.174408539351662,1.5936521430205488,13.13706,73.68957,359.1548,0.08714711,0.596372,-0.07445655,6.67999985069036,15
-38.61368,0.2833334,-35.5906,0.2305042191208457,-0.5223562674128522,1.7359842021141247,3.409806,73.38498,359.9404,0.02354596,0.5972679,-0.01819412,6.69999985024333,15
-38.55872,0.4833334,-35.57615,0.1702304956981493,-0.3068265274762362,1.8219543957068252,6.663072,73.93184,359.8469,0.04563034,0.6003851,-0.03601144,6.7199998497963,15
-38.41433,0.2833333,-35.51941,0.1054626988840823,-0.085023891298394,1.8804860202579263,3.39464,73.45647,359.9754,0.023611,0.5977629,-0.01788522,6.73999984934926,15
-38.35885,0.4833333,-35.50492,0.0808412770207311,-0.0693427248114805,1.9975392595506705,6.674685,74.24474,359.8882,0.04582956,0.6025409,-0.03591025,6.75999984890223,15
-38.3041,0.6833336,-35.49073,0.0400843821002538,-0.0196862041480627,2.080396890266257,9.914685,74.98628,359.8387,0.06770939,0.6064856,-0.0537101,6.77999984845519,15
-38.24939,0.8833336,-35.47657,-0.0068679576164996,0.0106298174710368,2.133975889355028,13.15219,75.73003,359.8316,0.08951492,0.609897,-0.07144668,6.79999984800816,15
-38.10814,0.2833333,-35.40887,0.1038134237894681,-0.6720241219857406,2.285553161773308,3.521953,73.97555,0.03684311,0.02473936,0.6013525,-0.01823184,6.81999984756112,15
-38.0519,0.4833333,-35.39413,0.1115589690321101,-0.4434280396631144,2.3674437786878286,6.846916,74.95351,359.9886,0.0473292,0.6073584,-0.03641217,6.83999984711409,15
-37.99664,0.6833333,-35.37972,0.1107716003835932,-0.2096050048178234,2.4165378343070145,10.1146,75.87456,359.9897,0.0694688,0.6124114,-0.05426654,6.85999984666705,15
-37.83915,0.2833331,-35.30124,0.1114834119586802,-0.0228252992055326,2.4382387439888262,3.443062,73.70248,0.06653879,0.02438744,0.5994547,-0.01755285,6.87999984622002,15
-37.78415,0.4833329,-35.2837,0.1204410763015531,-0.0688231564616423,2.500695572874214,6.747157,74.54009,0.1693043,0.04772221,0.6044531,-0.03446179,6.89999984577298,15
-37.73087,0.6833329,-35.26653,0.1190381174401764,-0.0808458405715736,2.529301290923371,9.947152,75.26432,0.3246206,0.07038179,0.6080938,-0.05070064,6.91999984532595,15
-37.55878,0.2833333,-35.17559,0.1174449896229958,-0.1122089374794223,2.5301346750752742,3.30742,73.70142,0.09781044,0.02360442,0.5994623,-0.01662474,6.93999984487891,15
-37.50388,0.4833328,-35.15732,0.1279342332158961,-0.1362526329547098,2.5789581347929698,6.613037,74.42407,0.2382184,0.04718964,0.6036628,-0.03322856,6.95999984443188,15
-37.449,0.6833328,-35.13907,0.1254879629806566,-0.1263206675125098,2.589579997471155,9.916955,75.16043,0.4229399,0.07074083,0.6073322,-0.04979909,6.97999984398484,15
-37.3948,0.8833324,-35.12148,0.1210702568560151,-0.1357286495732574,2.568634405881845,13.17299,75.96355,0.6280742,0.09375905,0.6108443,-0.06629679,6.99999984353781,15
-37.25893,0.2833334,-35.02805,0.2141011731412874,-0.1378190662914691,2.618270794544763,3.370205,72.64639,0.2096197,0.0247754,0.5920389,-0.01594532,7.01999984309077,15
-37.20399,0.4833334,-35.0066,0.2955357208355451,-0.105933872794622,2.6303872289269066,6.736382,73.4289,0.4657003,0.04952218,0.5965983,-0.0318712,7.03999984264374,15
-37.14907,0.6833334,-34.98515,0.3756485032488683,-0.0933886929229622,2.61193018573222,10.09812,74.23279,0.7710024,0.07422184,0.6006089,-0.0477621,7.0599998421967,15
-36.99257,0.2833336,-34.87473,0.3312344560623828,0.5667886450949795,2.516040384238323,3.412304,70.38166,0.254248,0.0256101,0.5759906,-0.01534609,7.07999984174967,15
-36.93814,0.4833336,-34.85017,0.4160889348640495,0.3303509686601067,2.4991519104162485,6.820204,71.16636,0.5570956,0.05119861,0.5806119,-0.03066468,7.09999984130263,15
-36.88373,0.6833336,-34.82561,0.4935919012175915,0.1033220471931126,2.4532609763938744,10.22262,71.97557,0.9098994,0.07673217,0.5846853,-0.04595001,7.1199998408556,15
-36.70505,0.2833333,-34.69921,0.4164722521967618,0.5516292120038908,2.3217722067205315,3.392838,67.5962,0.199906,0.02557077,0.5559804,-0.01501855,7.13999984040856,15
-36.65183,0.4833331,-34.67305,0.4832257983176191,0.34341843285914,2.2805850990762586,6.781526,68.37353,0.4471275,0.05111396,0.5607135,-0.03001106,7.15999983996153,15
-36.59863,0.6833332,-34.64691,0.5322905911432514,0.1446163111105837,2.209965815078263,10.1655,69.1718,0.7430656,0.0766025,0.5649242,-0.04497131,7.17999983951449,15
-36.47306,0.2833333,-34.55348,0.5730497772559886,-0.0991387871841795,2.117547256943716,3.355463,65.55619,0.1544937,0.02534553,0.5411211,-0.01471752,7.19999983906746,15
-36.42106,0.4833335,-34.52645,0.6711010093598944,-0.1221374704020247,2.0788870381392077,6.707259,66.32692,0.3549988,0.05066137,0.5459383,-0.02941134,7.21999983862042,15
-36.36908,0.683334,-34.49943,0.7450402222002737,-0.1111602726433866,2.0091125158484644,10.05503,67.11543,0.6028705,0.07592403,0.5502582,-0.04407413,7.23999983817339,15
-36.18992,0.2833333,-34.3673,0.6969801389505541,0.3606689287323817,1.865345621572544,3.31241,62.41829,0.03325038,0.02486981,0.5179399,-0.014728,7.25999983772635,15
-36.13915,0.4833333,-34.33968,0.630744106075845,0.8152487746039716,1.7004211612223656,6.623116,63.17584,0.1104148,0.04971059,0.5228841,-0.02943846,7.27999983727932,15
-36.0884,0.683333,-34.31208,0.6916602083658177,0.3476006781229916,1.625149546045062,9.931268,63.94362,0.2330933,0.07450096,0.5273642,-0.04411356,7.29999983683228,15
-35.89274,0.2833333,-34.16918,0.7386121386299678,-0.1372967077399212,1.5329813725346997,3.264704,59.80859,359.9273,0.0243773,0.498366,-0.01475145,7.31999983638525,15
-35.84306,0.4833331,-34.1413,0.6771904756250393,0.2655340294315839,1.3681661489125467,6.529168,60.55463,359.8971,0.04872716,0.5034115,-0.02948586,7.33999983593822,15
-35.79339,0.6833329,-34.11343,0.7590396507088037,0.0108020104120726,1.3084916375985536,9.792462,61.30433,359.9101,0.07302737,0.508022,-0.04418673,7.35999983549118,15
-35.74373,0.8833328,-34.08557,0.8236498692517742,-0.2355660967146708,1.2355296487390888,13.05436,62.06272,359.9669,0.0972583,0.5121937,-0.05884549,7.37999983504415,15
-35.58182,0.2833333,-33.95878,0.7580224833191487,0.1923560857722607,1.081515506071863,3.215511,56.39971,359.822,0.02399296,0.4724003,-0.01462664,7.39999983459711,15
-35.53357,0.483333,-33.93,0.851732637917948,-0.0372857739614749,1.044450174859513,6.432144,57.1338,359.6851,0.04795948,0.4775651,-0.02923661,7.41999983415008,15
-35.48534,0.6833326,-33.90122,0.923872384963328,-0.2585639787121724,0.9931593973003174,9.649343,57.86521,359.5889,0.07187951,0.4823273,-0.04381782,7.43999983370304,15
-35.30178,0.2833333,-33.76181,0.8422053901537474,0.194447703057782,0.8484654413434214,3.372847,55.41651,359.8038,0.02525865,0.4648122,-0.01519925,7.45999983325601,15
-35.25156,0.4833333,-33.73088,0.7413224099660383,0.6302108396041326,0.6968449063369064,6.746983,56.14637,359.6503,0.05048735,0.4699398,-0.03038017,7.47999983280897,15
-35.20135,0.6833332,-33.69995,0.7631148018138987,0.1437461145559068,0.6501914321751237,10.12188,56.87273,359.5392,0.07566361,0.4746341,-0.0455288,7.49999983236194,15
-34.99535,0.2833333,-33.5496,0.7687197811060109,-0.3599667611604213,0.602861272244688,3.53817,57.04,359.8466,0.02648658,0.4772738,-0.01591523,7.5199998319149,15
-34.94227,0.4833333,-33.5179,0.670499880663872,0.0240473661741129,0.4735710278448941,7.077144,57.77115,359.7382,0.05293981,0.4822632,-0.03181158,7.53999983146787,15
-34.88921,0.6833333,-33.48622,0.7162489001555166,-0.249502312274917,0.4627487424722289,10.61742,58.50177,359.6743,0.079341,0.4867663,-0.04767869,7.55999983102083,15
-34.83616,0.8833333,-33.45454,0.744804952474972,-0.5146886893511515,0.4511465021565968,14.15721,59.23756,359.656,0.1056559,0.4907792,-0.06349345,7.5799998305738,15
-34.66043,0.283333,-33.32615,0.6449913579513868,-0.1055851514192836,0.3415233553652292,3.568327,58.88638,359.9224,0.02678045,0.4913403,-0.01589412,7.59999983012676,15
-34.60662,0.4833332,-33.29479,0.5359892026624458,0.2862688646138407,0.2342339577483159,7.1365,59.62161,359.8902,0.05352614,0.4962253,-0.03177049,7.61999982967973,15
-34.55283,0.6833332,-33.26344,0.6325487466543009,-0.2441037793348927,0.2891213408582231,10.70381,60.36129,359.9042,0.08021049,0.5006036,-0.04761026,7.63999982923269,15
-34.35631,0.2833333,-33.12393,0.5657155227986266,-0.071436914766133,0.2232138544964925,3.589906,60.07926,0.07674339,0.02745051,0.500335,-0.01510064,7.65999982878566,15
-34.3029,0.4833335,-33.09117,0.4802512035440962,0.1116842924395385,0.1523480713182401,7.177645,60.82697,0.2011914,0.05486928,0.5051484,-0.03017709,7.67999982833862,15
-34.24951,0.6833335,-33.05842,0.3870285327630931,0.2529891784287689,0.0854346383106694,10.76244,61.58927,0.3744044,0.08222441,0.5094402,-0.04521836,7.69999982789159,15
-34.03526,0.2833337,-32.90903,0.3356705788411638,0.1667425004832783,0.0482023723999134,3.567721,60.97248,0.1094914,0.02731013,0.5070598,-0.01496982,7.71999982744455,15
-33.98196,0.4833338,-32.87682,0.2736741924782819,0.1196987153640042,0.0101213112381195,7.132597,61.72087,0.2656172,0.0545832,0.5118302,-0.02992118,7.73999982699752,15
-33.92868,0.6833338,-32.84461,0.2124011433456338,0.0585414533300167,-0.0197726492487859,10.6941,62.48573,0.4705621,0.08179365,0.5160783,-0.04483761,7.75999982655048,15
-33.87541,0.8833338,-32.81241,0.1548094651648774,0.0099291844747231,-0.049785612344106,14.25153,63.27354,0.7272477,0.108914,0.5198004,-0.05970418,7.77999982610345,15
-33.69516,0.283333,-32.68407,0.0864152076069544,0.0005200725861347,-0.0824731895520436,3.645456,61.85169,0.1398921,0.02791236,0.5136345,-0.01529992,7.79999982565641,15
-33.64041,0.483333,-32.65155,0.0188538114954326,-0.0230013984115525,-0.1087211226876156,7.287705,62.60049,0.3277071,0.05578693,0.5183151,-0.03057918,7.81999982520938,15
-33.58568,0.6833327,-32.61905,-0.0485093921313612,-0.0339782876868555,-0.1372185361667348,10.92618,63.36836,0.5657922,0.08359538,0.5224445,-0.04582179,7.83999982476234,15
-33.38845,0.2833333,-32.48068,-0.1311863235717076,-0.0057520552780724,-0.1716539881415606,3.617861,62.48399,0.1536758,0.02768408,0.5183586,-0.01522607,7.85999982431531,15
-33.33391,0.4833339,-32.4488,-0.2172786472936536,0.0083612650863582,-0.2029910251334108,7.2323,63.23172,0.3548746,0.05533078,0.5230091,-0.03043149,7.87999982386827,15
-33.27938,0.683334,-32.41692,-0.2948719894200842,-0.0449540396422089,-0.2221914774478754,10.84278,63.99915,0.6059485,0.08291236,0.5271115,-0.04560112,7.89999982342124,15
-33.06465,0.2833333,-32.2684,-0.3569060541346402,-0.1123833824097969,-0.2391006765411916,3.557834,64.32977,0.2499537,0.02743907,0.5320424,-0.01468034,7.91999982297421,15
-33.0108,0.4833336,-32.23724,-0.4151365654973737,-0.1406094330042012,-0.2519557460000321,7.111031,65.08392,0.5471701,0.05484202,0.536626,-0.02934138,7.93999982252717,15
-32.95695,0.6833339,-32.20609,-0.4575458630334665,-0.1829480928222666,-0.2519007748098438,10.65892,65.86342,0.8947129,0.08218198,0.5406637,-0.04396816,7.95999982208014,15
-32.90313,0.8833341,-32.17495,-0.4830426597204074,-0.2127426344705651,-0.2609752899570452,14.20033,66.67499,1.296437,0.1094282,0.5441522,-0.05854566,7.9799998216331,15
-32.72533,0.283333,-32.04742,-0.5029643845787568,-0.2033342137728238,-0.2688344278066772,3.494799,64.98089,0.2996245,0.02712417,0.5368401,-0.01417518,7.99999982118607,15
-32.67249,0.4833335,-32.01656,-0.5061604670755635,-0.208038454569288,-0.2670713684465546,6.984268,65.73612,0.6458023,0.05421297,0.5414017,-0.02833181,8.01999982073903,15
-32.61966,0.6833335,-31.98571,-0.4958319554096739,-0.2001977383408493,-0.2863749679706373,10.46744,66.51912,1.041884,0.08123901,0.5454302,-0.04245424,8.039999820292,15
-32.42483,0.2833332,-31.8474,-0.4909836968029637,-0.1531542064723702,-0.3102202157939295,3.437388,64.46541,0.3094361,0.02680972,0.5330488,-0.01371349,8.05999981984496,15
-32.37325,0.4833332,-31.81635,-0.4808770910257038,-0.1202236951967399,-0.3302620496539248,6.869041,65.21878,0.6649012,0.05358463,0.537639,-0.0274054,8.07999981939793,15
-32.32167,0.6833333,-31.7853,-0.4547738079128152,-0.1547219473568207,-0.3381965180711681,10.29464,65.99986,1.069267,0.08030118,0.5417159,-0.04106701,8.09999981895089,15
-32.27012,0.8833331,-31.75426,-0.4209677717102096,-0.2033327788592359,-0.3540175053920116,13.7134,66.81501,1.526654,0.1069347,0.545276,-0.0546857,8.11999981850386,15
-32.02699,0.2833331,-31.58166,-0.3831055847455857,-0.2127412307450696,-0.3633402185122278,3.38677,62.32672,0.1926957,0.02615629,0.5172107,-0.01385365,8.13999981805682,15
-31.97642,0.4833334,-31.55092,-0.3305222262933256,-0.2362626851904181,-0.3580553701752578,6.769314,63.06623,0.4294976,0.05227767,0.5218867,-0.02768765,8.15999981760979,15
-31.92586,0.6833334,-31.52019,-0.2826061919551783,-0.2472389634230473,-0.3505328372142458,10.14756,63.82571,0.712606,0.07834425,0.5260804,-0.04149219,8.17999981716275,15
-31.87532,0.8833336,-31.48947,-0.2355974436082348,-0.2190126859744768,-0.3418692730949324,13.52073,64.61104,1.045109,0.1043318,0.5297884,-0.0552545,8.19999981671572,15
-31.70705,0.2833333,-31.36731,-0.1787334236896818,-0.2048991554824539,-0.3242089898233438,3.329907,60.74067,0.09640102,0.02549294,0.5053524,-0.01396423,8.21999981626868,15
-31.65738,0.4833335,-31.33713,-0.1299025589780527,-0.1782415260736498,-0.3306272639546499,6.656898,61.46843,0.2352678,0.05095245,0.5100906,-0.02790996,8.23999981582165,15
-31.60772,0.6833337,-31.30697,-0.0898500270800255,-0.1123811280682937,-0.3399285374392633,9.980904,62.20984,0.4180943,0.07635981,0.5143733,-0.04182705,8.25999981537461,15
-31.42285,0.2833331,-31.17485,-0.0480455171773854,-0.0606339203608252,-0.3443182091280512,3.279301,58.75274,359.9705,0.02480793,0.49035,-0.01426041,8.27999981492758,15
-31.37386,0.4833333,-31.14532,0.0060677914261759,-0.07631584903941,-0.3359833134861709,6.557671,59.46723,359.9819,0.04958674,0.4951642,-0.02850395,8.29999981448054,15
-31.32487,0.6833336,-31.11578,0.0824080604800094,-0.1061093474547418,-0.400194350586144,9.834338,60.18755,0.03471008,0.07431285,0.4995489,-0.04271807,8.31999981403351,15
-31.12434,0.2833336,-30.9732,0.1552546272634138,-0.096700016901039,-0.4538631678953244,3.229596,56.25393,359.8712,0.0243222,0.4712674,-0.01427563,8.33999981358647,15
-31.07643,0.4833336,-30.94346,0.2350096526407732,-0.1014033308536167,-0.4894725030662599,6.459617,56.95776,359.782,0.04861734,0.4761707,-0.02853512,8.35999981313944,15
-31.02854,0.6833335,-30.91373,0.3093215457578218,-0.0935623474355745,-0.5376823588518995,9.689541,57.66143,359.7323,0.07286521,0.4806721,-0.04276608,8.3799998126924,15
-30.98065,0.8833337,-30.88402,0.373588294547357,-0.046519167434981,-0.5785262319600548,12.91856,58.36956,359.723,0.09704421,0.4847683,-0.05695346,8.39999981224537,15
-30.81102,0.2833333,-30.76074,0.438283478861905,-0.0135892289574134,-0.6044477529631713,3.285336,55.51525,359.8254,0.02465796,0.465579,-0.01469845,8.41999981179833,15
-30.76222,0.4833333,-30.73049,0.490239216164106,0.0318861771411657,-0.6410064083556861,6.571632,56.2122,359.6906,0.04928783,0.470466,-0.02937985,8.4399998113513,15
-30.71343,0.6833332,-30.70024,0.5208416864699785,0.1165641619199844,-0.6757792667007969,9.858375,56.90638,359.5953,0.07386831,0.4749425,-0.04403153,8.45999981090426,15
-30.52264,0.2833331,-30.5745,0.54077727173458,0.1871289409811033,-0.7012045311462707,3.536037,57.95615,359.8537,0.02637187,0.4842784,-0.01606393,8.47999981045723,15
-30.46912,0.4833331,-30.54359,0.5607843195464142,0.1902645026368257,-0.7097309112192889,7.072608,58.65302,359.7502,0.05271024,0.4889694,-0.03210745,8.49999981001019,15
-30.41563,0.6833333,-30.51269,0.6585875888947399,0.1792881077537634,-0.6615993218637541,10.61115,59.34927,359.6886,0.07900031,0.4931696,-0.04812937,8.51999980956316,15
-30.20038,0.2833334,-30.3841,0.7341740121432672,0.2075140611249532,-0.61121418377369,3.565327,60.14502,359.9108,0.0265312,0.5008737,-0.01626123,8.53999980911613,15
-30.14583,0.4833333,-30.35416,0.7990365493206326,0.2216267266265665,-0.5509283161609879,7.130695,60.84502,359.8645,0.05302716,0.5054556,-0.03250719,8.55999980866909,15
-30.09129,0.6833333,-30.32422,0.694178812321617,0.8885989691375129,-0.6021246844035844,10.69534,61.54826,359.862,0.07946227,0.509524,-0.04871576,8.57999980822206,15
-30.03676,0.8833335,-30.29429,0.7150966918100856,0.6641840972961741,-0.5374855602488786,14.25869,62.26037,359.9046,0.1058101,0.5130756,-0.06487,8.59999980777502,15
-29.86207,0.2833336,-30.18209,0.7240342929753041,0.4544048980983517,-0.4685730925041653,3.592422,61.08477,0.03477573,0.02714984,0.5079177,-0.01566735,8.61999980732799,15
-29.80768,0.4833333,-30.15091,0.7327323817898233,0.2049003511707229,-0.3878099773887733,7.183426,61.79379,0.1147031,0.05426918,0.5124322,-0.03131123,8.63999980688095,15
-29.75331,0.6833333,-30.11973,0.6734505442362391,0.1813786363309409,-0.3406029842867717,10.77211,62.51426,0.2405426,0.0813253,0.5164192,-0.04691853,8.65999980643392,15
-29.56655,0.2833336,-29.98606,0.5925263748587568,0.1970595513965325,-0.2993909958629146,3.561426,61.69696,0.09827102,0.02711762,0.5124988,-0.01519805,8.67999980598688,15
-29.51284,0.4833335,-29.95475,0.5017121391498662,0.198627351956524,-0.2567956587441173,7.120173,62.40969,0.2412748,0.05419999,0.5169865,-0.03037402,8.69999980553985,15
-29.45915,0.6833338,-29.92345,0.5822543502287765,-0.5075476876384235,-0.0787440868816631,10.67579,63.1377,0.4305685,0.08121991,0.5209509,-0.04551505,8.71999980509281,15
-29.25136,0.2833333,-29.79929,0.5139897149115846,-0.2972455146647323,-0.0100484722062326,3.634547,63.17387,0.1403563,0.02765504,0.5234948,-0.01556767,8.73999980464578,15
-29.19604,0.4833333,-29.76815,0.4356646984028103,-0.0764893680841811,0.0550948449174093,7.266046,63.88887,0.3263317,0.05527323,0.527878,-0.0311148,8.75999980419874,15
-29.14075,0.6833332,-29.73702,0.3594580938452019,0.1024500605464887,0.1243380458262173,10.89456,64.62237,0.5598242,0.08282918,0.5317051,-0.04663075,8.77999980375171,15
-29.08547,0.8833331,-29.70589,0.2691651958441383,0.0538387130466767,0.189466692350031,14.51873,65.38096,0.8445529,0.1102914,0.5349728,-0.06209294,8.79999980330467,15
-28.88796,0.2833336,-29.65382,0.1702757445627796,0.0444300867514536,0.2479638357647253,3.625902,64.87897,0.1669392,0.02748107,0.5361006,-0.01574129,8.81999980285764,15
-28.83209,0.4833335,-29.62399,0.0751295699825824,0.0209080786739119,0.3075047696999924,7.248446,65.59366,0.3794268,0.05492579,0.5403996,-0.03146182,8.8399998024106,15
-28.77623,0.6833335,-29.59418,-0.0341114181398261,0.0099309855434831,0.3575061722929362,10.86696,66.32853,0.6399285,0.08230552,0.5441322,-0.04714483,8.85999980196357,15
-28.58139,0.2833335,-29.48104,-0.1540312438350568,0.0381567839325034,0.3945076114752055,3.572614,66.70488,0.2368842,0.02717393,0.5494654,-0.01541197,8.87999980151653,15
-28.52595,0.4833335,-29.45226,-0.27201437613002,0.0522696360399652,0.4260926373578542,7.140996,67.42369,0.5190179,0.05431256,0.5536987,-0.03080388,8.8999998010695,15
-28.47052,0.6833335,-29.4235,-0.1996603372721601,-0.6413611565383224,0.589853790585412,10.70446,68.16669,0.8493192,0.08138841,0.5573671,-0.04615977,8.91999980062246,15
-28.25704,0.2833333,-29.29457,-0.2616272169123945,-0.4185145833081568,0.6381463993560885,3.511099,67.17237,0.2822635,0.02688281,0.5528665,-0.0148961,8.93999980017543,15
-28.20267,0.4833333,-29.26593,-0.3169948356580256,-0.1852139653831903,0.6775608298597895,7.017388,67.89275,0.6091869,0.05373143,0.5570922,-0.02977283,8.95999979972839,15
-28.14832,0.6833335,-29.2373,-0.353745498187223,0.0062701769529922,0.715442348214502,10.5178,68.63959,0.9840056,0.08051754,0.5607674,-0.04461282,8.97999979928136,15
-28.09398,0.8833336,-29.20868,-0.3966847406477107,-0.0297959358782066,0.7482021807397281,14.01195,69.41924,1.41064,0.1072171,0.5638889,-0.05940446,8.99999979883432,15
-27.83739,0.2833335,-29.04144,-0.4373288008843019,-0.0266592194790218,0.7670949337770061,3.448284,65.83701,0.2920802,0.02664117,0.5431335,-0.01421215,9.01999979838729,15
-27.78477,0.4833335,-29.01183,-0.4644188212175635,-0.037635749132973,0.7794803698091712,6.891232,66.55495,0.6285735,0.05324947,0.5474185,-0.02839907,9.03999979794025,15
-27.73216,0.6833333,-28.98223,-0.5100162212807469,-0.0360672398715035,0.7926180051244778,10.32868,67.29926,1.011797,0.07980006,0.5511804,-0.04255506,9.05999979749322,15
-27.67957,0.8833334,-28.95265,-0.5613268964942613,0.0047041669205304,0.7886819285167412,13.75976,68.07608,1.445737,0.1062674,0.5544162,-0.05666602,9.07999979704618,15
-27.50357,0.2833333,-28.82393,-0.6073923183087757,0.0313623153758512,0.77510240672256,3.395464,63.88902,0.1980803,0.02605419,0.5288212,-0.01420923,9.09999979659915,15
-27.45208,0.4833333,-28.79445,-0.6372226742538736,-0.0094086445901383,0.7593612452361675,6.786846,64.59522,0.4385369,0.05207472,0.5331848,-0.02839776,9.11999979615211,15
-27.4006,0.6833333,-28.76497,-0.5818833164498542,-0.0642927843999116,0.8042625845816787,10.17399,65.32142,0.72343,0.07804013,0.5370555,-0.04255609,9.13999979570508,15
-27.20807,0.2833331,-28.62588,-0.5299745442327577,-0.0799733623204838,0.8310107119893608,3.341449,61.52947,0.1105794,0.02554598,0.5112723,-0.01408461,9.15999979525805,15
-27.15792,0.4833331,-28.59609,-0.4700471218849031,-0.1097669066467778,0.8472156613130686,6.679875,62.22552,0.2623097,0.05106001,0.5157309,-0.02814773,9.17999979481101,15
-27.10779,0.683333,-28.56631,-0.5496009056627038,0.5132982634851431,0.7374625612341177,10.01525,62.93584,0.4565047,0.07652214,0.5197278,-0.04218109,9.19999979436398,15
-26.89887,0.2833335,-28.41782,-0.4913283600697511,0.2449760164440866,0.7163801340687357,3.291176,59.45231,359.988,0.02488602,0.4956532,-0.01433045,9.21999979391694,15
-26.84949,0.4833335,-28.38853,-0.4223670455004473,-0.0087108490132757,0.681329588451348,6.581314,60.13539,0.01525501,0.04974356,0.5001902,-0.0286443,9.23999979346991,15
-26.80012,0.6833336,-28.35924,-0.5164854679057562,0.4181652262354067,0.5283675734566771,9.869551,60.82507,0.08246773,0.07454824,0.5042925,-0.04292772,9.25999979302287,15
-26.75077,0.8833336,-28.32996,-0.4598176716145445,0.1937504387238839,0.4732882093453057,13.15582,61.52612,0.1910461,0.09928223,0.507957,-0.05716994,9.27999979257584,15
-26.57593,0.2833333,-28.20084,-0.3999168549743856,-0.0160284634901243,0.4004478453331366,3.241199,57.31572,359.9044,0.0244165,0.479407,-0.01429495,9.2999997921288,15
-26.52761,0.4833333,-28.17142,-0.3258736411722616,-0.2655329404623386,0.3175198061928483,6.482342,57.98885,359.8468,0.04880553,0.4840148,-0.02857357,9.31999979168177,15
-26.47931,0.6833333,-28.142,-0.2380148779282329,-0.2890550796518321,0.3281049749483529,9.722989,58.66344,359.8273,0.07314692,0.4882136,-0.04282377,9.33999979123473,15
-26.28884,0.2833333,-28.00254,-0.154370331575631,-0.2733742988344247,0.3274425764620723,3.195751,54.36057,359.8019,0.02401598,0.4566565,-0.01427466,9.3599997907877,15
-26.2417,0.4833333,-27.97258,-0.0640069118971844,-0.271806330137513,0.324028438673384,6.392646,55.02306,359.6406,0.04800543,0.4613613,-0.02853323,9.37999979034066,15
-26.19457,0.6833333,-27.94262,-0.1228572996576211,0.3826208504589711,0.226317209043561,9.590254,55.68097,359.5155,0.07194909,0.4656854,-0.04276398,9.39999978989363,15
-25.98271,0.2833331,-27.79085,-0.0506738370127877,0.1456609763787119,0.2308444655195316,3.531933,55.58654,359.8141,0.02650562,0.4661049,-0.01580411,9.41999978944659,15
-25.93016,0.4833331,-27.75836,0.0259859009026577,-0.0766631669506107,0.2354065690256277,7.06481,56.24709,359.6686,0.05297782,0.470634,-0.03158826,9.43999978899956,15
-25.87764,0.683333,-27.72589,-0.0717049780614722,0.3815756210174119,0.1285305617286525,10.59944,56.90416,359.5629,0.07939911,0.4746933,-0.04734457,9.45999978855252,15
-25.82514,0.8833328,-27.69342,-0.0234106704980945,0.1885231782405907,0.1363638953523107,14.13549,57.56277,359.4974,0.1057457,0.4782788,-0.06305589,9.47999978810549,15
-25.64744,0.2833334,-27.56379,0.0226075684375466,0.010106252776643,0.1433591404749421,3.561617,57.43123,359.8738,0.02672515,0.4802602,-0.01589631,9.49999978765845,15
-25.59406,0.4833333,-27.53188,0.0774039833749888,-0.2080364302181822,0.1583627907013927,7.123675,58.09456,359.7882,0.05341576,0.4846928,-0.03177666,9.51999978721142,15
-25.54069,0.6833333,-27.49999,0.0688404040970667,-0.2001960398965953,0.1455893068521234,10.68546,58.7583,359.7437,0.08004554,0.4886356,-0.04762016,9.53999978676438,15
-25.34593,0.2833335,-27.35832,0.0451162322802574,-0.1531527661574909,0.1232423158059923,3.595194,58.59275,359.9941,0.02733182,0.4890878,-0.01539408,9.55999978631735,15
-25.29252,0.4833334,-27.32539,0.0173205073139293,-0.120222326231159,0.1000214919176158,7.18949,59.2655,0.03101664,0.0546323,0.4934512,-0.030766,9.57999978587031,15
-25.23914,0.6833332,-27.29248,-0.0034668526227719,-0.1547211166036196,0.0846543523187008,10.78211,59.94664,0.1110937,0.08186959,0.4973077,-0.0461024,9.59999978542328,15
-25.18576,0.8833333,-27.25957,-0.0304161780714942,-0.2033327285052759,0.0656998590554351,14.37243,60.64187,0.2362896,0.1090156,0.5006537,-0.061387,9.61999978497624,15
-24.9429,0.2833333,-27.08228,-0.0597923378242661,-0.212741645860318,0.0461851736457248,3.564847,59.58357,0.09901561,0.02742241,0.4965857,-0.01470456,9.63999978452921,15
-24.89033,0.4833336,-27.04899,-0.0803371014481868,-0.2362636926180629,0.0348871914629143,7.127025,60.26341,0.2408659,0.05480917,0.5009047,-0.02938664,9.65999978408217,15
-24.83778,0.6833337,-27.01571,-0.250129221489292,0.3930736487626179,-0.0909781648392673,10.68624,60.9582,0.4270192,0.08213346,0.5047175,-0.0440348,9.67999978363514,15
-24.78524,0.8833337,-26.98244,-0.2302012764361052,0.1310241255571071,-0.0696591960325463,14.24193,61.67382,0.6601505,0.1093681,0.5080206,-0.0586344,9.6999997831881,15
-24.61605,0.2833333,-26.85706,-0.208115986587245,-0.116389475761509,-0.0469472607505672,3.63584,60.41029,0.1280963,0.02797836,0.5028134,-0.01499434,9.71999978274107,15
-24.56216,0.4833333,-26.82347,-0.3628693741542719,0.3167587797090445,-0.1563806915974659,7.268892,61.09056,0.2996315,0.0559197,0.5070525,-0.02996878,9.73999978229403,15
-24.5083,0.6833332,-26.7899,-0.3622823846414249,0.0986163670400559,-0.1454067606608866,10.89924,61.78812,0.5165392,0.08379907,0.510759,-0.04491172,9.759999781847,15
-24.3224,0.2833333,-26.6538,-0.3657606409658527,-0.1048904469482406,-0.1365991302066511,3.628095,60.72273,0.1369806,0.02791825,0.5051658,-0.01496956,9.77999978139997,15
-24.26854,0.4833333,-26.62044,-0.3615065068012626,-0.3481230310123486,-0.1209364006736315,7.253286,61.4018,0.3172283,0.05579946,0.5093815,-0.02991935,9.79999978095293,15
-24.2147,0.6833332,-26.5871,-0.3200424610959835,-0.3653721946836231,-0.0809450688724489,10.87502,62.09869,0.5429363,0.08361498,0.5130647,-0.04483352,9.8199997805059,15
-24.0114,0.2833331,-26.44035,-0.2847305104812285,-0.3434184603016258,-0.0452377786995121,3.573803,62.41641,0.2251668,0.02768747,0.5178441,-0.01447726,9.83999978005886,15
-23.95815,0.483333,-26.40769,-0.2433742553521902,-0.3355777841472753,-0.0046991481530511,7.143618,63.10146,0.4934905,0.0553387,0.5220034,-0.02893532,9.85999977961183,15
-23.90491,0.6833332,-26.37504,-0.3544904405781572,0.3251219927446221,-0.0823053836805982,10.70884,63.80957,0.8077226,0.08292583,0.5256316,-0.04335961,9.87999977916479,15
-23.85168,0.8833333,-26.3424,-0.3111000684641567,0.0944347248911794,-0.0442645447035587,14.26853,64.54691,1.171424,0.1104186,0.5287256,-0.05773551,9.89999977871776,15
-23.68484,0.2833333,-26.21766,-0.2551901602338908,-0.1216165877964546,-0.00107989203266,3.510639,63.29852,0.2856871,0.02738318,0.5244051,-0.01395144,9.91999977827072,15
-23.63255,0.4833333,-26.18538,-0.3729911296782866,0.3428948037848581,-0.0902576589304686,7.016622,63.98599,0.6140051,0.05473162,0.528537,-0.02788488,9.93999977782369,15
-23.58028,0.6833335,-26.15311,-0.3328604446031065,0.1561152988914621,-0.0611032046959678,10.51693,64.69971,0.9880604,0.08201593,0.5321483,-0.0417848,9.95999977737665,15
-23.39654,0.2833333,-26.017,-0.2936779994916989,-0.0160283518053921,-0.0358445003434333,3.45166,62.89245,0.3054447,0.02708347,0.5213912,-0.01343886,9.97999977692962,15
-23.34555,0.4833333,-25.98451,-0.2448081235296939,-0.227897378980851,-0.0060665978907081,6.898031,63.57919,0.6531324,0.05413188,0.5255473,-0.02685619,9.99999977648258,15
-23.29458,0.6833333,-25.95204,-0.156644448771015,-0.2137844266881782,0.0490233771414096,10.33893,64.29276,1.045794,0.08112137,0.5292017,-0.04024414,10.0199997760355,15
-23.09405,0.2833333,-25.80549,-0.0760640889057597,-0.160468350359243,0.0981031193430119,3.40348,61.6971,0.2399165,0.02656833,0.5124899,-0.01343083,10.0399997755885,15
-23.04394,0.4833333,-25.77336,0.0076094501760515,-0.1212652258002754,0.1497173034781838,6.80255,62.37547,0.5205681,0.05310191,0.5166958,-0.02684322,10.0599997751415,15
-22.99384,0.6833333,-25.74124,-0.0647059607489097,0.5707966401362403,0.0806117570505051,10.19705,63.0761,0.8444647,0.07957941,0.5204228,-0.04022684,10.0799997746944,15
-22.94376,0.8833332,-25.70913,-0.0015869685947222,0.3714716616978371,0.1191119234451107,13.58632,63.80456,1.214954,0.1059765,0.5236679,-0.05356942,10.0999997742474,15
-22.77757,0.2833333,-25.5844,0.0596679600820557,0.1867827459283335,0.1563040804239293,3.353023,60.10854,0.1512606,0.02598376,0.5005718,-0.01351018,10.1199997738004,15
-22.72835,0.4833331,-25.55268,0.1297187322051165,-0.037631925803932,0.2005227838704648,6.702743,60.77604,0.3418833,0.05193438,0.5048355,-0.02700239,10.1399997733533,15
-22.67915,0.683333,-25.52097,-0.0082359736250374,0.6042504345422464,0.0867839240304135,10.04901,61.45993,0.5736399,0.07783121,0.5086457,-0.04046658,10.1599997729063,15
-22.62996,0.883333,-25.48926,0.0440593654103729,0.3547451687203842,0.1191594983530599,13.3913,62.1654,0.8491554,0.1036518,0.5119994,-0.05389057,10.1799997724593,15
-22.41554,0.2833331,-25.32926,0.0901822586895804,0.1198757152786265,0.1455748453335914,3.300056,57.54753,-0.005686597,0.02521523,0.4811541,-0.01390375,10.1999997720122,15
-22.36708,0.4833331,-25.29818,0.1406565964653054,-0.1547192139557689,0.174251102483808,6.598959,58.19845,0.02613556,0.05040104,0.4855059,-0.02779137,10.2199997715652,15
-22.31863,0.683333,-25.2671,0.2255735037216517,-0.2033309866764703,0.2246806444020315,9.895948,58.85602,0.09617422,0.07553327,0.4894354,-0.04164946,10.2399997711182,15
-22.12867,0.2833333,-25.12646,0.2991861127710287,-0.2127400841906571,0.265747050645249,3.244092,55.43105,359.9058,0.0246763,0.4649161,-0.01389243,10.2599997706711,15
-22.08132,0.4833333,-25.09543,0.372015168921763,-0.2362618891971307,0.3058105854931874,6.48807,56.07236,359.8478,0.04932487,0.4693418,-0.02776881,10.2799997702241,15
-22.03397,0.6833332,-25.06441,0.2960370302060653,0.3930752919743292,0.2301174257909011,9.731544,56.71488,359.8262,0.07392538,0.4733716,-0.04161763,10.2999997697771,15
-21.82886,0.2833333,-24.91317,0.3430221348430855,0.1310252081672174,0.2536157278693309,3.19724,52.9883,359.8101,0.02422864,0.4459736,-0.01392802,10.31999976933,15
-21.7825,0.4833333,-24.88198,0.3867522480784302,-0.1163888872822855,0.2741559178204831,6.395448,53.61962,359.6552,0.04843048,0.4504759,-0.02784062,10.339999768883,15
-21.73615,0.6833333,-24.85079,0.258236809972729,0.3167596480099211,0.1640208333077346,9.594217,54.24652,359.5349,0.07258605,0.4546077,-0.04172625,10.359999768436,15
-21.68982,0.8833333,-24.8196,0.2668074544860346,0.0986174395445296,0.1635609047789259,12.79291,54.87292,359.4494,0.09667527,0.4583661,-0.05556997,10.3799997679889,15
-21.51002,0.2833333,-24.68679,0.2649096416597807,-0.1048893355893297,0.1566107865603285,3.531978,54.5781,359.8217,0.02667443,0.458304,-0.01551151,10.3999997675419,15
-21.45811,0.4833335,-24.65329,0.2631223636135615,-0.3481217233775371,0.1516789734867742,7.064741,55.20692,359.6818,0.05331518,0.4626191,-0.0310038,10.4199997670949,15
-21.40623,0.6833335,-24.6198,0.2940341100247252,-0.3653713438933795,0.1696420251805186,10.59913,55.83232,359.5796,0.07990412,0.4664741,-0.04647029,10.4399997666478,15
-21.21227,0.2833336,-24.47797,0.3112305967471016,-0.3434180391752665,0.1796875528255057,3.561633,56.2251,359.8716,0.02688221,0.4710079,-0.01563086,10.4599997662008,15
-21.15954,0.4833336,-24.44499,0.3257435310934689,-0.3355780056001505,0.1904871092227438,7.123699,56.85656,359.782,0.05373028,0.4752419,-0.03124556,10.4799997657537,15
-21.10683,0.6833336,-24.41202,0.1907489585184478,0.32512147500487,0.0860488085033921,10.6855,57.48792,359.7314,0.08051711,0.4789971,-0.04682429,10.4999997653067,15
-20.89551,0.2833333,-24.25817,0.2686749155484946,0.0944340309125711,0.1455912669961918,3.595327,57.71643,-0.001276342,0.027469,0.4824066,-0.01515029,10.5199997648597,15
-20.84265,0.4833334,-24.22438,0.3335723520267386,-0.1216175636875357,0.1970444665633657,7.189687,58.35804,0.03803543,0.05490552,0.4865625,-0.03027986,10.5399997644126,15
-20.7898,0.6833335,-24.1906,0.2175209474299961,0.3428933207823684,0.1123899661564316,10.78234,59.00791,0.1186625,0.08227864,0.4902202,-0.04537396,10.5599997639656,15
-20.73697,0.8833334,-24.15683,0.0919879621022907,0.7964273705996872,0.0221415678130618,14.37284,59.6715,0.242408,0.1095609,0.4933764,-0.06041748,10.5799997635186,15
-20.56172,0.2833335,-24.0252,0.1002686880355483,0.3340068916098283,0.0396349425214381,3.555059,58.806,0.1018353,0.02745925,0.4906889,-0.0144548,10.5999997630715,15
-20.50977,0.4833336,-23.99126,0.1041674870326545,-0.1393901537104828,0.0552123491008842,7.10745,59.45461,0.2444243,0.05488253,0.4948031,-0.02888758,10.6199997626245,15
-20.45784,0.6833336,-23.95733,-0.0239858642934507,0.28121347787278,-0.0333160520999591,10.65698,60.11788,0.4292061,0.08224368,0.4984215,-0.04328745,10.6399997621775,15
-20.40592,0.8833335,-23.92341,0.0026942939817686,0.050525804661257,-0.0015662955936193,14.20312,60.80141,0.6588023,0.1095157,0.501541,-0.05763986,10.6599997617304,15
-20.18028,0.2833333,-23.75564,0.0259479437725573,-0.1655258117182436,0.0275993271140322,3.624867,59.55467,0.1257418,0.02799627,0.4963518,-0.01475532,10.6799997612834,15
-20.12704,0.4833335,-23.7214,0.057803391321606,-0.4213030708947753,0.0634406563888063,7.24704,60.20333,0.2927775,0.05595549,0.5003919,-0.02949109,10.6999997608364,15
-20.07381,0.6833337,-23.68717,0.0795866880945794,-0.4510971532592184,0.0899924556281561,10.86666,60.86863,0.5029553,0.08385301,0.5039111,-0.04419615,10.7199997603893,15
-19.87103,0.2833335,-23.53877,0.0908868482166447,-0.4416881665585858,0.1091843355730652,3.624758,60.1165,0.140141,0.02798567,0.5005958,-0.01478322,10.7399997599423,15
-19.8176,0.4833333,-23.50484,0.1039021617439779,-0.4463918520676224,0.1302994056940214,7.246719,60.76463,0.3215872,0.05593482,0.5046015,-0.02954694,10.7599997594953,15
-19.76418,0.6833335,-23.47092,-0.0390527967270593,0.2017633520749989,0.0310978121393077,10.86528,61.43034,0.546457,0.08381796,0.5080824,-0.04427555,10.7799997590482,15
-19.71077,0.8833335,-23.43702,-0.1742003739001916,0.6984539178513872,-0.0627253775140452,14.48002,62.11954,0.8176681,0.1116069,0.5110351,-0.0589555,10.7999997586012,15
-19.54393,0.2833333,-23.3118,-0.1205366355456512,0.1676288530794631,-0.0078099599681564,3.572335,61.9864,0.2285263,0.02774571,0.5146319,-0.01434154,10.8199997581542,15
-19.49096,0.4833334,-23.27872,-0.2453611197660823,0.3466030960712922,-0.0896051134431985,7.14081,62.64001,0.4982254,0.0554553,0.5185722,-0.02866428,10.8399997577071,15
-19.43801,0.6833334,-23.24565,-0.3675481977904464,0.5427916821007708,-0.1713706905013623,10.70489,63.31645,0.8118289,0.08310118,0.521987,-0.04295396,10.8599997572601,15
-19.25439,0.2833335,-23.10889,-0.3276496026484548,0.0636098993441213,-0.1305654888851464,3.511109,62.49143,0.2791295,0.0274546,0.5184005,-0.01380926,10.879999756813,15
-19.2025,0.4833334,-23.07599,-0.2748076356730564,-0.4260606877586511,-0.0840658643619747,7.017851,63.14729,0.5989628,0.0548748,0.5223328,-0.02760082,10.899999756366,15
-19.15061,0.6833335,-23.0431,-0.3573619752607992,-0.0212429293635622,-0.14492592391559,10.51921,63.82865,0.9626316,0.08223137,0.5257525,-0.04135833,10.919999755919,15
-18.95028,0.2833333,-22.89502,-0.2682085838607975,-0.2672286081053066,-0.0763198748196209,3.451559,62.32521,0.3071988,0.02715682,0.517163,-0.01329108,10.9399997554719,15
-18.89963,0.4833333,-22.86202,-0.1753047024243841,-0.498090643485501,-0.0078039227203596,6.897996,62.9812,0.6547367,0.05427833,0.5211109,-0.02656127,10.9599997550249,15
-18.84899,0.6833333,-22.82903,-0.2380283027499086,-0.0479021951017868,-0.0606610568658148,10.33917,63.66376,1.045358,0.08134084,0.5245631,-0.03980259,10.9799997545779,15
-18.79836,0.8833334,-22.79605,-0.295326011383441,0.3917971811363754,-0.1104696682639634,13.77439,64.37861,1.483065,0.1083193,0.5275167,-0.05300202,10.9999997541308,15
-18.5507,0.2833335,-22.61265,-0.2152020866321873,-0.0839698780530522,-0.0487128203869033,3.400959,60.73042,0.2170344,0.02656083,0.5052379,-0.01336733,11.0199997536838,15
-18.50097,0.4833336,-22.58006,-0.3140282818417645,0.1500625967656145,-0.1233512911598921,6.797908,61.37529,0.4727641,0.05308698,0.509245,-0.02671624,11.0399997532368,15
-18.45125,0.6833336,-22.54749,-0.4126085267118782,0.4013094391890897,-0.1983488692913191,10.19076,62.04064,0.7694623,0.07955723,0.5127829,-0.04003683,11.0599997527897,15
-18.40155,0.8833336,-22.51492,-0.3610523193233472,-0.0228140908325026,-0.1551335773690567,13.57894,62.73174,1.110236,0.1059475,0.5158487,-0.05331691,11.0799997523427,15
-18.22786,0.2833333,-22.38404,-0.306455455904528,-0.4574265371463022,-0.1096978501028083,3.342632,59.24706,0.1299115,0.02591375,0.4940595,-0.01343154,11.0999997518957,15
-18.17908,0.4833334,-22.35201,-0.3849422845983543,0.0024494747679024,-0.1710642282942132,6.682196,59.88131,0.2970598,0.05179369,0.4981218,-0.02684512,11.1199997514486,15
-18.13031,0.6833336,-22.31998,-0.4546054444922909,0.451836434922071,-0.2270508958204367,10.01872,60.53025,0.5030596,0.07762059,0.5017411,-0.04023109,11.1399997510016,15
-17.94021,0.2833331,-22.17873,-0.3113822422941439,-0.0142427136604446,-0.119879551230408,3.291822,57.3056,-0.005362222,0.02518286,0.4793041,-0.01381356,11.1599997505546,15
-17.89199,0.4833332,-22.14754,-0.160479137946492,-0.4908108227037775,-0.0089112568009106,6.582481,57.92598,0.02492373,0.05033625,0.4834349,-0.02761117,11.1799997501075,15
-17.84379,0.6833331,-22.11634,-0.1993503206721705,-0.0728903704590116,-0.046222259576556,9.87133,58.55265,0.09140027,0.07543629,0.4871488,-0.04138087,11.1999997496605,15
-17.6385,0.2833333,-21.96445,-0.0657633241900157,-0.3057731400835568,0.0470426022462895,3.241769,55.25906,359.9065,0.02468223,0.4635874,-0.01384015,11.2199997492135,15
-17.59126,0.4833334,-21.9333,0.0620092536364591,-0.5235327441864492,0.1341860256533387,6.483379,55.86998,359.8476,0.0493367,0.4677859,-0.02766445,11.2399997487664,15
-17.54404,0.6833336,-21.90216,0.0152759013695273,-0.0602418504123881,0.0867719192270612,9.724461,56.48184,359.8231,0.07394291,0.4715919,-0.04146164,11.2599997483194,15
-17.49683,0.8833337,-21.87103,-0.0365573747566472,0.3925603705630904,0.0350174061009909,12.96438,57.0987,359.8341,0.09847961,0.4750032,-0.05521723,11.2799997478724,15
-17.44964,0.9766706,-21.83991,0.0465584114707375,-0.0701035912480549,0.0909914590022324,16.20308,57.72473,359.8816,0.1229282,0.478017,-0.0689227,11.2999997474253,15
-17.24372,0.2833334,-21.68265,0.1285598593647741,-0.5432566142279345,0.1453869152979692,3.269301,52.84797,359.8024,0.02477874,0.4448724,-0.01423816,11.3199997469783,15
-17.19634,0.4833336,-21.65068,0.0839947415904927,-0.1219209637122804,0.0972762777192137,6.539547,53.44682,359.6387,0.04952936,0.4491103,-0.02846007,11.3399997465312,15
-17.14897,0.6833335,-21.61872,0.1927768814420432,-0.3513884228584966,0.1706579990579335,9.810408,54.04052,359.5084,0.07423144,0.4529643,-0.04265377,11.3599997460842,15
-16.96319,0.2833334,-21.48003,0.2979834720608405,-0.5657324703759092,0.2423191657015664,3.53114,54.20389,359.8266,0.02673789,0.4553998,-0.01538295,11.3799997456372,15
-16.91157,0.4833335,-21.44615,0.2538036317647538,-0.0990262392041894,0.19670856732575,7.062952,54.8023,359.6898,0.05344247,0.4594901,-0.0307465,11.3999997451901,15
-16.85998,0.6833334,-21.41229,0.2113252325675851,0.3571911805648837,0.153062470280247,10.59703,55.39723,359.5889,0.08010141,0.4631248,-0.04608653,11.4199997447431,15
-16.65836,0.2833333,-21.26345,0.3808421133401563,-0.1020576010087083,0.2760095533225097,3.563982,55.86028,359.8912,0.02703,0.468194,-0.01540378,11.4399997442961,15
-16.606,0.4833333,-21.22985,0.369518318219793,0.1484929063640546,0.2608182344146144,7.12814,56.46281,359.8195,0.05402609,0.4722045,-0.03079102,11.459999743849,15
-16.55365,0.6833335,-21.19625,0.3481148366529218,0.4162577763759241,0.238845927349562,10.69181,57.06609,359.7852,0.08096058,0.4757405,-0.04614294,11.479999743402,15
-16.50131,0.8833334,-21.16267,0.3276774018821431,0.6489664764597336,0.2186531100193782,14.25466,57.67493,359.7891,0.1078073,0.4787988,-0.06144445,11.499999742955,15
-16.335,0.2833333,-21.03518,0.4418923679846696,-0.0594034607459266,0.3080536104227214,3.592334,57.3847,0.03744292,0.02765198,0.4798614,-0.01476191,11.5199997425079,15
-16.28274,0.4833333,-21.00056,0.3270701749564768,0.1554636028864959,0.2232621350516765,7.183278,57.99866,0.1139411,0.05527187,0.4837925,-0.02950223,11.5399997420609,15
-16.23049,0.6833333,-20.96594,0.205260133087739,0.3875449865575299,0.133607538815486,10.77217,58.62301,0.2302804,0.0828282,0.4872305,-0.04420843,11.5599997416139,15
-16.04726,0.2833333,-20.82764,0.2279699078539341,-0.0557439307800947,0.1592901747145134,3.561434,58.03463,0.09766272,0.02758691,0.4848163,-0.01432844,11.5799997411668,15
-15.99563,0.4833332,-20.79302,0.247501694443665,-0.5095218135442348,0.1831375830537212,7.120404,58.6523,0.2340887,0.05513772,0.4887235,-0.02863638,11.5999997407198,15
-15.94402,0.6833333,-20.75841,0.1266340905080163,-0.0688107141552729,0.0961277283135793,10.67663,59.284,0.4107701,0.08262566,0.4921409,-0.04291155,11.6199997402728,15
-15.89242,0.8833333,-20.72381,0.1684872033061104,-0.2789030816973574,0.1354605732076486,14.22967,59.9351,0.6302335,0.110024,0.4950655,-0.05713966,11.6399997398257,15
-15.65931,0.2833335,-20.54882,0.2058191578585333,-0.473872168635472,0.170970611765945,3.633898,58.84975,0.1312638,0.02817877,0.491003,-0.01457956,11.6599997393787,15
-15.6064,0.4833334,-20.51377,0.080904646335453,0.0122094912853961,0.0807977792075291,7.265162,59.46853,0.3020564,0.05632054,0.4948349,-0.0291398,11.6799997389317,15
-15.55351,0.6833333,-20.47874,-0.0435748697089835,0.4878021687046999,-0.0088287390340049,10.8938,60.10398,0.5142599,0.08439921,0.4981507,-0.04366877,11.6999997384846,15
-15.343,0.2833334,-20.32334,0.0525844909873285,0.0479289272165175,0.0734341138574521,3.614511,59.76175,0.1533933,0.02801139,0.4979135,-0.01455175,11.7199997380376,15
-15.29004,0.4833332,-20.289,-0.0430790835862016,0.3178546712441745,0.0095691426149571,7.226146,60.38072,0.3461376,0.05598613,0.5017081,-0.0290844,11.7399997375906,15
-15.23709,0.6833331,-20.25466,-0.1501500077469177,0.6049948741758594,-0.0626211326242973,10.83441,61.01765,0.580415,0.08389549,0.5049852,-0.04358289,11.7599997371435,15
-15.18416,0.8833331,-20.22033,-0.2568726009933009,0.8570786299713593,-0.1341595506040604,14.43869,61.67818,0.8590156,0.1117093,0.5077417,-0.058034,11.7799997366965,15
-15.00942,0.2833334,-20.08856,-0.2144863896147146,0.1680834702238529,-0.0870295433036183,3.556607,61.78266,0.2500777,0.02774994,0.5131048,-0.01406042,11.7999997362494,15
-14.95698,0.4833333,-20.05511,-0.1623793029484304,-0.4300116103337762,-0.032613570818885,7.109298,62.40791,0.5394,0.05546425,0.516834,-0.02810285,11.8199997358024,15
-14.90456,0.6833333,-20.02166,-0.2789792607835757,-0.0344977075883478,-0.1130584889893207,10.65752,63.05685,0.8708386,0.0831154,0.520045,-0.04211292,11.8399997353554,15
-14.71328,0.2833334,-19.87826,-0.2303537496212158,-0.290275053098399,-0.0672794836281767,3.495596,62.04967,0.2898759,0.02743998,0.5151021,-0.01355324,11.8599997349083,15
-14.66196,0.4833332,-19.84494,-0.1739445618533093,-0.5314165668882433,-0.0189713069467565,6.986869,62.67625,0.618522,0.0548459,0.5188327,-0.02708904,11.8799997344613,15
-14.61065,0.6833332,-19.81162,-0.2642717667555843,-0.0919955953356108,-0.0872500553111308,10.47282,63.32846,0.9890683,0.08218861,0.5220597,-0.04059149,11.8999997340143,15
-14.55935,0.8833332,-19.77831,-0.3477429665563019,0.3364485452233736,-0.1520188017066921,13.95326,64.01189,1.405211,0.1094444,0.5247803,-0.05405072,11.9199997335672,15
-14.32085,0.2833334,-19.59863,-0.212675119388491,-0.1510614151032866,-0.0483119662875672,3.43342,61.40351,0.2906538,0.02705314,0.5102732,-0.01311553,11.9399997331202,15
-14.27086,0.4833333,-19.56524,-0.253470285059981,0.0707401340214457,-0.0812496057845493,6.862078,62.02719,0.6195022,0.05407142,0.514033,-0.02621026,11.9599997326732,15
-14.22089,0.6833332,-19.53186,-0.300410053710598,0.3092680267169885,-0.1194366193418936,10.2859,62.67587,0.9890784,0.08103166,0.5173108,-0.03927675,11.9799997322261,15
-14.17093,0.8833331,-19.49849,-0.3430633762878798,0.5122518238062188,-0.154433456973809,13.70429,63.35491,1.403088,0.1079091,0.5201037,-0.05230273,11.9999997317791,15
-14.00606,0.2833334,-19.37213,-0.2505213464135387,-0.2263310487913064,-0.0772544547489175,3.381275,59.85154,0.1918979,0.02640439,0.4986169,-0.0132676,12.0199997313321,15
-13.9569,0.4833333,-19.33935,-0.2847399801660604,-0.0421642465116117,-0.1038399249311972,6.758951,60.4635,0.4201879,0.05277419,0.5024331,-0.02651783,12.039999730885,15
-13.90775,0.6833333,-19.30658,-0.3134999137476377,0.1587290984025532,-0.1268757023771911,10.13299,61.09388,0.686987,0.07908899,0.5057933,-0.03974032,12.059999730438,15
-13.72679,0.2833333,-19.16907,-0.1857567293912332,-0.3162359526396391,-0.0268149552917158,3.328917,57.88792,0.08731851,0.02578674,0.4837303,-0.01339048,12.079999729991,15
-13.67858,0.4833333,-19.13666,-0.2050060546656205,-0.0818897071457933,-0.0446040244752978,6.655363,58.48858,0.2097857,0.05154081,0.487617,-0.02676289,12.0999997295439,15
-13.63038,0.6833335,-19.10425,-0.2202813462046311,0.1691832287339324,-0.0614036470820309,9.979359,59.10097,0.3686269,0.07724267,0.4910754,-0.04010782,12.1199997290969,15
-13.43346,0.2833333,-18.95644,-0.0620303447881607,-0.2556020974429874,0.0552707440096824,3.278955,56.14718,359.9697,0.02511966,0.4704193,-0.01369768,12.1399997286499,15
-13.38582,0.4833332,-18.92477,0.1030975089657886,-0.6913639216501803,0.1748115821155877,6.557095,56.73569,359.973,0.05021086,0.4743646,-0.02737968,12.1599997282028,15
-13.33819,0.683333,-18.8931,0.068413745765266,-0.2331255737130319,0.1374705934704643,9.833736,57.32865,0.01037293,0.07524929,0.4779053,-0.04103412,12.1799997277558,15
-13.29057,0.883333,-18.86145,0.0363209812283571,0.214135810898875,0.100589289424839,13.10886,57.93012,0.08291357,0.1002171,0.4810385,-0.05464977,12.1999997273088,15
-13.0472,0.2833332,-18.67748,0.2260334496699627,-0.2545567837587337,0.2343319650146433,3.224232,52.80703,359.8221,0.02450799,0.4445527,-0.01390081,12.2199997268617,15
-13.00069,0.4833332,-18.64571,0.2239564272789334,-0.013938106447458,0.2197562014726415,6.449128,53.3806,359.6762,0.04898861,0.4485968,-0.027786,12.2399997264147,15
-12.95418,0.6833333,-18.61395,0.2085403276024742,0.2434072372052457,0.19442654856641,9.67434,53.94985,359.562,0.07342191,0.4522689,-0.04164388,12.2599997259676,15
-12.90768,0.8833332,-18.58219,0.1901118938196422,0.4652086228102881,0.1667160333007924,12.8993,54.51843,359.4796,0.09778736,0.4555668,-0.05545964,12.2799997255206,15
-12.7328,0.2833333,-18.44826,0.3080132749816382,-0.25455661501199,0.2500130240855043,3.374913,52.67368,359.8142,0.02567183,0.4434974,-0.01451658,12.2999997250736,15
-12.68415,0.4833334,-18.41486,0.2810183173468683,-0.0515727298468911,0.2173740671964736,6.750564,53.24376,359.6618,0.05131345,0.4474766,-0.02901602,12.3199997246265,15
-12.63551,0.6833333,-18.38148,0.2501450246335519,0.1681377057932597,0.1823083021385709,10.12666,53.80916,359.5422,0.07690251,0.4510511,-0.04348532,12.3399997241795,15
-12.44308,0.2833333,-18.23675,0.3732181319605789,-0.2880101271570516,0.2719041288582424,3.538752,54.24963,359.8451,0.0268647,0.4557498,-0.01527975,12.3599997237325,15
-12.39152,0.4833333,-18.20259,0.3276872026076862,-0.0348466695824364,0.2301786607318927,7.078007,54.82034,359.7252,0.05369607,0.4596096,-0.0305415,12.3799997232854,15
-12.34,0.6833332,-18.16846,0.2737026799161342,0.2350433656479139,0.1832110580158854,10.61849,55.3884,359.6396,0.08047514,0.4630139,-0.04577661,12.3999997228384,15
-12.28848,0.8833333,-18.13433,0.2220507825824178,0.4693893530995008,0.1396204897129838,14.1586,55.95818,359.589,0.1071677,0.4659601,-0.06096222,12.4199997223914,15
-12.0484,0.2833333,-17.95337,0.3826519252164893,-0.2378312674564217,0.2651221301369979,3.575462,56.13347,359.948,0.02731463,0.4702831,-0.01507819,12.4399997219443,15
-11.99626,0.4833334,-17.91909,0.3174688694106837,-0.0223027378442835,0.2163919210722298,7.150528,56.71146,359.9319,0.054596,0.4740525,-0.03013885,12.4599997214973,15
-11.94413,0.6833332,-17.88483,0.2387475837991388,0.2099525946225224,0.1582131227023406,10.72458,57.29355,359.9524,0.08181542,0.4773445,-0.04516504,12.4799997210503,15
-11.89202,0.8833333,-17.85057,0.15758026752572,0.4066639711324905,0.0992639523229712,14.29719,57.88448,0.01053574,0.1089453,0.4801559,-0.0601416,12.4999997206032,15
-11.72704,0.2833333,-17.72212,0.2022832000775167,-0.3381911546914333,0.1444547311018258,3.570827,57.33494,0.08437409,0.02769016,0.4794722,-0.01430073,12.5199997201562,15
-11.67556,0.4833335,-17.68699,0.1135732833095879,-0.1602971436762862,0.0827833542781757,7.139554,57.92348,0.2061031,0.05534666,0.4831872,-0.02857918,12.5399997197092,15
-11.6241,0.6833335,-17.65186,0.0262144329479578,0.0343235378619338,0.0228995691240516,10.70582,58.52493,0.366255,0.08294038,0.4864167,-0.04282483,12.5599997192621,15
-11.44098,0.2833333,-17.5124,0.084002579556305,-0.4469140491903089,0.0874906218005424,3.595402,57.95597,0.1073103,0.02789669,0.4842092,-0.01437943,12.5799997188151,15
-11.38897,0.4833333,-17.47726,-0.0096056161167457,-0.2188402256696064,0.0320174775354935,7.188485,58.545,0.2518089,0.05575716,0.4878807,-0.02874011,12.5999997183681,15
-11.33697,0.6833333,-17.44214,-0.1014388800464569,0.0259600559815176,-0.0225153021947299,10.77911,59.14851,0.4350969,0.08355483,0.4910554,-0.04306969,12.619999717921,15
-11.13599,0.2833333,-17.29059,-0.1799912472923619,0.2352162370606291,-0.0672591852341462,3.641729,58.44526,0.1275292,0.02827377,0.4879268,-0.01454178,12.639999717474,15
-11.08318,0.4833336,-17.25517,-0.2363956740849424,0.2231937658660542,-0.066619672535074,7.280894,59.03473,0.2927909,0.05650993,0.4915504,-0.02906414,12.6599997170269,15
-11.03038,0.6833335,-17.21976,-0.299314988399912,0.2566468051369157,-0.0725852488962246,10.91714,59.64031,0.4977551,0.08467985,0.494661,-0.04355223,12.6799997165799,15
-10.97759,0.8833333,-17.18436,-0.3568845761770136,0.2822596386883338,-0.0760804757243089,14.55043,60.26746,0.7451804,0.1127574,0.4972556,-0.05799342,12.6999997161329,15
-10.72888,0.2833334,-16.99704,-0.2476721094777501,-0.3935982025033029,0.0779670678214063,3.596773,60.29439,0.2128357,0.02807003,0.5019246,-0.01415573,12.7199997156858,15
-10.67638,0.4833335,-16.96246,-0.3641673859628644,-0.1467068770616564,0.0533228211531682,7.190114,60.88939,0.4634178,0.05610333,0.5054865,-0.02829286,12.7399997152388,15
-10.6239,0.6833334,-16.92789,-0.4843849908567987,0.1169111492199772,0.0213149962524763,10.77958,61.5057,0.7543201,0.08407176,0.5085327,-0.04239723,12.7599997147918,15
-10.57144,0.8833333,-16.89333,-0.5964321319193404,0.3449847717604318,-0.0091250171984942,14.36442,62.14882,1.088742,0.1119444,0.5110604,-0.05645527,12.7799997143447,15
-10.39812,0.2833334,-16.76039,-0.5709107349716822,-0.3685079966096233,0.0878197171538328,3.528389,61.55118,0.2774013,0.02768877,0.5113688,-0.01367361,12.7999997138977,15
-10.34648,0.4833335,-16.72655,-0.6762718730408421,-0.1592513971919167,0.070909402955543,7.052711,62.14936,0.592117,0.05534232,0.5148985,-0.02732978,12.8199997134507,15
-10.29484,0.6833334,-16.69273,-0.7669979736408106,0.0667315439671344,0.0558076060684467,10.57247,62.77234,0.9471011,0.0829338,0.5179208,-0.04095514,12.8399997130036,15
-10.10517,0.2833333,-16.54789,-0.697132776763806,-0.3831434463192609,0.1728382906209038,3.466491,61.36383,0.3043936,0.0273669,0.5099672,-0.0131503,12.8599997125566,15
-10.05481,0.4833334,-16.51398,-0.7786060813251758,-0.1237072486181151,0.1595151819869773,6.928318,61.96221,0.6457552,0.05469851,0.5135147,-0.02628068,12.8799997121096,15
-10.00446,0.6833332,-16.48009,-0.8508849804030083,0.1524555309204074,0.1423181202885786,10.38527,62.58646,1.026904,0.08197041,0.5165727,-0.03938163,12.8999997116625,15
-9.954128,0.8833331,-16.44621,-0.9037321404571816,0.3930744669708818,0.1297585362226687,13.83677,63.24191,1.451617,0.1091569,0.5191388,-0.05244118,12.9199997112155,15
-9.717216,0.2833332,-16.26515,-0.735665150526259,-0.3078734531841254,0.2886097080411574,3.410809,60.13139,0.2437851,0.02682158,0.5007148,-0.0130694,12.9399997107685,15
-9.667901,0.4833332,-16.23158,-0.7768103520030962,-0.0860720045059565,0.2743984531472669,6.817533,60.72147,0.5232247,0.05360813,0.5043088,-0.02612002,12.9599997103214,15
-9.6186,0.6833333,-16.19802,-0.8165940651981511,0.1524557997652467,0.2521397296288423,10.22016,61.3331,0.8406622,0.08033795,0.507438,-0.03914281,12.9799997098744,15
-9.569313,0.8833332,-16.16447,-0.8450076184279007,0.3554397733546841,0.2303335644922306,13.61821,61.97124,1.199304,0.106987,0.5100999,-0.05212603,12.9999997094274,15
-9.410186,0.2833333,-16.04076,-0.7369588918255294,-0.383142870733438,0.3145721568812689,3.355627,58.12128,0.1433144,0.02620031,0.4854944,-0.01312917,13.0199997089803,15
-9.361959,0.4833334,-16.00748,-0.7469628121164762,-0.1989760408374732,0.2909601837901352,6.708214,58.69976,0.3209083,0.05236709,0.4891571,-0.02623968,13.0399997085333,15
-9.313746,0.6833334,-15.9742,-0.7438496507416525,0.0019170102291101,0.2675881586374817,10.05788,59.29321,0.5342988,0.07848041,0.4923843,-0.03932329,13.0599997080863,15
-9.141382,0.2833333,-15.8342,-0.5753211598097705,-0.4730478978531416,0.3634848162845578,3.304204,55.1282,0.004067523,0.02557459,0.4625474,-0.01330965,13.0799997076392,15
-9.094297,0.4833334,-15.80095,-0.5469646738192022,-0.2387013126878684,0.3382403905025732,6.607216,55.69258,0.04075943,0.05111979,0.4663067,-0.0266036,13.0999997071922,15
-9.047222,0.6833333,-15.76771,-0.5091146388850625,0.0123718271341017,0.3116875110053119,9.908384,56.26331,0.1110024,0.07661232,0.4696637,-0.03986724,13.1199997067451,15
-9.00016,0.8833334,-15.73448,-0.452007825767982,0.2279008705656989,0.2923547445170058,13.20772,56.84439,0.2157876,0.1020322,0.4726157,-0.0530927,13.1399997062981,15
-8.788275,0.2833332,-15.54639,-0.3536897115847965,0.2221511602316392,0.2983118966085794,3.248037,51.05243,359.8618,0.0250547,0.4307814,-0.01330067,13.1599997058511,15
-8.742866,0.4833332,-15.51241,-0.2609960631530281,0.2618764725917063,0.2936887323936528,6.496283,51.60228,359.7546,0.05008134,0.4346581,-0.026586,13.179999705404,15
-8.69747,0.6833333,-15.47844,-0.1641379515484295,0.293761183282952,0.2871895260347497,9.74443,52.14989,359.6783,0.07505926,0.4381707,-0.03984489,13.199999704957,15
-8.511928,0.2833333,-15.30771,0.108169020296871,-0.3758244862243395,0.4202969489748636,3.196531,47.79039,359.7823,0.02473126,0.404955,-0.01303453,13.21999970451,15
-8.46825,0.4833333,-15.27283,0.1492325534023706,-0.1226610162790272,0.3694161118794721,6.394057,48.33196,359.5945,0.04943552,0.4089218,-0.02605446,13.2399997040629,15
-8.424586,0.6833334,-15.23796,0.1780617593953239,0.1472286988813503,0.3063810749328937,9.592237,48.86663,359.436,0.07409279,0.4125552,-0.0390491,13.2599997036159,15
-8.380929,0.8833331,-15.2031,0.2042921670881226,0.3815743646948484,0.2400413460078905,12.79061,49.39779,359.3072,0.09868491,0.4158535,-0.05200097,13.2799997031689,15
-8.22717,0.2833333,-15.05873,0.3674027297456437,-0.3256461281467087,0.2837317858993469,3.531203,49.22854,359.8093,0.02731825,0.4163555,-0.01434485,13.2999997027218,15
-8.178459,0.4833334,-15.02074,0.3856772825275536,-0.1101174755245539,0.2105245610645649,7.063113,49.76907,359.6517,0.05460254,0.4201598,-0.02867188,13.3199997022748,15
-8.129769,0.6833333,-14.98277,0.3987845547542417,0.122137747958166,0.1352094742169836,10.59667,50.30431,359.5261,0.08183517,0.4235496,-0.04297432,13.3399997018278,15
-7.954473,0.2833334,-14.8306,0.4165300468552546,0.3188489953598847,0.0668482864907797,3.56177,51.4901,359.8772,0.02752712,0.4341874,-0.01446384,13.3599997013807,15
-7.904677,0.4833333,-14.79335,0.4639453711852379,0.2942818339815467,0.025740246758195,7.123765,52.03518,359.7875,0.05501874,0.4379025,-0.02891465,13.3799997009337,15
-7.854895,0.6833333,-14.7561,0.4950678410730216,0.3151900397602301,-0.0232712388230353,10.68543,52.57936,359.7314,0.08244815,0.44118,-0.04333253,13.3999997004867,15
-7.805128,0.8833333,-14.71887,0.5201889876448149,0.3282579893783939,-0.0709717268557383,14.24644,53.12693,359.7095,0.1097883,0.4440171,-0.05770311,13.4199997000396,15
-7.576125,0.2833333,-14.53335,0.7069467197651926,-0.3601447733812899,0.0154726215657738,3.589653,53.81452,0.03398261,0.02806389,0.4523174,-0.0139097,13.4399996995926,15
-7.526101,0.4833333,-14.49565,0.6646272003754046,-0.1257982742881815,-0.0705714128840639,7.178022,54.37223,0.1031294,0.05609395,0.455936,-0.02780143,13.4599996991456,15
-7.476091,0.6833332,-14.45795,0.6037259533743828,0.125274807426365,-0.162532577611195,10.76452,54.93932,0.2084321,0.08405978,0.459093,-0.04166119,13.4799996986985,15
-7.426095,0.8833331,-14.42027,0.534550280783102,0.3408035934255277,-0.2512346564108618,14.34878,55.52061,0.351777,0.1119336,0.4617856,-0.05547488,13.4999996982515,15
-7.268279,0.2833333,-14.29163,0.5906259476245515,-0.3852341302270771,-0.2277129981103449,3.559823,55.46276,0.1135409,0.02795352,0.4650749,-0.01357659,13.5199996978045,15
-7.218414,0.4833334,-14.25455,0.5116360314838895,-0.1885225920268885,-0.3034229366576788,7.117163,56.02559,0.2620767,0.05586914,0.4686366,-0.0271366,13.5399996973574,15
-7.168563,0.6833333,-14.21747,0.4264763345136142,0.0249153009822764,-0.3725470739759089,10.67186,56.60275,0.4475402,0.08372191,0.4717314,-0.04066567,13.5599996969104,15
-6.985444,0.2833335,-14.07683,0.4864666522662357,-0.4375047387607674,-0.3137055547848195,3.634366,56.53299,0.133844,0.02848201,0.4733022,-0.01398903,13.5799996964633,15
-6.93399,0.4833335,-14.03966,0.3949207918320327,-0.1906133794303842,-0.3719892862745482,7.266248,57.0965,0.3036954,0.05692676,0.476789,-0.02795981,13.5999996960163,15
-6.882556,0.6833335,-14.0025,0.2963317280497346,0.0730044260081951,-0.4240462803348261,10.8959,57.67609,0.5111942,0.08530855,0.4797809,-0.04190303,13.6199996955693,15
-6.831137,0.8833334,-13.96536,0.2015093677557908,0.3010783584258679,-0.460449491837231,14.52222,58.27703,0.7594888,0.1135948,0.4822755,-0.05579891,13.6399996951222,15
-6.600711,0.2833333,-13.78832,0.3122682472146527,-0.4124145954175076,-0.3193888179305375,3.621768,57.31482,0.1574107,0.02838806,0.4792933,-0.01394994,13.6599996946752,15
-6.54918,0.4833333,-13.75164,0.2264652679677663,-0.2031579709099383,-0.3478677886190002,7.240772,57.87831,0.3507434,0.05673873,0.4827435,-0.02788152,13.6799996942282,15
-6.497663,0.6833332,-13.71497,0.1330009896584334,0.0228252325601336,-0.3722041269279383,10.85665,58.45936,0.5821486,0.08502343,0.4856962,-0.04178048,13.6999996937811,15
-6.294829,0.2833333,-13.5539,0.2120288672825943,-0.4270497240117608,-0.250424785292914,3.558776,59.58672,0.254712,0.02805077,0.4965726,-0.01350042,13.7199996933341,15
-6.243701,0.4833332,-13.5184,0.1196337141559849,-0.1676135077545725,-0.2842858623797895,7.113859,60.1573,0.5452992,0.05606557,0.4999617,-0.02698362,13.7399996928871,15
-6.192588,0.683333,-13.48291,0.0185186483908963,0.1085492751815376,-0.3200058194482267,10.66477,60.75121,0.8745811,0.08401656,0.5028515,-0.04043598,13.75999969244,15
-6.141489,0.8833328,-13.44743,-0.0799744919712353,0.3491679593751006,-0.3487809724703368,14.21066,61.37366,1.245814,0.1118723,0.5052397,-0.05384539,13.779999691993,15
-5.968733,0.2833332,-13.31406,-0.0286235736649098,-0.3517796685875576,-0.2545431118689443,3.495086,60.51237,0.3018568,0.02766814,0.5035617,-0.01309139,13.799999691546,15
-5.918416,0.4833331,-13.27922,-0.097081027183381,-0.1299782758388746,-0.2793719432563701,6.986021,61.08455,0.6391107,0.05530159,0.5069294,-0.0261664,13.8199996910989,15
-5.868111,0.6833332,-13.24439,-0.1628223097631922,0.1085495645861241,-0.3014972636313047,10.47191,61.68242,1.014747,0.08287062,0.5098075,-0.03921099,13.8399996906519,15
-5.81782,0.8833331,-13.20957,-0.2153804642296859,0.3115335335583294,-0.3126550649230921,13.95265,62.31114,1.43266,0.1103527,0.5121937,-0.05221407,13.8599996902049,15
-5.598001,0.2833332,-13.03933,-0.2144380080019483,0.293238946521773,-0.2962005760158295,3.433293,59.95369,0.2945257,0.02723282,0.4993575,-0.0127424,13.8799996897578,15
-5.548892,0.4833333,-13.00465,-0.2193800147030629,0.3204195937879366,-0.2845388692431108,6.862063,60.52245,0.6238092,0.05442972,0.5027511,-0.02546552,13.8999996893108,15
-5.499797,0.6833334,-12.96998,-0.2197096806768987,0.3397596524529126,-0.2692808966782483,10.28637,61.11581,0.9905226,0.08156872,0.5056758,-0.03816122,13.9199996888638,15
-5.303282,0.2833333,-12.81948,-0.0486142381457739,-0.3423710145889477,-0.1161909930825757,3.381715,58.39629,0.1918226,0.02657378,0.4875752,-0.01293366,13.9399996884167,15
-5.254947,0.4833333,-12.78548,-0.0865500734378454,-0.1017523274333866,-0.1348239963564825,6.760019,58.95376,0.4167853,0.05311249,0.4910264,-0.02585064,13.9599996879697,15
-5.206626,0.6833333,-12.75149,-0.132112654348353,0.1555928207274763,-0.159409856825496,10.13499,59.52905,0.6769893,0.07959627,0.4940345,-0.03874073,13.9799996875226,15
-5.158319,0.8833331,-12.71752,-0.1748803091606703,0.3773941240935292,-0.181937886905521,13.5062,60.12666,0.9751403,0.1060015,0.4965973,-0.05159222,13.9999996870756,15
-4.994564,0.2833332,-12.59007,-0.0825907399222711,-0.3423709770412733,-0.0953454734524648,3.328635,56.88567,0.09405226,0.02592868,0.4760596,-0.01311161,14.0199996866286,15
-4.946976,0.4833332,-12.55674,-0.1099418115556081,-0.1393870564193209,-0.1119091468173341,6.654845,57.43206,0.2199527,0.05182396,0.4795603,-0.0262067,14.0399996861815,15
-4.899401,0.6833331,-12.52343,-0.1313460693400507,0.0803233129243553,-0.125816788248402,9.978748,57.98997,0.3790338,0.07766708,0.4826421,-0.03927533,14.0599996857345,15
-4.719941,0.2833333,-12.38513,-0.1363895819555676,0.26448970514162,-0.1289732670954322,3.278909,55.04359,359.9688,0.02524676,0.4619038,-0.01346127,14.0799996852875,15
-4.672895,0.4833333,-12.35259,-0.1024766786230246,0.2273773284347702,-0.0983205996424132,6.55699,55.57736,359.9682,0.05046483,0.4654629,-0.02690714,14.0999996848404,15
-4.625862,0.6833333,-12.32005,-0.0716378321991411,0.2357402917042558,-0.0715252806440016,9.833651,56.11495,-0.001588303,0.0756301,0.4686272,-0.04032625,14.1199996843934,15
-4.578842,0.8833333,-12.28752,-0.0335883685820723,0.236262637623756,-0.0404239402530581,13.10893,56.66004,0.06045025,0.1007247,0.4713947,-0.05370738,14.1399996839464,15
-4.352862,0.2833333,-12.11221,0.1690666249101808,-0.4646855451907423,0.1209434136551497,3.2241,51.65065,359.8199,0.02463788,0.4354959,-0.01366903,14.1599996834993,15
-4.306957,0.4833333,-12.07955,0.166584671315948,-0.2428843902730381,0.1200381226563163,6.44875,52.16959,359.6689,0.04924846,0.4391489,-0.02732265,14.1799996830523,15
-4.261065,0.6833333,-12.04691,0.1599755521965746,-0.004356670767237,0.1148256603128423,9.673675,52.68354,359.5463,0.07381181,0.4424402,-0.04094975,14.1999996826053,15
-4.056925,0.2833334,-11.8899,0.3242990598289061,-0.4416869928234959,0.2444300245548358,3.374639,51.44112,359.8112,0.02581294,0.4338374,-0.0142622,14.2199996821582,15
-4.00896,0.4833333,-11.85553,0.3024068460492939,-0.169706130289799,0.2204505372592038,6.749926,51.95722,359.6526,0.05159584,0.4374343,-0.02850776,14.2399996817112,15
-3.961009,0.6833333,-11.82117,0.2664754250047942,0.11900141740272,0.1852539303144755,10.12555,52.46783,359.5235,0.07732565,0.4406378,-0.04272379,14.2599996812642,15
-3.913078,0.8833333,-11.78683,0.2268065484555868,0.3721650253422716,0.1472096327696288,13.50249,52.97645,359.4237,0.1029896,0.4434447,-0.05690197,14.2799996808171,15
-3.737859,0.2833334,-11.652,0.1936989190467406,0.4236850164737015,0.1146861850740954,3.538672,53.36294,359.849,0.02699657,0.4488519,-0.01504114,14.2999996803701,15
-3.686866,0.4833333,-11.61702,0.1923494059468173,0.3558025448783874,0.1124715517606755,7.077699,53.87988,359.7296,0.0539597,0.452321,-0.03006477,14.3199996799231,15
-3.635896,0.6833333,-11.58206,0.1815610485138314,0.333883454019983,0.1036283965014099,10.61787,54.39373,359.641,0.08087015,0.4553442,-0.04506319,14.339999679476,15
-3.584941,0.8833333,-11.54711,0.1720565114304539,0.3046115618959338,0.0967531131514842,14.15766,54.90843,359.584,0.1076942,0.4579194,-0.0600131,14.359999679029,15
-3.363603,0.2833335,-11.37582,0.3128856860610816,-0.4256430413096537,0.2135409104184091,3.575347,55.12918,359.9456,0.0274353,0.4625361,-0.01485604,14.379999678582,15
-3.312033,0.4833333,-11.34069,0.2553179739253939,-0.232660501414158,0.172962532477932,7.150345,55.65304,359.9239,0.05483771,0.4659241,-0.02969494,14.3999996781349,15
-3.260477,0.6833333,-11.30557,0.1923103467815977,-0.0224637244159837,0.1281854890045135,10.72437,56.18015,359.9351,0.08217779,0.4688452,-0.0445,14.4199996776879,15
-3.062474,0.2833333,-11.15255,0.2904428070515978,-0.4876371168789249,0.2132053091240831,3.57129,56.21271,0.08036567,0.02781598,0.4708616,-0.01406162,14.4399996772408,15
-3.011635,0.4833333,-11.11649,0.2080368803557591,-0.2430113464546413,0.1566024145554614,7.140639,56.74771,0.1947831,0.05559845,0.4742066,-0.02810105,14.4599996767938,15
-2.96081,0.6833332,-11.08044,0.1142191332859293,0.0188288739876762,0.0913430298146416,10.70775,57.29469,0.3441707,0.0833181,0.4770776,-0.04210839,14.4799996763468,15
-2.91,0.8833332,-11.0444,0.0199944993103901,0.2456128923555472,0.0260781496971436,14.27223,57.85831,0.5306679,0.1109473,0.4794721,-0.05606968,14.4999996758997,15
-2.745043,0.2833334,-10.91557,0.1429798429107783,-0.468681611483732,0.1340451591423672,3.594894,57.16896,0.1110263,0.0280064,0.4781917,-0.01415691,14.5199996754527,15
-2.693542,0.4833333,-10.8797,0.1235597280723507,-0.259738971699225,0.1264818708371997,7.187582,57.7048,0.2558984,0.05597669,0.4814822,-0.02829553,14.5399996750057,15
-2.642058,0.6833333,-10.84384,0.0972720204493508,-0.0335818675222818,0.1129913135111557,10.77798,58.25465,0.4360822,0.08388386,0.4842849,-0.04240439,14.5599996745586,15
-2.590588,0.8833332,-10.80799,0.0756944321425746,0.15751916952534,0.1027524728370075,14.36545,58.82335,0.6542684,0.111699,0.4865977,-0.05646628,14.5799996741116,15
-2.3778,0.2833333,-10.64163,0.0430908162404449,0.1278294554103751,0.0873908347129202,3.636195,57.5415,0.1286038,0.02834979,0.4810324,-0.0142869,14.5999996736646,15
-2.325626,0.4833333,-10.60544,0.0039733842748696,0.1441029805533792,0.0667073607427219,7.269992,58.07713,0.2914639,0.05666222,0.4842791,-0.0285549,14.6199996732175,15
-2.273466,0.6833333,-10.56927,-0.0299371072599479,0.15302378919614,0.0499813420333659,10.90106,58.62819,0.4904808,0.08490855,0.4870244,-0.0427893,14.6399996727705,15
-2.083474,0.2833334,-10.42275,-0.0469188345662913,0.1012758188614153,0.0465095960054533,3.589009,59.14859,0.2018985,0.02810419,0.4932609,-0.0139239,14.6599996723235,15
-2.031683,0.4833333,-10.38739,-0.0675491483028605,0.0421751458781427,0.0435535982216723,7.174943,59.68933,0.4380272,0.05617195,0.496464,-0.02782983,14.6799996718764,15
-1.979907,0.6833333,-10.35203,-0.0931559887662214,0.029037726527238,0.0355992948747818,10.75739,60.24993,0.710817,0.08417514,0.4991652,-0.04170354,14.6999996714294,15
-1.773586,0.2833333,-10.19397,-0.1119227347070169,0.0085476045277841,0.031810483559191,3.52679,60.29401,0.2709608,0.02779683,0.5019182,-0.0134106,14.7199996709824,15
-1.722646,0.4833333,-10.15914,-0.1404793809678921,0.0073627446912515,0.0207674439921188,7.049855,60.83915,0.5759644,0.05555854,0.5050977,-0.02680398,14.7399996705353,15
-1.671722,0.6833333,-10.12432,-0.1778395245115593,0.0521412318771282,-0.0003983756013541,10.56876,61.40804,0.917828,0.08325806,0.5077825,-0.04016718,14.7599996700883,15
-1.620809,0.8833331,-10.08951,-0.2130591172979206,0.0895670036081738,-0.0230357704722408,14.08266,62.00568,1.300152,0.1108661,0.5099708,-0.05348569,14.7799996696413,15
-1.569911,0.9766704,-10.05471,-0.2351560196496043,0.0663239974071436,-0.0384661365228682,17.59134,62.63781,1.727425,0.1383586,0.5116606,-0.06674819,14.7999996691942,15
-1.368203,0.2833333,-9.894406,-0.2647849102160242,0.0357281695549585,-0.0582995180613048,3.459388,60.3026,0.3072167,0.0274463,0.5019845,-0.01284387,14.8199996687472,15
-1.318593,0.4833333,-9.85962,-0.2942274663415669,0.051095702576874,-0.0806304080370985,6.914275,60.84787,0.6481455,0.05485656,0.5051703,-0.0256676,14.8399996683002,15
-1.268998,0.6833333,-9.824843,-0.3130633731658696,0.0591105334729482,-0.0968331750655373,10.36471,61.4185,1.025474,0.08220766,0.5078789,-0.03846342,14.8599996678531,15
-1.089802,0.2833333,-9.684099,-0.3108766379057718,0.0064567059622629,-0.0982883757234942,3.406229,58.91961,0.2343525,0.02688304,0.4915416,-0.01283704,14.8799996674061,15
-1.041174,0.4833333,-9.649697,-0.3120460326216043,-0.0535500637703048,-0.0977209223270554,6.808736,59.45626,0.5010763,0.05373108,0.4947797,-0.0256561,14.899999666959,15
-0.9925596,0.6833332,-9.615305,-0.316438648126478,-0.0675933669551495,-0.1000220625219299,10.20758,60.01323,0.8024387,0.08052284,0.4975655,-0.03844796,14.919999666512,15
-0.7979801,0.2833334,-9.463339,-0.313732889018814,-0.0889894800302786,-0.0967587966931304,3.354418,57.15252,0.1438272,0.02630325,0.4780905,-0.01289824,14.939999666065,15
-0.7503294,0.4833333,-9.429272,-0.3230535642933139,-0.0910801986108893,-0.1013544639876586,6.705999,57.67923,0.3188406,0.0525731,0.4813892,-0.02577873,14.9599996656179,15
-0.7026921,0.6833333,-9.395214,-0.3418976379024787,-0.0472076646045426,-0.1155314860301528,10.05485,58.22034,0.5265503,0.07878936,0.484262,-0.03863282,14.9799996651709,15
-0.6550685,0.8833332,-9.361166,-0.3598707460049699,-0.0106877142441362,-0.1309616255751331,13.40064,58.78001,0.7692145,0.1049294,0.4867066,-0.05144903,14.9999996647239,15
-0.413855,0.2833333,-9.172918,-0.2005241050235102,-0.6751505908316437,-0.0054325988701018,3.300357,54.93995,-0.004514024,0.02553211,0.4610935,-0.01331855,15.0199996642768,15
-0.366826,0.4833333,-9.139703,-0.1750835263276267,-0.4163764540361383,0.0087619616826666,6.599648,55.45141,0.02046095,0.05103502,0.4644587,-0.02662182,15.0399996638298,15
-0.3198086,0.6833333,-9.106494,-0.1521329921314038,-0.1403878640863678,0.0192642328378065,9.897236,55.96807,0.07532939,0.0764837,0.4674263,-0.03989813,15.0599996633828,15
-0.2728047,0.8833332,-9.073295,-0.1213176960710695,0.1005445397314763,0.0345283663576498,13.19326,56.49358,0.1613358,0.1018605,0.469994,-0.05313658,15.0799996629357,15
-0.1030372,0.2833334,-8.938432,-0.0722753161496214,0.1403210521361479,0.0630214143751066,3.244103,53.03346,359.9069,0.02496614,0.4463007,-0.01336415,15.0999996624887,15
-0.05698942,0.4833334,-8.905489,-0.0285189461386679,0.0611832919812871,0.0894281271327717,6.48793,53.53523,359.8422,0.04990437,0.4497204,-0.02671325,15.1199996620417,15
-0.01095474,0.6833334,-8.872556,0.0117196664006495,0.0284966620027333,0.1107078538274839,9.731256,54.03684,359.8057,0.07479451,0.4527673,-0.04003636,15.1399996615946,15
0.03506947,0.8833333,-8.839631,0.0586648361579196,-0.0110547940804249,0.1353894521561782,12.97349,54.54158,359.7981,0.09961419,0.4554394,-0.05331986,15.1599996611476,15
0.2521459,0.2833333,-8.666742,0.0929004904631449,-0.0308131114567252,0.1530168032417238,3.26927,50.34755,359.7957,0.0250584,0.4252373,-0.01374691,15.1799996607006,15
0.2981937,0.4833333,-8.632873,0.1184481961433472,-0.0041203119857013,0.1624979623236244,6.539246,50.83768,359.6191,0.05008875,0.4287023,-0.02747821,15.1999996602535,15
0.3442284,0.6833333,-8.599012,0.1456300643361592,0.0157076613807132,0.1725136182231041,9.809657,51.32113,359.4695,0.07507019,0.4318053,-0.04118235,15.2199996598065,15
0.5416179,0.2833334,-8.44453,-0.0007787458381667,0.695642860888681,0.0444505703624242,3.531316,51.89822,359.8254,0.02703888,0.4374066,-0.01485178,15.2399996593595,15
0.5918775,0.4833334,-8.408664,0.0406208311972515,0.4914393672996622,0.0727226185140192,7.063062,52.3886,359.6808,0.05404426,0.4407306,-0.02968521,15.2599996589124,15
0.6421097,0.6833334,-8.372813,0.0697175306171882,0.3091198470387249,0.0921904059192195,10.5969,52.87407,359.5651,0.08100352,0.4436224,-0.04449658,15.2799996584654,15
0.6923271,0.8833333,-8.336973,0.0972174037826683,0.094323173013525,0.1117400655508253,14.13071,53.3583,359.4786,0.1078776,0.4460799,-0.05926082,15.2999996580184,15
0.8560777,0.2833333,-8.207103,0.296577486918939,-0.7195798498792405,0.2738368801837421,3.563657,53.66438,359.8903,0.02731405,0.451187,-0.01488889,15.3199996575713,15
0.9071548,0.4833333,-8.171581,0.3140733433717857,-0.5106373053142435,0.2867300043419503,7.127364,54.15871,359.8109,0.05459395,0.4544346,-0.02976249,15.3399996571243,15
0.9582173,0.6833333,-8.136069,0.3230032428119331,-0.2844803075949784,0.2933122851497449,10.6906,54.65236,359.7619,0.08181229,0.4572302,-0.04460228,15.3599996566772,15
1.009265,0.8833333,-8.100568,0.3343606880105736,-0.0933794020948953,0.3025399164054079,14.2531,55.1492,359.7439,0.1089424,0.4595716,-0.05939363,15.3799996562302,15
1.21937,0.2833333,-7.931704,0.2035344820942097,0.6168534753812118,0.1961512648634977,3.587352,55.12337,0.04925232,0.02794702,0.4624646,-0.01410197,15.3999996557832,15
1.270067,0.4833333,-7.894974,0.2414520395699937,0.3308981887382486,0.232233430676084,7.173315,55.63078,0.1309571,0.05586205,0.4656467,-0.02818231,15.4199996553361,15
1.32075,0.6833332,-7.858255,0.277043688853761,0.0668268780368968,0.2662969027993052,10.75738,56.1479,0.2457291,0.08371346,0.4683602,-0.04223029,15.4399996548891,15
1.508581,0.2833333,-7.709401,0.1464106384405261,0.4905660650905324,0.1663852504750593,3.567238,55.845,0.09323647,0.0278823,0.4680274,-0.01385654,15.4599996544421,15
1.559014,0.4833333,-7.67289,0.154535881672758,0.2702625867470888,0.1820238806731335,7.132368,56.35491,0.2184119,0.05572811,0.4711842,-0.02769485,15.479999653995,15
1.609433,0.6833333,-7.636389,0.1573687757969861,0.0718430843452537,0.1922197392777835,10.69521,56.87723,0.3770099,0.08351101,0.4738721,-0.04150176,15.499999653548,15
1.815435,0.2833333,-7.474448,0.1663822998161368,-0.159053689255334,0.206272622259692,3.645813,56.53268,0.1262825,0.02853875,0.4733001,-0.01409432,15.519999653101,15
1.86714,0.4833333,-7.437295,0.1150029918345536,-0.1567193546506661,0.1765966186216339,7.289323,57.0446,0.2853943,0.05703988,0.4763944,-0.02817005,15.5399996526539,15
1.918831,0.6833332,-7.400153,0.0472459027202125,-0.1079338872561594,0.1332304791324245,10.93022,57.57155,0.479194,0.08547427,0.478994,-0.04221257,15.5599996522069,15
1.970503,0.8833331,-7.363024,-0.0255051389882439,-0.0660133500717645,0.085453895639759,14.56884,58.11832,0.7102247,0.1138177,0.481096,-0.05621074,15.5799996517599,15
2.022161,0.9766704,-7.325905,-0.0918644582079828,-0.084273459805064,0.0425561263723892,18.20405,58.6903,0.982033,0.142036,0.4826992,-0.07014664,15.5999996513128,15
2.22354,0.2833333,-7.164268,-0.0845941658501541,-0.1093985002711764,0.0608351953294077,3.60909,57.9933,0.1825938,0.02831471,0.4844736,-0.01387204,15.6199996508658,15
2.275093,0.4833333,-7.127974,-0.0896472960805123,-0.0880724223218544,0.0687603142884265,7.215367,58.50789,0.3979352,0.05659244,0.4875194,-0.02772603,15.6399996504188,15
2.326632,0.6833333,-7.09169,-0.0950263213132904,-0.0736111827607177,0.0759336399321402,10.81848,59.04092,0.648283,0.08480467,0.4900682,-0.0415478,15.6599996499717,15
2.505445,0.2833334,-6.949055,-0.0887371245460846,-0.1193307250624001,0.0919628835599102,3.544585,59.22671,0.2542157,0.02798331,0.4938473,-0.01335482,15.6799996495247,15
2.556151,0.4833333,-6.913386,-0.1272929407768224,-0.171914973420671,0.0724057457555584,7.08572,59.74607,0.5410137,0.05593098,0.4968693,-0.02669249,15.6999996490777,15
2.606843,0.6833333,-6.877727,-0.1648719071965247,-0.1780480916026309,0.0498048191729818,10.62302,60.28796,0.863095,0.08381575,0.4994013,-0.03999998,15.7199996486306,15
2.657522,0.8833332,-6.842076,-0.1903977365123257,-0.1910460358891998,0.0331116603419197,14.15566,60.8572,1.223862,0.1116074,0.5014414,-0.05326289,15.7399996481836,15
2.882454,0.2833333,-6.661392,-0.3744838417817577,0.4560631259177651,-0.1135210693827692,3.476676,59.30115,0.3019359,0.02766576,0.4944103,-0.01271817,15.7599996477365,15
2.931756,0.4833333,-6.625676,-0.3720541717134766,0.2190335807760492,-0.106128879996171,6.949492,59.82233,0.6360189,0.05529729,0.4974407,-0.02542027,15.7799996472895,15
2.981048,0.6833333,-6.589971,-0.372068204961069,0.0038879945880153,-0.1041637993340387,10.41759,60.36846,1.005518,0.08286664,0.4999979,-0.03808989,15.7999996468425,15
3.182835,0.2833334,-6.429115,-0.3639895336958023,-0.2437349870284382,-0.0987425910829857,3.417778,58.53292,0.2684891,0.02715964,0.4885921,-0.01253574,15.8199996463954,15
3.231095,0.4833333,-6.393783,-0.3203604939231752,-0.2581266388996353,-0.0635954503689868,6.831598,59.04905,0.5683019,0.05428362,0.4916574,-0.02505354,15.8399996459484,15
3.279341,0.6833333,-6.358461,-0.2829760953742424,-0.2260672699270814,-0.034243345521264,10.24155,59.58743,0.901914,0.08135042,0.4942707,-0.03754478,15.8599996455014,15
3.327573,0.8833333,-6.323149,-0.2412219111171261,-0.2008727168663794,-0.001751551996918,13.64721,60.15253,1.272565,0.1083355,0.49643,-0.04999803,15.8799996450543,15
3.375791,0.9766705,-6.287848,-0.1844829423801766,-0.2358590432401827,0.0428282320211632,17.04804,60.74941,1.684268,0.1352143,0.4981339,-0.06240182,15.8999996446073,15
3.575016,0.2833334,-6.12498,-0.0903577840440172,-0.2777099603269003,0.1183080355535777,3.362265,56.28216,0.14292,0.02645708,0.4714086,-0.01273735,15.9199996441603,15
3.622273,0.4833333,-6.090141,-0.0063683261418931,-0.2731097519416601,0.1833744287291123,6.721744,56.78422,0.3156096,0.0528801,0.4745414,-0.02545734,15.9399996437132,15
3.669517,0.6833333,-6.055311,0.0783473395147567,-0.275374254317355,0.2469869463050562,10.07861,57.30044,0.5196099,0.07924922,0.4772535,-0.03815112,15.9599996432662,15
3.845584,0.2833333,-5.912652,0.0099887234993776,0.3824683585478258,0.1834829136324431,3.30619,54.31668,0.02000338,0.02574706,0.4562567,-0.01301243,15.9799996428192,15
3.892086,0.4833333,-5.87853,0.0732993560252079,0.1561723808534083,0.2313529072031315,6.611111,54.80628,0.06831003,0.05146461,0.4594521,-0.02600995,15.9999996423721,15
3.938576,0.6833333,-5.844414,0.136592394285465,-0.0482397472198852,0.2762144965413062,9.914131,55.30232,0.1455725,0.07712768,0.4622537,-0.03898032,16.0199996419251,15
4.129708,0.2833333,-5.69014,0.0237019986496758,0.4351587357146592,0.1763597067298761,3.254631,52.41045,359.9217,0.02517767,0.4414269,-0.01315328,16.0399996414781,15
4.175391,0.4833333,-5.656393,-0.0910838280177603,0.9148285271726124,0.0731047580159329,6.508846,52.89006,359.8705,0.05032721,0.4446779,-0.02629177,16.059999641031,15
4.22106,0.6833332,-5.622655,-0.0234125086918099,0.485792704077042,0.1246457442217088,9.762412,53.37015,359.8466,0.07542794,0.4475589,-0.03940453,16.079999640584,15
4.266718,0.8833332,-5.588926,0.0404268839592667,0.0530284157492245,0.1705081759868338,13.01479,53.85389,359.8504,0.1004572,0.450068,-0.0524788,16.099999640137,15
4.502816,0.2833333,-5.396789,0.1109684904421692,-0.3108248697159116,0.2196806086754219,3.202204,49.11957,359.7875,0.02464264,0.4155267,-0.01329903,16.1199996396899,15
4.547333,0.4833333,-5.362834,0.1701708122997569,-0.3423262577602424,0.2613941835102431,6.405102,49.58596,359.6009,0.04925834,0.4188601,-0.02658334,16.1399996392429,15
4.591837,0.6833333,-5.328889,0.2174831479741863,-0.3278643984446744,0.2919224610040967,9.608461,50.04498,359.4393,0.07382755,0.4218543,-0.03984214,16.1599996387959,15
4.636332,0.8833332,-5.294954,0.2635092675656771,-0.320755354769147,0.3204382632611291,12.8118,50.49947,359.3027,0.09833008,0.4245075,-0.05306075,16.1799996383488,15
4.809057,0.2833333,-5.154229,0.1660435230675476,0.3459729249897885,0.2284374373864564,3.532405,50.59417,359.8097,0.02715625,0.4271545,-0.01467087,16.1999996379018,15
4.858695,0.4833333,-5.117428,0.1869583604102915,0.1280748540342631,0.2435400444669948,7.065317,51.05933,359.6478,0.05427898,0.4303283,-0.02932366,16.2199996374547,15
4.908311,0.6833333,-5.08064,0.2061082401008693,-0.0684271279777031,0.2570163240934824,10.5997,51.51829,359.5132,0.0813501,0.4330807,-0.04395161,16.2399996370077,15
4.957906,0.8833332,-5.043869,0.2342420274328978,-0.2978943749055044,0.2781108292394867,14.13547,51.97445,359.4058,0.1083458,0.4354089,-0.05853841,16.2599996365607,15
5.174562,0.2833333,-4.867212,0.0728941643398641,0.3456956862858891,0.1419579770971464,3.56434,52.58054,359.8865,0.0274442,0.4427322,-0.01466246,16.2799996361136,15
5.225016,0.4833333,-4.830787,0.0840824620101372,0.1160895374402812,0.1588136650907543,7.128716,53.05085,359.8017,0.05485399,0.4458266,-0.02931005,16.2999996356666,15
5.275455,0.6833332,-4.794372,0.0920337693835504,-0.0934921533202057,0.1726190087085601,10.69265,53.51993,359.7458,0.08220209,0.4484785,-0.04392436,16.3199996352196,15
5.46946,0.2833333,-4.635894,-0.0753575740914733,0.382933120185428,0.0423328030796974,3.59282,53.86983,0.02853466,0.02806028,0.4527485,-0.01397813,16.3399996347725,15
5.519642,0.4833332,-4.59831,-0.0917913394699372,0.2265510961130988,0.0430442714115542,7.184489,54.35219,0.08791264,0.05608839,0.4557866,-0.02793525,16.3599996343255,15
5.569809,0.6833332,-4.560736,-0.1080028356794891,0.0888035481243808,0.0418386896142251,10.7745,54.84266,0.178612,0.08405253,0.4583656,-0.04186018,16.3799996338785,15
5.619962,0.8833331,-4.523173,-0.1140818974929382,-0.0845514235885444,0.0471574327863515,14.36257,55.34539,0.3022237,0.1119249,0.4604834,-0.05573917,16.3999996334314,15
5.860086,0.2833333,-4.326359,-0.100076261857005,-0.2197090206767292,0.067484992257123,3.569736,54.902,0.1020607,0.02805019,0.4607414,-0.01356836,16.4199996329844,15
5.909865,0.4833333,-4.288881,0.0578885243477165,-0.2450934380430953,0.2037549339057487,7.137324,55.38927,0.2347544,0.05606386,0.463744,-0.0271183,16.4399996325374,15
5.95963,0.6833333,-4.251414,0.2704795273671783,-0.2297347657497948,0.373925928283159,10.70263,55.88923,0.3995438,0.0840143,0.4662853,-0.0406374,16.4599996320903,15
6.00938,0.8833332,-4.213958,0.5402236099058033,-0.226729735842331,0.5814185912409076,14.26533,56.4062,0.5986183,0.111874,0.4683632,-0.05411233,16.4799996316433,15
6.179016,0.2833334,-4.073252,0.7153733981229475,0.4311133801268502,0.7004790673906998,3.646165,55.59275,0.1283661,0.02866459,0.4660629,-0.01384512,16.4999996311963,15
6.230098,0.4833333,-4.035235,1.0543005687008715,0.2266034651884478,0.9567577364780544,7.290097,56.08097,0.2880643,0.05729163,0.4690018,-0.02767204,16.5199996307492,15
6.281166,0.6833332,-3.997228,1.4326869403757865,0.0359272630094599,1.2261957183471075,10.93148,56.58403,0.4809274,0.08585162,0.4714544,-0.04146634,16.5399996303022,15
6.332215,0.8833331,-3.959234,1.680464516137541,0.5253627260480918,1.3701861859419489,14.57068,57.10652,0.7093863,0.1143201,0.4734181,-0.05521761,16.5599996298552,15
6.546958,0.2833333,-3.780666,1.956191548895452,1.0033175717890073,1.5226562218517825,3.609966,56.63286,0.1748594,0.02845214,0.4740624,-0.01359794,16.5799996294081,15
6.597728,0.4833333,-3.74327,2.4715508792748846,0.5733866308494896,1.885421484415416,7.217275,57.12341,0.3809575,0.05686721,0.4769706,-0.02717811,16.5999996289611,15
6.648484,0.6833332,-3.705884,2.9831465483116864,0.1321950870040807,2.2211308009431643,10.8216,57.63159,0.6204531,0.08521659,0.4793932,-0.0407267,16.6199996285141,15
6.840887,0.2833333,-3.546944,3.2697512331463976,0.5851072458298806,2.349429940047246,3.544829,57.93726,0.2527736,0.02812758,0.4840381,-0.01305113,16.639999628067,15
6.890802,0.4833333,-3.510172,3.7851263056717377,0.3659280467191723,2.70056255651906,7.086341,58.43325,0.5366694,0.05621937,0.486922,-0.02608565,16.65999962762,15
6.940703,0.6833332,-3.47341,4.268383852231683,0.1648167186465761,3.0162879545156662,10.62417,58.95139,0.854372,0.08424804,0.4893264,-0.0390906,16.6799996271729,15
6.990592,0.8833331,-3.436656,4.727921386839121,-0.0723050988177138,3.305347737906497,14.15752,59.4963,1.209208,0.1121832,0.4912499,-0.052052,16.6999996267259,15
7.148355,0.2833333,-3.301737,5.018535518703711,0.5608678139758587,3.448489424886047,3.481523,58.12256,0.2941051,0.02779888,0.4854509,-0.0125132,16.7199996262789,15
7.197066,0.4833333,-3.265097,5.305328688511516,0.2787647946549174,3.8686072312828914,6.959392,58.61992,0.6189374,0.05556336,0.4883386,-0.02501065,16.7399996258318,15
7.245767,0.6833332,-3.228468,5.50563999619855,0.0192412832764894,4.281762683187856,10.43281,59.1415,0.9775825,0.08326505,0.4907616,-0.03747705,16.7599996253848,15
7.294454,0.8833331,-3.191849,5.635469102006262,-0.2719194023039894,4.692329352526091,13.90177,59.69181,1.373358,0.1108804,0.4927178,-0.04990423,16.7799996249378,15
7.497365,0.2940439,-3.017435,5.510289787029146,0.3114499954696405,4.937154381361972,3.424244,56.84343,0.2646982,0.02737537,0.4756832,-0.01218989,16.7999996244907,15
7.544697,0.4940439,-2.980695,5.044235916133843,-0.0062520024848438,5.027547171798863,6.844688,57.33577,0.559634,0.05471595,0.4786147,-0.02436016,16.8199996240437,15
7.592016,0.6940438,-2.943964,4.5087161038547645,-0.2986278026162216,5.123161431260227,10.26145,57.84992,0.8869611,0.08199887,0.4811056,-0.03650458,16.8399996235967,15
7.781906,0.3062093,-2.783057,3.7518267745380847,0.1003053293303201,5.082756467050708,4.049146,52.82545,0.01299004,0.03169071,0.4445528,-0.01561368,16.8599996231496,15
7.83799,0.5062093,-2.739883,2.6917939695437134,-0.1527448915998537,4.906200056154511,8.097058,53.29492,0.05924401,0.0633336,0.4473477,-0.03120375,16.8799996227026,15
7.894047,0.7062092,-2.69673,1.5871338692190733,-0.3789204910123359,4.72268812408266,12.1457,53.77321,0.139885,0.09490587,0.4495729,-0.04675961,16.8999996222556,15
7.950073,0.9062091,-2.653601,0.4611892681565255,-0.632582822243817,4.540411923446485,16.19504,54.26559,0.2571684,0.1263702,0.451225,-0.06226159,16.9199996218085,15
8.282657,0.3253324,-2.380398,-0.8912259072025002,-0.0077095385036061,4.17663553070386,8.458089,45.63098,358.7411,0.06372143,0.3874324,-0.03869237,16.9399996213615,15
8.403948,0.5253323,-2.291967,-2.5555030787388144,-0.2619839667074018,3.6278019805432526,16.92105,45.82024,357.4966,0.1270785,0.3879188,-0.07716357,16.9599996209145,15
8.525223,0.725332,-2.203548,-4.218182107099132,-0.4893839067705141,3.059076094800514,25.38486,45.81751,356.2097,0.1897182,0.3862377,-0.1151987,16.9799996204674,15
8.646482,0.9253317,-2.115141,-5.85366533173884,-0.7442705925043174,2.483568445803276,33.84512,45.58611,354.8095,0.2512914,0.3823996,-0.1525858,16.9999996200204,15
8.877719,0.3504773,-1.927124,-7.807379682791371,-0.7609355383084723,1.620580426910033,8.264524,45.03395,358.1728,0.06046699,0.3829744,-0.04228296,17.0199996195734,15
9.002721,0.5504771,-1.846971,-9.694224223220129,-0.7261587201211118,0.7422697778204489,16.53954,45.0993,356.3331,0.1206279,0.3835521,-0.08437081,17.0399996191263,15
9.127685,0.7504771,-1.76684,-11.490561729775758,-0.693255961368842,-0.1347826527834906,24.81327,44.87593,354.3999,0.1801359,0.3820255,-0.1260038,17.0599996186793,15
9.252609,0.9500986,-1.686734,-13.173575810589544,-0.7155434184416573,-0.994155536951151,33.0755,44.30153,352.267,0.2386656,0.3784025,-0.1669517,17.0799996182323,15
9.572313,0.3573782,-1.422752,-15.02071629900558,-0.7397048154242526,-2.1726582812898587,6.94043,47.81325,358.18,0.04890539,0.4053321,-0.03901903,17.0999996177852,15
9.683357,0.5573781,-1.364574,-16.71305937934372,-0.7124245689860553,-3.317057317524729,13.89564,47.94226,356.3561,0.09765427,0.4066032,-0.07795832,17.1199996173382,15
9.794369,0.757378,-1.306414,-18.232601845677152,-0.6870183953119402,-4.410670742232536,20.84935,47.83963,354.4788,0.1460046,0.4062686,-0.1165791,17.1399996168911,15
10.1325,0.3374277,-1.01181,-19.73218698568386,0.0034854248808758,-5.583006728610016,7.601082,47.13559,358.5591,0.05573316,0.399687,-0.03800015,17.1599996164441,15
10.24659,0.5374275,-0.9394739,-21.17313559415488,-0.1780748989003061,-6.925524164148296,15.20728,47.31048,357.1296,0.1112024,0.4006152,-0.07581401,17.1799996159971,15
10.36065,0.7374274,-0.8671827,-22.38132827645279,-0.3336105515067794,-8.173419303976416,22.81631,47.28873,355.6612,0.1661806,0.3997119,-0.1132627,17.19999961555,15
10.47466,0.9374272,-0.7949276,-23.344887688025864,-0.5174481901326244,-9.310764735765137,30.42197,47.04038,354.0899,0.2204037,0.3969814,-0.1501804,17.219999615103,15
10.61298,0.3110312,-0.4380585,-24.27148987955564,-0.4499535627606282,-10.638709990386342,7.367481,18.77852,359.0419,0.062025,0.1633283,-0.01871276,17.239999614656,15
10.66911,0.5110312,-0.3210165,-24.927256055111485,-0.3334303068980493,-11.823072825625266,14.73869,19.0564,358.1133,0.1237755,0.166226,-0.03733182,17.2599996142089,15
10.7252,0.711031,-0.2039948,-25.30415515902011,-0.221091284583751,-12.849364237985036,22.1116,19.21784,357.1839,0.1849917,0.168421,-0.05577873,17.2799996137619,15
10.78126,0.9110307,-0.08699349,-25.394814707890475,-0.1661498108679935,-13.7034806307294,29.48427,19.25289,356.2201,0.245416,0.1699052,-0.07397567,17.2999996133149,15
10.5765,0.2941054,-0.1038775,-25.47553481305878,-0.1082221181944071,-14.822049181841312,6.319786,353.861,358.9908,0.05551221,-0.05297884,-0.00582902,17.3199996128678,15
10.58056,0.4941053,0.008117571,-25.269612513224512,-0.0047169862722615,-15.764282939355686,12.64454,354.1535,358.0099,0.110841,-0.04877081,-0.01162253,17.3399996124208,15
10.5846,0.6941051,0.1200866,-24.772259358609983,0.0911933769731849,-16.514793180904004,18.97316,354.3414,357.0354,0.16582,-0.04441086,-0.01735081,17.3599996119738,15
10.34991,0.2833333,0.106422,-24.150534111762315,0.8320204498923471,-17.207837991345766,5.294148,323.2717,358.7238,0.04733382,-0.3142116,0.003991659,17.3799996115267,15
10.31074,0.4833333,0.1937518,-23.22989384636729,0.7085494867901213,-17.865839755716266,10.60753,323.5533,357.4872,0.09460618,-0.3093836,0.008162582,17.3999996110797,15
10.27158,0.6833332,0.2810577,-22.044320624044957,0.6022793716032624,-18.32191050286188,15.92765,323.7224,356.2548,0.1416674,-0.3038503,0.01235568,17.4199996106327,15
10.23244,0.883333,0.3683388,-20.59349971948572,0.4590365059228829,-18.56222791082044,21.25204,323.7753,355.0044,0.1884102,-0.2976221,0.01656025,17.4399996101856,15
9.902853,0.2833334,0.2855386,-19.16828897597203,0.5203084218300309,-18.984473473379577,5.652658,289.2008,359.2646,0.043905,-0.5783008,0.0233384,17.4599996097386,15
9.81247,0.4833333,0.3294261,-17.593022359601193,0.6214373892079835,-19.23992884166131,11.31931,289.5497,358.5735,0.08769975,-0.5729315,0.04675911,17.4799996092916,15
9.722112,0.6833332,0.3733106,-15.880849796236188,0.7091882706636174,-19.324562770075914,16.99183,289.8366,357.9048,0.1312722,-0.5661316,0.07010048,17.4999996088445,15
9.419678,0.2833333,0.258006,-14.04595436084859,0.7303259559844807,-19.235322399163252,6.054988,266.497,359.2227,0.04111996,-0.7271103,0.03382812,17.5199996083975,15
9.312279,0.4833332,0.2641677,-12.243056172545678,0.6831622232925639,-19.23721918314216,12.11473,266.8288,358.4772,0.08211607,-0.7213186,0.06756434,17.5399996079504,15
9.204883,0.6833332,0.2703146,-10.36360595327066,0.6756834985370591,-19.04540411419469,18.17802,267.0872,357.7478,0.1228712,-0.7134719,0.1011124,17.5599996075034,15
9.09749,0.883333,0.2764468,-8.42648693759468,0.6544009118594256,-18.660156059165114,24.24386,267.2719,357.0186,0.1632693,-0.7035925,0.134377,17.5799996070564,15
8.893673,0.2833334,0.1098716,-6.451597054210197,0.5662804143135275,-18.08267528742099,5.401792,245.5353,358.2273,0.03849436,-0.8394433,0.03125564,17.5999996066093,15
8.794118,0.4833333,0.09792847,-4.682995773059069,0.4363374822495538,-17.559000520111137,10.81243,245.7345,356.4664,0.07688785,-0.8342199,0.06243958,17.6199996061623,15
8.694566,0.6833333,0.08597068,-2.936269425916392,0.3467135887734389,-16.856906538265548,16.22675,245.7651,354.6854,0.1150852,-0.8269331,0.09347461,17.6399996057153,15
8.595016,0.8833331,0.07399798,-1.2328657692432028,0.2437910191360034,-15.976948399320824,21.6395,245.6158,352.8498,0.152992,-0.8176012,0.1242842,17.6599996052682,15
8.374431,0.2899711,-0.1604812,0.1320949651231648,0.8181901132874586,-15.204412583326178,4.579937,226.4494,357.7241,0.03398935,-0.9177374,0.02888646,17.6799996048212,15
8.288404,0.4899711,-0.1879398,1.3216297006429816,0.4867502498529668,-14.314440425306188,9.170793,226.6236,355.4556,0.06790581,-0.9134513,0.0577214,17.6999996043742,15
8.20238,0.6899711,-0.2154129,2.350528571947713,0.1748147299265591,-13.306249758141464,13.76535,226.6134,353.165,0.1016814,-0.9073341,0.08644705,17.7199996039271,15
8.032654,0.3029878,-0.4292679,3.1935692079409206,-0.1722607532710781,-12.187034736939612,4.403203,220.3401,357.8385,0.03093511,-0.9375639,0.02955474,17.7399996034801,15
7.953584,0.5029876,-0.4644628,3.7131835149119623,-0.2573621121310242,-11.27806168596621,8.837653,220.5376,355.6964,0.06178999,-0.9336278,0.059256,17.7599996030331,15
7.874531,0.7029876,-0.4996302,4.052625504189563,-0.2955841097544573,-10.354906596575692,13.27947,220.5676,353.5388,0.09252559,-0.9279563,0.08887803,17.779999602586,15
7.7955,0.9029875,-0.5347764,4.192830552827373,-0.340387335195578,-9.437236785564158,17.72175,220.4225,351.3373,0.1230924,-0.9205581,0.1183573,17.799999602139,15
7.624807,0.3215626,-0.8368847,3.985263442674177,-1.085545784642129,-8.519901088152201,5.9791,214.307,358.3341,0.02925217,-0.9538932,0.0455469,17.819999601692,15
7.541785,0.5215626,-0.9074562,3.8576338186911,-0.8866666932087466,-7.470734195717091,11.98215,214.4913,356.6789,0.0584545,-0.9485306,0.09109515,17.8399996012449,15
7.458792,0.7215624,-0.9779981,3.574116118142153,-0.6678917497916095,-6.451418277284355,17.98937,214.4984,354.997,0.08748604,-0.9403577,0.1363859,17.8599996007979,15
7.375833,0.9215622,-1.048512,3.1211339798586915,-0.4815475270807536,-5.487023355707546,23.99533,214.3125,353.2464,0.1162632,-0.9293974,0.1812821,17.8799996003509,15
7.321254,0.3421471,-1.26968,2.7710538883155795,0.2394287707533385,-4.452780428705052,7.165553,216.0677,359.2689,0.02540019,-0.9488726,0.05744808,17.8999995999038,15
7.237521,0.542147,-1.363923,2.232514378752726,-0.0317774498771529,-3.3415221585725616,14.33398,216.3788,358.5715,0.05069242,-0.9420483,0.1146573,17.9199995994568,15
7.153807,0.7421468,-1.45815,1.5818729747310716,-0.2770947830513551,-2.2976484350192257,21.50406,216.6089,357.8874,0.07577651,-0.9314947,0.171401,17.9399995990098,15
7.109089,0.3407863,-1.678448,0.8100220416147539,-0.5508845687769672,-1.349274671844814,7.080509,222.1646,0.5033401,0.01812109,-0.9313726,0.05919298,17.9599995985627,15
7.032996,0.5407863,-1.776663,0.138091161570462,-0.5874386672233148,-0.1974580780287143,14.15476,222.7109,1.078599,0.03616579,-0.9246245,0.1181464,17.9799995981157,15
6.956923,0.7407861,-1.87486,-0.5688140196601976,-0.5735368408904588,0.8927847900822994,21.22125,223.3547,1.749282,0.05406456,-0.9143209,0.1766336,17.9999995976686,15
6.880869,0.9407859,-1.973041,-1.3117528256615172,-0.5624949132050161,1.8950680337746115,28.27781,224.1295,2.549289,0.07174841,-0.9005041,0.2344301,18.0199995972216,15
6.797844,0.3174554,-2.209414,-1.837331382192948,0.1126588345930957,2.973832091371578,6.787926,224.4434,0.8397716,0.01561666,-0.924243,0.05756934,18.0399995967746,15
6.725729,0.5174553,-2.304865,-2.547077666192718,-0.0923208508079183,4.158878417910955,13.57142,225.0456,1.765272,0.0311248,-0.917845,0.1149906,18.0599995963275,15
6.653635,0.7174551,-2.40027,-3.221674668999631,-0.2714118755196916,5.276754955152903,20.3444,225.7865,2.802441,0.04650911,-0.9081599,0.1720107,18.0799995958805,15
6.581572,0.917455,-2.495633,-3.860077489343974,-0.4789753527828768,6.301142323357137,27.10314,226.7038,3.993163,0.06172733,-0.8952218,0.2284214,18.0999995954335,15
6.519608,0.2996634,-2.612646,-4.5592276878848965,-0.4493031427667943,7.573104768076728,7.457549,223.8527,1.032954,0.01593906,-0.9258823,0.06368567,18.1199995949864,15
6.442869,0.4996633,-2.719379,-5.188595842403567,-0.3691750079715107,8.74583742792446,14.90746,224.5088,2.162372,0.03180482,-0.9184545,0.1271267,18.1399995945394,15
6.366153,0.6996631,-2.826081,-5.749335614364554,-0.2919071053097192,9.795348576935638,22.34019,225.352,3.433905,0.04752794,-0.9070519,0.1899994,18.1599995940924,15
6.289458,0.8996629,-2.932752,-6.242726631148587,-0.2708151258764346,10.69801045350054,29.74957,226.4388,4.913675,0.06304031,-0.8917273,0.2520318,18.1799995936453,15
6.164969,0.2833333,-3.045869,-6.524872844060409,0.4793705394492112,11.697651243169128,8.033613,227.5695,0.9509913,0.02067455,-0.9130224,0.06743614,18.1999995931983,15
6.072998,0.4833333,-3.15308,-6.921644295456581,0.2369421103707526,12.722560083512274,16.05694,228.2243,2.001848,0.04125977,-0.9046604,0.1345259,18.2199995927513,15
5.981096,0.683333,-3.260238,-7.2266851318201075,0.0199361766184399,13.569530772107058,24.0653,229.0722,3.204644,0.06165802,-0.8917857,0.2009267,18.2399995923042,15
5.812404,0.2833332,-3.340558,-7.34446406051782,0.4786181794340858,14.4436959070435,8.058407,229.2348,359.9253,0.02986063,-0.9068432,0.06360757,18.2599995918572,15
5.705211,0.4833331,-3.431608,-7.575076899557609,0.2949241023838159,15.316153559712726,16.11485,229.6612,359.9099,0.05956739,-0.8985474,0.1268806,18.2799995914102,15
5.598044,0.6833329,-3.522628,-7.703418973687633,0.1346772791262088,15.969360766775566,24.16886,230.1073,359.9587,0.08897309,-0.8858048,0.1895059,18.2999995909631,15
5.370393,0.2833334,-3.589342,-7.736419003307566,-0.0565863654898398,16.389311469901536,7.684268,232.7743,359.2044,0.03598513,-0.8935699,0.05694614,18.3199995905161,15
5.255198,0.4833333,-3.659384,-7.571132746279284,0.6047541001884559,16.882999534096754,15.37064,233.0491,358.4382,0.07180127,-0.8858098,0.1136134,18.3399995900691,15
5.140028,0.683333,-3.729395,-7.616950530286887,0.3806385814120044,17.499035756974898,23.05766,233.2251,357.6747,0.1072852,-0.8740209,0.1697443,18.359999589622,15
5.024884,0.8833328,-3.799377,-7.534225024961319,0.1768895711547798,17.90940550705202,30.74395,233.294,356.8841,0.1422757,-0.8582605,0.2250838,18.379999589175,15
4.909766,0.9766697,-3.869329,-7.331062361637597,-0.0610541906169855,18.10800117347535,38.42804,233.2338,356.0277,0.1766137,-0.8386042,0.2793813,18.399999588728,15
4.724526,0.2833333,-3.809927,-7.355201220867738,-0.0923953422590659,18.56446105147591,6.893354,247.9175,359.5736,0.03666338,-0.8278087,0.04779027,18.4199995882809,15
4.61018,0.4833333,-3.847924,-7.242073071872237,-0.0822537300263633,18.823415955934067,13.79076,248.2727,359.1795,0.07325336,-0.8212143,0.09538007,18.4399995878339,15
4.495879,0.6833332,-3.885912,-7.001818997905845,-0.0842526931529772,18.885366546329877,20.68926,248.5892,358.812,0.1095979,-0.8116302,0.1425963,18.4599995873868,15
4.270995,0.2833333,-3.808109,-6.691546616512019,0.5699054641883418,18.903112625603388,7.104131,263.1649,359.6578,0.04334898,-0.7464381,0.04436445,18.4799995869398,15
4.147122,0.4833332,-3.8167,-6.521515009697968,0.3342233714673608,19.011417252243582,14.2147,263.5296,359.3334,0.08671652,-0.7396621,0.08844129,18.4999995864928,15
4.023273,0.6833332,-3.825303,-6.232430048770119,0.1144229182817297,18.927783749785977,21.32309,263.8647,359.0414,0.1297426,-0.7300324,0.132135,18.5199995860457,15
3.899459,0.883333,-3.833919,-5.83892141581905,-0.1441576387306268,18.658265730038156,28.4305,264.1768,358.7761,0.1722706,-0.7175893,0.175287,18.5399995855987,15
3.592592,0.2833334,-3.673408,-5.347386837947192,0.4922116870838851,18.37581599809891,7.483175,286.0909,359.8936,0.05270455,-0.599851,0.0384904,18.5599995851517,15
3.467511,0.4833333,-3.635342,-5.145492186060242,0.2407713659336525,18.331269714186213,14.96864,286.5026,359.8345,0.1052253,-0.5930582,0.07678521,18.5799995847046,15
3.342478,0.6833332,-3.597303,-4.827671320843255,0.0073651331067023,18.09948364472212,22.45458,286.9229,359.8271,0.1573153,-0.5837332,0.1147287,18.5999995842576,15
3.017298,0.2833333,-3.409461,-4.413570365476994,-0.2625469223976497,17.69200472112072,7.645371,304.3069,1.279347,0.05374188,-0.4666954,0.04098893,18.6199995838106,15
2.894425,0.4833332,-3.35275,-4.279163569748465,-0.282075635566519,17.522991334694986,15.27497,305.0042,2.662636,0.1072262,-0.4602354,0.08177388,18.6399995833635,15
2.77159,0.683333,-3.296044,-4.030539094030684,-0.2570738166386558,17.180961443443834,22.88269,305.9327,4.210299,0.160208,-0.4516712,0.1221684,18.6599995829165,15
2.648793,0.8833328,-3.239341,-3.690163368437029,-0.2409427402313143,16.683380633398446,30.45978,307.1616,6.005713,0.2124449,-0.4410441,0.1619879,18.6799995824695,15
2.526034,0.9766697,-3.182643,-3.280491987396876,-0.287083667632755,16.048800952431673,37.99271,308.8043,8.173548,0.2636982,-0.4284047,0.2010507,18.6999995820224,15
2.235048,0.2833333,-2.967666,-3.2446838655646086,-0.3226620792876926,15.84805462873235,7.045747,317.7398,2.50433,0.04943916,-0.3609725,0.04249043,18.7199995815754,15
2.11999,0.4833333,-2.906082,-3.089089753980856,-0.3117895166196657,15.505020114987763,14.05713,318.6427,5.137534,0.09865828,-0.3552512,0.08478249,18.7399995811284,15
2.004969,0.683333,-2.844502,-2.837794497323695,-0.3077816696782765,15.04206795535172,21.01651,319.9234,7.990337,0.1474477,-0.3480201,0.1266962,18.7599995806813,15
1.704684,0.2833333,-2.616219,-2.4224889170595856,0.3563330869065138,14.450580305879686,7.094167,314.6338,2.228508,0.04958777,-0.3859328,0.04176186,18.7799995802343,15
1.589206,0.4833332,-2.557096,-2.30245901844694,0.1363097127382663,14.146464368930108,14.16518,315.4841,4.564848,0.09905232,-0.3801331,0.08324271,18.7999995797873,15
1.473749,0.683333,-2.498004,-2.082712046183353,-0.0618294715276049,13.730752513038208,21.19268,316.6745,7.102946,0.1480961,-0.3727371,0.1243391,18.8199995793402,15
1.358317,0.8833328,-2.438945,-1.6411894772950468,0.4278412571412274,13.200151070954778,28.15816,318.2827,9.948703,0.1965149,-0.3637782,0.1648832,18.8399995788932,15
0.9528474,0.2833333,-2.09639,-1.1185724466452616,0.9137831554680512,12.582288145590084,7.812625,312.0787,1.233741,0.05788876,-0.4058127,0.03748026,18.8599995784461,15
0.8369343,0.4833332,-2.021371,-1.0457418226916897,0.4910198857189275,12.418016779176986,15.61499,312.7671,2.567802,0.1155435,-0.399588,0.07474713,18.8799995779991,15
0.7210543,0.683333,-1.946374,-0.8830596460415574,0.0645282642517601,12.14566922333891,23.39615,313.686,4.069057,0.17263,-0.3914594,0.1116468,18.8999995775521,15
0.3190141,0.2833333,-1.59582,-0.6515464625039149,-0.2930519730390973,11.796010298953412,8.208983,308.502,0.3259611,0.06323575,-0.4334968,0.03364996,18.919999577105,15
0.2030598,0.4833332,-1.51143,-0.7098094580590999,-0.3182808627081728,11.682645803346697,16.41275,309.0035,0.727428,0.1261288,-0.4268844,0.06711651,18.939999576658,15
0.08713824,0.683333,-1.427061,-0.690007223284133,-0.2975466545982229,11.43407956185148,24.61014,309.5952,1.229409,0.1883556,-0.4180797,0.1002278,18.959999576211,15
-0.02875074,0.8833327,-1.342713,-0.6133298696372265,-0.2841652788548914,11.082643405313316,32.79935,310.3196,1.872331,0.2495966,-0.4071298,0.1328139,18.9799995757639,15
-0.3620532,0.2833333,-1.01338,-0.3680340698890822,0.3888352223325289,10.522377087224315,7.880433,304.4377,359.1532,0.06422942,-0.4645322,0.02550485,18.9999995753169,15
-0.4672762,0.4833332,-0.9236098,-0.6327486604799617,0.1772098080448948,10.454264048275723,15.7629,304.6831,358.3323,0.1281336,-0.4579988,0.05087795,19.0199995748699,15
-0.5724665,0.683333,-0.8338608,-0.8252301216507112,-0.0130196679254659,10.249036767816284,23.64572,304.8176,357.5065,0.1914066,-0.4492761,0.07599808,19.0399995744228,15
-0.6776243,0.8833327,-0.7441328,-0.9647976609101834,-0.2362143188192067,9.94111769203786,31.52727,304.8288,356.6405,0.253746,-0.438408,0.1007454,19.0599995739758,15
-1.120657,0.2833333,-0.2863319,-0.8508654613481177,0.4136476424239336,9.36239494803451,7.319667,306.0409,358.6002,0.06241176,-0.4520186,0.01809358,19.0799995735288,15
-1.209544,0.4833332,-0.1914854,-1.0591093802450633,0.1788837810593547,9.081881662682552,14.64273,306.1873,357.2077,0.1245418,-0.4459415,0.03610072,19.0999995730817,15
-1.298398,0.683333,-0.09666001,-1.2094711463970125,-0.0344843692777054,8.671851031472077,21.96483,306.1483,355.7748,0.1861272,-0.4379802,0.05394543,19.1199995726347,15
-1.709697,0.2833333,0.3500771,-1.079992530067968,0.4394699789347362,7.983008909749561,7.144042,313.2092,358.8907,0.06101465,-0.3957304,0.01587061,19.1399995721877,15
-1.787308,0.4833332,0.4494736,-0.903342196982554,0.9092075483021096,7.182240913009408,14.28731,313.4136,357.7816,0.1217954,-0.3900822,0.03152455,19.1599995717406,15
-1.864912,0.683333,0.5488337,-1.1650249264109656,0.4697526403592482,6.844330280527011,21.43044,313.4772,356.6523,0.1820758,-0.3828856,0.04702894,19.1799995712936,15
-1.942493,0.8833328,0.6481655,-1.3514462497965525,0.0260814594630798,6.390410855389669,28.57131,313.3844,355.4646,0.2416137,-0.3741681,0.06234203,19.1999995708466,15
-2.468044,0.2833333,1.256683,-1.4831811231013807,-0.3491662569239131,5.850657394582898,7.506761,320.3738,358.625,0.06564068,-0.3374622,0.01092279,19.2199995703995,15
-2.533351,0.4833332,1.372796,-1.7721262327213507,-0.3925508639452424,5.525370665438325,15.01921,320.5137,357.2477,0.1310174,-0.3318562,0.02172558,19.2399995699525,15
-2.598639,0.683333,1.488875,-1.9719774363899711,-0.3904602512996045,5.097561700525701,22.53062,320.4647,355.8277,0.1957929,-0.3247787,0.03242896,19.2599995695055,15
-2.663909,0.8833328,1.604922,-2.106788306189193,-0.396210109036604,4.598146912273592,30.03624,320.1978,354.3056,0.2596801,-0.3162626,0.04298571,19.2799995690584,15
-3.078073,0.2833333,2.07886,-1.9780392066886376,0.2571709614467506,3.858124762185589,7.882738,328.1133,359.5298,0.06721559,-0.2737635,0.01494422,19.2999995686114,15
-3.14418,0.4833333,2.199815,-2.320876415267209,0.0254384656327475,3.681094646188453,15.76596,328.4327,359.0994,0.1340926,-0.2683893,0.02981309,19.3199995681643,15
-3.210268,0.6833331,2.320736,-2.563453837318675,-0.1853858488826124,3.4365498858488106,23.64903,328.7036,358.6952,0.2003132,-0.2617428,0.04453622,19.3399995677173,15
-3.276338,0.8833328,2.441625,-2.732906918022577,-0.4296630809655782,3.158446212370614,31.53148,328.9291,358.3043,0.2655635,-0.2538569,0.05904388,19.3599995672703,15
-3.820689,0.2833332,3.045818,-2.5079373269001053,0.1986285313542485,2.540602315784297,7.712284,332.3591,0.9147523,0.06339991,-0.2388532,0.02379854,19.3799995668232,15
-3.897832,0.4833332,3.157272,-2.586697278044495,-0.0581940048300405,2.3120557838390603,15.41347,332.9672,1.920112,0.1264894,-0.2337644,0.04748265,19.3999995663762,15
-3.974956,0.683333,3.268694,-2.576003037265376,-0.2941082354860226,2.055735257657518,23.1,333.7505,3.062231,0.1889787,-0.2276043,0.07094364,19.4199995659292,15
-4.447483,0.2833333,3.789705,-2.159976963985481,0.1568119220399843,1.4722348451295604,7.432838,325.4213,0.7770519,0.05987705,-0.296985,0.02572436,19.4399995654821,15
-4.532809,0.4833332,3.888315,-1.6698004066803138,0.6030277249939705,0.8745251170669848,14.85593,325.9943,1.644421,0.1194551,-0.2917099,0.0514074,19.4599995650351,15
-4.618097,0.683333,3.98691,-1.6320269371007896,0.139562370347027,0.8255690641812752,22.26631,326.7141,2.632866,0.1784959,-0.2851931,0.07688504,19.4799995645881,15
-4.70336,0.8833328,4.085478,-1.511085138000821,-0.3286070849242006,0.7629729777553376,29.66049,327.6269,3.792329,0.2367585,-0.2774658,0.1020309,19.499999564141,15
-5.305679,0.2833334,4.727077,-1.073480463968556,0.1034958169622475,0.423943631354831,7.693592,316.6834,0.6734503,0.06018725,-0.3685991,0.0302098,19.519999563694,15
-5.406786,0.4833333,4.816228,-1.0165843872213998,-0.1094197205444839,0.5364153325780485,15.38066,317.2396,1.436237,0.120072,-0.3628093,0.06034621,19.539999563247,15
-5.507865,0.6833332,4.905354,-0.8996861837599575,-0.3014266025716078,0.6291126207036619,23.05697,317.9329,2.316124,0.1793931,-0.3553722,0.09019973,19.5599995627999,15
-5.608915,0.8833328,4.994454,-0.7508490295948551,-0.5268867144828473,0.7346904698838586,30.71906,318.8109,3.365233,0.2378812,-0.346323,0.119635,19.5799995623529,15
-6.050785,0.2833335,5.467725,-0.1923298349793309,0.1202218513527826,0.4440528352566169,8.172825,314.5272,0.6346297,0.06358738,-0.3858678,0.03263618,19.5999995619059,15
-6.160662,0.4833331,5.559447,-0.0044972897695707,-0.1177831397002457,0.5276316430612127,16.33761,315.0823,1.355358,0.1268314,-0.3796699,0.06509683,19.6199995614588,15
-6.270494,0.6833329,5.651145,0.1942162789671488,-0.3348799400459309,0.6087293615824922,24.49322,315.7803,2.203476,0.1894128,-0.3715287,0.09723203,19.6399995610118,15
-6.379612,0.8833325,5.742248,0.7623217617989937,0.1348574395793644,0.2986084248768019,32.58632,316.6644,3.230047,0.2506366,-0.3616034,0.1286859,19.6599995605648,15
-6.927176,0.2833335,6.345855,1.3153442642688429,0.5998902820342056,-0.0006827016755153,8.031718,308.2252,359.2737,0.06576409,-0.4351237,0.02488817,19.6799995601177,15
-7.029666,0.4833335,6.442284,1.330191203915648,0.1552424491710119,0.2385356689817879,16.06464,308.4644,358.5742,0.1311835,-0.4288607,0.0496448,19.6999995596707,15
