pX,pY,pZ,aX,aY,aZ,reX,reY,reZ,rtX,rtY,rtZ,t,ID
-42.00042,0.23,-39.99971,4.199006310815356,0.0840620274523302,5.298954850462486,0.01615895,0.01360277,0.02369852,0.000141038,0.0001186774,0.0002067919,7.5199998319149,20
-42.00084,0.43,-39.99943,4.547023018223946,0.087349346269548,5.597826965346165,0.0323528,0.0136128,0.04740137,0.0002823806,0.0001186773,0.0004136214,7.53999983146787,20
-42.00126,0.63,-39.99914,5.001835898383227,-0.3557540020073614,5.94626401505726,0.04866909,0.01362969,0.07128362,0.0004247918,0.0001186773,0.0006220163,7.55999983102083,20
-42.00167,0.83,-39.99886,5.3888675499408905,-0.5513392925531932,6.222358473159765,0.0649809,0.01365337,0.09515934,0.0005671641,0.0001186772,0.0008303542,7.5799998305738,20
-42.00201,0.2833333,-39.99854,5.708968615040298,-0.5247398400000427,6.427764693703111,0.02537555,5.424011,0.03788096,0.0002368368,0.04731568,0.0003197257,7.59999983012676,20
-42.00262,0.4833333,-39.99804,5.9632089759161815,-0.3002447752978194,6.564373528819139,0.05073236,5.424036,0.07575464,0.0004735072,0.04731567,0.0006393956,7.61999982967973,20
-42.00324,0.6833333,-39.99754,6.35998860503922,-0.7548467683737253,6.78164856945952,0.07618407,5.424078,0.113751,0.0007110556,0.04731565,0.0009600949,7.63999982923269,20
-41.97973,0.2833332,-39.95567,6.670340115745013,-0.9545431075189672,6.913767303745615,1.086349,11.90875,0.5242766,0.00990339,0.1036876,0.003566856,7.65999982878566,20
-41.98483,0.4833332,-39.93501,6.896877366349173,-0.9246671175584004,6.964431758206658,2.172564,11.92368,1.048943,0.01980531,0.1036704,0.007133469,7.67999982833862,20
-41.98991,0.6833333,-39.91436,7.042440198158253,-0.6895075122358656,6.937575395922934,3.260673,11.94862,1.575116,0.02972374,0.1036416,0.0107039,7.69999982789159,20
-41.92359,0.2833334,-39.84025,7.240879835261254,-1.1260590495126146,6.924818028825264,1.876355,19.35862,0.09233312,0.01627591,0.1680978,-0.001958759,7.71999982744455,20
-41.91412,0.4833335,-39.8086,7.349194868095978,-1.3003170178959091,6.830765484730598,3.753404,19.36311,0.183879,0.03255203,0.1680298,-0.003926477,7.73999982699752,20
-41.90468,0.6833333,-39.77696,7.371571740470351,-1.2376149951129238,6.660643685648076,5.632935,19.37053,0.2745223,0.04883889,0.1679161,-0.005907897,7.75999982655048,20
-41.89524,0.8833333,-39.74535,7.459193927225989,-1.6025563148919293,6.523354531960415,7.514696,19.38095,0.3655336,0.06513152,0.1677568,-0.007892894,7.77999982610345,20
-41.78983,0.2833336,-39.64683,7.452468040935365,-1.701231251949487,6.307077745483781,3.524998,27.0181,0.1002905,0.03010995,0.2334621,-0.006334112,7.79999982565641,20
-41.76327,0.4833338,-39.59094,7.356985496684018,-1.5589738380695664,6.018361632042804,7.053247,27.02725,0.1996011,0.06021549,0.2331295,-0.01268355,7.81999982520938,20
-41.73672,0.6833335,-39.53508,7.341098840134578,-1.8403865281383407,5.7825245541056205,10.58353,27.04268,0.3002476,0.09028091,0.2325753,-0.01902673,7.83999982476234,20
-41.5913,0.2833328,-39.40234,7.2285849231017565,-1.851560529030429,5.472579952171991,4.46171,34.08521,0.2032628,0.037736,0.2927942,-0.009713879,7.85999982431531,20
-41.55041,0.4833321,-39.33563,7.026589721537761,-1.6178293117539668,5.096421166451634,8.925937,34.10898,0.4070016,0.07543097,0.2921257,-0.01943617,7.87999982386827,20
-41.50954,0.6833316,-39.26895,6.742484358057055,-1.163481828580724,4.662128839941829,13.39171,34.14939,0.6156797,0.1130247,0.2910124,-0.0291341,7.89999982342124,20
-41.3292,0.2833333,-39.1113,6.51476789266119,-1.3655129426228618,4.269761184606736,3.707982,40.13654,0.232573,0.03108429,0.3428976,-0.009196077,7.91999982297421,20
-41.29056,0.4833331,-39.05928,6.204644952338363,-1.2899178212942155,3.823650043488392,7.41481,40.15927,0.4669572,0.06212654,0.342357,-0.01838044,7.93999982252717,20
-41.25193,0.6833336,-39.00727,5.8208543795054055,-0.962030254714606,3.3330961935013903,11.11933,40.1974,0.7036391,0.09308072,0.3414567,-0.02755251,7.95999982208014,20
-41.21333,0.8833333,-38.95527,5.518799441419716,-1.0464530163591768,2.9138835360146587,14.82275,40.2516,0.9450169,0.1239258,0.3401975,-0.03670405,7.9799998216331,20
-41.03742,0.2833335,-38.82284,5.143251184381107,-0.8492769529584894,2.4558151156129853,3.653706,44.34084,0.2188785,0.03024259,0.3771139,-0.01026204,7.99999982118607,20
-40.99556,0.4833335,-38.77462,4.704434406581463,-0.3958358556777734,1.9693849673562407,7.306322,44.36192,0.4394247,0.06044557,0.3765369,-0.02051121,8.01999982073903,20
-40.9537,0.6833332,-38.72641,4.37480505701857,-0.3507322855995233,1.5853754593441138,10.95781,44.3975,0.6635079,0.09057835,0.3755763,-0.03073691,8.039999820292,20
-40.76401,0.283333,-38.57867,3.98318757983904,-0.260153581403767,1.179708077732414,3.585189,48.80947,0.293126,0.02954285,0.4129033,-0.01059656,8.05999981984496,20
-40.72027,0.4833326,-38.53367,3.5414648210693827,-0.1771367909720612,0.7639965710688514,7.169228,48.83716,0.588392,0.05904761,0.4122932,-0.02118022,8.07999981939793,20
-40.67654,0.6833326,-38.48868,3.0617262609136944,-0.1547194029137899,0.3500500055049045,10.75198,48.88387,0.8881705,0.08848496,0.4112773,-0.03174046,8.09999981895089,20
-40.63283,0.8833319,-38.4437,2.692541446204004,-0.2033311382610502,0.0472698920080034,14.33325,48.95033,1.194057,0.117822,0.4098567,-0.04227367,8.11999981850386,20
-40.39508,0.2833335,-38.26067,2.298213035594493,-0.2127396608863577,-0.2391590540259969,3.512488,52.57255,0.3444604,0.02880874,0.4425638,-0.01087848,8.13999981805682,20
-40.35005,0.4833332,-38.21868,1.8917466464262065,-0.2362612861692702,-0.4967260953565073,7.023877,52.60442,0.6914017,0.05758207,0.4419342,-0.02174385,8.15999981760979,20
-40.30503,0.6833333,-38.1767,1.605099035277313,-0.2472381283139665,-0.6560330750423731,10.53381,52.65815,1.043329,0.08629036,0.4408861,-0.03258628,8.17999981716275,20
-40.26003,0.8833331,-38.13472,1.319570911110226,-0.2190118618422115,-0.8035129378148511,14.04219,52.73452,1.401951,0.1149026,0.43942,-0.04340417,8.19999981671572,20
-40.09251,0.2833333,-38.01078,1.04984180321172,-0.2048992284869817,-0.9285626906622824,3.450209,53.79882,0.33724,0.02817775,0.4521396,-0.01099649,8.21999981626868,20
-40.04741,0.4833333,-37.97049,0.8876742221007561,-0.1782416775711132,-0.964649630518096,6.898908,53.8294,0.6761925,0.05631598,0.451519,-0.02198321,8.23999981582165,20
-40.00232,0.6833335,-37.93021,0.7252309138631716,-0.1123813653765706,-0.9915419113782278,10.34636,53.88097,1.019998,0.08439448,0.4504859,-0.03294685,8.25999981537461,20
-39.81972,0.283333,-37.79299,0.5764496800342584,-0.0606339029373091,-0.9996156982224064,3.402695,53.60208,0.2525117,0.02749349,0.4506355,-0.01142089,8.27999981492758,20
-39.77454,0.4833332,-37.75422,0.4554376700051818,-0.0763155672140524,-0.9791655007269072,6.803905,53.62466,0.5061705,0.05494905,0.4500364,-0.02283107,8.29999981448054,20
-39.72938,0.6833332,-37.71547,0.3871482932966188,-0.1061104296292663,-0.9073022997136276,10.20404,53.6627,0.7633579,0.08234826,0.449039,-0.03421804,8.31999981403351,20
-39.53195,0.2833333,-37.56564,0.3258522625475919,-0.0967022686290166,-0.8363924611773541,3.353179,52.59626,0.1512132,0.02681403,0.4428173,-0.01177993,8.33999981358647,20
-39.48708,0.4833333,-37.52801,0.2841441656657935,-0.1014070543459157,-0.7599805292057198,6.704976,52.60958,0.3030939,0.053593,0.4422476,-0.02354742,8.35999981313944,20
-39.44222,0.6833336,-37.49039,0.2773130152085059,-0.0935668082039181,-0.6584163418472926,10.05572,52.63202,0.4569822,0.08031783,0.4412991,-0.0352916,8.3799998126924,20
-39.39738,0.8833334,-37.45279,0.2652477536902538,-0.0465227374261144,-0.5752900143930972,13.4055,52.66397,0.6140866,0.1069669,0.4399729,-0.04700221,8.39999981224537,20
-39.22991,0.2833335,-37.32921,0.2589245509693398,-0.0135913672583077,-0.5057884663139589,3.302948,51.38655,0.02480234,0.026064,0.4333676,-0.0122999,8.41999981179833,20
-39.18515,0.4833335,-37.29292,0.2648535205251789,0.0318836183237352,-0.4346066118595288,6.604948,51.38871,0.04977109,0.05209891,0.4328277,-0.024586,8.4399998113513,20
-39.1404,0.6833335,-37.25664,0.2633430324401544,0.1165617700198286,-0.3770238632303275,9.905626,51.39228,0.0746176,0.07807853,0.4319286,-0.03685025,8.45999981090426,20
-38.95845,0.2833333,-37.12077,0.2657653801891086,0.1871265307862554,-0.3265770807438386,3.253524,49.92045,359.9205,0.02544452,0.4218367,-0.01260817,8.47999981045723,20
-38.91413,0.4833333,-37.08529,0.2835714285879689,0.190262702613477,-0.2768484519919241,6.506082,49.91365,359.8405,0.05086098,0.4213265,-0.02520249,8.49999981001019,20
-38.86981,0.6833333,-37.04982,0.3768347658533102,0.1792855614812619,-0.1609336477538008,9.757668,49.90218,359.7595,0.07622882,0.4204769,-0.03777321,8.51999980956316,20
-38.67369,0.2833333,-36.90182,0.4597998909453693,0.2075117029392954,-0.0595528341803301,3.206129,47.49887,359.8115,0.02494367,0.4026216,-0.01277193,8.53999980911613,20
-38.63024,0.4833331,-36.86646,0.5439884255754919,0.2216246248279373,0.0344786274609774,6.411322,47.48296,359.6218,0.04986078,0.4021474,-0.02553014,8.55999980866909,20
-38.58679,0.683333,-36.8311,0.4635008197927988,0.8885968867661018,0.008796679790791,9.615451,47.45618,359.4298,0.07473092,0.4013577,-0.03826472,8.57999980822206,20
-38.54335,0.8833326,-36.79575,0.5186798115636435,0.6641829317501307,0.0788606850735078,12.81837,47.41817,359.2344,0.09953487,0.4002538,-0.05096263,8.59999980777502,20
-38.37218,0.2833332,-36.66908,0.5692227805656955,0.4544047644599885,0.1401774498054777,3.452394,48.24966,359.8033,0.02679111,0.408587,-0.01387756,8.61999980732799,20
-38.32491,0.4833335,-36.6315,0.6265661039617214,0.2049018632704833,0.2002414289530421,6.90374,48.23177,359.6053,0.05354987,0.4080291,-0.02773876,8.63999980688095,20
-38.27765,0.6833335,-36.59393,0.6211204888506359,0.181379748038325,0.2139111871319983,10.35446,48.20156,359.404,0.08025459,0.4070999,-0.04157516,8.65999980643392,20
-38.09202,0.2833333,-36.45671,0.5974859435955366,0.1970607761825283,0.2119409534652803,3.549318,50.1862,359.8464,0.02747751,0.4239242,-0.01434714,8.67999980598688,20
-38.04272,0.4833335,-36.41911,0.5668930039522877,0.1986283505852928,0.2019493428877012,7.09832,50.17177,359.6909,0.0549242,0.4233128,-0.02868394,8.69999980553985,20
-37.99343,0.6833331,-36.38153,0.7104580816525328,-0.5075464279182794,0.3175107285449599,10.64633,50.14743,359.5332,0.08231102,0.422295,-0.04298916,8.71999980509281,20
-37.79189,0.2833332,-36.2315,0.7011823684643019,-0.2972443187146534,0.3263044288988936,3.581825,51.79739,359.9405,0.02788686,0.4365825,-0.01411717,8.73999980464578,20
-37.74213,0.4833332,-36.19366,0.6812803583133089,-0.0764883473275468,0.3255893068558393,7.162857,51.79176,359.8805,0.05574008,0.4359426,-0.02821792,8.75999980419874,20
-37.69238,0.6833332,-36.15584,0.6623464683568088,0.1024509408695917,0.3233465519889478,10.74286,51.78228,359.8195,0.08353095,0.4348772,-0.04228712,8.77999980375171,20
-37.64265,0.8833331,-36.11802,0.6270839221191338,0.0538393671254329,0.3111273101557543,14.32183,51.76872,359.7571,0.1112322,0.4333878,-0.05631139,8.79999980330467,20
-37.47502,0.2833333,-35.99258,0.5796563124686003,0.0444302142915841,0.2891821924860664,3.572829,53.00137,0.06954271,0.02816896,0.4459746,-0.01336715,8.81999980285764,20
-37.42597,0.4833337,-35.95409,0.5317375861970532,0.0209079903366917,0.265696409203187,7.144541,53.00797,0.1400398,0.05630344,0.4453245,-0.0267138,8.8399998024106,20
-37.37693,0.6833336,-35.91561,0.4657939111945097,0.0099310971410973,0.2282941769024802,10.71527,53.01908,0.2116354,0.08437561,0.4442418,-0.04003083,8.85999980196357,20
-37.19176,0.283333,-35.77818,0.3828886097414568,0.0381574579611864,0.1773208645004089,3.596622,53.92749,0.09569206,0.02834839,0.4531798,-0.01348518,8.87999980151653,20
-37.14202,0.483333,-35.73988,0.2947987322810022,0.0522706096659918,0.1211266654855904,7.192156,53.93656,0.1920986,0.0566603,0.4525099,-0.02695315,8.8999998010695,20
-37.09229,0.6833326,-35.7016,0.3835277216996573,-0.6413594786538149,0.1935544929300263,10.78693,53.95182,0.2897652,0.08490959,0.4513943,-0.04039381,8.91999980062246,20
-36.88989,0.283333,-35.55101,0.3225003615537147,-0.4185131411638086,0.158388054801744,3.642345,54.50637,0.1126986,0.02870236,0.4576641,-0.01367898,8.93999980017543,20
-36.83928,0.483333,-35.5125,0.2547260936462407,-0.1852125933684912,0.1175327692913299,7.283587,54.51719,0.2262681,0.05736709,0.45697,-0.02734014,8.95999979972839,20
-36.78868,0.6833332,-35.47401,0.192265501281625,0.0062712837817894,0.0797198995860242,10.92373,54.53545,0.3416339,0.08596534,0.4558146,-0.04096991,8.97999979928136,20
-36.7381,0.8833333,-35.43552,0.1198907197288718,-0.0297952770079822,0.0362371654182887,14.56323,54.56151,0.4596784,0.1144714,0.454199,-0.05455736,8.99999979883432,20
-36.48755,0.2833333,-35.2498,0.0408371737821795,-0.0266589528121231,-0.0116282361849968,3.597589,56.40303,0.1969278,0.02847517,0.472293,-0.01332018,9.01999979838729,20
-36.43717,0.4833337,-35.21221,-0.0326762606192971,-0.0376356999115425,-0.0550831362872976,7.194029,56.42169,0.3953407,0.05691338,0.4715928,-0.02662323,9.03999979794025,20
-36.3868,0.6833333,-35.17463,-0.1133039863103917,-0.0360672200086961,-0.1045321350450585,10.78942,56.45321,0.596876,0.08528781,0.4704272,-0.03989641,9.05999979749322,20
-36.33644,0.8833333,-35.13706,-0.2004749127362544,0.0047043465569739,-0.1594519868754247,14.38336,56.49813,0.8029317,0.1135665,0.4687976,-0.05312748,9.07999979704618,20
-36.16053,0.2833336,-35.00688,-0.2821352778982131,0.0313629527280341,-0.2113217129952183,3.52968,57.5238,0.2579912,0.02808055,0.4808806,-0.01284607,9.09999979659915,20
-36.111,0.4833336,-34.97002,-0.3462131819191114,-0.0094070878861788,-0.2516122849570585,7.05828,57.54779,0.5179269,0.05612651,0.4801928,-0.02567586,9.11999979615211,20
-36.06149,0.6833336,-34.93316,-0.325202879394606,-0.064291054854682,-0.2291584877633496,10.58569,57.58828,0.7817826,0.08411072,0.4790477,-0.03847741,9.13999979570508,20
-35.86966,0.2833332,-34.79028,-0.3065101657344335,-0.0799725778267153,-0.2109483619132106,3.467595,57.53896,0.2903644,0.02774006,0.4809977,-0.01234159,9.15999979525805,20
-35.82134,0.4833331,-34.75353,-0.2785753924056457,-0.1097671744462042,-0.1885434289677618,6.933711,57.5655,0.5830681,0.05544477,0.4803328,-0.02466445,9.17999979481101,20
-35.77303,0.6833328,-34.71679,-0.3959355556291868,0.51329776621802,-0.2731454323235631,10.39859,57.61026,0.8800302,0.08309004,0.4792257,-0.03696081,9.19999979436398,20
-35.56557,0.2833333,-34.562,-0.375023364918519,0.2449752988566176,-0.2567033489589541,3.415707,56.77505,0.2545794,0.02727517,0.475162,-0.01221579,9.21999979391694,20
-35.51816,0.4833335,-34.52563,-0.3473790590104144,-0.0087107639865205,-0.2358926763590965,6.829937,56.79794,0.5109619,0.05451511,0.4745255,-0.02441496,9.23999979346991,20
-35.47076,0.6833333,-34.48927,-0.484643419036054,0.4181656475360029,-0.3374097069739683,10.24309,56.83657,0.7710155,0.08169913,0.4734659,-0.03658859,9.25999979302287,20
-35.42337,0.8833333,-34.45292,-0.4712133735780917,0.1937505991944571,-0.3267793938908063,13.65504,56.89158,1.03663,0.1088023,0.4719843,-0.04872626,9.27999979257584,20
-35.24838,0.283333,-34.3229,-0.4580335646443387,-0.0160287874803888,-0.3153688732239281,3.366888,55.02617,0.1550076,0.02667957,0.4617161,-0.01237172,9.2999997921288,20
-35.2018,0.4833327,-34.28701,-0.4339957608436826,-0.2655334266655277,-0.2950688402933963,6.732386,55.03991,0.3110858,0.05332549,0.4611172,-0.02472728,9.31999979168177,20
-35.15524,0.6833326,-34.25113,-0.3667723809257062,-0.2890552985782992,-0.2436528747780926,10.09685,55.06307,0.4693205,0.07991762,0.4601202,-0.03705771,9.33999979123473,20
-34.96477,0.283333,-34.10954,-0.3008328527196902,-0.2733749655452315,-0.1945082125591675,3.315875,53.27605,0.04144913,0.02602355,0.4481553,-0.01264874,9.3599997907877,20
-34.91884,0.4833333,-34.07437,-0.2248952846591088,-0.2718073865252345,-0.1394693581205217,6.630674,53.27967,0.08314878,0.05201685,0.4475926,-0.02528292,9.37999979034066,20
-34.87292,0.6833335,-34.03921,-0.2911146693652036,0.3826200760708423,-0.189180484951553,9.944161,53.28575,0.1252937,0.07795598,0.4466557,-0.03789175,9.39999978989363,20
-34.66752,0.2833333,-33.88647,-0.2169209251040307,0.1456604117697045,-0.137931210205263,3.2659,51.62312,359.9305,0.02538959,0.4352514,-0.01295321,9.41999978944659,20
-34.6221,0.483333,-33.85205,-0.1334834746522126,-0.0766629911473444,-0.0814086650480661,6.530885,51.61715,359.8607,0.0507515,0.434721,-0.02589228,9.43999978899956,20
-34.57669,0.6833331,-33.81763,-0.2131042779808254,0.3815753918110719,-0.146328577860789,9.794531,51.60707,359.7897,0.07606126,0.4338379,-0.03880634,9.45999978855252,20
-34.5313,0.8833329,-33.78323,-0.1387180735716278,0.1885230649877404,-0.1094755608919832,13.05724,51.59273,359.7173,0.1013022,0.4326032,-0.05168524,9.47999978810549,20
-34.35716,0.2833333,-33.65315,-0.0623884415738587,0.0101068308888737,-0.0724602177445277,3.215883,48.75034,359.8167,0.02489923,0.4125876,-0.0130367,9.49999978765845,20
-34.31287,0.4833333,-33.61856,0.0266588493309924,-0.2080350751914118,-0.0271274373175423,6.430789,48.73483,359.6324,0.04977154,0.4120988,-0.02605917,9.51999978721142,20
-34.2686,0.6833333,-33.58397,0.0667543650407793,-0.2001942717582796,-0.037354335043279,9.644674,48.70872,359.4458,0.07459724,0.4112848,-0.03905711,9.53999978676438,20
-34.0769,0.2833336,-33.44077,0.0938072297280818,-0.1531508660360506,-0.0571230291683271,3.372862,48.46928,359.7978,0.02611176,0.4103434,-0.01368875,9.55999978631735,20
-34.03048,0.4833336,-33.40437,0.1183496707973219,-0.1202199333727084,-0.0781431149964717,6.74479,48.45133,359.5942,0.05219412,0.4098084,-0.02736158,9.57999978587031,20
-33.98407,0.6833336,-33.36798,0.1509118683903878,-0.1547178799243342,-0.0921395292371549,10.1157,48.42105,359.3878,0.07822379,0.4089175,-0.04100721,9.59999978542328,20
-33.93768,0.8833335,-33.33161,0.1771553672411556,-0.2033299852599392,-0.1681683529582791,13.48687,48.37794,359.1771,0.1041888,0.4076715,-0.05461821,9.61999978497624,20
-33.69569,0.2833333,-33.15258,0.2025444953161894,-0.2127390392153377,-0.2566808029310401,3.532859,50.6897,359.8476,0.02728899,0.4278987,-0.01439672,9.63999978452921,20
-33.64628,0.4833332,-33.11558,0.2377391072683536,-0.2362611304030465,-0.3469898699541431,7.065262,50.67546,359.6934,0.05454655,0.4272874,-0.02878244,9.65999978408217,20
-33.59689,0.6833332,-33.07859,0.1223186081543197,0.3930761551352677,-0.5561180582395657,10.59732,50.65142,359.5369,0.0817498,0.4262695,-0.04313981,9.67999978363514,20
-33.54751,0.8833334,-33.04161,0.2104689452121562,0.1310258479586935,-0.7598786713382779,14.12823,50.61711,359.3767,0.1088671,0.4248463,-0.05745188,9.6999997831881,20
-33.37868,0.2833333,-32.91671,0.296593415319446,-0.1163881845048031,-0.9571538600784776,3.576834,52.1704,359.9383,0.02779321,0.4395081,-0.01420597,9.71999978274107,20
-33.32872,0.4833335,-32.87928,0.2006633045234238,0.3167598746898525,-1.279494299882959,7.152969,52.16459,359.8761,0.05555387,0.4388656,-0.02839549,9.73999978229403,20
-33.27878,0.6833336,-32.84186,0.2719010100554904,0.0986165966819854,-1.5782558102926068,10.72807,52.15476,359.813,0.0832525,0.4377961,-0.04255331,9.759999781847,20
-33.09454,0.2833332,-32.70412,0.3341133783117342,-0.1048904844959168,-1.8570561838527768,3.5718,53.29028,0.06733688,0.02811852,0.4482291,-0.0134513,9.77999978139997,20
-33.04529,0.4833331,-32.66592,0.3983099277588522,-0.3481231885209251,-2.106752744625176,7.142521,53.29666,0.1356795,0.05620322,0.447576,-0.02688162,9.79999978095293,20
-32.99605,0.6833333,-32.62772,0.5078949780343471,-0.3653725485552156,-2.3781199242982787,10.7122,53.30744,0.2050998,0.08422528,0.4464885,-0.04028179,9.8199997805059,20
-32.79429,0.2833333,-32.47773,0.6019025171892913,-0.3434183906946835,-2.61518204958378,3.596268,54.15257,0.09390187,0.028312,0.4549293,-0.01355334,9.83999978005886,20
-32.74438,0.4833331,-32.43965,0.6922154870796646,-0.3355768927602406,-2.811151389424364,7.191524,54.16147,0.1884935,0.0565881,0.4542569,-0.02708976,9.85999977961183,20
-32.69448,0.6833333,-32.40158,0.6176213155939472,0.3251232840013284,-3.085178782674824,10.78592,54.17645,0.284383,0.08480112,0.4531372,-0.0405978,9.87999977916479,20
-32.6446,0.8833334,-32.36353,0.6896200715548844,0.0944353185103388,-3.266752178361166,14.37927,54.19784,0.3825198,0.1129226,0.451572,-0.05406245,9.89999977871776,20
-32.4752,0.2833333,-32.23904,0.754867851363425,-0.1216174030427267,-3.399007957305475,3.64159,55.2202,0.1210984,0.02864472,0.4631882,-0.01378953,9.91999977827072,20
-32.42421,0.4833333,-32.20105,0.6336609244707141,0.3428926779417778,-3.616383644881061,7.282123,55.23182,0.2431343,0.05725226,0.462486,-0.02756129,9.93999977782369,20
-32.37322,0.683333,-32.16308,0.6635679787293043,0.1561124234016442,-3.720141078188238,10.92163,55.25144,0.3671317,0.08579418,0.4613169,-0.0413015,9.95999977737665,20
-32.18635,0.2833332,-32.03507,0.6796575408240635,-0.0160320983838507,-3.775319364306743,3.603195,57.33291,0.1785944,0.02833234,0.4794292,-0.01371458,9.97999977692962,20
-32.13511,0.4833337,-31.99853,0.6940159285912877,-0.2279020145070505,-3.775983531279813,7.205196,57.34986,0.3585587,0.05662754,0.4787166,-0.02741111,9.99999977648258,20
-32.08387,0.6833338,-31.962,0.7367300069656864,-0.213788865502891,-3.7418910002180255,10.80614,57.37848,0.5413137,0.08485873,0.4775303,-0.04107711,10.0199997760355,20
-31.87555,0.2833336,-31.82735,0.7666008725832398,-0.1604725728610146,-3.662354700937737,3.539643,60.83962,0.2838988,0.02788648,0.5060229,-0.01350225,10.0399997755885,20
-31.82403,0.4833338,-31.79296,0.7958937043749508,-0.1212694381092914,-3.532130529992152,7.078176,60.86609,0.5698763,0.05573805,0.5052942,-0.02698778,10.0599997751415,20
-31.77252,0.683334,-31.75857,0.6599221604598142,0.5707926721049037,-3.4764447404369463,10.61549,60.91076,0.8601238,0.08352762,0.5040811,-0.04044395,10.0799997746944,20
-31.72103,0.8833342,-31.72418,0.661071554905444,0.3714671592872928,-3.292884201562412,14.15123,60.97427,1.156164,0.1112231,0.5023845,-0.05386295,10.0999997742474,20
-31.55163,0.2833336,-31.65805,0.6601917545092242,0.1867770879031495,-3.0681304742369875,3.056252,63.77508,359.4283,0.02000827,0.5281723,-0.01832185,10.1199997738004,20
-31.49872,0.4833338,-31.64235,0.6690795592683259,-0.0376386461408331,-2.7979127935508004,6.174008,63.92175,358.894,0.0405852,0.5289882,-0.03668139,10.1399997733533,20
-31.44564,0.6833339,-31.62637,0.4647630314959805,0.6042427927627474,-2.649264971577324,9.306251,64.07597,358.3761,0.06126827,0.5296544,-0.05500299,10.1599997729063,20
-31.39258,0.8833338,-31.61038,0.4445261500960598,0.3547384213770344,-2.338954109932313,12.43894,64.20265,357.8616,0.08189953,0.5299109,-0.07327633,10.1799997724593,20
-31.16041,0.2833332,-31.59314,0.4152305566772547,0.1198698395466224,-2.004893559732544,2.834631,67.8497,359.0529,0.01591158,0.5580848,-0.02066008,10.1999997720122,20
-31.1087,0.4833333,-31.5836,0.3883622070151453,-0.1547244527711799,-1.643438199649534,5.779027,67.66646,358.4212,0.0342089,0.5565937,-0.03949394,10.2199997715652,20
-31.05701,0.6833334,-31.5741,0.3890705600224073,-0.2033354230518901,-1.2462864826491753,8.72349,67.45007,357.7817,0.05252663,0.5547205,-0.05827014,10.2399997711182,20
-30.84784,0.2833333,-31.55264,0.3774967723070652,-0.2127437387729541,-0.8379503150907759,2.941786,68.59732,359.1472,0.01701292,0.5634633,-0.02060991,10.2599997706711,20
-30.79461,0.4833335,-31.54192,0.3654731268546811,-0.2362650488644802,-0.4151642514635938,6.002918,68.35791,358.5945,0.03643399,0.561498,-0.0395459,10.2799997702241,20
-30.74141,0.6833335,-31.5312,0.2035880767533591,0.3930732602182317,-0.0951323315838728,9.061311,68.08719,358.0255,0.05582881,0.5591192,-0.05844758,10.2999997697771,20
-30.51437,0.2833335,-31.47112,0.1692797380331328,0.1310239794609321,0.315565462773403,3.225833,67.81713,359.8548,0.0226532,0.5576773,-0.01675377,10.31999976933,20
-30.46188,0.4833337,-31.4547,0.1369737183828725,-0.1163895167067686,0.7258134516641768,6.365544,67.47336,359.5753,0.04411596,0.5546876,-0.03391232,10.339999768883,20
-30.40912,0.6833339,-31.43927,-0.0645652919963026,0.3167594941602826,1.0042527838556057,9.495483,67.15712,359.2201,0.06520404,0.5516387,-0.0514278,10.359999768436,20
-30.35638,0.8833339,-31.42394,-0.1213279157686706,0.0986178638071221,1.3688113068293577,12.62004,66.81677,358.8397,0.08620162,0.5481682,-0.06891391,10.3799997679889,20
-30.16654,0.2833332,-31.3621,-0.1797738253371861,-0.1048882306771171,1.7150037460692538,3.207701,65.34383,359.8084,0.02265797,0.539655,-0.01651612,10.3999997675419,20
-30.11423,0.4833329,-31.34186,-0.2282197087704638,-0.3481201682416961,2.0454422349625503,6.413531,65.05949,359.6006,0.04529187,0.5370564,-0.03301413,10.4199997670949,20
-30.06195,0.6833329,-31.32162,-0.2399287465219792,-0.3653691026195101,2.366574205893137,9.61764,64.76144,359.3756,0.06788728,0.5340354,-0.04947996,10.4399997666478,20
-29.86369,0.2833331,-31.23921,-0.255802579364353,-0.3434152088123508,2.652027896803496,3.194352,60.86124,359.7513,0.02293411,0.5063488,-0.01598739,10.4599997662008,20
-29.81286,0.4833331,-31.21595,-0.2640637212667087,-0.3355739629090544,2.9044898656258304,6.386492,60.57299,359.4863,0.04584328,0.5037516,-0.03195744,10.4799997657537,20
-29.76204,0.683333,-31.19269,-0.4160504724258302,0.3251262353705544,3.01852387110031,9.576283,60.26778,359.203,0.0687098,0.5007604,-0.04789744,10.4999997653067,20
-29.54954,0.2833334,-31.0858,-0.3465282600577062,0.0944389609832936,3.2373060893576917,3.360719,58.36573,359.7199,0.02441013,0.48745,-0.01643116,10.5199997648597,20
-29.49697,0.4833336,-31.05929,-0.2802665710569449,-0.1216124942286927,3.402724576055608,6.719062,58.07425,359.4223,0.04879208,0.4847942,-0.03284329,10.5399997644126,20
-29.44442,0.6833335,-31.03277,-0.3936202579600056,0.3428989369039985,3.400073379147344,10.07492,57.76281,359.1049,0.07312541,0.4817185,-0.04922212,10.5599997639656,20
-29.39188,0.8833337,-31.00628,-0.50788585679744,0.796433353224957,3.339191148170688,13.42954,57.42903,358.7664,0.09740531,0.4782263,-0.06554978,10.5799997635186,20
-29.21186,0.2833332,-30.90099,-0.4810202426272418,0.3340128061091553,3.312625140054731,3.530739,57.42843,359.7562,0.02599653,0.4802694,-0.01666573,10.5999997630715,20
-29.15756,0.4833329,-30.8715,-0.4495956698954835,-0.1393848779572213,3.223028076265578,7.059395,57.13996,359.4944,0.05196247,0.4775586,-0.03331041,10.6199997626245,20
-29.10329,0.6833327,-30.84203,-0.542966362149155,0.2812186066586931,3.035581265901282,10.58697,56.83271,359.2126,0.07788382,0.4743922,-0.04991936,10.6399997621775,20
-29.04903,0.8833324,-30.81257,-0.4756686099569762,0.0505306091955545,2.912192139568589,14.11196,56.50372,358.9077,0.1037232,0.4707735,-0.06647581,10.6599997617304,20
-28.82489,0.2833333,-30.6629,-0.4054320421803687,-0.1655217914163635,2.743318961850424,3.571563,57.13121,359.8648,0.02680531,0.4779645,-0.01593675,10.6799997612834,20
-28.7712,0.4833333,-30.63117,-0.3200465381965465,-0.4212997387346249,2.535260011129374,7.141782,56.85381,359.7131,0.05358378,0.4752487,-0.03184697,10.6999997608364,20
-28.71752,0.6833334,-30.59944,-0.2551274704243589,-0.4510939094362893,2.4082685381976425,10.71017,56.56434,359.5423,0.08030194,0.4720707,-0.04772174,10.7199997603893,20
-28.51669,0.2833336,-30.46441,-0.195051591016,-0.4416851583015819,2.248480233906424,3.570096,56.95009,0.01674907,0.02745121,0.4765406,-0.01472311,10.7399997599423,20
-28.46457,0.4833336,-30.43029,-0.1274780681381138,-0.44638957394302,2.0640234991078685,7.139261,56.68782,0.01850536,0.05487373,0.4738329,-0.02941759,10.7599997594953,20
-28.41246,0.6833338,-30.39618,-0.2291852589970737,0.2017651231753118,1.84877512689976,10.70735,56.42334,0.003650258,0.08223456,0.4706655,-0.04407936,10.7799997590482,20
-28.36037,0.8833339,-30.36209,-0.322532987057869,0.6984554034674063,1.6223429139565368,14.27432,56.15449,359.9716,0.1095073,0.4670418,-0.05869433,10.7999997586012,20
-28.19383,0.2833333,-30.24874,-0.2282107182375199,0.1676298874264393,1.5060081507333365,3.595994,56.78728,0.05494821,0.02782926,0.4752792,-0.01449841,10.8199997581542,20
-28.14178,0.4833335,-30.21368,-0.3328184103709439,0.3466035256480585,1.3217589474235467,7.19114,56.52954,0.09379704,0.05562279,0.4725692,-0.02897817,10.8399997577071,20
-28.08974,0.6833335,-30.17863,-0.4388243918637649,0.542791351838042,1.1243333066302412,10.78568,56.27203,0.1169694,0.08335707,0.4693942,-0.04342347,10.8599997572601,20
-27.90562,0.2833336,-30.05341,-0.3927654603086346,0.0636081852187032,1.0201692346152598,3.642671,56.67757,0.08248806,0.02831548,0.474424,-0.0144536,10.879999756813,20
-27.85322,0.4833336,-30.0174,-0.3440362095371547,-0.4260637341731528,0.9088092072951356,7.284659,56.42329,0.1489537,0.05659439,0.4717018,-0.02888834,10.899999756366,20
-27.80083,0.6833335,-29.98139,-0.4452958861218725,-0.0212462202299796,0.7435355448549323,10.92587,56.17097,0.1996523,0.0848078,0.468503,-0.04328967,10.919999755919,20
-27.59989,0.2833334,-29.84452,-0.3796613217010858,-0.2672316681972693,0.6877204292585652,3.60536,57.40633,0.1361603,0.02816236,0.4800012,-0.01406645,10.9399997554719,20
-27.5481,0.4833333,-29.80875,-0.3150690755138825,-0.4980936214255892,0.6261116028542233,7.210222,57.15789,0.2568724,0.05628829,0.4772976,-0.02811495,10.9599997550249,20
-27.49632,0.6833333,-29.77299,-0.4146795205627818,-0.0479051173737448,0.493053270667886,10.81452,56.91493,0.362848,0.08434992,0.4741211,-0.04213163,10.9799997545779,20
-27.44455,0.8833333,-29.73724,-0.5096826306602757,0.391794503054983,0.3600075705300405,14.41797,56.67569,0.4546383,0.1123182,0.4704755,-0.05610085,10.9999997541308,20
-27.19653,0.2833334,-29.56732,-0.4559320622181246,-0.0839720146115956,0.3239272690335149,3.539079,58.58084,0.2390917,0.02795171,0.4889461,-0.01328844,11.0199997536838,20
-27.14594,0.4833336,-29.53169,-0.5808903764581821,0.1500600216571964,0.1963802211867928,7.078059,58.34286,0.4638002,0.05586773,0.4862727,-0.02656038,11.0399997532368,20
-27.09537,0.6833338,-29.49606,-0.703409311463318,0.4013063109711844,0.0708828146770379,10.61688,58.11694,0.6756915,0.08372185,0.4831336,-0.03980288,11.0599997527897,20
-27.04481,0.8833339,-29.46044,-0.6683367686581612,-0.0228173285572009,0.0524806294197084,14.15504,57.90174,0.8763435,0.1114854,0.4795325,-0.05299945,11.0799997523427,20
-26.87182,0.2833335,-29.34078,-0.6251918416017688,-0.4574301477342241,0.0403917067679202,3.470913,58.20092,0.2722869,0.02761692,0.4860551,-0.01265349,11.0999997518957,20
-26.82279,0.4833335,-29.30494,-0.7161359521922925,0.0024462540311317,-0.0516140185992846,6.94162,57.96667,0.5310579,0.05519893,0.4834158,-0.02528816,11.1199997514486,20
-26.77377,0.6833335,-29.2691,-0.7970524116644206,0.4518338757561699,-0.1350294631515076,10.41217,57.74644,0.7779022,0.08272126,0.4803307,-0.03789405,11.1399997510016,20
-26.58442,0.2833333,-29.13724,-0.6648595577449754,-0.0142441758418324,-0.0687007545999094,3.417296,57.22385,0.2402567,0.02717946,0.4786057,-0.01243884,11.1599997505546,20
-26.53649,0.4833333,-29.10155,-0.5254711928197864,-0.4908107339309677,0.0061714874753455,6.834168,56.98713,0.4669636,0.05432436,0.4759945,-0.02485942,11.1799997501075,20
-26.48857,0.6833333,-29.06586,-0.5720363907423334,-0.0728899239814369,-0.0464034379955293,10.25095,56.76226,0.6812835,0.08141258,0.4729582,-0.0372545,11.1999997496605,20
-26.28395,0.2833334,-28.92209,-0.4457679239942962,-0.30577243425696,0.023869492657063,3.367907,55.23006,0.1413563,0.0266102,0.4632958,-0.01252881,11.2199997492135,20
-26.23702,0.4833335,-28.88665,-0.324757255576003,-0.5235313966517895,0.0939038866758998,6.734994,54.98507,0.268631,0.05318679,0.4607125,-0.02504036,11.2399997487664,20
-26.19009,0.6833335,-28.85123,-0.3747897068729813,-0.0602401970079201,0.0477195406588606,10.10165,54.74578,0.3823935,0.07970981,0.4577309,-0.03752664,11.2599997483194,20
-26.14318,0.8833334,-28.81582,-0.4268834732619559,0.392561954534849,0.0002234914408276,13.46779,54.51067,0.4830647,0.1061559,0.454354,-0.04997708,11.2799997478724,20
-26.09629,0.9766707,-28.78042,-0.3359231936494815,-0.0701023330089107,0.0486622486563668,16.83331,54.2782,0.5709296,0.132502,0.4505849,-0.06238049,11.2999997474253,20
-25.89192,0.2833335,-28.63914,-0.2412259359365869,-0.5432558200641157,0.0999415441189945,3.31071,52.74414,-0.003027839,0.02586929,0.4440138,-0.01285539,11.3199997469783,20
-25.84584,0.4833335,-28.60432,-0.2694620576712303,-0.1219206145450367,0.0665770197897224,6.620423,52.48767,359.9791,0.05170956,0.4414639,-0.02569605,11.3399997465312,20
-25.79977,0.6833335,-28.56951,-0.1377564349286508,-0.3513878219214591,0.1420898635338048,9.928668,52.22826,359.9462,0.07749596,0.4385459,-0.03850977,11.3599997460842,20
-25.62012,0.2833331,-28.44381,-0.0041733935844838,-0.5657314405590486,0.2184109754328531,3.255285,50.84237,359.9001,0.02527984,0.4291181,-0.01297955,11.3799997456372,20
-25.57491,0.4833333,-28.4094,-0.0164931952350926,-0.0990248419253946,0.1949950081750948,6.509065,50.57843,359.7852,0.05053127,0.4265942,-0.02594448,11.3999997451901,20
-25.52971,0.6833335,-28.375,-0.0240995614391863,0.3571926586887897,0.1741573726855136,9.761296,50.30597,359.6541,0.07573394,0.4237261,-0.03888478,11.4199997447431,20
-25.33564,0.2833333,-28.23692,0.1839232877585424,-0.1020562881468434,0.301418248007991,3.205605,48.00341,359.7937,0.02482007,0.40665,-0.01302113,11.4399997442961,20
-25.2916,0.4833331,-28.20227,0.2139190799795685,0.1484940607590499,0.3068680447626803,6.409304,47.73143,359.572,0.04961351,0.4041499,-0.02602804,11.459999743849,20
-25.24757,0.6833333,-28.16763,0.2354029972039306,0.4162588852955421,0.3058779970745284,9.610888,47.44501,359.3332,0.07436007,0.4013327,-0.03901026,11.479999743402,20
-25.20355,0.8833333,-28.13299,0.2587351399303195,0.6489675461764459,0.3059262602114039,12.81007,47.14207,359.0758,0.09904039,0.3982014,-0.05195396,11.499999742955,20
-25.0352,0.2833333,-28.01537,0.4166333238773205,-0.0594024106306694,0.3974568376092442,3.451092,48.34984,359.7861,0.0267071,0.4093885,-0.01403334,11.5199997425079,20
-24.9876,0.4833331,-27.97821,0.3457665301351156,0.1554650932068623,0.3335277739662352,6.900259,48.07663,359.5555,0.05338284,0.4068193,-0.02805014,11.5399997420609,20
-24.94002,0.6833331,-27.94107,0.2670116232376145,0.3875464585832038,0.2647321483139855,10.34764,47.78706,359.3059,0.08000456,0.4038801,-0.04203976,11.5599997416139,20
-24.75689,0.2833333,-27.81281,0.3310310713651816,-0.0557423886247689,0.295645053388931,3.54881,50.13049,359.833,0.02743105,0.4234873,-0.01443754,11.5799997411668,20
-24.7074,0.4833333,-27.77546,0.3894506975609211,-0.5095204857852651,0.3245550382826501,7.096556,49.86173,359.6485,0.05483183,0.4208865,-0.02886387,11.5999997407198,20
-24.65792,0.6833335,-27.73812,0.3062873277138145,-0.0688097524643551,0.2583795608347614,10.64234,49.57901,359.4454,0.08217168,0.4178815,-0.04325805,11.6199997402728,20
-24.60846,0.8833333,-27.70079,0.3829372126314005,-0.2789020652094832,0.3041992413920198,14.18609,49.27974,359.2216,0.1094247,0.4144756,-0.05760673,11.6399997398257,20
-24.37806,0.2833336,-27.5384,0.451561957159118,-0.4738705820501842,0.3453471983977181,3.586493,52.03215,359.9599,0.02796865,0.4384183,-0.01404014,11.6599997393787,20
-24.32821,0.4833336,-27.50055,0.3551306850856122,0.0122116600774409,0.2745126555819581,7.172085,51.77626,359.9038,0.05590475,0.4358076,-0.02806306,11.6799997389317,20
-24.27837,0.6833335,-27.46272,0.2553782471002641,0.4878045758504314,0.2018090400284222,10.75637,51.5145,359.8309,0.08377796,0.4327703,-0.04205439,11.6999997384846,20
-24.07212,0.2833333,-27.31528,0.3721688007671844,0.0479307250619248,0.2814191104715746,3.553548,52.88054,0.06659733,0.02802102,0.4450343,-0.01328556,11.7199997380376,20
-24.02331,0.4833333,-27.27704,0.2930680719415477,0.3178558519486786,0.2263923827993217,7.106092,52.63548,0.1185382,0.05600681,0.4424389,-0.02655003,11.7399997375906,20
-23.97451,0.6833333,-27.23881,0.1976373800711357,0.6049956561432193,0.1600792421585382,10.65782,52.39156,0.1554979,0.08393043,0.4394184,-0.03978545,11.7599997371435,20
-23.92572,0.8833332,-27.20058,0.0971496436122123,0.8570794455661027,0.0902376654697185,14.20865,52.1469,0.1774034,0.1117651,0.4359761,-0.05297865,11.7799997366965,20
-23.75059,0.2833333,-27.07802,0.1370230530630465,0.1680841141098553,0.1160148326500198,3.624144,53.69569,0.09142939,0.028573,0.4513743,-0.0135694,11.7999997362494,20
-23.70048,0.4833332,-27.0394,0.1774456429988049,-0.4300118755196757,0.1422530260406524,7.24761,53.45404,0.1676985,0.05710908,0.4487579,-0.0271214,11.8199997358024,20
-23.65038,0.6833328,-27.00079,0.0413977840874721,-0.0344987275609235,0.0501120332138285,10.871,53.21505,0.2289314,0.08558385,0.4456926,-0.04064687,11.8399997353554,20
-23.4592,0.2833336,-26.86584,0.0558956819403242,-0.290276234935429,0.0746101053017689,3.637895,54.16151,0.1026356,0.02866889,0.454991,-0.01365302,11.8599997349083,20
-23.4087,0.4833336,-26.82733,0.0664962008125193,-0.5314177968141758,0.0965974053016296,7.275173,53.9217,0.190186,0.05730065,0.4523737,-0.02728853,11.8799997344613,20
-23.35822,0.6833336,-26.78883,-0.0749739605466288,-0.0919962110826339,0.0152867562234213,10.91173,53.68534,0.2631176,0.08586603,0.4493006,-0.04089258,11.8999997340143,20
-23.30775,0.8833335,-26.75035,-0.2134485579327893,0.3364481968401909,-0.0640000818790689,14.54769,53.45056,0.3214686,0.1143373,0.4457749,-0.05445328,11.9199997335672,20
-23.06907,0.2833333,-26.58221,-0.1400899140398621,-0.1510621732875476,0.0208757755756607,3.581719,56.33251,0.2069931,0.02840277,0.4717506,-0.01315991,11.9399997331202,20
-23.01898,0.4833333,-26.54468,-0.2431290193772106,0.0707388757822999,-0.0180364308163945,7.163208,56.10344,0.399955,0.05676912,0.4691546,-0.0263033,11.9599997326732,20
-22.96891,0.6833332,-26.50715,-0.3505121293702231,0.3092667645575526,-0.0623983991160201,10.74437,55.88461,0.580219,0.08507127,0.4660992,-0.03941702,11.9799997322261,20
-22.91885,0.8833331,-26.46964,-0.4502846566685257,0.5122502817380113,-0.104237102667124,14.32482,55.67453,0.7486156,0.1132782,0.4625878,-0.05248884,11.9999997317791,20
-22.75414,0.2833333,-26.35442,-0.3992268750653451,-0.2263326932226638,-0.0393901595357881,3.514845,57.03463,0.2575658,0.02801966,0.477138,-0.01266756,12.0199997313321,20
-22.70506,0.4833336,-26.31738,-0.4771416897575733,-0.042166495538944,-0.0648951975452689,7.029623,56.81092,0.5017806,0.05600407,0.4745725,-0.02531934,12.039999730885,20
-22.65599,0.6833333,-26.28036,-0.5442709391352167,0.1587267809008063,-0.0874472894995683,10.54398,56.60056,0.7343951,0.08392521,0.4715588,-0.03794163,12.059999730438,20
-22.47531,0.2833336,-26.1522,-0.446526796485486,-0.3162380425902786,-0.0039953252597051,3.454117,56.95425,0.2839084,0.02767249,0.4765242,-0.01219332,12.079999729991,20
-22.42742,0.4833335,-26.11528,-0.4948528061346025,-0.0818917526664693,-0.0240658730724305,6.907939,56.73334,0.5551768,0.05530955,0.473987,-0.02436826,12.0999997295439,20
-22.37955,0.6833335,-26.07837,-0.5361029520566127,0.1691810311930865,-0.0431258047374782,10.36175,56.52725,0.8153062,0.0828877,0.4710168,-0.03651768,12.1199997290969,20
-22.18312,0.2833336,-25.93813,-0.400846207849483,-0.2556044310614869,0.0568222034933825,3.405274,55.77291,0.2149714,0.02713895,0.4674643,-0.01223961,12.1399997286499,20
-22.13604,0.4833338,-25.90171,-0.2564950595527868,-0.6913663631202359,0.1604613572681259,6.810013,55.54621,0.4168096,0.05424299,0.4649545,-0.02446289,12.1599997282028,20
-22.08896,0.683334,-25.8653,-0.308970993322589,-0.2331281892440045,0.1256207127373727,10.21454,55.3299,0.6067134,0.08129104,0.462033,-0.03666111,12.1799997277558,20
-22.0419,0.8833337,-25.8289,-0.3552761888405342,0.2141330469195525,0.0924574648547249,13.61884,55.1227,0.7857617,0.1082596,0.4587027,-0.04882357,12.1999997273088,20
-21.79898,0.2833333,-25.65505,-0.1753948778256244,-0.2545595787519128,0.2134979797544218,3.351162,53.52758,0.09695677,0.02648859,0.4500985,-0.01241212,12.2199997268617,20
-21.7529,0.4833332,-25.61904,-0.1817696628630472,-0.0139407894074348,0.2013150398150394,6.701306,53.29119,0.1803467,0.05294397,0.447621,-0.02480727,12.2399997264147,20
-21.70683,0.6833335,-25.58303,-0.1957171083144153,0.2434045953647655,0.1798701773997741,10.05075,53.05793,0.2503867,0.07934578,0.444761,-0.03717766,12.2599997259676,20
-21.66077,0.8833336,-25.54703,-0.2065818199465958,0.465205816753177,0.1565812275673366,13.39952,52.82629,0.3072752,0.105672,0.4415212,-0.04951267,12.2799997255206,20
-21.48904,0.2833333,-25.4254,-0.0692814280917666,-0.2545592324595501,0.2279711797745811,3.293416,51.04671,359.9583,0.0257753,0.4307104,-0.01271039,12.2999997250736,20
-21.44383,0.4833331,-25.38994,-0.0738405521767973,-0.0515749131004534,0.2009727722837908,6.585685,50.79916,359.9023,0.0515219,0.4282644,-0.02540651,12.3199997246265,20
-21.39863,0.6833331,-25.35449,-0.0765497781023754,0.1681360961218155,0.1724768746504281,9.876283,50.54654,359.8314,0.07721492,0.4254653,-0.038076,12.3399997241795,20
-21.2159,0.2833334,-25.21259,0.0826110792739207,-0.2880107693878179,0.2510659445309144,3.240887,48.4781,359.8701,0.02532015,0.4104094,-0.01264259,12.3599997237325,20
-21.172,0.4833336,-25.17689,0.0770203785524366,-0.0348472017837064,0.2140836102327412,6.480188,48.22387,359.7256,0.0506121,0.4079899,-0.02527133,12.3799997232854,20
-21.12811,0.6833338,-25.1412,0.0670470278187203,0.2350428182010692,0.1718806245392663,9.717859,47.95955,359.5655,0.075856,0.4052441,-0.0378759,12.3999997228384,20
-21.08423,0.8833337,-25.10553,0.0629513779477086,0.4693886497121964,0.1319229811044948,12.95355,47.68328,359.3888,0.1010312,0.4021749,-0.05044165,12.4199997223914,20
-20.85554,0.2833334,-24.92537,0.2751251269828607,-0.2378317098394696,0.2394740624949811,3.267379,45.66092,359.7678,0.02548992,0.3879004,-0.01292862,12.4399997219443,20
-20.81186,0.4833333,-24.8885,0.2630998001612497,-0.0223024894720766,0.1909922866204816,6.532755,45.39875,359.5203,0.05095155,0.3854857,-0.02584299,12.4599997214973,20
-20.76819,0.6833333,-24.85164,0.238496699124024,0.2099533114259339,0.1335442566102855,9.796009,45.12037,359.2558,0.07636423,0.3827568,-0.03873234,12.4799997210503,20
-20.72453,0.8833331,-24.8148,0.211698435551483,0.4066651613328086,0.074833919064492,13.05736,44.82367,358.9724,0.1017115,0.3797162,-0.05158399,12.4999997206032,20
-20.55788,0.2833333,-24.68785,0.315110264724229,-0.3381896990438624,0.1053382252861716,3.529836,47.59257,359.807,0.02750115,0.4033415,-0.01396714,12.5199997201562,20
-20.51,0.4833331,-24.64888,0.2835848272633186,-0.1602953776287916,0.0464619374705854,7.057873,47.33317,359.5977,0.0549688,0.400848,-0.02791758,12.5399997197092,20
-20.46215,0.6833333,-24.60992,0.2511633594018327,0.0343251918762238,-0.0105672225243651,10.58584,47.05833,359.3695,0.08238944,0.397973,-0.04184897,12.5599997192621,20
-20.28018,0.2833333,-24.48141,0.3689067702639761,-0.4469117183595733,0.0387049014195604,3.56324,49.72445,359.8752,0.02775116,0.4202649,-0.01405889,12.5799997188151,20
-20.23125,0.4833333,-24.44299,0.3311192604849431,-0.2188376953396222,-0.0158517049675701,7.125128,49.47194,359.734,0.05546744,0.4177586,-0.028105,12.5999997183681,20
-20.18233,0.6833332,-24.40457,0.2904221979153725,0.025962974420303,-0.0690204325457308,10.68536,49.20827,359.5755,0.0831221,0.4148484,-0.04211999,12.619999717921,20
-19.98453,0.2833333,-24.26264,0.2577369641701956,0.2352197455467518,-0.1129427707118182,3.592811,51.41581,0.01694506,0.02830924,0.4335661,-0.01346509,12.639999717474,20
-19.93563,0.4833334,-24.22341,0.25737322215668,0.2231973870823217,-0.1308869353152708,7.184863,51.17739,0.01923157,0.05658532,0.4310496,-0.0269117,12.6599997170269,20
-19.88675,0.6833333,-24.18419,0.2432747670996384,0.2566502475007994,-0.154033857364265,10.7759,50.93697,0.006371801,0.08479777,0.42811,-0.04032791,12.6799997165799,20
-19.83787,0.8833332,-24.14498,0.2267335700692889,0.2822621150054226,-0.1742876395737838,14.36582,50.69258,359.9778,0.1129184,0.4247505,-0.05370084,12.6999997161329,20
-19.5925,0.2833334,-23.96968,0.3854495528339825,-0.3935965642572936,-0.0673975627883614,3.570085,52.82289,0.08968563,0.02824646,0.4445762,-0.01315525,12.7199997156858,20
-19.54374,0.4833333,-23.9309,0.308467662835497,-0.146705539632636,-0.1211738222036586,7.139357,52.59223,0.164989,0.05645577,0.4420701,-0.02629454,12.7399997152388,20
-19.49498,0.6833333,-23.89212,0.2171679121659835,0.116912107861779,-0.1804390987061346,10.70787,52.36432,0.2263952,0.08460186,0.4391352,-0.0394046,12.7599997147918,20
-19.44624,0.8833331,-23.85336,0.1228535623331446,0.3449854849920248,-0.237107121503076,14.27561,52.13741,0.2740132,0.1126577,0.4357748,-0.05247274,12.7799997143447,20
-19.27156,0.2833334,-23.73112,0.1708585785630418,-0.3685074636242967,-0.1916977037447367,3.646964,53.54951,0.109252,0.02883801,0.4502289,-0.01348383,12.7999997138977,20
-19.22141,0.4833335,-23.69188,0.0709262427840329,-0.1592506468482367,-0.2419774208565606,7.29329,53.32182,0.2041579,0.0576383,0.4476989,-0.02695026,12.8199997134507,20
-19.17128,0.6833335,-23.65265,-0.0304226160628964,0.0667328435871273,-0.2877472178901108,10.93893,53.09817,0.2852422,0.08637165,0.4447158,-0.04038579,12.8399997130036,20
-18.98088,0.2833333,-23.51855,0.0281998634078153,-0.3831422366917237,-0.2153304195306908,3.61895,54.5691,0.1302906,0.02858386,0.4581491,-0.01346477,12.8599997125566,20
-18.93067,0.4833333,-23.4802,-0.0759068765305333,-0.123706208521381,-0.2621157984138129,7.23733,54.34408,0.2465546,0.05713062,0.4556315,-0.02691223,12.8799997121096,20
-18.88047,0.6833332,-23.44187,-0.1827472004686203,0.1524559474295359,-0.3066476634094819,10.85508,54.12447,0.3494876,0.08561177,0.4526593,-0.04032911,12.8999997116625,20
-18.83028,0.883333,-23.40354,-0.2804923188353356,0.39307389608941,-0.3407845111820187,14.47204,53.90859,0.43923,0.1139968,0.4492359,-0.0537039,12.9199997112155,20
-18.59256,0.2833334,-23.2361,-0.1531341244691226,-0.3078746062723557,-0.2130184149031713,3.551524,56.82157,0.2441912,0.02826906,0.4755021,-0.01287029,12.9399997107685,20
-18.54296,0.4833334,-23.19873,-0.2365341230752022,-0.0860733239016398,-0.247102356171954,7.102921,56.60796,0.4755013,0.05650236,0.4730084,-0.02572452,12.9599997103214,20
-18.49337,0.6833334,-23.16138,-0.321682684676956,0.1524547427677019,-0.2824513578916949,10.65408,56.40709,0.6955556,0.08467264,0.4700588,-0.03855,12.9799997098744,20
-18.44379,0.8833333,-23.12403,-0.3970157525921216,0.355438822117875,-0.3114072189009782,14.20455,56.21768,0.9054962,0.1127489,0.4666565,-0.05133493,12.9999997094274,20
-18.27987,0.2833332,-23.00914,-0.3228111883281634,-0.3831435249864309,-0.2406214880628425,3.484604,57.03949,0.2771797,0.02786905,0.4771749,-0.01239247,13.0199997089803,20
-18.23143,0.4833332,-22.9721,-0.3759904309977049,-0.1989768584359211,-0.2658000355341414,6.969204,56.82949,0.5420057,0.05570381,0.4747127,-0.02476965,13.0399997085333,20
-18.18299,0.6833332,-22.93507,-0.4190866506176185,0.0019163959630861,-0.2858202380999621,10.45324,56.63413,0.7964207,0.08347555,0.4718094,-0.03711712,13.0599997080863,20
-18.00298,0.2833335,-22.8075,-0.2999774713872458,-0.4730483807458637,-0.1953581142082932,3.428389,56.59422,0.2678345,0.02744662,0.4737687,-0.01212338,13.0799997076392,20
-17.95555,0.4833335,-22.77076,-0.3265928403214886,-0.2387017751079601,-0.2040263652533305,6.85638,56.38371,0.5236062,0.05485801,0.4713343,-0.02422952,13.0999997071922,20
-17.90813,0.6833335,-22.73403,-0.3464148765380219,0.0123713681987133,-0.2084420241148024,10.28428,56.18706,0.7688153,0.08221191,0.468476,-0.03631058,13.1199997067451,20
-17.86073,0.8833336,-22.69731,-0.3488882751863311,0.2279006254168415,-0.2013435359532955,13.71197,56.00322,1.005007,0.1094836,0.4651968,-0.04835538,13.1399997062981,20
-17.63367,0.2833333,-22.53604,-0.311601961531748,0.2221506737670974,-0.1654700864284315,3.377038,54.51022,0.1512856,0.02679884,0.4577193,-0.01232088,13.1599997058511,20
-17.58716,0.4833334,-22.49978,-0.280080714426278,0.2618759961456858,-0.134390359907897,6.753228,54.28995,0.2898434,0.05356333,0.4553175,-0.02462531,13.179999705404,20
-17.54066,0.6833333,-22.46353,-0.2434950874324233,0.2937608619933317,-0.1009155621513748,10.12897,54.07627,0.4164372,0.08027363,0.45252,-0.03690469,13.199999704957,20
-17.33826,0.2833332,-22.31845,-0.0228149605195344,-0.3758247462703009,0.0599920374632176,3.31893,52.7028,0.03478815,0.0260846,0.4436812,-0.0125823,13.21999970451,20
-17.2925,0.4833331,-22.28297,-0.0301654362686942,-0.1226612150813338,0.0604624549480306,6.63698,52.47286,0.0562724,0.05213933,0.4413095,-0.02515037,13.2399997040629,20
-17.24674,0.683333,-22.24751,-0.0452869652867278,0.1472290020505159,0.0532353463977379,9.953691,52.24245,0.06435368,0.07813888,0.4385681,-0.03769263,13.2599997036159,20
-17.201,0.883333,-22.21206,-0.0576977873804587,0.381575146313737,0.045381662108344,13.26944,52.01,0.05884126,0.104065,0.4354599,-0.05019964,13.2799997031689,20
-17.02969,0.2833335,-22.09099,0.0747095848572527,-0.3256448889863115,0.1339179213144277,3.266323,50.91606,359.9218,0.02543951,0.4296927,-0.0128669,13.2999997027218,20
-16.98453,0.4833336,-22.05622,0.0642203499760043,-0.110116130603421,0.1249259065113435,6.531331,50.67733,359.8298,0.05085078,0.4273489,-0.02571938,13.3199997022748,20
-16.93937,0.6833335,-22.02146,0.0539585529495045,0.1221392881097854,0.1139936613345646,9.794696,50.43155,359.7233,0.07621071,0.4246583,-0.03854667,13.3399997018278,20
-16.75377,0.2833331,-21.88792,0.0542118908593245,0.3188505816838196,0.1081431063085638,3.216034,48.04353,359.8098,0.02495581,0.4069653,-0.01293851,13.3599997013807,20
-16.70977,0.4833332,-21.85295,0.0883426839602901,0.294283225074994,0.125996180774873,6.430235,47.79615,359.6055,0.049884,0.4046474,-0.02586277,13.3799997009337,20
-16.66577,0.683333,-21.818,0.1118251045046072,0.3151911542553752,0.1347800194191464,9.642603,47.53544,359.3856,0.07476564,0.4020104,-0.03876281,13.3999997004867,20
-16.62179,0.883333,-21.78306,0.1351216771249479,0.3282584385566126,0.1418786992393848,12.8527,47.2595,359.1488,0.09957993,0.3990569,-0.0516242,13.4199997000396,20
-16.38651,0.2833332,-21.6138,0.3254771081217598,-0.3601440469078263,0.2649378764661492,3.399773,47.99457,359.7919,0.02636181,0.4065629,-0.01372287,13.4399996995926,20
-16.3399,0.4833333,-21.57688,0.291620578572255,-0.1257976335384126,0.2322740823562767,6.797681,47.74545,359.5686,0.05269279,0.4041957,-0.02742977,13.4599996991456,20
-16.29329,0.6833334,-21.53996,0.2447515232577704,0.1252754263096227,0.1901362431857975,10.19362,47.4809,359.3284,0.07896966,0.401472,-0.04110883,13.4799996986985,20
-16.24671,0.8833334,-21.50306,0.1953195298508365,0.3408045749792533,0.1459655153880419,13.58897,47.19862,359.069,0.1051808,0.398394,-0.05475423,13.4999996982515,20
-16.08009,0.2833335,-21.3859,0.2756679827297503,-0.385233399310616,0.1920036694014655,3.533511,49.68524,359.8331,0.02736639,0.4199678,-0.01427361,13.5199996978045,20
-16.03109,0.4833334,-21.34832,0.2211784307405455,-0.1885215645622003,0.1475684613559629,7.066172,49.43999,359.6504,0.05470406,0.4175581,-0.02853654,13.5399996973574,20
-15.98212,0.6833332,-21.31076,0.1658172151367019,0.0249168279791417,0.1032298667017848,10.59722,49.18116,359.4506,0.08198332,0.414751,-0.042769,13.5599996969104,20
-15.80072,0.2833335,-21.18131,0.2605179052821267,-0.4375031592320023,0.1640852480415198,3.577194,51.2745,359.9307,0.02787748,0.4324781,-0.01404955,13.5799996964633,20
-15.75119,0.4833336,-21.1433,0.2002574934250436,-0.1906122995209172,0.1191187099022421,7.153389,51.03894,359.8465,0.05572234,0.4300537,-0.0280826,13.5999996960163,20
-15.70167,0.6833336,-21.10531,0.137484175099102,0.0730051200739204,0.0728526301757312,10.7282,50.79595,359.7466,0.0835049,0.4272106,-0.04208432,13.6199996955693,20
-15.65216,0.8833336,-21.06732,0.0831582124934158,0.301078553133648,0.0329009455831403,14.30155,50.54338,359.6297,0.1111979,0.4239521,-0.05604118,13.6399996951222,20
-15.42407,0.2833332,-20.90352,0.2391416392457763,-0.4124149079082515,0.1414307232417151,3.563232,52.66087,0.0670405,0.02812386,0.4433165,-0.01326582,13.6599996946752,20
-15.37528,0.4833332,-20.86497,0.1859532492308044,-0.203158786156209,0.1054032498429933,7.125571,52.43911,0.1207726,0.05621303,0.4408992,-0.02651153,13.6799996942282,20
-15.3265,0.6833332,-20.82643,0.1274564717098947,0.0228238112368858,0.0659543991851414,10.68708,52.2188,0.1609809,0.08423957,0.4380561,-0.039728,13.6999996937811,20
-15.1201,0.2833333,-20.67747,0.2406760759521287,-0.4270515094864732,0.1479900668629277,3.627083,53.54661,0.09336033,0.0286211,0.4502128,-0.01352873,13.7199996933341,20
-15.07007,0.4833333,-20.63865,0.1633657352701405,-0.1676154026489612,0.096393062313588,7.253466,53.32807,0.1730149,0.05720521,0.4477736,-0.02704012,13.7399996928871,20
-15.02007,0.6833333,-20.59985,0.0740449648719394,0.1085474194029404,0.0360812859338963,10.87966,53.11263,0.2391449,0.08572711,0.4448858,-0.04052465,13.75999969244,20
-14.97007,0.8833332,-20.56105,-0.0159319054117688,0.3491664256701817,-0.0249675922530663,14.50504,52.89864,0.29214,0.1141547,0.4415529,-0.05396473,13.779999691993,20
-14.79676,0.2833335,-20.43799,0.0378488579820572,-0.3517812754712406,0.0145831075623945,3.638564,53.89875,0.101591,0.02870119,0.4529494,-0.01359801,13.799999691546,20
-14.74642,0.4833333,-20.39925,-0.0540792107781094,-0.1299800576546489,-0.0447097155175519,7.276464,53.68194,0.1896004,0.05736535,0.4505114,-0.0271782,13.8199996910989,20
-14.69611,0.6833335,-20.36052,-0.1455434307186962,0.1085474789042456,-0.1026847894368643,10.91359,53.4688,0.2644358,0.08596279,0.4476195,-0.04072734,13.8399996906519,20
-14.6458,0.8833334,-20.3218,-0.2249774016946339,0.3115310273599138,-0.1512642502487118,14.55011,53.2577,0.3262667,0.1144661,0.444277,-0.05423304,13.8599996902049,20
-14.42543,0.2833332,-20.16549,-0.2648865206397701,0.293236515157355,-0.1703691520062982,3.581887,56.146,0.2085782,0.02843196,0.4703153,-0.01310215,13.8799996897578,20
-14.37549,0.4833331,-20.12775,-0.3097640246167508,0.3204172929256476,-0.192590833131625,7.163455,55.94007,0.4046041,0.05682744,0.4678959,-0.02618758,13.8999996893108,20
-14.32556,0.6833329,-20.09003,-0.3477574019386633,0.3397578584406777,-0.2098593486655673,10.74465,55.74478,0.5894089,0.08515872,0.4650184,-0.03924371,13.9199996888638,20
-14.12873,0.2833335,-19.94899,-0.2043348485922997,-0.3423723635174885,-0.0996500399783677,3.515084,56.90914,0.2596102,0.02804384,0.4761753,-0.01262218,13.9399996884167,20
-14.07976,0.4833335,-19.91181,-0.2749804333864531,-0.1017533048054677,-0.1409781474187852,7.030066,56.70829,0.5072978,0.05605293,0.4737831,-0.02522871,13.9599996879697,20
-14.0308,0.6833336,-19.87463,-0.3475682783938865,0.1555921157720557,-0.1852053883877786,10.54446,56.52119,0.7447905,0.08399785,0.4709435,-0.03780588,13.9799996875226,20
-13.98185,0.8833337,-19.83747,-0.4113065458344067,0.3773935662796925,-0.2249511880138719,14.05849,56.3468,0.9735902,0.1118545,0.4676594,-0.05034349,13.9999996870756,20
-13.81869,0.2833333,-19.72085,-0.33157133099375,-0.3423718598036679,-0.1683113913114944,3.454085,56.72698,0.2831378,0.02769318,0.4747808,-0.01214419,14.0199996866286,20
-13.77095,0.4833336,-19.68375,-0.3793667162016128,-0.1393879379620708,-0.1990000470350104,6.907685,56.52882,0.5550092,0.05535032,0.4724185,-0.02426974,14.0399996861815,20
-13.72323,0.6833336,-19.64666,-0.4187898584629508,0.0803225448086912,-0.2247351712734762,10.36122,56.3457,0.8172131,0.08294918,0.4696248,-0.03636951,14.0599996857345,20
-13.54415,0.2833334,-19.51813,-0.4394098132663639,0.2644894027565163,-0.2381348214092824,3.405204,55.61299,0.2165518,0.02716189,0.4662305,-0.01218925,14.0799996852875,20
-13.49719,0.4833333,-19.48154,-0.4172501337197243,0.2273771653506678,-0.2199969160294976,6.809811,55.40918,0.4213118,0.05428888,0.4638958,-0.02436246,14.0999996848404,20
-13.45024,0.6833333,-19.44497,-0.3954267889972307,0.2357401682586521,-0.2016527946363808,10.21413,55.21612,0.6155479,0.08135982,0.4611505,-0.03651066,14.1199996843934,20
-13.40331,0.8833333,-19.40841,-0.3634174046919884,0.2362625603504681,-0.1757707378949611,13.61809,55.03268,0.8003555,0.1083505,0.4579974,-0.04862331,14.1399996839464,20
-13.17753,0.2833333,-19.24578,-0.1622211061436171,-0.4646859037666833,-0.0311448469000161,3.351171,53.41356,0.09872187,0.02650791,0.4492099,-0.01237204,14.1599996834993,20
-13.13154,0.4833332,-19.20964,-0.162110937257502,-0.2428845460392621,-0.0282514892666867,6.701307,53.19998,0.1851844,0.05298259,0.4469085,-0.02472745,14.1799996830523,20
-13.08557,0.6833332,-19.17351,-0.1613378558914373,-0.0043564730974571,-0.0262864739427719,10.05076,52.9899,0.259701,0.07940398,0.4442253,-0.03705809,14.1999996826053,20
-12.88423,0.2833333,-19.0276,0.017744081673074,-0.4416865306647564,0.1007013487624917,3.293872,51.60453,359.9708,0.02576415,0.4350935,-0.01273929,14.2199996821582,20
-12.83881,0.4833333,-18.9924,0.0104269371084093,-0.1697054925891452,0.0950095219591133,6.58663,51.3804,359.9286,0.05149927,0.4328212,-0.02546429,14.2399996817112,20
-12.7934,0.6833333,-18.95721,-0.006338788049641,0.1190019277374807,0.0811961940154795,9.877822,51.15214,359.8729,0.07718026,0.4301921,-0.03816437,14.2599996812642,20
-12.748,0.8833333,-18.92203,-0.0224396754293216,0.3721654234695917,0.0663062932075781,13.16782,50.91813,359.803,0.1027898,0.4272085,-0.05082937,14.2799996808171,20
-12.57795,0.2833333,-18.79937,-0.0277801483384223,0.4236853821932858,0.0573665663734246,3.241276,49.42482,359.8806,0.0252562,0.4179232,-0.01276958,14.2999996803701,20
-12.53358,0.4833334,-18.76425,0.0026235457952594,0.3558028363737946,0.0724161101386045,6.481082,49.19398,359.748,0.05048459,0.4156795,-0.02552489,14.3199996799231,20
-12.48923,0.6833333,-18.72914,0.026860970808757,0.3338836545646414,0.0815980499682282,9.719398,48.95388,359.6012,0.07566521,0.4131034,-0.03825611,14.339999679476,20
-12.44488,0.8833332,-18.69404,0.0551758032728777,0.304611546476122,0.0921654902969884,12.9558,48.70283,359.4391,0.1007761,0.4101977,-0.05094966,14.359999679029,20
-12.22762,0.2833333,-18.53658,0.2363054089612912,-0.4256431863604163,0.2081249161572778,3.267961,47.01691,359.778,0.02537513,0.3987722,-0.01315017,14.379999678582,20
-12.18319,0.4833333,-18.50061,0.2204860455119455,-0.2326605579534647,0.1863733388935742,6.534059,46.77801,359.542,0.05072218,0.3965325,-0.02628572,14.3999996781349,20
-12.13878,0.6833334,-18.46466,0.1997403965992283,-0.0224633281181316,0.1607812617142894,9.798164,46.52374,359.2903,0.07602031,0.3939697,-0.03939581,14.4199996776879,20
-11.94198,0.2833333,-18.32148,0.339825531378791,-0.4876363025909459,0.2498877402999344,3.53005,48.56453,359.8039,0.02737233,0.4110846,-0.01422519,14.4399996772408,20
-11.89342,0.4833334,-18.28336,0.2990893686988745,-0.2430106153639491,0.212284832663709,7.058316,48.32696,359.5929,0.05471101,0.4087623,-0.02843299,14.4599996767938,20
-11.84488,0.6833333,-18.24524,0.2457328487323735,0.018829418820993,0.1662723347762842,10.58666,48.07404,359.3644,0.08200375,0.4060508,-0.04262102,14.4799996763468,20
-11.79636,0.8833334,-18.20715,0.1901660704971171,0.245613251976899,0.1192908368069218,14.11303,47.80342,359.1169,0.1092111,0.4029535,-0.05676473,14.4999996758997,20
-11.63187,0.2833333,-18.08992,0.3489624505875586,-0.4686814919584198,0.2268166453886806,3.562861,50.19283,359.8657,0.02765532,0.4239705,-0.01424583,14.5199996754527,20
-11.58253,0.4833334,-18.05202,0.3633350481026074,-0.2597386962334504,0.2349792921600304,7.12438,49.96171,359.7165,0.05527652,0.4216375,-0.02847719,14.5399996750057,20
-11.53321,0.6833333,-18.01413,0.3675681163661117,-0.0335818142934441,0.2364523022639044,10.68426,49.71913,359.5513,0.08283642,0.4188971,-0.04267681,14.5599996745586,20
-11.4839,0.8833334,-17.97625,0.3727931201557055,0.1575189270771254,0.23903673226223,14.24236,49.46283,359.3684,0.1103079,0.4157523,-0.05683108,14.5799996741116,20
-11.27291,0.2833333,-17.82392,0.3635587172508341,0.1278292018982305,0.2322650831091088,3.587607,52.06747,0.03385369,0.02825616,0.4386768,-0.01347342,14.5999996736646,20
-11.22383,0.4833333,-17.78506,0.3435771190962526,0.1441028132876335,0.2186334998517001,7.174501,51.85307,0.05473626,0.05647969,0.4363348,-0.02692732,14.6199996732175,20
-11.17476,0.6833333,-17.7462,0.3241383705924807,0.1530238054871261,0.2060644199700654,10.76043,51.6381,0.06217262,0.08463965,0.4335658,-0.04035105,14.6399996727705,20
-10.98657,0.2833332,-17.60999,0.3165455529138263,0.1012759964941519,0.2024946379207914,3.567785,52.92403,0.07536792,0.02816123,0.44537,-0.01328304,14.6599996723235,20
-10.93762,0.4833332,-17.57151,0.2992242894301746,0.0421754631603528,0.1925362975454358,7.134663,52.71414,0.1376585,0.05628547,0.4430364,-0.02654973,14.6799996718764,20
-10.88869,0.6833333,-17.53304,0.2701452520096818,0.0290381756183399,0.1742206200407103,10.70071,52.50634,0.1872564,0.08434676,0.4402739,-0.03978689,14.6999996714294,20
-10.68308,0.2833333,-17.38326,0.2407771898355886,0.0085482981579222,0.15560686103926,3.646674,53.55228,0.1037542,0.02881383,0.4502518,-0.0135262,14.7199996709824,20
-10.63288,0.4833332,-17.34409,0.1923972091059358,0.007363676587958,0.1245819227620277,7.292661,53.34588,0.1945272,0.05759011,0.4478912,-0.02703485,14.7399996705353,20
-10.5827,0.683333,-17.30493,0.1261598424611092,0.0521422767653313,0.0813552358608369,10.93793,53.14345,0.2728519,0.08629985,0.4450774,-0.04051232,14.7599996700883,20
-10.53254,0.883333,-17.26578,0.0536479117091026,0.0895681434545321,0.0341472321949005,14.5831,52.94342,0.3389011,0.1149186,0.4418132,-0.05394835,14.7799996696413,20
-10.48239,0.9766705,-17.22664,-0.0135559016015003,0.0663252147010268,-0.0088191473903194,18.22742,52.74423,0.392797,0.1434125,0.4381026,-0.06732592,14.7999996691942,20
-10.27959,0.2833333,-17.08241,-0.0893107762654228,0.0357294606374285,-0.0567534851312689,3.610137,54.95946,0.1593359,0.02858652,0.4611665,-0.01330183,14.8199996687472,20
-10.22954,0.4833332,-17.04406,-0.1687379921445835,0.05109683754465,-0.1063295622965352,7.219755,54.75935,0.3063253,0.05713613,0.4588213,-0.0265864,14.8399996683002,20
-10.17951,0.6833332,-17.00573,-0.2400106056893118,0.0591116153861214,-0.1493797751248387,10.82879,54.56685,0.4418832,0.08562018,0.4560205,-0.03984103,14.8599996678531,20
-9.999697,0.2833333,-16.87676,-0.2913216415695832,0.0064578512099126,-0.1777099751293942,3.54564,56.48997,0.2375815,0.02823369,0.4729586,-0.01281493,14.8799996674061,20
-9.950341,0.4833332,-16.83924,-0.3384246990480966,-0.0535486182283737,-0.2039269815256084,7.091043,56.29759,0.4636334,0.05643189,0.4706356,-0.02561372,14.899999666959,20
-9.900999,0.6833332,-16.80174,-0.3833494921874214,-0.0675918494540999,-0.2296812890541701,10.63611,56.11777,0.6796926,0.08456724,0.4678607,-0.03838427,14.919999666512,20
-9.705863,0.283333,-16.66008,-0.4148287886955941,-0.0889880249925291,-0.2472251222623533,3.483249,56.72326,0.2760147,0.02788791,0.4747498,-0.01231883,14.939999666065,20
-9.65764,0.4833331,-16.6228,-0.4548248431406705,-0.0910788204108425,-0.2722482694022012,6.966348,56.5347,0.5409766,0.0557412,0.4724537,-0.02462238,14.9599996656179,20
-9.609426,0.683333,-16.58552,-0.5011210577078282,-0.0472065910546575,-0.303582170161393,10.44883,56.36097,0.7968996,0.08353198,0.4697192,-0.03689623,14.9799996651709,20
-9.561226,0.883333,-16.54826,-0.5432405934756934,-0.0106869474352354,-0.3338214647181381,13.93104,56.20116,1.045263,0.111237,0.4665491,-0.04913236,14.9999996647239,20
-9.319856,0.2833334,-16.37233,-0.4055689413605927,-0.6751501472289497,-0.2358283487490204,3.425217,55.9023,0.2531103,0.02743468,0.4684498,-0.01205792,15.0199996642768,20
-9.272783,0.4833333,-16.33526,-0.4015116580699782,-0.4163760043352126,-0.2301483960712786,6.849866,55.71217,0.4954444,0.05483433,0.466185,-0.02409801,15.0399996638298,20
-9.225724,0.6833333,-16.29819,-0.3976534497649018,-0.1403875319941693,-0.2246248630006047,10.27428,55.53522,0.7283515,0.0821766,0.4635022,-0.0361131,15.0599996633828,20
-9.178679,0.8833333,-16.26114,-0.3834393644211085,0.100544950665082,-0.2117664743621379,13.69838,55.37053,0.9532826,0.1094369,0.4604041,-0.04809241,15.0799996629357,20
-9.008769,0.2833334,-16.13836,-0.3483212791609054,0.1403210591055537,-0.1840632595494113,3.369983,54.05167,0.1485061,0.0267821,0.4541614,-0.01220718,15.0999996624887,20
-8.962628,0.4833334,-16.10183,-0.3140936496475923,0.0611831047656162,-0.1573335487972116,6.73904,53.85275,0.2855414,0.05352973,0.4519303,-0.0243982,15.1199996620417,20
-8.916501,0.6833335,-16.06532,-0.2800893983099435,0.0284962769430485,-0.1312279832038498,10.10758,53.66047,0.411889,0.08022327,0.4493084,-0.03656447,15.1399996615946,20
-8.870386,0.8833334,-16.02881,-0.2356952836249384,-0.0110553806430625,-0.0984454565502055,13.47557,53.47366,0.5281412,0.1068396,0.4462983,-0.04869578,15.1599996611476,20
-8.65388,0.2833334,-15.87233,-0.1979358466135714,-0.0308137698042422,-0.0695671998774365,3.311754,51.84489,0.004997799,0.02600817,0.4369704,-0.01259301,15.1799996607006,20
-8.608437,0.4833333,-15.83665,-0.1637891623956564,-0.0041210185963567,-0.0428038791646212,6.622524,51.6341,-0.002224409,0.05198673,0.434773,-0.02517198,15.1999996602535,20
-8.563004,0.6833334,-15.80098,-0.1227405499173253,0.0157067971743622,-0.0109764747631064,9.931849,51.42131,359.9781,0.07791037,0.4322132,-0.0377254,15.2199996598065,20
-8.371075,0.2833335,-15.66072,-0.252382653493183,0.6956418364731094,-0.1005317656748658,3.255696,49.96185,359.9037,0.02539502,0.4221676,-0.01275868,15.2399996593595,20
-8.326445,0.4833335,-15.62555,-0.3772126409308844,0.4914383001093598,-0.0691388950288001,6.510047,49.74306,359.7948,0.05076197,0.4199981,-0.02550323,15.2599996589124,20
-8.281827,0.6833335,-15.59039,-0.488835450577274,0.3091189884079012,-0.0412665065959565,9.763004,49.51642,359.6724,0.07608037,0.4174901,-0.03822345,15.2799996584654,20
-8.23722,0.8833334,-15.55524,-0.577600369026551,0.0943223223103995,-0.0099063224642961,13.01415,49.28028,359.5356,0.1013272,0.414646,-0.05090738,15.2999996580184,20
-8.076233,0.2833333,-15.43802,-0.7401956773966738,-0.7195810261407456,0.148680874388333,3.205638,47.14812,359.7962,0.02492533,0.3998226,-0.01281615,15.3199996575713,20
-8.032755,0.4833333,-15.40266,-1.0335126294315184,-0.5106385814124914,0.1857105919357007,6.409525,46.92125,359.5794,0.04982369,0.3976817,-0.02561838,15.3399996571243,20
-7.98929,0.6833333,-15.36732,-1.2859579614104923,-0.2844815645273584,0.2212071621167286,9.611565,46.68053,359.3481,0.07467553,0.3952292,-0.03839653,15.3599996566772,20
-7.945834,0.8833333,-15.33198,-1.488941191277224,-0.0933807337741569,0.2622344525683804,12.8114,46.4242,359.101,0.09946069,0.3924677,-0.05113663,15.3799996562302,20
-7.733703,0.2833334,-15.17848,-1.7897210451636676,0.6168519750423236,0.207055774420807,3.462524,48.0683,359.7967,0.02686992,0.4071435,-0.01392453,15.3999996557832,20
-7.686271,0.4833334,-15.1408,-2.091471261650881,0.3308968655093928,0.3068189975619724,6.923301,47.84075,359.5792,0.05370782,0.4049268,-0.02783259,15.4199996553361,20
-7.638856,0.6833333,-15.10314,-2.333400661567631,0.066825505151023,0.4058012029259501,10.38289,47.59792,359.3456,0.08049327,0.4023396,-0.04171637,15.4399996548891,20
-7.451169,0.2833333,-14.96683,-2.6824427550378607,0.4905651227397174,0.3862059598939957,3.540785,49.87651,359.8478,0.02745418,0.4214768,-0.01422964,15.4599996544421,20
-7.402134,0.4833332,-14.92913,-2.918589021091493,0.270261890242072,0.4592739011488458,7.080568,49.65384,359.6812,0.05487732,0.4192315,-0.02844747,15.479999653995,20
-7.353113,0.6833332,-14.89145,-3.099435742073084,0.0718427835282651,0.5285093224581328,10.61864,49.41875,359.4991,0.08223982,0.4165859,-0.04263406,15.499999653548,20
-7.149372,0.2833333,-14.74163,-3.217015558324726,-0.1590537764600281,0.6011306554615459,3.589507,51.30554,359.9714,0.02812434,0.4327108,-0.01378325,15.519999653101,20
-7.100104,0.4833333,-14.70295,-3.4029530183595886,-0.1567193297350397,0.63415410577052,7.178251,51.09501,359.9299,0.05621701,0.430448,-0.02754843,15.5399996526539,20
-7.050851,0.6833333,-14.66427,-3.5466855351689555,-0.1079336516031184,0.6512104725843457,10.7658,50.87997,359.8745,0.08424643,0.4277636,-0.04128252,15.5599996522069,20
-7.001612,0.8833333,-14.62561,-3.640720729798388,-0.0660128045415044,0.6596234342856313,14.35207,50.65853,359.8045,0.1121848,0.4246605,-0.05497222,15.5799996517599,20
-6.952386,0.9766704,-14.58696,-3.6776018700629214,-0.0842728510274455,0.6667535199918806,17.93703,50.42865,359.7187,0.1400051,0.4211422,-0.06860419,15.5999996513128,20
-6.751597,0.2833333,-14.44143,-3.624686110145036,-0.1093977280609868,0.7255591293183059,3.56358,52.47733,0.07638758,0.02818383,0.4418788,-0.01314897,15.6199996508658,20
-6.70303,0.4833333,-14.40258,-3.535897290117803,-0.0880715994092354,0.7668149553061419,7.126216,52.27774,0.140704,0.05633181,0.4396279,-0.02627896,15.6399996504188,20
-6.654476,0.6833333,-14.36375,-3.4036306693911564,-0.0736104218758129,0.7985945582939298,10.68804,52.08046,0.1930373,0.08441721,0.4369524,-0.03937967,15.6599996499717,20
-6.475326,0.2833333,-14.23219,-3.2203095696886037,-0.1193300327390266,0.8289785115849266,3.636971,51.77885,0.07402998,0.02883037,0.4363974,-0.01327496,15.6799996495247,20
-6.426191,0.4833333,-14.19199,-3.055548689139008,-0.1719142499963213,0.8086032177808882,7.273137,51.57973,0.1355415,0.05762338,0.434128,-0.02653263,15.6999996490777,20
-6.377072,0.6833333,-14.1518,-2.8619119345823565,-0.1780472374148017,0.7747977914013031,10.90909,51.3828,0.1851396,0.08635616,0.4314218,-0.03975967,15.7199996486306,20
-6.327967,0.8833332,-14.11162,-2.632186957799207,-0.1910451775197261,0.7359241345364644,14.54416,51.18648,0.2225544,0.1149935,0.4282821,-0.05294287,15.7399996481836,20
-6.278747,0.2833333,-13.96109,-2.5350608855996954,0.4560639686060743,0.5747966588727245,3.623929,50.98067,0.09418458,0.0288951,0.4301201,-0.01286618,15.7599996477365,20
-6.230592,0.4833333,-13.92008,-2.225675850308387,0.2190343879203875,0.5346020730558134,7.247116,50.78428,0.1761119,0.05775293,0.4278656,-0.02571558,15.7799996472895,20
-6.182451,0.6833333,-13.87908,-1.900495686806135,0.0038887463255749,0.4841986228513306,10.8695,50.59137,0.2462322,0.08654441,0.425184,-0.03853539,15.7999996468425,20
-6.233951,0.2833333,-13.72872,-1.5521419180127207,-0.2437342038414333,0.4322972120692672,3.563392,50.09211,0.1619408,0.02876581,0.4231017,-0.01188275,15.8199996463954,20
-6.188022,0.4833333,-13.68673,-1.1538197563469152,-0.2581259503223176,0.4000497789885635,7.126264,49.90259,0.3123851,0.05749535,0.420877,-0.02375016,15.8399996459484,20
-6.142106,0.6833333,-13.64475,-0.7470990465826404,-0.2260666686415766,0.3608235311599745,10.68854,49.72093,0.4523327,0.08616067,0.4182455,-0.03559064,15.8599996455014,20
-6.096197,0.8833332,-13.60279,-0.3248583006471186,-0.200872195554807,0.3232676670145569,14.2498,49.54614,0.5835652,0.1147345,0.4152108,-0.04738399,15.8799996450543,20
-6.0503,0.9766704,-13.56084,0.1200250454343994,-0.2358585945846681,0.2960139440449545,17.81041,49.37695,0.7057262,0.1431889,0.4117755,-0.05912818,15.8999996446073,20
-6.051577,0.2833335,-13.38132,0.5975522017250512,-0.2777095903385559,0.2900079102816075,3.493164,47.51974,0.2045685,0.02861444,0.4026667,-0.01064693,15.9199996441603,20
-6.008997,0.4833333,-13.33757,1.062044052746998,-0.2731093732415581,0.2745807728083029,6.985986,47.33491,0.3982489,0.05719417,0.4004855,-0.02128027,15.9399996437132,20
-5.966419,0.6833333,-13.29385,1.5199081780778054,-0.2753738990518827,0.2583286754525993,10.47786,47.16078,0.5838795,0.08571359,0.3979327,-0.03187613,15.9599996432662,20
-5.871572,0.2833333,-13.16294,1.809143404243712,0.382468672083982,0.1313875826149289,3.431671,45.70415,0.2235195,0.02834945,0.3881246,-0.009831579,15.9799996428192,20
-5.83138,0.4833333,-13.11839,2.211179132032647,0.1561726615462361,0.0942267008456188,6.862571,45.52144,0.4374463,0.05666457,0.3859764,-0.01964151,15.9999996423721,20
-5.791201,0.6833332,-13.07386,2.5887646902036243,-0.0482392631946342,0.0578303280729635,10.29313,45.35027,0.6421463,0.08492045,0.3834816,-0.02943101,16.0199996419251,20
-5.66449,0.2833334,-12.92042,2.762147144201171,0.4351594073911674,-0.1039680313289146,3.380519,45.26141,0.1754232,0.02781399,0.3845805,-0.009937502,16.0399996414781,20
-5.624673,0.4833334,-12.87681,2.9013188259362286,0.9148293590583432,-0.2648115908136574,6.760259,45.07464,0.3398921,0.05559204,0.3824551,-0.01986363,16.059999641031,20
-5.584867,0.6833334,-12.8332,3.1867673228966837,0.4857932300929629,-0.2956675122824332,10.13953,44.89627,0.4945876,0.08331349,0.3799971,-0.02976959,16.079999640584,20
-5.545073,0.8833333,-12.78961,3.4270196598256177,0.0530285161086717,-0.3249271697013096,13.51831,44.72526,0.6403524,0.1109543,0.3772088,-0.03964688,16.099999640137,20
-5.343432,0.2833334,-12.60689,3.628112609922923,-0.3108248623109156,-0.3441661976783035,3.323994,45.3901,0.08408654,0.02704056,0.3856443,-0.01051352,16.1199996396899,20
-5.303094,0.4833333,-12.5652,3.7677838935306815,-0.342326343571056,-0.3663073908754537,6.646889,45.19589,0.1564181,0.05404522,0.3835425,-0.02101854,16.1399996392429,20
-5.262769,0.6833333,-12.52352,3.8433949388195785,-0.3278645772099395,-0.3892913420756976,9.969061,45.00444,0.2177047,0.08099581,0.3811187,-0.03150463,16.1599996387959,20
-5.222456,0.8833332,-12.48185,3.860810910433153,-0.3207556257048073,-0.404755077642573,13.29048,44.81455,0.2683231,0.1078705,0.3783753,-0.04196128,16.1799996383488,20
-5.062775,0.2833334,-12.35909,3.669119155066258,0.3459727899575464,-0.5156487820038702,3.268058,45.42535,359.9674,0.02619411,0.3859605,-0.01127266,16.1999996379018,20
-5.021677,0.4833334,-12.31957,3.5288357990532724,0.1280745242942382,-0.538978711943944,6.535018,45.22186,359.923,0.05235904,0.3838816,-0.02253304,16.2199996374547,20
-4.980591,0.6833334,-12.28006,3.314846977980538,-0.0684275295026083,-0.5548112423436109,9.800537,45.01428,359.8663,0.07847001,0.3814913,-0.03377349,16.2399996370077,20
-4.939519,0.8833333,-12.24056,3.0328136337284413,-0.297894844817706,-0.5549804333872803,13.06483,44.80106,359.7961,0.1045069,0.3787914,-0.04498821,16.2599996365607,20
-4.728704,0.2833334,-12.0857,2.688248211913821,0.3456952586257104,-0.6637976467748778,3.213225,43.68276,359.8256,0.02545835,0.3719313,-0.01184311,16.2799996361136,20
-4.687714,0.4833334,-12.04734,2.4527176711052805,0.104658788507906,-0.6435800444945041,6.424854,43.46817,359.6389,0.0508891,0.3698798,-0.02367343,16.2999996356666,20
-4.646734,0.6833334,-12.009,2.147321280037941,-0.1149816949423714,-0.6149775236603823,9.634787,43.24147,359.4386,0.07627192,0.3675375,-0.03548179,16.3199996352196,20
-4.456627,0.2833333,-11.86671,1.898325116695936,0.3527006763806213,-0.7011380430205083,3.453423,45.09872,359.814,0.02720632,0.3833498,-0.01305365,16.3399996347725,20
-4.411536,0.4833332,-11.82654,1.7810706532269114,0.1758525130804661,-0.6628066669287787,6.905215,44.8824,359.6146,0.0543804,0.3812273,-0.02609217,16.3599996343255,20
-4.366461,0.6833332,-11.78637,1.6403934735015695,0.0204004436895722,-0.6064357847587925,10.35558,44.65204,359.3998,0.08149863,0.3787582,-0.0391076,16.3799996338785,20
-4.321408,0.8833331,-11.74622,1.4810835466280312,-0.1680168851287497,-0.5259928354455514,13.80568,44.40551,359.1676,0.1085465,0.3759445,-0.05209203,16.3999996334314,20
-4.083939,0.2833334,-11.57103,1.3081062076517511,-0.3157143547987666,-0.4154075839284221,3.547193,48.14687,359.8728,0.02780548,0.4077429,-0.01363809,16.4199996329844,20
-4.036265,0.4833335,-11.53148,1.4321346672213249,-0.3716438535068149,-0.3143877664223531,7.093599,47.93622,359.7312,0.05557832,0.4055815,-0.02726975,16.4399996325374,20
-3.988605,0.6833335,-11.49193,1.553114519539564,-0.3820979928984203,-0.2013526449717542,10.63846,47.71482,359.5751,0.08328988,0.4030317,-0.04087149,16.4599996320903,20
-3.940959,0.8833333,-11.4524,1.6760732702386594,-0.4003927025965225,-0.0710242587552194,14.18169,47.48065,359.4029,0.1109137,0.4000964,-0.05443011,16.4799996316433,20
-3.773372,0.2833334,-11.3312,1.743567670320877,0.2404438562069765,-0.0227484575784497,3.590931,50.03993,359.9871,0.02834381,0.4227296,-0.0133534,16.4999996311963,20
-3.725128,0.4833335,-11.29121,2.005473164303617,-0.0038337832377745,0.0852850957557791,7.181134,49.8408,359.9616,0.05665442,0.4205506,-0.02669137,16.5199996307492,20
-3.676897,0.6833335,-11.25123,2.292909091069061,-0.227203287991784,0.2023806367297602,10.7702,49.63827,359.9232,0.08490121,0.4179596,-0.0399993,16.5399996303022,20
-3.62868,0.8833334,-11.21126,2.5050799045032512,0.2362617693228754,0.2036404422484103,14.3581,49.43061,359.8712,0.1130564,0.4149593,-0.0532643,16.5599996298552,20
-3.416183,0.2833333,-11.05766,2.737857174133853,0.695022204178972,0.2117125503369283,3.563972,51.81754,0.09213284,0.02832215,0.4367056,-0.01286444,16.5799996294081,20
-3.36823,0.4833333,-11.01804,3.245468607792913,0.2441017440065084,0.3246370167852781,7.127027,51.62909,0.1726137,0.05660702,0.4345329,-0.02571255,16.5999996289611,20
-3.320292,0.6833333,-10.97843,3.752812171285045,-0.2115230631587437,0.4249464070145325,10.6893,51.44408,0.241956,0.08482885,0.4319407,-0.03853206,16.6199996285141,20
-3.128376,0.2833334,-10.8386,4.071170121983424,0.2331248375690418,0.3539971634564338,3.636142,52.88025,0.1106321,0.02883711,0.4450105,-0.01326236,16.639999628067,20
-3.078865,0.4833334,-10.79885,4.647891829453025,0.0327546747288682,0.3860388640263039,7.271604,52.69429,0.2096221,0.0576369,0.4428108,-0.02650773,16.65999962762,20
-3.029374,0.6833333,-10.75912,5.192341031821881,-0.1467073772036634,0.394685274695032,10.90699,52.51297,0.2972044,0.0863739,0.4401652,-0.03972815,16.6799996271729,20
-2.979897,0.8833333,-10.71939,5.711138958772023,-0.3596226592816632,0.388851272879485,14.54156,52.33495,0.3741566,0.1150153,0.4370772,-0.05290472,16.6999996267259,20
-2.821125,0.2833333,-10.60677,6.068107628573706,0.3000311870464243,0.2800243511092635,3.628365,53.68568,0.1216093,0.02872589,0.4512883,-0.01334866,16.7199996262789,20
-2.771298,0.4833334,-10.56766,6.800091490356413,0.0745712729791991,0.359616187843951,7.256046,53.50154,0.2317311,0.05741441,0.4490932,-0.02668014,16.7399996258318,20
-2.721485,0.6833333,-10.52856,7.46190945142178,-0.1299806687844477,0.42680663470483,10.88301,53.32282,0.3310832,0.08603691,0.4464484,-0.03998105,16.7599996253848,20
-2.671687,0.8833333,-10.48946,8.063511262352208,-0.3679858597723098,0.4901705744751865,14.50925,53.14815,0.4198375,0.1145637,0.4433565,-0.05324063,16.7799996249378,20
-2.467622,0.2833334,-10.34416,8.41154511188617,0.2665781780924788,0.4197753037398506,3.568112,56.17436,0.2364404,0.02843712,0.4705286,-0.0128382,16.7999996244907,20
-2.418139,0.4833333,-10.30617,8.939900239609203,0.0160283425704601,0.5181880598437179,7.135901,56.00165,0.4624923,0.0568381,0.4683487,-0.02566018,16.8199996240437,20
-2.36867,0.6833333,-10.26819,9.3780789454253,-0.2136133006761023,0.6160446346942532,10.70329,55.84174,0.6797585,0.08517526,0.4657135,-0.03845352,16.8399996235967,20
-2.158191,0.2833334,-10.12135,9.560362966702836,0.2435797957787421,0.5959022993856431,5.358726,56.66537,0.12205,0.04165164,0.4740275,-0.02124904,16.8599996231496,20
-2.080835,0.4833334,-10.06815,9.960473661360904,0.0557548278815648,0.7888320076985309,10.71678,56.48687,0.2278169,0.08320379,0.4709863,-0.04244784,16.8799996227026,20
-2.003494,0.6833333,-10.01495,10.237504542276364,-0.111161922650289,0.9763344208553786,16.07409,56.31482,0.3185615,0.1245656,0.466916,-0.06355014,16.8999996222556,20
-1.926166,0.8833332,-9.961761,10.407494658160095,-0.3115318091535146,1.1642789417696493,21.43061,56.14647,0.3949128,0.1656465,0.4618258,-0.08450991,16.9199996218085,20
-1.6156,0.2833335,-9.796773,10.255833902850656,0.360667181676499,1.1965341039215556,6.362341,54.46056,359.5332,0.04748194,0.45706,-0.0290081,16.9399996213615,20
-1.51996,0.4833333,-9.738819,10.457601284148543,0.1477519481229879,1.5471255860877084,12.72152,54.18489,359.0328,0.09480823,0.4534402,-0.05792184,16.9599996209145,20
-1.424335,0.6833333,-9.680877,10.508576654197803,-0.0442550983821194,1.8833394222752808,19.07684,53.84193,358.4841,0.1418319,0.4484169,-0.08665173,16.9799996204674,20
-1.328725,0.883333,-9.622945,10.42807383489876,-0.2697154066563752,2.209619344113352,25.42745,53.41599,357.8678,0.1884079,0.4420061,-0.1151096,16.9999996200204,20
-1.058916,0.2833333,-9.52303,10.501896106053886,-0.2629199196081442,2.7465422738076777,7.684264,55.863,358.4556,0.05289785,0.4681183,-0.04326463,17.0199996195734,20
-0.9320264,0.4833331,-9.470208,10.415653876122658,-0.2106493201346817,3.2442094289135524,15.36228,55.34389,356.8216,0.1055624,0.4633473,-0.08639005,17.0399996191263,20
-0.8051801,0.6833329,-9.417399,10.191085551062514,-0.1662195527560306,3.707593792528317,23.02275,54.56293,355.0333,0.1577367,0.4564054,-0.1291209,17.0599996186793,20
-0.6783771,0.8833326,-9.364609,9.85023252827423,-0.1829465363796703,4.141974865712277,30.65548,53.45067,352.9987,0.2091779,0.4473245,-0.1712529,17.0799996182323,20
-0.3167812,0.2833333,-9.225114,9.57451784460678,-0.20751330459639,4.675470685810987,7.389896,61.38408,358.25,0.0476321,0.5101494,-0.04599486,17.0999996177852,20
-0.188649,0.4833332,-9.190516,9.163150746022705,-0.1866049415704835,5.1368585297729,14.77594,60.83765,356.4057,0.09508568,0.5053443,-0.0918934,17.1199996173382,20
-0.06055342,0.683333,-9.155929,8.639897153694546,-0.1735372712512655,5.534032643830686,22.13782,60.01199,354.4052,0.1421071,0.4983166,-0.1373747,17.1399996168911,20
0.3205851,0.2833333,-9.012765,7.855972790776588,0.4986616503202724,5.754828861011302,7.781138,68.6307,358.8475,0.05038176,0.5629833,-0.04653674,17.1599996164441,20
0.4544682,0.4833332,-8.982353,7.488063610605157,0.2857465549352361,6.317155001336753,15.55318,68.19215,357.6241,0.1005115,0.5576303,-0.09284673,17.1799996159971,20
0.5882976,0.683333,-8.951939,6.9998226334595,0.0937396416329036,6.763353306202953,23.31293,67.55155,356.2741,0.1501533,0.5496505,-0.1387299,17.19999961555,20
0.7220888,0.8833327,-8.921533,6.417552364666848,-0.1317206574068888,7.105506195805787,31.05282,66.65267,354.7264,0.1990739,0.5390865,-0.1839472,17.219999615103,20
1.233851,0.2833334,-8.709406,6.073342355867883,-0.12492517785077,7.645631093660381,7.909678,77.34759,0.4447118,0.05626503,0.6231839,-0.04007553,17.239999614656,20
1.366859,0.4833332,-8.671719,5.622828506995876,-0.0726545887442994,8.04174579353156,15.81806,77.24741,0.8797488,0.1122456,0.6174218,-0.07994735,17.2599996142089,20
1.499829,0.683333,-8.63404,5.094483604262559,-0.0282247140367951,8.309296617053981,23.72468,77.2077,1.321908,0.1676745,0.6087139,-0.1194253,17.2799996137619,20
1.632762,0.8833327,-8.59637,4.517096629733904,-0.0449514849193153,8.463868023845976,31.62907,77.23661,1.790931,0.2222878,0.5971043,-0.1583212,17.2999996133149,20
1.993006,0.2833333,-8.399277,4.307993557340857,-0.06951862704467,8.892282691309422,7.61802,74.80492,0.8912401,0.05748395,0.6056394,-0.03418483,17.3199996128678,20
2.117163,0.4833333,-8.349368,4.028495118278629,-0.0486104252733958,9.162691571552331,15.23485,74.79413,1.789065,0.1146952,0.6002581,-0.06820387,17.3399996124208,20
2.241284,0.683333,-8.299477,3.7091756822080297,-0.035542930321859,9.29358562873976,22.84864,74.91257,2.728886,0.1713839,0.5921936,-0.1018977,17.3599996119738,20
2.652613,0.2833333,-8.047703,3.187671093307065,0.6366556950499238,9.172899282503074,7.519706,63.96021,0.4680749,0.05778084,0.5282532,-0.03127238,17.3799996115267,20
2.766887,0.4833333,-7.982717,2.9868893972323205,0.4247407930659053,9.286264603958172,15.03741,63.86456,0.941725,0.1153544,0.5234388,-0.06229189,17.3999996110797,20
2.881129,0.6833332,-7.91775,2.7373396977704365,0.2336140124262157,9.244388884149158,22.5535,63.8318,1.423391,0.1724133,0.5163657,-0.09303345,17.4199996106327,20
2.995339,0.8833328,-7.852801,2.4679202163289924,0.0089186984806068,9.064356628866705,30.06744,63.86975,1.932302,0.2287116,0.5070662,-0.1233649,17.4399996101856,20
3.537875,0.2833332,-7.484471,2.288295295858539,0.0500425846388441,9.049354173022191,7.900259,53.34981,0.3840736,0.063057,0.4476524,-0.0279378,17.4599996097386,20
3.644539,0.4833332,-7.396786,2.03960629595079,0.1324955757336867,8.870257014274747,15.80262,53.2409,0.767054,0.125863,0.4429918,-0.05566728,17.4799996092916,20
3.751173,0.6833329,-7.309126,1.7506256219394416,0.203131467652138,8.543908392387621,23.70327,53.18412,1.153081,0.1880514,0.4362226,-0.08312368,17.4999996088445,20
4.242131,0.2833333,-6.927314,1.4501989354563456,0.2088042958545373,8.08727914388118,8.214121,46.49398,359.9164,0.06551826,0.3937299,-0.02893716,17.5199996083975,20
4.347236,0.4833332,-6.829765,1.3231350404294364,0.2639804894959999,7.862394280211401,16.42561,46.28218,359.8014,0.1306821,0.3891933,-0.05771671,17.5399996079504,20
4.452311,0.683333,-6.732241,1.1068664470471248,0.3538477185646967,7.499112224863799,24.63431,46.04089,359.6471,0.1951574,0.3826609,-0.08619095,17.5599996075034,20
4.557355,0.8833327,-6.634741,0.8306636910999554,0.4255584601617709,7.016621499400833,32.83997,45.75391,359.4393,0.2586136,0.3741681,-0.1142142,17.5799996070564,20
4.996245,0.2833333,-6.294613,0.5235788062605895,0.4066626402372822,6.434314667814719,7.836058,39.7133,358.6401,0.06024064,0.3396131,-0.03434336,17.5999996066093,20
5.102044,0.4833331,-6.204807,0.1710603325255544,0.4796489017956075,5.980655137238992,15.66075,39.2333,357.2017,0.1201741,0.3356293,-0.06851131,17.6199996061623,20
5.207812,0.683333,-6.115025,-0.2291222422519041,0.578646470256954,5.45564150769421,23.46816,38.5165,355.6212,0.1795121,0.3300327,-0.1023397,17.6399996057153,20
5.313551,0.8833328,-6.025268,-0.6475191790238135,0.6512346650413999,4.880758277478988,31.25004,37.49698,353.8119,0.2379697,0.3228517,-0.1356661,17.6599996052682,20
5.889009,0.2833333,-5.557691,-1.3588092879557152,1.2759601474549809,4.14748580332232,7.268154,38.86669,357.9957,0.05395651,0.3330356,-0.0375457,17.6799996048212,20
5.995999,0.4833332,-5.481287,-1.768151023198536,0.9666434748062368,3.894388197661693,14.5183,38.28442,355.9015,0.1076626,0.3293462,-0.07491875,17.6999996043742,20
6.102958,0.683333,-5.404907,-2.203494948054505,0.677777569489098,3.61453949100916,21.73934,37.39387,353.6403,0.1608862,0.3242347,-0.1119577,17.7199996039271,20
6.619095,0.2833333,-4.975059,-2.635641145285298,0.3552490185331527,3.330152270199103,7.112758,44.26735,358.2263,0.05163244,0.3768874,-0.03767756,17.7399996034801,20
6.728054,0.4833332,-4.908184,-3.267399761649216,0.2256157308203865,3.2349914118644163,14.20631,43.73757,356.3667,0.1029824,0.3730757,-0.07523098,17.7599996030331,20
6.836982,0.683333,-4.841329,-3.9208490783861656,0.1464719082405544,3.104361108599353,21.27631,42.94067,354.3623,0.1538968,0.3677419,-0.1124666,17.779999602586,20
6.945879,0.8833329,-4.774493,-4.568284350898759,0.0645562316070537,2.9615202564761307,28.31152,41.81794,352.13,0.2041682,0.3609091,-0.1492325,17.799999602139,20
7.592076,0.2833332,-4.240485,-4.973778594169435,-0.7249204618279484,3.2547629668693707,7.501235,48.88287,358.3125,0.05346553,0.4137089,-0.04044006,17.819999601692,20
7.710248,0.4833331,-4.176901,-5.616998129588946,-0.5851241096150757,3.337193124264605,14.99029,48.35148,356.5371,0.1066789,0.4094479,-0.08072571,17.8399996012449,20
7.828385,0.683333,-4.113336,-6.218589275481348,-0.4220768445842424,3.390712951031252,22.4565,47.54634,354.607,0.1593967,0.4033464,-0.1206368,17.8599996007979,20
7.946489,0.8833327,-4.049788,-6.751485281489073,-0.2880490525966195,3.4405728256951043,29.88861,46.39977,352.4295,0.2113826,0.3954333,-0.159994,17.8799996003509,20
8.396376,0.2842707,-3.63998,-7.533813634601065,0.3711465829870842,3.270045748602957,7.878379,53.70419,359.2981,0.0585291,0.4509888,-0.0364812,17.8999995999038,20
8.514553,0.4842706,-3.568611,-8.056861327117963,0.0401914692725094,3.5155506594641603,15.75098,53.36555,358.543,0.1167635,0.4463357,-0.07277764,17.9199995994568,20
8.632697,0.6842703,-3.497261,-8.481093277663145,-0.2628429878194763,3.726715104507682,23.61602,52.8973,357.6995,0.1744261,0.4395605,-0.1087168,17.9399995990098,20
9.088667,0.3158245,-3.032159,-8.780088262304371,-0.5923179949195614,3.930379580164357,7.779114,56.57411,0.4829303,0.06172509,0.4725418,-0.02844272,17.9599995985627,20
9.19732,0.5158243,-2.950298,-9.34408366075413,-0.6825253983453766,4.1476663620497485,15.557,56.48745,0.9586976,0.1231485,0.467855,-0.05674332,17.9799995981157,20
9.30594,0.7158242,-2.868455,-9.7919397852069,-0.7202451996476106,4.303250385740418,23.3331,56.4669,1.445319,0.1839866,0.4610083,-0.0847712,17.9999995976686,20
9.414526,0.9158239,-2.786629,-10.099033354710226,-0.7587930883531664,4.421379158366946,31.10687,56.52205,1.964198,0.2439587,0.4520353,-0.1123972,18.0199995972216,20
9.865125,0.3729655,-2.334373,-10.702445296264894,-0.1311976786653359,4.173317913744186,6.724555,45.1078,0.271994,0.05507228,0.3827625,-0.02030666,18.0399995967746,20
9.94539,0.5729655,-2.248174,-11.078476663819236,-0.3817037980652036,4.3539676723674345,13.47085,44.12462,0.4436949,0.1101402,0.3725986,-0.04048986,18.0599995963275,20
10.02563,0.7729654,-2.162019,-11.30881012550587,-0.6042891264200626,4.466959699514935,20.21908,43.12935,0.5024286,0.164829,0.3611254,-0.06050158,18.0799995958805,20
10.10586,0.9545967,-2.075894,-11.3708827894046,-0.8533149893632095,4.535607238626291,26.96466,42.09165,0.4366031,0.2189221,0.3483864,-0.08026738,18.0999995954335,20
10.40961,0.4546258,-1.696505,-11.596653511626794,-0.8630735923109175,4.665161243203372,7.011736,33.76632,359.9885,0.05848594,0.2898833,-0.01785556,18.1199995949864,20
10.47921,0.6546258,-1.594591,-11.673882396504489,-0.8203443637544756,4.734400330934164,14.08134,32.27821,359.8167,0.1173018,0.2760622,-0.03559662,18.1399995945394,20
10.54881,0.8546256,-1.492712,-11.58113800034258,-0.7784434462321679,4.768003237463884,21.14149,30.71036,359.445,0.175638,0.2611617,-0.0531683,18.1599995940924,20
10.6184,0.9709287,-1.390872,-11.2973418807337,-0.7906867427089586,4.790881505348594,28.18677,29.00225,358.8365,0.2332677,0.2452431,-0.07050361,18.1799995936453,20
10.9731,0.3307596,-0.8242376,-11.365666907696657,-0.0638364424146684,4.374579591558311,7.923496,24.10792,0.06843358,0.0676915,0.2082934,-0.01384572,18.1999995931983,20
11.02994,0.5307595,-0.6979991,-11.269870526735014,-0.3266486526398345,4.26095921175173,15.84572,22.62883,359.9337,0.1350484,0.1943983,-0.02760511,18.2199995927513,20
11.08677,0.7307593,-0.5718174,-11.007304595282688,-0.5610524071459937,4.139484639011081,23.76217,21.05643,359.5728,0.201747,0.1795588,-0.04120537,18.2399995923042,20
11.35178,0.2938421,-0.08099176,-11.050175016600738,-0.101121504276859,3.6131296047737775,7.968277,14.83881,359.0557,0.06783468,0.1293828,-0.01712376,18.2599995918572,20
11.40491,0.4938421,0.04859345,-10.953101563416922,-0.278708335061423,3.315952204266308,15.90494,13.14516,357.8659,0.1353074,0.1159008,-0.0341552,18.2799995914102,20
11.45804,0.6938418,0.1781444,-10.708163325422207,-0.4278866044533622,3.028871898161184,23.79847,11.18731,356.3609,0.2020774,0.1018458,-0.05100911,18.2999995909631,20
11.70667,0.2833334,0.7054797,-10.298356605346685,-0.6030178653757294,2.780739047212295,7.520845,6.515035,357.8836,0.06442033,0.05790104,-0.02212468,18.3199995905161,20
11.75985,0.4833333,0.83099,-10.352273726912353,0.1019201222431276,2.039895037320867,14.97195,4.606358,355.4988,0.1285131,0.04492614,-0.04413608,18.3399995900691,20
11.81302,0.6833332,0.956466,-10.320397597650825,-0.0707551958667005,1.6178703195642958,22.32984,2.281831,352.7424,0.1919708,0.03174842,-0.06592952,18.359999589622,20
11.86617,0.8833329,1.081908,-10.189261272583856,-0.2150221916345295,1.233573128644286,29.56029,359.4079,349.4713,0.2544896,0.01843122,-0.08740117,18.379999589175,20
11.9193,0.9766697,1.207315,-9.944946636134215,-0.3852419505976215,0.9157965995216522,36.6115,355.7854,345.4788,0.3157705,0.005038437,-0.108449,18.399999588728,20
12.12758,0.2833333,1.720733,-10.008514675832,-0.3168317820599591,0.4951068230739599,6.903158,4.459815,357.6169,0.05933872,0.04008146,-0.02308401,18.4199995882809,20
12.1799,0.4833333,1.836827,-9.993608454417496,-0.1955757635422451,0.1189072076892534,13.7267,2.553684,354.991,0.1183913,0.0273231,-0.04603416,18.4399995878339,20
12.2322,0.6833331,1.952888,-9.888070587892102,-0.0747947106566478,-0.1849830121171987,20.44909,0.2479903,352.0288,0.1769286,0.0144623,-0.06878513,18.4599995873868,20
12.37621,0.2833333,2.404594,-10.086103176834865,0.6745980444715394,-0.8610936410103616,7.154153,5.959202,357.7678,0.0612845,0.05308296,-0.02265707,18.4799995869398,20
12.42951,0.4833332,2.524005,-10.228809187250665,0.541862097233427,-1.3955535572469229,14.23744,4.066045,355.2819,0.1222938,0.04026997,-0.04521119,18.4999995864928,20
12.4828,0.683333,2.643383,-10.285669089121434,0.4328495887176833,-1.8584109743067287,21.22508,1.771917,352.4484,0.1827439,0.02729117,-0.06755982,18.5199995860457,20
12.53606,0.8833328,2.762726,-10.247768496373512,0.2930292538202993,-2.2228506136836206,28.08415,358.9612,349.1404,0.2423678,0.01420406,-0.08960492,18.5399995855987,20
12.67335,0.2833333,3.322288,-10.517534067333404,0.9596563019980686,-2.906493934701513,7.667396,9.830577,358.5027,0.06549218,0.0863541,-0.01871667,18.5599995851517,20
12.72356,0.4833333,3.449052,-10.725766852464863,0.735560093790546,-3.389170727912388,15.28972,8.056924,356.7563,0.1306799,0.07335561,-0.03732413,18.5799995847046,20
12.77376,0.6833332,3.57578,-10.828000303174669,0.5262943030330216,-3.772390616323568,22.84782,5.95128,354.6742,0.1952218,0.06001764,-0.05574842,18.5999995842576,20
12.86759,0.2833333,4.052059,-10.815720941502557,0.2990800977282567,-4.029134535996045,7.91909,15.39018,359.9109,0.06832642,0.1336348,-0.01001462,18.6199995838106,20
12.90729,0.4833332,4.184452,-10.98945045362676,0.1795678537014713,-4.412294693739917,15.83113,13.90806,359.6151,0.136297,0.1203779,-0.01997593,18.6399995833635,20
12.94698,0.683333,4.316809,-11.052729611443752,0.0868323251504282,-4.688566658058406,23.73032,12.30751,359.0819,0.2035773,0.1065411,-0.02983574,18.6599995829165,20
12.98665,0.8833327,4.449131,-10.998099521381627,-0.0333379995541999,-4.832947583691432,31.60896,10.50261,358.2512,0.2698369,0.09219294,-0.03954621,18.6799995824695,20
13.02631,0.9766695,4.581416,-10.818704840432334,-0.1346781353182319,-4.820329732333281,39.45561,8.366012,357.0157,0.3347508,0.07740446,-0.04906023,18.6999995820224,20
13.0646,0.2833333,4.994086,-10.94360962092219,-0.2054273055233243,-5.111207847483653,7.626783,15.18647,0.7067275,0.0667358,0.1314377,-0.002688332,18.7199995815754,20
13.08886,0.4833331,5.125521,-10.975419924143615,-0.2353862346392392,-5.305114167349856,15.26569,13.87963,1.244806,0.1331446,0.1183168,-0.005360166,18.7399995811284,20
13.1131,0.6833329,5.25692,-10.905544432582683,-0.2781186320974957,-5.381113911198119,22.91233,12.59018,1.620057,0.1989201,0.1046629,-0.008004145,18.7599995806813,20
13.13233,0.2833333,5.594132,-10.975984855486333,0.3774177155330009,-5.756155192689034,7.527204,6.340147,0.2614028,0.06566527,0.05503108,-0.001357117,18.7799995802343,20
13.14359,0.4833332,5.725064,-10.987888522613511,0.147524946030423,-6.106322601960533,15.05614,4.949227,0.3563497,0.1310222,0.04239734,-0.002576586,18.7999995797873,20
13.15487,0.683333,5.855958,-10.925271014071637,-0.0618295377369623,-6.341635281836629,22.5828,3.509983,0.2601327,0.1957748,0.02958845,-0.003771342,18.8199995793402,20
13.16614,0.8833327,5.986816,-11.014322713125688,0.4278412354489517,-6.919680241910726,30.10239,1.960804,359.9398,0.2596353,0.01665981,-0.004950488,18.8399995788932,20
13.15317,0.2833335,6.381879,-11.039769809235588,0.9137829530939252,-7.393408484731871,7.895924,355.4305,0.2526784,0.06870783,-0.03992292,0.004942831,18.8599995784461,20
13.13926,0.4833333,6.519094,-11.025222899034643,0.491019597098401,-7.853668854772602,15.79738,354.0415,0.3262205,0.137089,-0.05187166,0.00995836,18.8799995779991,20
13.12536,0.6833331,6.65627,-10.949068896069132,0.064527850443275,-8.195123027443186,23.69595,352.5944,0.195143,0.204779,-0.06355412,0.01492268,18.8999995775521,20
13.07778,0.2833333,6.996819,-10.805140834278337,-0.2930525243191164,-8.396345598038998,8.187031,344.1859,359.6407,0.07113583,-0.1369928,0.006721823,18.919999577105,20
13.04641,0.4833333,7.136401,-10.800312377496503,-0.318281550414314,-9.013376506483723,16.3599,342.6619,359.0588,0.1418777,-0.1480335,0.01340829,18.939999576658,20
13.01504,0.6833331,7.275944,-10.736073436637152,-0.2975474776850774,-9.512008575857273,24.51141,340.9653,358.2079,0.2118543,-0.1582842,0.02002331,18.959999576211,20
12.98368,0.8833328,7.415449,-10.609597603923763,-0.2841659027909693,-9.868915845296335,32.63113,338.9909,357.0042,0.2806987,-0.1676916,0.02653188,18.9799995757639,20
12.93188,0.2833334,7.629707,-10.400755204845142,0.3535231539347775,-10.465649870982151,7.695294,331.367,358.1451,0.06900463,-0.2456361,0.000943061,18.9999995753169,20
12.89745,0.4833334,7.763471,-10.03956555336768,0.1025887864867792,-11.1075781470822,15.3315,329.5494,356.0296,0.1376505,-0.2556533,0.001883559,19.0199995748699,20
12.86301,0.6833331,7.897197,-9.528949527566928,-0.1307054019868707,-11.630254399005407,22.88849,327.3444,353.5547,0.2056009,-0.2644034,0.002816174,19.0399995744228,20
12.82858,0.8833327,8.030884,-8.88878369054992,-0.3970520343698707,-12.005007565293766,30.33638,324.6169,350.5792,0.272523,-0.2718445,0.003735869,19.0599995739758,20
12.76098,0.2833333,8.262629,-8.235993689208298,0.2106651120242533,-12.734474261115835,6.915239,319.876,357.1366,0.06518835,-0.3408898,-0.002744489,19.0799995735288,20
12.72281,0.4833333,8.387435,-7.4969921001837,-0.0374268108697265,-13.513050327827065,13.73802,317.9275,354.0188,0.1300703,-0.3500728,-0.005472764,19.0999995730817,20
12.68465,0.6833332,8.512203,-6.6801048111606445,-0.2640672895285358,-14.16100258652451,20.43778,315.5168,350.5422,0.1943602,-0.3577033,-0.008173376,19.1199995726347,20
12.60895,0.2833332,8.704373,-5.856395710684435,0.1978308615751632,-15.07639489351994,6.662793,315.6206,357.0844,0.06338193,-0.3755455,-0.001576736,19.1399995721877,20
12.56536,0.4833333,8.823471,-4.983614464659125,0.6573122761729355,-15.875677868829136,13.23685,313.692,353.9402,0.1264699,-0.384436,-0.003019984,19.1599995717406,20
12.52179,0.683333,8.942535,-4.082032304944688,0.219659885928012,-16.76502590615732,19.68859,311.3202,350.457,0.1890135,-0.3917156,-0.004451305,19.1799995712936,20
12.47822,0.8833327,9.061566,-3.157370991943472,-0.225281104285206,-17.492286422555548,25.97816,308.4061,346.5149,0.2507528,-0.3973556,-0.00586548,19.1999995708466,20
12.34746,0.2833333,9.248332,-2.228916248652736,-0.6032109022421297,-18.041339004981875,7.17528,307.0337,357.4787,0.06578688,-0.443721,0.008244509,19.2199995703995,20
12.27525,0.4833332,9.359715,-1.3141526770411949,-0.6328951685466181,-18.96035872056045,14.27869,305.1386,354.7117,0.1312797,-0.4515278,0.01656436,19.2399995699525,20
12.20306,0.6833331,9.471067,-0.4071566478602584,-0.620799573646829,-19.681569938864943,21.2753,302.8043,351.5844,0.1961573,-0.4572724,0.02480551,19.2599995695055,20
12.1309,0.8833328,9.582387,0.4760834987063695,-0.6188793269124307,-20.195323410064784,28.12747,299.9104,347.9598,0.2601256,-0.4609306,0.03293006,19.2799995690584,20
12.027,0.2833333,9.618746,1.3270151340601224,0.0406040622051979,-20.74009300585672,7.699747,303.636,358.6899,0.06456614,-0.4705003,0.02165283,19.2999995686114,20
11.92869,0.4833331,9.713234,2.1387628345917484,-0.1669074280803233,-21.427167347639884,15.35881,301.9524,357.1416,0.1288045,-0.4777577,0.0431997,19.3199995681643,20
11.8304,0.6833332,9.807691,2.9039824057293675,-0.3547409545823609,-21.869327596935573,22.96358,299.9672,355.2781,0.1924084,-0.4827205,0.06453705,19.3399995677173,20
11.73214,0.8833327,9.902117,3.607983768248298,-0.5764796360927039,-22.06268602216344,30.49379,297.5623,352.9839,0.2550748,-0.4853669,0.08556252,19.3599995672703,20
11.60625,0.2833334,9.894415,4.2667270449494055,0.0742601572121428,-22.322045249744207,7.402695,295.3255,359.6303,0.05626598,-0.5336075,0.03181052,19.3799995668232,20
11.49252,0.4833333,9.956313,4.874074889747748,-0.1475697932005353,-22.637589819095908,14.79201,293.849,359.0669,0.11227,-0.540307,0.06348266,19.3999995663762,20
11.37881,0.683333,10.01818,5.416487576157595,-0.3503581116919402,-22.71833776617024,22.16194,292.2311,358.2752,0.1677707,-0.544662,0.09487924,19.4199995659292,20
11.24086,0.2833333,9.975723,5.926889327569375,0.1315580346795329,-22.81289602866245,6.711466,277.938,359.256,0.0484105,-0.6550413,0.03353587,19.4399995654821,20
11.12661,0.4833332,10.00528,6.381750714794823,0.6070768298608912,-22.711351414880824,13.4077,276.4142,358.3391,0.09661824,-0.6605528,0.0670587,19.4599995650351,20
11.01241,0.6833332,10.03484,6.780805332287708,0.1947035154552989,-22.82227849398532,20.07684,274.7249,357.2052,0.1444581,-0.663663,0.1003687,19.4799995645881,20
11.01848,0.8502447,10.06304,7.106116350744463,-0.2278024642079795,-22.713991366652515,28.07257,272.6006,355.9242,0.1990704,-0.6635913,0.1425154,19.499999564141,20
11.01348,0.2425289,9.922249,7.380658303955393,0.2438379426659519,-22.48659075735217,7.196341,250.273,358.6869,0.04546921,-0.8157039,0.04473777,19.519999563694,20
11.0187,0.4342748,9.896607,7.569545498891415,0.0887256562129091,-22.429594151452907,9.493743,250.8347,359.3908,0.0522748,-0.8118906,0.06436928,19.539999563247,20
11.01974,0.6286678,9.873973,7.690483197628424,-0.06875192251089,-22.150826917418502,11.29538,251.9636,0.1967941,0.05643641,-0.8053735,0.08063872,19.5599995627999,20
11.01995,0.8236536,9.852798,7.729681515562287,-0.2683421047957072,-21.65839145063379,12.96664,253.3752,1.03594,0.06025492,-0.7973536,0.09590904,19.5799995623529,20
11.01643,0.2443653,9.66639,7.720342372067426,0.3970790725286419,-21.08578608453956,8.135313,237.1682,358.8001,0.04310824,-0.8755003,0.05728791,19.5999995619059,20
11.01929,0.4409032,9.610457,7.650978478469378,0.2020880772626084,-20.59788520343237,10.57252,242.4428,1.183252,0.03896105,-0.8519812,0.08411372,19.6199995614588,20
11.01986,0.6383041,9.554016,7.435496361094136,0.0220188470160803,-19.91622473198687,12.66604,247.7697,3.887157,0.0334803,-0.826705,0.1103131,19.6399995610118,20
11.01997,0.8361479,9.495628,7.201645441916604,0.5027461453955258,-19.14436880180632,14.43975,252.8968,6.906529,0.02646127,-0.8010629,0.1364118,19.6599995605648,20
11.01529,0.2435677,9.227235,6.889893394218003,0.968816528033345,-18.214045673135363,8.294035,222.8532,357.485,0.04678649,-0.9276457,0.05930584,19.6799995601177,20
11.01906,0.4379294,9.154038,6.580323545959372,0.5487150166305226,-17.49686724414396,12.35024,229.5793,359.5358,0.04875749,-0.9023954,0.0959663,19.6999995596707,20
11.01981,0.6333646,9.080245,6.133630067406903,0.1176952582772496,-16.63102042559067,16.02859,236.4807,2.208439,0.04914587,-0.8734757,0.1318317,19.7199995592237,20
11.01751,0.2451493,8.793465,5.658025218791105,0.5807333772694088,-15.721197274269114,8.057259,216.3127,356.4391,0.05133124,-0.9467241,0.057067,19.7399995587766,20
11.0195,0.4397787,8.719467,5.1997585274991724,0.3925391362638618,-14.979894197450518,12.3731,223.0562,358.0443,0.05532247,-0.9240109,0.09400746,19.7599995583296,20
11.0199,0.6352257,8.644041,4.656863880525748,0.2190388303069333,-14.151401519682697,16.4064,229.8194,0.3233278,0.05756396,-0.8978587,0.1305864,19.7799995578825,20
11.01998,0.8310584,8.567075,4.037567145866694,0.0058711460489037,-13.260759245356354,20.12068,236.6369,3.243968,0.05829789,-0.8687873,0.1669388,19.7999995574355,20
11.01741,0.2450747,8.171726,3.420566455895516,0.6514925713098717,-12.235801654192096,7.840043,214.3776,356.1256,0.05241012,-0.9518733,0.05530674,19.8199995569885,20
11.01948,0.4428972,8.094165,2.802378684415391,0.3721322348966376,-10.919156494531643,11.74497,220.0568,358.3979,0.04810408,-0.9340113,0.09135471,19.8399995565414,20
11.0199,0.6413749,8.015905,2.2057754248241395,0.1001111335388206,-9.501518501162966,15.35405,225.8629,1.201134,0.04248042,-0.9132124,0.1270721,19.8599995560944,20
11.01998,0.8402073,7.936497,1.6342366322388813,-0.2105273653730847,-8.011215093297555,18.63386,231.7547,4.529473,0.03551805,-0.8899597,0.1625679,19.8799995556474,20
11.02209,0.2509445,7.608044,1.129243096362984,0.3464155033564162,-6.368261060886264,8.159346,214.3904,356.4542,0.05050232,-0.9517756,0.05880814,19.8999995552003,20
11.02042,0.4496773,7.52299,0.6977587609742866,0.0730232677974567,-4.563796293847291,12.37628,220.5079,359.1036,0.04461096,-0.9323807,0.09843308,19.9199995547533,20
11.02008,0.6481698,7.43602,0.336918773310126,-0.1939341736987384,-2.767575257391964,16.34266,226.5964,2.276411,0.03814599,-0.9100714,0.138295,19.9399995543063,20
11.02002,0.847056,7.3492,0.0675803180441025,0.2209138944690269,-0.9006975687257168,19.83435,233.086,6.036795,0.03045235,-0.8840619,0.177037,19.9599995538592,20
11.02571,0.2679847,6.885033,-0.0174946901885277,0.0053046786491699,0.8542988263490807,7.410461,214.5894,359.0743,0.02690743,-0.9526064,0.05930327,19.9799995534122,20
11.02114,0.4660981,6.7867,-0.0132114064831583,-0.1969805574481743,2.4916793898953427,12.37823,221.725,1.918342,0.02283758,-0.9295039,0.1066548,19.9999995529652,20
11.02023,0.6634069,6.68688,-0.028371180116828,-0.4060609004126487,3.995192377383586,17.04417,228.9741,5.448833,0.01857446,-0.9019094,0.1541931,20.0199995525181,20
11.00895,0.2833333,6.244134,-0.0389835731146828,0.2522022373533503,5.540718280923593,6.973538,219.4974,1.343786,0.009532375,-0.9396178,0.061192,20.0399995520711,20
11.01779,0.4668241,6.137679,0.0157960107072483,0.053213978711721,6.694380925081476,14.71926,226.7326,2.23745,0.03301922,-0.9112437,0.1252486,20.0599995516241,20
11.01956,0.6620276,6.035612,0.0358989662581414,-0.118650712099295,7.671638591863797,19.50213,235.4271,6.078176,0.03239685,-0.8754426,0.1740272,20.079999551177,20
11.01991,0.8577693,5.932479,0.0536395806460916,-0.3174317509589617,8.499554909334258,23.61324,244.5418,10.85638,0.03046197,-0.8342677,0.2216675,20.09999955073,20
11.04273,0.2833333,5.582033,0.1118780284199996,-0.307323674375643,9.09248995359878,6.500771,220.7408,1.247214,0.009548536,-0.9361131,0.05693289,20.119999550283,20
10.9912,0.4833334,5.478035,0.153406288490375,-0.248643368784611,9.532064271860223,12.8003,227.8788,3.304476,0.01902457,-0.9092056,0.1134665,20.1399995498359,20
11.01424,0.6645441,5.370269,0.1816949072760252,-0.1950596642142481,9.806189213273711,20.28693,234.4816,5.144402,0.04125419,-0.87793,0.1766443,20.1599995493889,20
11.01885,0.8585733,5.27115,0.1982911364788862,-0.1998384996961923,9.904349174210251,24.61062,243.641,9.553227,0.04284961,-0.8366567,0.2233576,20.1799995489419,20
11.10123,0.2833332,4.843672,0.2209858311927757,-0.2206251182623425,9.932439105683605,6.587774,209.3952,0.8305191,0.007578719,-0.9657608,0.05741175,20.1999995484948,20
11.06488,0.4833332,4.736746,0.2116302573231827,-0.1892090607508028,9.806919997314644,12.86173,215.5298,2.379138,0.01452042,-0.9468297,0.1129349,20.2199995480478,20
11.02879,0.683333,4.630609,0.1764598640570156,-0.1592062485954614,9.519509105526913,18.89086,221.8581,4.648743,0.0212057,-0.9229798,0.1674457,20.2399995476007,20
11.08752,0.2833333,4.273244,0.122043334019736,0.5175977631689026,9.316766841132068,7.419311,206.0002,1.092373,0.005285046,-0.9724228,0.06517921,20.2599995471537,20
11.05486,0.4833332,4.149645,0.0341169849605069,0.3161809007780816,8.779337741771062,14.51752,211.3408,2.876097,0.01014735,-0.9556706,0.1283402,20.2799995467067,20
11.02247,0.6833329,4.027081,-0.0783728876213434,0.1425273606682752,8.111259250577822,21.36074,216.9593,5.399888,0.01477584,-0.9337385,0.1902508,20.2999995462596,20
11.02049,0.8762435,3.913621,-0.211374846024416,-0.057328799589734,7.304539154992421,27.8959,224.3135,8.090573,0.02727064,-0.9030217,0.2485056,20.3199995458126,20
11.01324,0.2438584,4.031328,-0.4154221979114609,-0.0386793232534813,6.563893057946997,2.275492,198.5167,352.9955,0.06346897,-0.9847404,0.009734558,20.3399995453656,20
11.01865,0.4322646,4.024644,-0.6325431362722806,0.0294677923707078,5.736091685148282,3.205976,196.7558,350.3549,0.08720193,-0.9850978,0.01533289,20.3599995449185,20
11.01973,0.6273478,4.030669,-0.8575438157894197,0.0935116368170516,4.812034693701506,3.417781,198.1393,348.8786,0.1003246,-0.9819578,0.01404186,20.3799995444715,20
11.01995,0.8222573,4.038064,-1.0867544521484618,0.1001324560881539,3.783125051179804,3.65761,199.7435,347.3271,0.1141149,-0.9780727,0.01233666,20.3999995440245,20
11.02755,0.2728341,4.1607,-1.3952784190647023,0.0887362335933522,2.847781578812671,358.6233,183.6968,356.3583,0.03136819,-0.9989152,-0.01302659,20.4199995435774,20
11.02151,0.4648863,4.175669,-1.7078577265496475,0.1257877610258049,1.8302932455984329,358.0356,183.5247,353.8309,0.05324965,-0.9979606,-0.01876374,20.4399995431304,20
10.99454,0.6648862,4.18543,-2.0214460907777987,0.1586042902790168,0.7255365488704278,357.6525,182.896,350.9666,0.0781917,-0.9964078,-0.02240357,20.4599995426834,20
11.06176,0.2833333,4.129431,-2.3321754042738707,0.1337819971527654,-0.4739723322436573,2.032772,172.0277,358.2441,0.01405023,-0.9973258,0.01875835,20.4799995422363,20
11.03455,0.4833333,4.093539,-2.7721529540745884,0.0785139993585825,-1.4297687154703644,3.837038,169.7798,356.3187,0.02899389,-0.9950492,0.03618724,20.4999995417893,20
11.02291,0.6781985,4.069198,-3.2054881110692044,0.0707957320226196,-2.424091287982645,5.176004,169.9076,353.7528,0.05025777,-0.9938462,0.04969996,20.5199995413423,20
11.02058,0.8668177,4.049406,-3.630357966123016,0.0586184853039016,-3.4588965410853034,6.169405,170.7103,350.1185,0.08137683,-0.9919488,0.06040047,20.5399995408952,20
11.08581,0.2833333,3.761294,-4.16144406964999,0.0419517880880049,-4.172644609253033,4.887062,169.584,357.6573,0.01646993,-0.9948375,0.04430372,20.5599995404482,20
11.06104,0.4833333,3.669322,-4.68863767365186,0.0885372605353313,-4.859729283703331,9.779032,169.1691,355.2804,0.03280436,-0.9914038,0.08865397,20.5799995400012,20
11.06245,0.6833333,3.620427,-5.198342842511886,0.1332848993005622,-5.528399652968551,12.41081,170.3286,355.0298,0.03384871,-0.9900656,0.1112408,20.5999995395541,20
11.09982,0.2833333,3.327188,-5.852732970696662,-0.5168857022637278,-6.231628121850995,5.554195,175.0144,359.1705,0.005115791,-0.9978695,0.04871786,20.6199995391071,20
11.09458,0.4833333,3.228344,-6.495276821328355,-0.2733529664408041,-6.598979365463047,11.13654,176.1531,358.4362,0.01031729,-0.9946724,0.09742388,20.63999953866,20
11.08935,0.6833332,3.129529,-7.034488502227127,-0.0148557286777715,-6.898205415072989,16.73372,177.2432,357.7975,0.01550981,-0.988955,0.1458993,20.659999538213,20
11.08413,0.883333,3.030746,-7.548014154868429,0.2288936122777708,-7.129438867725408,22.34346,178.303,357.2505,0.02066587,-0.9807298,0.1940219,20.679999537766,20
11.08924,0.2833333,2.806991,-8.012452060945224,0.2786554877972088,-7.30710471388095,6.516097,189.2704,359.7615,0.006663917,-0.9951067,0.0564791,20.6999995373189,20
11.0678,0.4833333,2.69451,-8.65537357672135,0.2030989317640561,-6.983720768909583,13.03494,190.4941,359.6612,0.01330514,-0.989339,0.1127615,20.7199995368719,20
11.04636,0.6833332,2.582045,-9.192792496393704,0.1693819118646582,-6.536520531174385,19.55357,191.7459,359.7048,0.01990071,-0.9802563,0.1686586,20.7399995364249,20
11.02493,0.883333,2.469593,-9.617830289740322,0.1242967668051822,-5.972301460501061,26.06879,193.0633,359.9085,0.02642812,-0.9678905,0.2239835,20.7599995359778,20
10.99196,0.2833334,2.184657,-10.200256933256968,0.1020317047861781,-4.9394044640797965,6.273612,207.2924,1.237885,0.002427461,-0.9703979,0.05571719,20.7799995355308,20
10.96185,0.4833333,2.076483,-10.670786500962109,0.1210400790502514,-3.724579122613677,12.5148,208.758,2.643636,0.004847837,-0.9632714,0.1112473,20.7999995350838,20
10.93175,0.6833333,1.968324,-11.023575422916956,0.128150594751453,-2.3334904412339545,18.71504,210.4283,4.259993,0.007252724,-0.9530392,0.1664112,20.8199995346367,20
10.848,0.2833333,1.703042,-11.50238972483509,-0.5585868281712809,-0.7062584312833142,5.971917,212.5828,1.435976,0.002600156,-0.9586521,0.05350613,20.8399995341897,20
10.81384,0.4833333,1.600829,-11.872948850662471,-0.2868466708020885,0.8300980172729522,11.91599,214.063,3.030868,0.00524215,-0.9514504,0.1069166,20.8599995337427,20
10.77969,0.6833333,1.498653,-12.14900147229162,0.0170709024681519,2.3841233131417265,17.81585,215.7561,4.83027,0.007873537,-0.941401,0.1600194,20.8799995332956,20
10.74556,0.8833331,1.396515,-12.326316880602976,0.2948513562461829,3.91642664191308,23.65876,217.716,6.89035,0.01048056,-0.9285327,0.2126547,20.8999995328486,20
10.64043,0.2833333,1.209511,-12.531099164198563,-0.3623831334277795,5.481815397865455,6.840779,215.0549,1.235672,0.007702672,-0.9520126,0.06013004,20.9199995324016,20
10.59057,0.4833332,1.098618,-12.633511648495585,-0.1513152192664659,6.850747081996356,13.66421,216.5356,2.65653,0.01542321,-0.9434696,0.1201491,20.9399995319545,20
10.54073,0.683333,0.9877617,-12.62106343031131,0.0857420022578503,8.107687839022013,20.44495,218.2496,4.316964,0.02308293,-0.9313396,0.1797005,20.9599995315075,20
10.49091,0.8833328,0.8769367,-12.657167558464725,-0.3609007579231518,9.311040135589472,27.16859,220.2733,6.292094,0.03065127,-0.9156719,0.2385513,20.9799995310605,20
10.32013,0.2833332,0.6658052,-12.64234892506066,-0.1180626692479109,10.42462565674428,7.840737,219.8381,1.075767,0.01448666,-0.9381523,0.06746772,20.9999995306134,20
10.24798,0.4833332,0.5478488,-12.47884272228923,0.14145338791516,11.403579560874933,15.65309,221.3239,2.363951,0.02891817,-0.9277565,0.1345993,21.0199995301664,20
10.17586,0.683333,0.4299299,-12.188879086907582,0.3716366125548033,12.211015541906011,23.42788,223.0715,3.932496,0.04323223,-0.912837,0.2010734,21.0399995297194,20
9.979628,0.2833334,0.2684827,-12.092067436848389,-0.3405136135153147,12.96165475516465,7.979317,221.4109,359.9937,0.02465122,-0.9331423,0.06506303,21.0599995292723,20
9.888329,0.4833333,0.1632758,-11.934072818972153,-0.1453545019751972,13.792392635145426,15.9547,222.6653,0.162769,0.04917593,-0.9225409,0.1297845,21.0799995288253,20
9.79705,0.6833332,0.05810147,-11.62709513762383,0.068736870771291,14.481254999895778,23.92212,224.009,0.5303957,0.07345214,-0.9073743,0.1938443,21.0999995283782,20
9.547019,0.2837502,-0.09451568,-11.518759319406769,-0.3950161874912068,15.14550194315458,7.612889,224.5997,359.2511,0.03122348,-0.9229853,0.05894532,21.1199995279312,20
9.44497,0.48375,-0.1806447,-11.32332222875042,-0.1467053154791177,15.873332394194543,15.23684,225.6942,358.6414,0.06230068,-0.9127355,0.1176026,21.1399995274842,20
9.342941,0.68375,-0.2667412,-11.009358502766531,0.1210845599775986,16.447567751792878,22.86847,226.7509,358.16,0.09308943,-0.8983276,0.1757048,21.1599995270371,20
9.240932,0.8837497,-0.3528053,-10.591556186484372,0.3560830514496632,16.859246576976336,30.50501,227.8053,357.8074,0.1234493,-0.8798314,0.2329877,21.1799995265901,20
9.138942,0.976753,-0.4388368,-10.323697819625224,-0.3477312833989446,17.27301048563655,38.14396,228.8989,357.5984,0.1532418,-0.8573346,0.2891913,21.1999995261431,20
8.908237,0.3040234,-0.4700876,-9.970739344217575,-0.1260439648430715,17.649919530793273,6.837309,239.0142,359.5681,0.03264491,-0.8686289,0.05004318,21.219999525696,20
8.802295,0.5040233,-0.5255007,-9.519525711013856,0.1151224474112375,17.86655104689262,13.68356,240.1691,359.2643,0.06523108,-0.8587238,0.09988216,21.239999525249,20
8.696401,0.7040231,-0.5808973,-9.274161942865032,-0.3168162002974877,18.137506870198848,20.53436,241.3261,359.0918,0.09760472,-0.8456604,0.1493356,21.259999524802,20
8.438075,0.3109782,-0.5840306,-8.919791728015593,-0.7569788904533798,18.22514150077034,7.11668,253.1135,359.6031,0.03974396,-0.8015859,0.04779506,21.2799995243549,20
8.317324,0.5109781,-0.6141316,-8.461830910016324,-0.3003889139402731,18.334534171170937,14.24402,254.267,359.3226,0.07952045,-0.7906239,0.09529996,21.2999995239079,20
8.1966,0.7109779,-0.6442407,-8.270892532633383,-0.4923366158657474,18.548654736977124,21.37188,255.428,359.1813,0.1189792,-0.7765252,0.142387,21.3199995234609,20
7.876383,0.3138124,-0.6041874,-7.9640726682579315,-0.6668958350831902,18.57113235609299,7.521958,269.6781,359.5253,0.04918255,-0.7073653,0.04359711,21.3399995230138,20
7.744926,0.5138123,-0.5975649,-7.499534719841935,-0.15814003697294,18.592139286100817,15.05608,270.8139,359.1872,0.09822915,-0.695336,0.08696902,21.3599995225668,20
7.613511,0.7138121,-0.5909585,-6.952369388106849,0.3423913820678324,18.440217150035878,22.59352,271.9516,358.9916,0.1468458,-0.6802318,0.1299267,21.3799995221198,20
7.48213,0.9138119,-0.5843692,-6.628527137127998,-0.0702780624008144,18.362806791579622,30.13066,273.1337,358.9521,0.1948113,-0.6621242,0.1722771,21.3999995216727,20
7.232576,0.3099034,-0.5007023,-6.216219037981158,-0.4911713549573212,18.09527811979873,7.75978,288.7798,0.6487921,0.05172163,-0.5812343,0.04399095,21.4199995212257,20
7.100395,0.5099034,-0.4688874,-5.657077683616382,-0.0153118926818394,17.745627422613317,15.50078,290.147,1.489031,0.1031873,-0.5686842,0.08775911,21.4399995207787,20
6.96825,0.7099031,-0.4370726,-5.387683199552733,-0.1879901130265812,17.554520295724636,23.21631,291.7021,2.569299,0.1541541,-0.5534599,0.1310986,21.4599995203316,20
6.66203,0.3016023,-0.3279546,-5.026672491931417,-0.343279827141547,17.193395340756208,7.341975,302.7247,2.047155,0.04764149,-0.4792126,0.04632759,21.4799995198846,20
6.534582,0.5016023,-0.2897563,-4.6022968418164405,-0.5355423478537513,16.673004150043095,14.62717,304.3523,4.318962,0.09505758,-0.4668708,0.09242918,21.4999995194376,20
6.407171,0.7016021,-0.2515581,-4.403838207854809,-0.4990692018464375,16.505963833825604,21.83654,306.3564,6.907424,0.1420337,-0.4524271,0.1380969,21.5199995189905,20
6.279797,0.9016019,-0.21336,-4.09768910873756,-0.4206405107183161,16.19783021138357,28.9426,308.8501,9.938202,0.1883573,-0.4359489,0.1831249,21.5399995185435,20
5.869278,0.2872811,-0.03983991,-3.711991188059758,-0.3535720840443055,15.76399107649922,7.031291,305.7336,2.219188,0.04574745,-0.456174,0.04516221,21.5599995180964,20
5.746746,0.4872811,-0.0006466582,-3.125874950998826,0.3691074634495917,15.273331546964233,14.00723,307.3663,4.645373,0.09137151,-0.4440949,0.09006824,21.5799995176494,20
5.624239,0.6872809,0.03852178,-2.8561098739083985,0.2031535300039324,15.0047471200196,20.90257,309.3738,7.372996,0.1366079,-0.4301448,0.1345589,21.5999995172024,20
5.213678,0.2833333,0.2472133,-2.5018397758836253,0.0545881951326829,14.619756641322592,7.620749,304.7198,1.502753,0.0527955,-0.4636226,0.04241808,21.6199995167553,20
5.088866,0.4833332,0.3001688,-1.899145997733648,0.58883739373811,14.1948981818026,15.20544,306.2451,3.215639,0.1053919,-0.4512446,0.08459582,21.6399995163083,20
4.964089,0.6833329,0.3531091,-1.6635033564245074,0.4744909352417952,14.058223442160228,22.73564,308.0841,5.225018,0.1574775,-0.4367566,0.1263649,21.6599995158613,20
4.839348,0.8833326,0.4060343,-1.3424385668133578,0.3774729493827206,13.795219588844049,30.19122,310.3488,7.646597,0.2088081,-0.4202284,0.1675299,21.6799995154142,20
4.491193,0.2833334,0.6208793,-0.9610913334671352,0.2434202638092151,13.429225433866534,8.148154,303.9152,0.9674631,0.05874403,-0.4694498,0.040832,21.6999995149672,20
4.36306,0.4833333,0.6849546,-1.0094037664082784,-0.4938974147861784,13.411462250032894,16.26937,305.3467,2.149054,0.1171653,-0.4567216,0.08143877,21.7199995145202,20
4.234967,0.6833331,0.7489998,-0.8450476825784384,-0.2376240595224449,13.210213979395991,24.35567,307.0363,3.613865,0.1749752,-0.4416174,0.1216056,21.7399995140731,20
3.836706,0.2833333,1.017633,-0.6260880571403635,0.0284932039576968,12.877043546457998,8.063455,299.9059,359.733,0.06202398,-0.4993283,0.03319243,21.7599995136261,20
3.716382,0.4833331,1.090765,-0.3774211199067403,0.2520756147449465,12.43850417962203,16.12827,301.0232,359.6216,0.1237175,-0.4869741,0.06620674,21.7799995131791,20
3.596094,0.6833329,1.16388,-0.3471861196104702,0.2389316795220909,12.219449458810622,24.19135,302.1814,359.6758,0.1847693,-0.4721711,0.09887683,21.799999512732,20
3.148827,0.2833333,1.492124,-0.2615936934817195,0.2630927289926781,11.858324966117287,7.722612,297.8778,358.7868,0.06313276,-0.5141407,0.02569443,21.819999512285,20
