pX,pY,pZ,aX,aY,aZ,reX,reY,reZ,rtX,rtY,rtZ,t,ID
-41.98866,0.23,-35.88905,3.3998090731392807,0.6523945799798849,6.585881420798501,5.796625,358.4021,359.2962,0.05064318,-0.01361489,-0.005428409,7.07999984174967,19
-41.97993,0.4299999,-35.8418,3.7229253994955513,0.1983145198861722,6.9390144214588645,8.297205,356.8231,358.7032,0.07262397,-0.0268277,-0.00927717,7.09999984130263,19
-41.971,0.6300001,-35.80582,3.992766819372676,-0.0113833141966687,7.211944316203379,10.29347,355.1396,358.051,0.09033129,-0.04070036,-0.01312084,7.1199998408556,19
-41.97342,0.2833333,-35.81137,4.210424462981692,-0.0020326067148411,7.406594704660712,0.05094065,358.7233,0.04650002,0.0004399926,-0.0111409,0.0004107165,7.13999984040856,19
-41.97386,0.4833333,-35.80516,4.518498293384695,-0.4382361449951835,7.653403692406737,0.3579486,356.9321,0.05157765,0.003110517,-0.0267704,0.0005335547,7.15999983996153,19
-41.97432,0.6833333,-35.80017,4.761805189437695,-0.6260848958162726,7.808941869941869,0.6643957,355.1736,0.05432558,0.005772809,-0.04210798,0.0007177783,7.17999983951449,19
-41.96519,0.2833333,-35.76653,4.942421886043789,-0.5909129705004312,7.876903989477643,0.9981863,359.0768,0.5304707,0.008673036,-0.008096785,0.004699067,7.19999983906746,19
-41.96283,0.4833334,-35.73864,5.214003096176619,-0.9973222513971224,8.009530871870634,2.497074,358.2125,0.5229179,0.02171532,-0.01569394,0.004901541,7.21999983862042,19
-41.96173,0.6833334,-35.71135,5.410429594206796,-1.15140407875797,8.043145031612834,4.034346,357.3675,0.4495323,0.03509942,-0.0230948,0.00472799,7.23999983817339,19
-41.88197,0.2833333,-35.62816,5.534877329759638,-1.0784925767115816,7.9832577966027,1.858816,4.534515,359.9343,0.01618514,0.03956486,-0.001214426,7.25999983772635,19
-41.8782,0.4833332,-35.59569,5.59069372598438,-0.8028759926614154,7.835617724608717,3.714898,3.733626,359.8754,0.03236028,0.03259436,-0.002142436,7.27999983727932,19
-41.87458,0.6833331,-35.56328,5.709172322067118,-1.201548671021591,7.718397489635208,5.573862,2.93244,359.7845,0.04855786,0.02564868,-0.003122074,7.29999983683228,19
-41.79903,0.2833333,-35.43716,5.751311877453965,-1.340506284487884,7.510916511757813,3.202795,10.50294,0.1084371,0.02791528,0.09146507,-0.001615867,7.31999983638525,19
-41.79085,0.4833333,-35.38173,5.721560484879454,-1.245082860662623,7.220466044197742,6.415175,9.576325,0.1463751,0.05586486,0.08326992,-0.003399652,7.33999983593822,19
-41.78287,0.6833335,-35.32627,5.763956000415142,-1.5798814905645169,6.985322125962838,9.637975,8.67278,0.133662,0.08385541,0.07524701,-0.005193048,7.35999983549118,19
-41.77505,0.8833337,-35.27075,5.727686958691052,-1.6509927664536868,6.665393902133364,12.86797,7.790696,0.0787211,0.1118459,0.06742959,-0.006931538,7.37999983504415,19
-41.66591,0.2833331,-35.13088,5.618324397991877,-1.4837501454865758,6.269597752033121,4.833677,16.31779,0.1614916,0.04194223,0.1417335,-0.004590831,7.39999983459711,19
-41.6442,0.4833334,-35.049,5.592334611656348,-1.7427563205545775,5.955829376758448,9.672395,15.49129,0.2511284,0.08383227,0.1341124,-0.009198771,7.41999983415008,19
-41.62249,0.6833335,-34.96716,5.486952313599254,-1.7341026031605105,5.565676032401896,14.51347,14.65832,0.2702259,0.1255816,0.1262518,-0.0137938,7.43999983370304,19
-41.48673,0.2833333,-34.81553,5.309000421666944,-1.4831224494154125,5.109691150785917,3.788432,22.86955,0.222451,0.03278277,0.1980806,-0.004651394,7.45999983325601,19
-41.46413,0.4833331,-34.75339,5.065478240660866,-1.0141046904976183,4.598689420630766,7.578472,22.05113,0.3909936,0.06551734,0.1906065,-0.009297004,7.47999983280897,19
-41.44154,0.6833329,-34.69125,4.890621087349665,-1.2040446153500008,4.158724485454922,11.36677,21.23541,0.5036454,0.09814057,0.1829197,-0.01394819,7.49999983236194,19
-41.27386,0.2833336,-34.49142,4.649655467429753,-1.1189366988016685,3.671104258844643,3.689287,27.3979,0.2060578,0.03169943,0.236641,-0.00587699,7.5199998319149,19
-41.24696,0.4833332,-34.43285,4.350731439182567,-0.7841149710684828,3.148089407040328,7.38013,26.58013,0.3596994,0.06335543,0.2292067,-0.01174633,7.53999983146787,19
-41.22006,0.6833335,-34.37429,4.140406725842922,-0.8641822056255887,2.735092841215096,11.0716,25.76464,0.4611428,0.09493186,0.2215293,-0.0176026,7.55999983102083,19
-41.19318,0.8833334,-34.31575,3.871751011017096,-0.6652292492035393,2.2954307441556736,14.76254,24.9441,0.507614,0.1263872,0.213616,-0.02345547,7.5799998305738,19
-41.04034,0.2833333,-34.15827,3.554166737830293,-0.212589892967573,1.842816694181508,3.612319,31.42069,0.2203917,0.03086123,0.2705808,-0.00668379,7.59999983012676,19
-41.01032,0.4833333,-34.10273,3.186750401194025,0.2293514577381726,1.334493481006472,7.226346,30.60743,0.3897145,0.06168078,0.2632027,-0.01335933,7.61999982967973,19
-40.98032,0.6833334,-34.0472,2.9621072957660743,-0.2441039166321921,0.972635716129762,10.84131,29.79765,0.508485,0.09242628,0.2555556,-0.02001952,7.63999982923269,19
-40.81789,0.2833333,-33.87153,2.6976325102059,-0.0714371065119162,0.6152434587913298,3.538448,35.30169,0.3176997,0.03026053,0.3029884,-0.006720738,7.65999982878566,19
-40.78632,0.4833333,-33.8182,2.402018793020936,0.1116837289630601,0.2638974835362617,7.079986,34.49979,0.586211,0.06048128,0.2956685,-0.01343346,7.67999982833862,19
-40.75475,0.683333,-33.76489,2.086267900501284,0.2529880572255718,-0.0655901867133543,10.62389,33.7078,0.8067701,0.09063198,0.2880562,-0.02013175,7.69999982789159,19
-40.5813,0.2833333,-33.57267,1.873334825965259,0.1667413260512402,-0.2829598805996021,3.478269,37.13234,0.3206365,0.02965988,0.3181713,-0.007011828,7.71999982744455,19
-40.54874,0.4833334,-33.52116,1.646394160003652,0.1196976443405291,-0.4913412273328887,6.959669,36.33286,0.5931276,0.05928179,0.3109008,-0.0140149,7.73999982699752,19
-40.51619,0.6833332,-33.46965,1.4182681113257374,0.0585409219128061,-0.6778596082701149,10.44319,35.5434,0.8176867,0.08883178,0.3033322,-0.02101029,7.75999982655048,19
-40.48365,0.8833331,-33.41817,1.2382935757931222,0.0099291497148111,-0.7738414669062408,13.92842,34.75837,0.9956999,0.118286,0.2954737,-0.02798392,7.77999982610345,19
-40.33139,0.2833338,-33.26163,1.0518974992202246,0.0005204387413053,-0.8519739013024044,3.425714,37.60454,0.2837256,0.02909305,0.3220881,-0.00729099,7.79999982565641,19
-40.29848,0.483334,-33.21149,0.8710486255632759,-0.0230011539596349,-0.9000048872817992,6.85377,36.80469,0.5194414,0.05814593,0.314863,-0.0145765,7.81999982520938,19
-40.26557,0.683334,-33.16137,0.76488282687815,-0.0339775696637972,-0.8760593584171303,10.2838,36.01274,0.708651,0.08713551,0.3073457,-0.02184633,7.83999982476234,19
-40.10202,0.2833335,-32.98878,0.6551234978924185,-0.0057510954166239,-0.8539305620509765,3.379508,37.07307,0.1779811,0.02845124,0.3177272,-0.007902377,7.85999982431531,19
-40.0686,0.4833334,-32.94011,0.5541425888379479,0.0083625008491693,-0.8243299874235284,6.759879,36.26605,0.3079715,0.05686363,0.3105312,-0.0157991,7.87999982386827,19
-40.03519,0.6833336,-32.89145,0.4744372204786486,-0.0449530279458038,-0.7780247047878852,10.14073,35.46052,0.3906931,0.0852149,0.3030557,-0.02367969,7.89999982342124,19
-39.86056,0.2833337,-32.70344,0.4244007182144926,-0.1123816695911442,-0.7023148272230415,3.328336,36.0029,0.06928824,0.0278063,0.308894,-0.008400085,7.91999982297421,19
-39.82706,0.4833336,-32.65599,0.3761055568988283,-0.1406077453625272,-0.6477832932742871,6.656003,35.18874,0.09094482,0.05557574,0.3017224,-0.01679247,7.93999982252717,19
-39.79357,0.6833338,-32.60856,0.3404811155402143,-0.1829470103863899,-0.608699012246948,9.982649,34.36972,0.06481344,0.08328716,0.2942882,-0.02516778,7.95999982208014,19
-39.76009,0.8833336,-32.56114,0.3237873756349358,-0.2127417794986784,-0.5393998034488625,13.30769,33.54012,359.9896,0.1109168,0.2865981,-0.03351854,7.9799998216331,19
-39.60756,0.2833333,-32.40598,0.3105491108078766,-0.2033333291809603,-0.4746848870032671,3.277794,34.58327,359.9412,0.02715513,0.2971279,-0.008990875,7.99999982118607,19
-39.57393,0.4833335,-32.35972,0.3117000559465168,-0.208037696297908,-0.4065007744613744,6.553414,33.7614,359.8352,0.05427828,0.2899835,-0.01797159,8.01999982073903,19
-39.54029,0.6833335,-32.31348,0.308433765395371,-0.2001974095591197,-0.3524954742281814,9.825904,32.92738,359.6805,0.08134302,0.2825943,-0.02693606,8.039999820292,19
-39.37711,0.2833333,-32.14272,0.2993856294500361,-0.1531537453590405,-0.3114391910472882,3.228148,32.74437,359.8431,0.02663931,0.2818006,-0.009252428,8.05999981984496,19
-39.34402,0.4833333,-32.09706,0.2950715845288556,-0.1202235531950917,-0.2749022714898856,6.452763,31.91683,359.6394,0.0532482,0.2746727,-0.01849442,8.07999981939793,19
-39.31094,0.6833333,-32.05142,0.306098300004507,-0.1547226575392979,-0.2344538511929315,9.673127,31.07187,359.387,0.0798042,0.2673198,-0.02771834,8.09999981895089,19
-39.27787,0.8833332,-32.00579,0.3075568050320498,-0.2033337579736667,-0.1959339788028948,12.88819,30.20371,359.0833,0.106283,0.2597483,-0.03691502,8.11999981850386,19
-39.07211,0.2833333,-31.79058,0.3102261920901838,-0.2127423906284719,-0.1604084333162028,3.339107,31.98504,359.7773,0.02747224,0.2754488,-0.009894385,8.13999981805682,19
-39.03761,0.4833333,-31.74344,0.3244377431836938,-0.2362639387252138,-0.1190991432721588,6.673741,31.15422,359.5058,0.05491195,0.268319,-0.01977725,8.15999981760979,19
-39.00311,0.6833332,-31.69632,0.3310203123506952,-0.2472405441714569,-0.0847931480148531,10.00312,30.30108,359.1831,0.08229448,0.2609542,-0.02963979,8.17999981716275,19
-38.96862,0.8833331,-31.64922,0.3333362024221742,-0.219013895340661,-0.0566582743266117,13.32732,29.41919,358.8055,0.1096026,0.2533608,-0.03947734,8.19999981671572,19
-38.8186,0.2833331,-31.49914,0.3416618461774234,-0.2048999469456295,-0.0256491304659718,3.526443,33.79794,359.8072,0.0289517,0.2905965,-0.01055296,8.21999981626868,19
-38.7812,0.4833333,-31.45012,0.3392665048768961,-0.1782417181679049,-0.0091377276465465,7.048857,32.97151,359.5631,0.05786655,0.2834629,-0.02109395,8.23999981582165,19
-38.74382,0.6833333,-31.40111,0.324418185287854,-0.1123807773329352,-0.0060941618892975,10.56774,32.12266,359.2646,0.08672576,0.2760528,-0.03161873,8.25999981537461,19
-38.58268,0.2833332,-31.23645,0.3074561232496791,-0.060632828342015,-0.0073057844193833,3.564548,35.81229,359.8796,0.02927205,0.3073408,-0.01056194,8.27999981492758,19
-38.54423,0.4833332,-31.18751,0.2987688892848226,-0.0763138952535402,-0.0035549110656241,7.126271,34.99474,359.7076,0.05850692,0.3002311,-0.02111446,8.29999981448054,19
-38.50579,0.6833332,-31.13858,0.2827053404980901,-0.1061076631235332,-0.0053663555273608,10.68416,34.15914,359.4824,0.08767401,0.2928229,-0.03164278,8.31999981403351,19
-38.3329,0.2833336,-30.95651,0.2640313048461564,-0.0966994028092476,-0.0103208365941398,3.589892,37.29958,0.03538482,0.02977657,0.3196168,-0.009723997,8.33999981358647,19
-38.29509,0.4833336,-30.90656,0.2531426445924438,-0.1014045807294725,-0.0090234816580334,7.179152,36.49913,0.02112748,0.05951743,0.3125313,-0.01943165,8.35999981313944,19
-38.25729,0.683334,-30.85663,0.2346453443660152,-0.0935638367105297,-0.0156118702790486,10.76677,35.6906,359.9557,0.08918782,0.3051308,-0.02911692,8.3799998126924,19
-38.21951,0.8833342,-30.80671,0.2096880406898691,-0.0465198734358132,-0.0279886206890438,14.35212,34.86731,359.8373,0.1187582,0.2974235,-0.03876982,8.39999981224537,19
-38.07161,0.2833336,-30.6587,0.1887235620100043,-0.0135896599280583,-0.0365556062641694,3.568443,38.04597,0.06087438,0.0296082,0.3257738,-0.009646566,8.41999981179833,19
-38.03373,0.4833336,-30.60927,0.1575904237038514,0.0318854601635202,-0.0590525440814033,7.136273,37.2511,0.07211987,0.05917657,0.3187256,-0.01928164,8.4399998113513,19
-37.99585,0.6833336,-30.55986,0.1142011231360413,0.1165635696075886,-0.0943280098555483,10.70289,36.44993,0.03317115,0.08867621,0.31136,-0.02889464,8.45999981090426,19
-37.83413,0.283333,-30.39435,0.0690261039265749,0.1871283637400481,-0.1325553675621122,3.647171,39.04304,0.09307581,0.0302642,0.3339672,-0.009868568,8.47999981045723,19
-37.79494,0.483333,-30.34416,0.0325503931779067,0.1902643372005495,-0.1639292640003269,7.294191,38.25359,0.1359737,0.06048723,0.3269246,-0.01972388,8.49999981001019,19
-37.75577,0.6833329,-30.29399,0.0606608303859204,0.1792875914078935,-0.1217819899963501,10.94042,37.45959,0.1281446,0.09063733,0.319542,-0.02955616,8.51999980956316,19
-37.58135,0.2833333,-30.11298,0.0781233132020204,0.2075138425469539,-0.0894368284194513,3.619374,39.96742,0.1114411,0.0300105,0.3415535,-0.009878969,8.53999980911613,19
-37.54193,0.4833333,-30.0636,0.0958578293597085,0.2216269881535287,-0.0565724112446659,7.238873,39.18211,0.1733669,0.05998073,0.3345453,-0.01974496,8.55999980866909,19
-37.50252,0.6833332,-30.01425,-0.0307307596317372,0.8885991076544582,-0.1623681083334958,10.85783,38.39364,0.1854538,0.08987951,0.3271942,-0.02958777,8.57999980822206,19
-37.46312,0.8833328,-29.9649,-0.0256778705515898,0.6641842022728546,-0.1449343220469465,14.47545,37.59539,0.1460073,0.1196738,0.3195079,-0.03939971,8.59999980777502,19
-37.31536,0.2833336,-29.81756,-0.0205767270464178,0.4544047383247175,-0.1261160719602116,3.560501,41.66776,0.2017072,0.02966067,0.3554363,-0.009404645,8.61999980732799,19
-37.27636,0.4833332,-29.76908,-0.0044520304333985,0.2048998272456231,-0.0957611113983638,7.122454,40.89409,0.3556056,0.05928331,0.3484846,-0.01879718,8.63999980688095,19
-37.23737,0.6833334,-29.72062,-0.0306043955884334,0.1813781670285623,-0.1116315902140776,10.68501,40.12337,0.4620874,0.08883624,0.341186,-0.0281678,8.65999980643392,19
-37.07709,0.2833333,-29.5572,-0.0627117174722613,0.1970596355521081,-0.134293119266939,3.498482,42.41837,0.2549019,0.02926197,0.3615412,-0.008970424,8.67999980598688,19
-37.03888,0.4833336,-29.5094,-0.0906534427836547,0.1986281575327474,-0.1543832685342643,6.999001,41.65181,0.4633613,0.05848626,0.3546331,-0.01792895,8.69999980553985,19
-37.00068,0.6833336,-29.46162,0.0482378902372317,-0.5075464959571053,-0.013706303989327,10.50059,40.89175,0.6261698,0.0876416,0.3473831,-0.02686626,8.71999980509281,19
-36.82823,0.2833333,-29.28231,0.0555956315920909,-0.2972441233970487,0.0067465157451778,3.440779,42.2004,0.269782,0.02885613,0.3597709,-0.008612422,8.73999980464578,19
-36.79107,0.4833332,-29.23493,0.0614460210947456,-0.0764878693134097,0.0241642462626288,6.883456,41.43734,0.4943066,0.05767374,0.3528961,-0.01721101,8.75999980419874,19
-36.75393,0.683333,-29.18756,0.0756630780190761,0.1024520421228664,0.0478847504293895,10.32784,40.68179,0.6742358,0.08642823,0.3456916,-0.0257913,8.77999980375171,19
-36.71679,0.8833328,-29.14021,0.0825645410716617,0.0538407278148495,0.0639967452998639,13.77326,39.92838,0.8097131,0.115092,0.3381647,-0.03434505,8.79999980330467,19
-36.56939,0.2833338,-28.99315,0.0837715986406166,0.044432018583694,0.076461519308161,3.394414,40.52633,0.1655501,0.02828464,0.3461402,-0.00890281,8.81999980285764,19
-36.53278,0.4833333,-28.9465,0.0890616130498145,0.0209104244888719,0.09445231794977,6.78953,39.75686,0.285636,0.0565328,0.339289,-0.0177946,8.8399998024106,19
-36.49619,0.683333,-28.89987,0.0843489877965097,0.0099334301497718,0.0980770189186337,10.18493,38.98855,0.3604545,0.0847201,0.3321306,-0.02666777,8.85999980196357,19
-36.33685,0.2833334,-28.73751,0.0685441782094145,0.0381589988097458,0.0898097352271634,3.341426,39.13361,0.08757394,0.02772746,0.3347423,-0.00904449,8.87999980151653,19
-36.30093,0.4833336,-28.69157,0.0515205850274895,0.0522709442845987,0.0786987944793686,6.682334,38.35955,0.1301312,0.05541868,0.3279121,-0.01807659,8.8999998010695,19
-36.26502,0.6833332,-28.64564,0.1961195741152437,-0.6413596089817071,0.2231649031288363,10.02266,37.58211,0.1272591,0.08305309,0.3207946,-0.02709053,8.91999980062246,19
-36.09333,0.2833333,-28.46856,0.2100818121307028,-0.4185126231627051,0.2479629733002113,3.290663,37.42328,359.9578,0.0270767,0.3206832,-0.009560141,8.93999980017543,19
-36.05755,0.4833333,-28.42366,0.2207065671126429,-0.1852117502445946,0.2674917020631611,6.579476,36.64032,359.8704,0.05412177,0.3138699,-0.01910934,8.95999979972839,19
-36.02178,0.6833333,-28.37877,0.2378904217864743,0.0062721586164841,0.2909849251869794,9.865462,35.8465,359.7366,0.08110821,0.3067902,-0.02864036,8.97999979928136,19
-35.98602,0.8833333,-28.33389,0.2467728252558529,-0.0297942616526404,0.3012869618214324,13.14832,35.03627,359.5546,0.1080162,0.2994505,-0.03814422,8.99999979883432,19
-35.77381,0.2833333,-28.11452,0.2486655068567387,-0.0266577522448129,0.3031199069008785,3.233384,34.43151,359.8227,0.02649095,0.2958943,-0.009827835,9.01999979838729,19
-35.73907,0.4833336,-28.06997,0.2532580405319855,-0.0376342534984349,0.3056123320275397,6.463043,33.64037,359.6004,0.05295128,0.2890953,-0.01964461,9.03999979794025,19
-35.70433,0.6833336,-28.02544,0.2454195582596199,-0.0360663582416382,0.2906096400945053,9.688385,32.83097,359.3313,0.07935952,0.2820593,-0.02944201,9.05999979749322,19
-35.66961,0.8833333,-27.98092,0.2240371417223556,0.0047044585901746,0.2606061902384624,12.90837,31.99776,359.0128,0.1056915,0.2747924,-0.03920913,9.07999979704618,19
-35.51608,0.2833333,-27.82522,0.1987656920685552,0.0313626809211988,0.2249170030976159,3.283458,32.79239,359.7661,0.0269086,0.2822174,-0.01004434,9.09999979659915,19
-35.48131,0.483333,-27.77949,0.1792513986878354,-0.0094080589857958,0.1928211894456275,6.562512,31.99911,359.4864,0.05378642,0.2754219,-0.02007732,9.11999979615211,19
-35.44655,0.683333,-27.73377,0.2271103710140458,-0.0642927098272646,0.2325041511643419,9.836356,31.18382,359.1585,0.08060932,0.2683934,-0.03009023,9.13999979570508,19
-35.27777,0.2833333,-27.56093,0.2627619146503512,-0.0799740901878282,0.2598975061841315,3.533814,34.60465,359.7928,0.0289006,0.297325,-0.01089592,9.15999979525805,19
-35.23941,0.4833335,-27.51245,0.2963437450604083,-0.1097685970762155,0.2848405312896709,7.063487,33.81396,359.5364,0.05776414,0.2905025,-0.02177836,9.17999979481101,19
-35.20107,0.6833335,-27.464,0.192376375819407,0.5132960341463819,0.1791422839209708,10.59025,33.00029,359.2274,0.08657675,0.2833959,-0.03264706,9.19999979436398,19
-35.01984,0.2833334,-27.27613,0.2069451438200431,0.2449735235746593,0.1811553707231645,3.563792,36.2648,359.8511,0.02914658,0.3111015,-0.01091132,9.21999979391694,19
-34.98063,0.4833335,-27.22779,0.2182504525907909,-0.0087129436682632,0.181448704311979,7.124444,35.48163,359.6529,0.05825627,0.3043007,-0.02181176,9.23999979346991,19
-34.94143,0.6833335,-27.17946,0.0754519921325638,0.4181633804753311,0.0320086263939991,10.68101,34.67905,359.4034,0.08729845,0.2971983,-0.03268758,9.25999979302287,19
-34.90224,0.8833336,-27.13115,0.0642623929256061,0.1937485879109893,0.0050829620789158,14.23266,33.85022,359.0991,0.1162436,0.2898017,-0.04352769,9.27999979257584,19
-34.74778,0.2833334,-26.97454,0.0467628677164384,-0.0160301987851147,-0.0278955616963614,3.592739,37.46808,359.9897,0.02965763,0.3210205,-0.01015356,9.2999997921288,19
-34.70918,0.4833331,-26.92514,0.0334165945191955,-0.2655343180525621,-0.0569486546318067,7.184307,36.70098,359.9316,0.05928037,0.3142458,-0.02029025,9.31999979168177,19
-34.67059,0.6833332,-26.87575,0.0469367108384588,-0.2890568951821091,-0.052319322492579,10.7737,35.92332,359.8242,0.08883337,0.3071552,-0.03040329,9.33999979123473,19
-34.50312,0.2833333,-26.70383,0.0527347949487122,-0.2733759883926877,-0.0542122131756777,3.562389,38.59962,0.06247791,0.02951603,0.3303356,-0.009758848,9.3599997907877,19
-34.46487,0.483333,-26.65483,0.0615792587139303,-0.2718075150236585,-0.0523096872887833,7.124095,37.84169,0.07782143,0.05899217,0.3235952,-0.01950499,9.37999979034066,19
-34.42664,0.6833329,-26.60584,-0.0631190182746799,0.3826196450130784,-0.1752511773826341,10.68463,37.07807,0.04540455,0.08839986,0.3165345,-0.02922906,9.39999978989363,19
-34.24511,0.2833338,-26.41688,-0.0599805466305802,0.1456595324920127,-0.1822470236166715,3.636377,39.39615,0.08451684,0.03011985,0.3368718,-0.01000033,9.41999978944659,19
-34.20564,0.4833339,-26.36716,-0.0528263032206908,-0.0766642673327081,-0.184067118853612,7.272568,38.64254,0.1212195,0.06019971,0.3301351,-0.01998802,9.43999978899956,19
-34.16618,0.6833338,-26.31746,-0.1938182762073204,0.3815745411079455,-0.3277506067626454,10.90855,37.88433,0.1094265,0.09021256,0.3230579,-0.02995583,9.45999978855252,19
-34.12673,0.8833334,-26.26777,-0.195712700159838,0.1885223298896399,-0.3383880199282103,14.54306,37.11517,0.04781379,0.1201223,0.3156479,-0.03989003,9.47999978810549,19
-33.97119,0.2833335,-26.1122,-0.1970491099051088,0.0101059553572394,-0.3454288536783245,3.628852,39.86765,0.09534983,0.03004896,0.3407389,-0.01001297,9.49999978765845,19
-33.93155,0.4833335,-26.0628,-0.1869414674287206,-0.2080360676348335,-0.3383357058241145,7.257611,39.11813,0.1432891,0.06005784,0.3340324,-0.02001295,9.51999978721142,19
-33.89193,0.6833334,-26.0134,-0.2214142754198604,-0.2001953447854592,-0.3757739002601248,10.88563,38.36484,0.1434691,0.08999524,0.326983,-0.02998907,9.53999978676438,19
-33.72343,0.2833333,-25.84236,-0.2642593786281431,-0.1531520772317031,-0.4187569105906057,3.575623,41.89966,0.188183,0.02972259,0.3573279,-0.009621988,9.55999978631735,19
-33.6839,0.4833333,-25.794,-0.3045564060022379,-0.1202214747439738,-0.4569066204019663,7.152326,41.16116,0.3304965,0.05940605,0.35067,-0.01923155,9.57999978587031,19
-33.64437,0.6833336,-25.74565,-0.3313495731966185,-0.1547197188021193,-0.4798662570868153,10.72947,40.42516,0.4273156,0.08901994,0.3436612,-0.02881882,9.59999978542328,19
-33.60485,0.8833332,-25.69731,-0.3501174431892941,-0.2033315842159209,-0.4974128780574958,14.30628,39.6858,0.4777966,0.1185318,0.3363091,-0.03837611,9.61999978497624,19
-33.39474,0.2833332,-25.48355,-0.360492519199461,-0.212740154320305,-0.5050710792189932,3.508423,42.92775,0.2588549,0.02931511,0.3656778,-0.009100053,9.63999978452921,19
-33.35605,0.4833331,-25.4359,-0.3521127754296778,-0.2362617039851633,-0.4932121121198136,7.018834,42.19865,0.4733908,0.05859262,0.3590718,-0.01818856,9.65999978408217,19
-33.31737,0.6833332,-25.38827,-0.4754919006646751,0.3930754604597225,-0.6048077314996725,10.5302,41.47673,0.6445794,0.08780047,0.3521188,-0.02725492,9.67999978363514,19
-33.2787,0.8833331,-25.34066,-0.4178714562605421,0.1310254998368611,-0.5479242059559652,14.04243,40.75665,0.7724748,0.1169136,0.3448259,-0.03629225,9.6999997831881,19
-33.13114,0.2833333,-25.19406,-0.352645874010232,-0.1163889204740807,-0.4830098948033878,3.443502,42.56475,0.2690982,0.02884857,0.3627339,-0.008718307,9.71999978274107,19
-33.09366,0.4833336,-25.14688,-0.4414802234249393,0.3167597325139698,-0.5680149563345687,6.888639,41.83931,0.4951645,0.05765784,0.3561677,-0.01742236,9.73999978229403,19
-33.05619,0.6833336,-25.09971,-0.3861366142832523,0.0986170428110905,-0.5133617278444156,10.33539,41.12179,0.6789715,0.08640448,0.3492694,-0.02610753,9.759999781847,19
-32.89544,0.2833334,-24.93804,-0.3320748967079581,-0.1048901091933997,-0.4571598711946194,3.395124,41.31951,0.1736898,0.02825318,0.3526205,-0.009034126,9.77999978139997,19
-32.85831,0.4833334,-24.89179,-0.2695397142751439,-0.3481227592926311,-0.3901562889200001,6.790825,40.58753,0.3039908,0.05646833,0.3460762,-0.01805787,9.79999978095293,19
-32.82118,0.6833334,-24.84556,-0.1754288275402018,-0.3653721966873267,-0.2854722469432786,10.18694,39.85762,0.3913869,0.08462336,0.3392193,-0.02706267,9.8199997805059,19
-32.64854,0.2833331,-24.66863,-0.087343924493382,-0.3434183573286509,-0.1857788833859963,3.341814,39.69366,0.08662533,0.02768331,0.3393417,-0.00918883,9.83999978005886,19
-32.61217,0.4833331,-24.62304,0.004758640770774,-0.3355777433762503,-0.0818013475241059,6.683048,38.95617,0.1303938,0.05533044,0.3328166,-0.0183648,9.85999977961183,19
-32.57582,0.6833333,-24.57746,-0.0437899368605911,0.3251219108541008,-0.1113520908984035,10.02358,38.21567,0.1309265,0.08292006,0.326001,-0.0275218,9.87999977916479,19
-32.53947,0.8833333,-24.53189,0.0400311358354699,0.094435032938927,-0.0200651378007812,13.36292,37.46696,0.08713328,0.110428,0.3189012,-0.03665227,9.89999977871776,19
-32.39119,0.2833333,-24.38628,0.1260307403216529,-0.121615909237657,0.073466939761623,3.290497,37.81884,359.9555,0.0270358,0.3239499,-0.009671667,9.91999977827072,19
-32.35509,0.4833334,-24.34164,0.0520883476897253,0.342894647321692,0.0103310467977912,6.579169,37.07296,359.8681,0.05404023,0.317447,-0.01933198,9.93999977782369,19
-32.31899,0.6833336,-24.29702,0.1172408295822791,0.1561141510302862,0.077173836163098,9.865076,36.3165,359.7364,0.08098628,0.3106757,-0.0289735,9.95999977737665,19
-32.15915,0.2833336,-24.13623,0.1758713412934405,-0.0160306526676825,0.1365513723735532,3.240266,36.05148,359.8727,0.02654151,0.3093502,-0.009804948,9.97999977692962,19
-32.1238,0.4833337,-24.09206,0.2376530438147703,-0.2279006400530601,0.1974532744986668,6.477664,35.30095,359.7027,0.05305297,0.3028638,-0.0195988,9.99999977648258,19
-32.08847,0.6833337,-24.0479,0.3249872024418181,-0.2137874327672421,0.2884012531094662,9.711612,34.53537,359.4885,0.07951219,0.2961288,-0.02937342,10.0199997760355,19
-31.91736,0.2833335,-23.8723,0.4000116650571286,-0.1604711524089446,0.365943483354215,3.193913,33.54242,359.7721,0.02610942,0.2884912,-0.009945003,10.0399997755885,19
-31.88297,0.4833335,-23.82827,0.4725737406856041,-0.1212678737389855,0.4393786600373488,6.38367,32.78592,359.5017,0.05218996,0.2820154,-0.019879,10.0599997751415,19
-31.8486,0.6833339,-23.78425,0.3977858197117001,0.5707944709086075,0.3719494125763631,9.56854,32.00901,359.1867,0.0782195,0.2753143,-0.02979342,10.0799997746944,19
-31.81424,0.8833338,-23.74025,0.445417972717987,0.3714693245946354,0.4165095994957966,12.74773,31.20642,358.8244,0.1041766,0.268394,-0.03967808,10.0999997742474,19
-31.66162,0.2833333,-23.59006,0.4859702110298336,0.1867793804021525,0.454590678081086,3.529547,34.76351,359.7733,0.02879914,0.2986528,-0.01108716,10.1199997738004,19
-31.62289,0.4833333,-23.54192,0.5293435603694938,-0.0376360111826413,0.4955856566239909,7.054912,34.00722,359.4995,0.05756201,0.2921321,-0.02216064,10.1399997733533,19
-31.58418,0.6833333,-23.4938,0.3806503327155148,0.6042458674904619,0.3503011306219576,10.57659,33.22724,359.1756,0.08626907,0.2853272,-0.03321625,10.1599997729063,19
-31.54549,0.8833332,-23.4457,0.4008001313868377,0.354741462216011,0.3637604737205535,14.09396,32.41692,358.7978,0.1148939,0.278245,-0.04424132,10.1799997724593,19
-31.35281,0.2833333,-23.2565,0.4086645398497133,0.1198729469434263,0.3659261643798821,3.562966,37.39621,359.861,0.02905826,0.3204622,-0.01111453,10.1999997720122,19
-31.31281,0.4833331,-23.20884,0.4143514270864266,-0.154721270714612,0.3662682489640865,7.12308,36.65074,359.6747,0.05807928,0.3139717,-0.02222062,10.2199997715652,19
-31.27282,0.6833335,-23.16119,0.4424594162908128,-0.2033323706262761,0.3935021439734498,10.67932,35.88696,359.4396,0.08703243,0.307171,-0.03330134,10.2399997711182,19
-31.10385,0.2833333,-22.98989,0.4569966912878378,-0.2127409402079557,0.4070618987896495,3.592834,38.85685,-0.002140348,0.029557,0.3324661,-0.01044494,10.2599997706711,19
-31.06418,0.4833331,-22.94134,0.4684454914173948,-0.2362627223025049,0.4167346241933494,7.184596,38.12643,359.9502,0.05907848,0.3259952,-0.02087439,10.2799997702241,19
-31.02452,0.6833333,-22.8928,0.3392616785598399,0.3930750151146749,0.2948363147970099,10.77437,37.38643,359.8555,0.08853049,0.3191971,-0.03127981,10.2999997697771,19
-30.84269,0.2833333,-22.70591,0.329610122727054,0.1310252477185988,0.280038444995899,3.562429,39.5953,0.05841025,0.02941843,0.3385207,-0.01004844,10.31999976933,19
-30.80355,0.4833333,-22.65761,0.3158654085859993,-0.1163887583482731,0.2621366543811803,7.124077,38.87281,0.07203964,0.05879737,0.3320807,-0.02008246,10.339999768883,19
-30.76443,0.6833332,-22.60933,0.1459032960195436,0.3167603180311947,0.0941070448595517,10.68461,38.14484,0.04017003,0.08810886,0.3253128,-0.03009364,10.359999768436,19
-30.72532,0.8833332,-22.56105,0.1081747212804309,0.0986181024221637,0.0474464096330038,14.24342,37.40549,359.9613,0.1173233,0.3182242,-0.04007199,10.3799997679889,19
-30.56844,0.2833333,-22.40548,0.0635742337705345,-0.1048886432659574,-0.0064096843285206,3.636313,40.11464,0.07916902,0.03004004,0.3427667,-0.01023261,10.3999997675419,19
-30.52829,0.4833333,-22.35631,0.0227364588927514,-0.3481210604999064,-0.0574347794174379,7.272299,39.39695,0.1128252,0.06003999,0.3363327,-0.02045195,10.4199997670949,19
-30.48816,0.6833333,-22.30715,0.0074178437833438,-0.3653702117133661,-0.0764680182572661,10.90803,38.67483,0.1003669,0.0899734,0.3295528,-0.03065018,10.4399997666478,19
-30.31834,0.2833334,-22.13641,-0.0164235882902197,-0.3434166464265846,-0.1024909963890934,3.628943,40.92275,0.100827,0.02997293,0.3493744,-0.01024473,10.4599997662008,19
-30.27788,0.4833333,-22.08767,-0.0378789222380362,-0.3355761223795203,-0.1251583536077625,7.257807,40.20933,0.1565773,0.05990592,0.3429654,-0.02047584,10.4799997657537,19
-30.23743,0.6833333,-22.03894,-0.194609573860145,0.3251233844478925,-0.2735968581823407,10.88602,39.49295,0.16692,0.08976767,0.3362051,-0.03068298,10.4999997653067,19
-30.05447,0.2833336,-21.8528,-0.1525752129460258,0.0944358332009753,-0.2279943443175653,3.575881,42.65549,0.1849785,0.02965041,0.3634779,-0.009844678,10.5199997648597,19
-30.01427,0.4833338,-21.80499,-0.1155274881957773,-0.1216160050669922,-0.1851934968378188,7.152728,41.95215,0.3262902,0.05926204,0.3571137,-0.01967661,10.5399997644126,19
-29.97408,0.6833338,-21.75718,-0.2351142285523018,0.3428948557069347,-0.2924493541881254,10.73,41.25156,0.424335,0.088805,0.3503931,-0.02948591,10.5599997639656,19
-29.9339,0.8833337,-21.70939,-0.3546705997220662,0.7964287790295335,-0.3994682778679568,14.30685,40.54816,0.4784088,0.1182461,0.3433235,-0.03926378,10.5799997635186,19
-29.77851,0.2833333,-21.55558,-0.3395173860417699,0.3340084544991348,-0.3775709006296637,3.514028,43.24443,0.2390049,0.02927151,0.3682515,-0.009360013,10.5999997630715,19
-29.73925,0.4833331,-21.5083,-0.3139113874739863,-0.1393888905927531,-0.3465178233756028,7.029713,42.54882,0.4356384,0.05850582,0.3619328,-0.01870837,10.6199997626245,19
-29.70001,0.6833328,-21.46104,-0.4088780388661668,0.2812150642838311,-0.4237145801624997,10.54611,41.85958,0.5909273,0.08767172,0.3552646,-0.0280331,10.6399997621775,19
-29.66078,0.8833328,-21.41379,-0.3528147775674846,0.0505279906154648,-0.3613660558472062,14.06303,41.17157,0.7046781,0.1167425,0.3482537,-0.03732808,10.6599997617304,19
-29.46334,0.2833333,-21.21743,-0.2919251241734386,-0.1655235754100774,-0.2961136413836271,3.450041,43.38464,0.2760994,0.02886101,0.3693862,-0.008888831,10.6799997612834,19
-29.42521,0.4833335,-21.17061,-0.2158599201528481,-0.4213007470334458,-0.2182700801565467,6.901696,42.69503,0.5112563,0.05768304,0.36311,-0.01776329,10.6999997608364,19
-29.38709,0.6833333,-21.1238,-0.1465269620058436,-0.4510950248026109,-0.1395277443252531,10.35498,42.01419,0.7063011,0.08644246,0.3564949,-0.02661894,10.7199997603893,19
-29.2129,0.2833336,-20.94759,-0.0828991509394754,-0.44168593059889,-0.0646302730001124,3.397232,41.90881,0.17236,0.02821937,0.3574257,-0.009196707,10.7399997599423,19
-29.17527,0.4833336,-20.90171,-0.0148230206325692,-0.4463904590575897,0.0160147281063416,6.794935,41.21176,0.3034688,0.05640104,0.351171,-0.01838207,10.7599997594953,19
-29.13764,0.6833335,-20.85584,-0.0869829353967972,0.2017644420029876,-0.036442449249435,10.193,40.51712,0.393757,0.08452277,0.3445999,-0.02754817,10.7799997590482,19
-29.10003,0.8833337,-20.80998,-0.1518704317596864,0.698454950020424,-0.0821516298738593,13.59089,39.81996,0.4428396,0.1125586,0.3377186,-0.03668652,10.7999997586012,19
-28.95151,0.2833333,-20.66461,-0.0436410442136541,0.167629499230522,0.0282051427336185,3.342178,40.11873,0.08416956,0.02764467,0.3428275,-0.009312665,10.8199997581542,19
-28.91478,0.4833333,-20.6193,-0.098683749249286,0.3466032531442807,-0.0202310967840624,6.683746,39.41667,0.1275978,0.0552537,0.3365974,-0.01861198,10.8399997577071,19
-28.87807,0.6833335,-20.574,-0.1550751563201018,0.5427914850408151,-0.0706785239407317,10.02461,38.71185,0.1298648,0.0828055,0.3300744,-0.02789226,10.8599997572601,19
-28.71668,0.2833332,-20.41434,-0.0696175625424402,0.0636099084043481,0.0074599912621948,3.290937,38.64692,359.9624,0.0269888,0.3307732,-0.009811084,10.879999756813,19
-28.68004,0.4833331,-20.37014,0.0192527925662631,-0.4260608183478971,0.0875223848698283,6.580163,37.93642,359.8839,0.05394609,0.3245626,-0.01961091,10.899999756366,19
-28.6434,0.683333,-20.32595,-0.0197120241297561,-0.0212428789224847,0.0500919700332715,9.866844,37.21612,359.7632,0.08084524,0.3180782,-0.02939267,10.919999755919,19
-28.47043,0.2833332,-20.15129,0.0936313480521313,-0.2672284017237716,0.154636223148131,3.24037,36.63576,359.8713,0.02648823,0.314193,-0.009951905,10.9399997554719,19
-28.43463,0.4833331,-20.10748,0.2052157728235144,-0.4980901718309453,0.2553724363561898,6.477914,35.91978,359.7019,0.05294623,0.3079974,-0.01989248,10.9599997550249,19
-28.39883,0.6833333,-20.06369,0.169421460904271,-0.0479017874786508,0.215832452002477,9.712082,35.18904,359.4902,0.07935163,0.3015498,-0.02981387,10.9799997545779,19
-28.36305,0.8833332,-20.01991,0.1336433354304489,0.3917977823347651,0.1751282457916403,12.94208,34.43852,359.2341,0.1056813,0.294856,-0.0397054,10.9999997541308,19
-28.14846,0.2833333,-19.80225,0.2236077740361146,-0.0839690513943767,0.2450512512782729,3.266581,33.64208,359.7558,0.0266665,0.2893232,-0.01028684,11.0199997536838,19
-28.11307,0.4833333,-19.75736,0.1468844054433056,0.1500629615269025,0.153427736850702,6.528927,32.91885,359.4701,0.05330256,0.283126,-0.02056194,11.0399997532368,19
-28.07768,0.6833333,-19.71249,0.0650977633553715,0.4013089594326003,0.0568111134232545,9.786424,32.17393,359.1404,0.07988545,0.2766932,-0.03081664,11.0599997527897,19
-28.0423,0.8833332,-19.66763,0.1183725217347877,-0.022815121084952,0.0849347053854536,13.03879,31.40201,358.764,0.1063968,0.2700306,-0.04103993,11.0799997523427,19
-27.89084,0.2833336,-19.51148,0.1686187334269249,-0.4574280660597546,0.1107839449361378,3.52869,35.17392,359.7866,0.02878719,0.3020639,-0.01107732,11.0999997518957,19
-27.852,0.4833334,-19.4635,0.087554269905663,0.0024476574952755,0.0166818309410494,7.05356,34.45404,359.5284,0.05753846,0.295837,-0.02214126,11.1199997514486,19
-27.81317,0.6833336,-19.41554,0.0086560633080488,0.4518347257623539,-0.0745663548354897,10.57581,33.71176,359.2224,0.08623948,0.2893232,-0.03318962,11.1399997510016,19
-27.64289,0.2833336,-19.24588,0.1181581950751287,-0.0142436637647229,0.0126590287866754,3.562625,37.20556,359.8575,0.02906414,0.3188875,-0.01109419,11.1599997505546,19
-27.60302,0.4833334,-19.19812,0.2266326182260272,-0.4908108260142445,0.1005114063124246,7.122499,36.49411,359.67,0.05809188,0.3126789,-0.02217879,11.1799997501075,19
-27.56316,0.6833333,-19.15037,0.1547104211904084,-0.0728901020497619,0.0199751627874249,10.67872,35.76458,359.4359,0.08705289,0.3061624,-0.03323808,11.1999997496605,19
-27.3803,0.2833333,-18.96392,0.2349757116316873,-0.3057729671551702,0.0855800723854471,3.59278,38.69864,-0.001824899,0.02957187,0.3311643,-0.01040138,11.2199997492135,19
-27.34078,0.4833335,-18.91524,0.3056418735971355,-0.5235319806880169,0.1425873832923745,7.184463,38.00248,359.9529,0.05910779,0.3249733,-0.02078726,11.2399997487664,19
-27.30128,0.6833334,-18.86658,0.2140714660436913,-0.0602410748917291,0.0457237292675518,10.77434,37.29723,359.863,0.08857539,0.3184571,-0.03114915,11.2599997483194,19
-27.26179,0.8833335,-18.81794,0.1160554207285571,0.3925609797762981,-0.0564367082020691,14.36179,36.57693,359.7262,0.1179441,0.3116227,-0.04147666,11.2799997478724,19
-27.22231,0.9766704,-18.7693,0.1474428029673475,-0.0701033005367047,-0.0407178575269142,17.94624,35.83519,359.5397,0.1471845,0.3044774,-0.05175948,11.2999997474253,19
-27.03637,0.2833332,-18.58905,0.1766679182674373,-0.5432567686002796,-0.0255464536968723,3.570229,39.89943,0.07042692,0.02949137,0.3410116,-0.01005117,11.3199997469783,19
-26.99707,0.4833332,-18.54071,0.0813741403788341,-0.1219212511131627,-0.1202636613346737,7.139884,39.21357,0.0981769,0.05894347,0.3348617,-0.02008897,11.3399997465312,19
-26.95777,0.6833332,-18.49238,0.1313096211022824,-0.3513888513898493,-0.0789145934056279,10.7086,38.52343,0.08275242,0.08832783,0.3283806,-0.03010408,11.3599997460842,19
-26.79335,0.2833335,-18.33003,0.1796976149064981,-0.5657330614686609,-0.0378561497089666,3.647485,40.87296,0.09790561,0.03012004,0.3489662,-0.01031206,11.3799997456372,19
-26.75269,0.4833333,-18.28102,0.0879056237994113,-0.099026560755161,-0.1239430721412002,7.294885,40.19178,0.1525271,0.06020018,0.3428165,-0.02061077,11.3999997451901,19
-26.71203,0.6833336,-18.23203,-0.0005310948647974,0.3571910291545369,-0.2039942450051359,10.94157,39.50782,0.1635763,0.09020801,0.336313,-0.03088512,11.4199997447431,19
-26.53439,0.2833333,-18.05449,0.1094172357010769,-0.10205742668644,-0.0927910728799901,3.619478,41.80533,0.1153484,0.0298612,0.3565736,-0.01032749,11.4399997442961,19
-26.4935,0.4833334,-18.00632,0.056683573295583,0.1484929905196338,-0.1335030064198363,7.238992,41.12788,0.1880025,0.05968256,0.3504543,-0.02064155,11.459999743849,19
-26.45262,0.6833333,-17.95817,-0.0015175271737284,0.4162579013896456,-0.176258047478317,10.85809,40.44892,0.2178248,0.08943366,0.3439787,-0.03093184,11.479999743402,19
-26.41176,0.8833333,-17.91003,-0.0543336289409701,0.6489665337830971,-0.2108027971634811,14.47605,39.76282,0.2035389,0.1190814,0.3371535,-0.04118942,11.499999742955,19
-26.26188,0.2833332,-17.76551,0.0324792790959556,-0.0594033528943676,-0.1167385183314806,3.560467,43.53779,0.2056574,0.02951576,0.3706324,-0.009855299,11.5199997425079,19
-26.22141,0.4833332,-17.71825,-0.0814618764664487,0.1554641067745533,-0.2134922212640599,7.122046,42.87152,0.3701687,0.05899314,0.3645635,-0.01969796,11.5399997420609,19
-26.18095,0.683333,-17.671,-0.194550760786619,0.3875461007042029,-0.3072660588107201,10.68423,42.20981,0.4941632,0.08840264,0.3581348,-0.02951808,11.5599997416139,19
-26.0179,0.2833332,-17.51056,-0.1595842139356094,-0.0557424292215597,-0.2653400808724466,3.498409,44.26207,0.2578051,0.02912281,0.3764859,-0.009416348,11.5799997411668,19
-25.97825,0.4833332,-17.46395,-0.1163606981141569,-0.5095197851857232,-0.214860333095288,6.99851,43.60246,0.4756826,0.05820847,0.3704569,-0.01882065,11.5999997407198,19
-25.93861,0.683333,-17.41735,-0.1935106204925105,-0.0688092842073865,-0.2795828374816675,10.49946,42.95083,0.6546562,0.08722612,0.364074,-0.02820268,11.6199997402728,19
-25.89898,0.883333,-17.37075,-0.1137777491146856,-0.278901697224845,-0.1974430033187353,14.00119,42.30244,0.7949942,0.1161507,0.3573435,-0.0375549,11.6399997398257,19
-25.69382,0.2833334,-17.16815,-0.0317170699809423,-0.4738709436752424,-0.1137969498320732,3.436044,43.86124,0.2586433,0.02865369,0.373252,-0.009104436,11.6599997393787,19
-25.65527,0.4833335,-17.12203,-0.0948113120319007,0.0122100687006864,-0.1651903431836388,6.873383,43.20418,0.4784263,0.05726904,0.3672605,-0.01819447,11.6799997389317,19
-25.61673,0.6833335,-17.07591,-0.1543921371050629,0.4878021681819942,-0.2126038484987553,10.31202,42.5552,0.6601581,0.08582266,0.3609302,-0.02726486,11.6999997384846,19
-25.43512,0.2833333,-16.89328,-0.0093296302446468,0.0479286563679753,-0.0632639383692108,3.383525,42.14964,0.1532811,0.02802858,0.3593929,-0.009368288,11.7199997380376,19
-25.39722,0.4833333,-16.84795,-0.0371768678334483,0.3178543171112308,-0.0796306040485976,6.767198,41.48497,0.2674764,0.0560201,0.3534212,-0.01872411,11.7399997375906,19
-25.35933,0.6833332,-16.80262,-0.0751109616450982,0.6049940773985146,-0.1058111517394362,10.151,40.82194,0.3428039,0.08395274,0.3471344,-0.02806063,11.7599997371435,19
-25.32146,0.8833333,-16.75731,-0.1132399113382263,0.8570777371033276,-0.132918639146613,13.53445,40.1559,0.3788035,0.1118009,0.3405388,-0.03736948,11.7799997366965,19
-25.16574,0.2833332,-16.6055,-0.0158017517493789,0.1680827216225258,-0.0400113775482413,3.329395,40.244,0.05098826,0.0274302,0.3438628,-0.00957629,11.7999997362494,19
-25.12863,0.4833332,-16.5608,0.0866280706875066,-0.4300121061198993,0.0564316466860947,6.657775,39.57297,0.06312492,0.05482526,0.3379146,-0.01913926,11.8199997358024,19
-25.09153,0.6833333,-16.51612,0.0286789055352514,-0.0344978532489336,0.0077938083867117,9.985096,38.8976,0.03580187,0.08216404,0.3316755,-0.02868313,11.8399997353554,19
-24.92314,0.2833333,-16.35011,0.1169052352542721,-0.290274842099632,0.0927613048192039,3.278348,38.73993,359.9376,0.02680531,0.3315456,-0.01000111,11.8599997349083,19
-24.88624,0.4833333,-16.3064,0.2047162406432647,-0.5314162969108756,0.1758392820187939,6.554775,38.06117,359.8362,0.05357984,0.3256165,-0.01999105,11.8799997344613,19
-24.84935,0.6833333,-16.2627,0.1522077161885597,-0.0919956963919988,0.1294707781585788,9.828432,37.37157,359.6944,0.08029709,0.3194156,-0.02996216,11.8999997340143,19
-24.81247,0.8833332,-16.21902,0.100920946037835,0.3364483223766156,0.0832262948790294,13.09923,36.66631,359.5106,0.1069386,0.3129485,-0.03990489,11.9199997335672,19
-24.6026,0.2833333,-16.01115,0.2456880371992653,-0.1510618706410893,0.218662126686306,3.222216,35.50093,359.7893,0.02621649,0.3048002,-0.01032229,11.9399997331202,19
-24.56671,0.4833332,-15.96773,0.2240268008615586,0.0707393210402304,0.1954688929341674,6.440763,34.81252,359.5396,0.05240373,0.2988856,-0.0206327,11.9599997326732,19
-24.53084,0.6833331,-15.92432,0.1915100263722813,0.3092670773096496,0.1607457613011806,9.655092,34.10508,359.2488,0.07853989,0.2927293,-0.03092297,11.9799997322261,19
-24.49497,0.8833331,-15.88092,0.1577998195028449,0.5122509589900432,0.1235398745923621,12.86431,33.37374,358.9146,0.1046015,0.2863371,-0.04118199,11.9999997317791,19
-24.3435,0.2833333,-15.73431,0.2491017132647179,-0.226332033829735,0.1956685141467886,3.372869,35.10454,359.7737,0.02746406,0.3014999,-0.01075727,12.0199997313321,19
-24.30614,0.4833335,-15.68863,0.2129439468199585,-0.0421654365376946,0.1545273436001881,6.741854,34.41624,359.5065,0.05489542,0.2955707,-0.02150183,12.039999730885,19
-24.2688,0.6833336,-15.64296,0.1758952202174732,0.1587276314296974,0.1131476102844697,10.10642,33.70667,359.1961,0.0822697,0.2893803,-0.032224,12.059999730438,19
-24.10327,0.2833334,-15.48179,0.2790946218939965,-0.3162370892626494,0.2011234334148053,3.537076,37.13018,359.8133,0.02873738,0.3182774,-0.01136969,12.079999729991,19
-24.06312,0.4833334,-15.43476,0.2370340821482166,-0.0818907182323763,0.1565813059687393,7.070842,36.44621,359.5839,0.05743898,0.3123335,-0.0227265,12.0999997295439,19
-24.02298,0.6833333,-15.38776,0.1914590103198392,0.1691821255640714,0.110379466742458,10.60176,35.74186,359.3089,0.08608392,0.3060861,-0.03406538,12.1199997290969,19
-23.84474,0.2833333,-15.2117,0.298790773213561,-0.2556028172083988,0.2087220897132518,3.567439,38.70897,359.8765,0.02901069,0.3312826,-0.01133198,12.1399997286499,19
-23.80385,0.4833331,-15.16471,0.4044022863238972,-0.6913645413174953,0.3071475353631907,7.132421,38.03271,359.7104,0.05798539,0.3253546,-0.02265194,12.1599997282028,19
-23.76297,0.683333,-15.11773,0.3204474533021475,-0.2331263632596197,0.2285004626008131,10.69414,37.33997,359.5,0.08689338,0.3191059,-0.03394642,12.1799997277558,19
-23.72211,0.8833328,-15.07077,0.2348651768501035,0.2141348867556303,0.1491275871806028,14.25204,36.62485,359.2424,0.115706,0.3125432,-0.04520398,12.1999997273088,19
-23.50172,0.2833333,-14.85157,0.3500171970195289,-0.2545578487710948,0.2599204877951031,3.577776,40.26219,0.04053635,0.02943148,0.3439912,-0.01041193,12.2199997268617,19
-23.46164,0.4833333,-14.8037,0.2882165115784438,-0.0139389733544532,0.2023662353248916,7.154861,39.60406,0.04052402,0.0588273,0.3380903,-0.02080635,12.2399997264147,19
-23.42158,0.6833332,-14.75584,0.2133614142419055,0.2434063471249765,0.1327000263158098,10.73072,38.94008,-0.001227202,0.08815574,0.3318545,-0.03117703,12.2599997259676,19
-23.38153,0.8833331,-14.70799,0.1359979318387338,0.4652078073897807,0.0606421349444623,14.30481,38.26482,359.9137,0.1173868,0.3252904,-0.04151378,12.2799997255206,19
-23.22354,0.2833334,-14.55515,0.1934799551270387,-0.2545577119965017,0.1086517335588883,3.598046,40.93143,0.06790364,0.02961927,0.349457,-0.01042181,12.2999997250736,19
-23.18303,0.4833336,-14.50717,0.1123413109900859,-0.0515738531409112,0.0314367517751676,7.195573,40.27845,0.09485362,0.05919963,0.3435751,-0.02083004,12.3199997246265,19
-23.14252,0.6833336,-14.45921,0.0298735227136539,0.1681365035707177,-0.0467914771071704,10.7924,39.62131,0.0802499,0.08871293,0.3373488,-0.03121619,12.3399997241795,19
-22.9705,0.2833334,-14.29022,0.0972779416654248,-0.2880110489481196,0.0129585215860288,3.64319,41.65649,0.09248937,0.02999701,0.355364,-0.0105486,12.3599997237325,19
-22.92917,0.4833332,-14.24188,0.009766167725175,-0.0348473117260853,-0.0703033521039486,7.286173,41.00783,0.1437976,0.05995419,0.3494886,-0.02108358,12.3799997232854,19
-22.88785,0.6833331,-14.19355,-0.0815182589628804,0.2350428823196038,-0.1559632154687822,10.92844,40.35649,0.1536543,0.08984,0.3432542,-0.03159389,12.3999997228384,19
-22.84655,0.8833331,-14.14525,-0.1657434700923836,0.4693890006217904,-0.2339020397648532,14.56995,39.69698,0.1207314,0.1196263,0.3366674,-0.04207143,12.4199997223914,19
-22.63158,0.2833334,-13.93495,-0.0463626321258097,-0.2378311840849017,-0.1198128191710221,3.598743,43.606,0.177397,0.02972832,0.3711877,-0.01022576,12.4399997219443,19
-22.59024,0.4833332,-13.88759,-0.1292870733101558,-0.0223019259084786,-0.195910300253427,7.198215,42.968,0.3149177,0.05941764,0.3653572,-0.02043852,12.4599997214973,19
-22.54892,0.6833333,-13.84024,-0.2177662879278088,0.2099539769170953,-0.2765315792440415,10.79789,42.33307,0.4130256,0.0890373,0.3591595,-0.03062754,12.4799997210503,19
-22.50761,0.8833333,-13.79291,-0.3006718855805879,0.4066659944381841,-0.3515246795321065,14.39714,41.69609,0.4710563,0.1185547,0.3526012,-0.04078444,12.4999997206032,19
-22.35712,0.2833332,-13.64929,-0.2396773252019777,-0.3381888706428353,-0.2995025760608509,3.531393,44.59862,0.2358084,0.02928842,0.3792054,-0.009788549,12.5199997201562,19
-22.31653,0.4833333,-13.60276,-0.3003381294367031,-0.1602946179635331,-0.3544824170538838,7.064107,43.96851,0.4330842,0.058539,0.3734221,-0.0195646,12.5399997197092,19
-22.27595,0.6833332,-13.55625,-0.3505133054577953,0.0343260471094646,-0.3994260694060187,10.59773,43.34535,0.59272,0.08772337,0.3672765,-0.02931881,12.5599997192621,19
-22.11233,0.2833333,-13.39699,-0.2454932771272098,-0.4469117344763244,-0.305438793799107,3.469001,44.85667,0.2744023,0.02889167,0.3812847,-0.009335627,12.5799997188151,19
-22.07278,0.4833333,-13.35093,-0.2779754659388693,-0.2188379372651292,-0.3361270226466022,6.939474,44.2318,0.5115256,0.05774534,0.3755372,-0.01865705,12.5999997183681,19
-22.03324,0.6833332,-13.30488,-0.3042850870297258,0.0259623801042019,-0.3604656608595107,10.4112,43.61637,0.7123279,0.08653482,0.3694375,-0.02795805,12.619999717921,19
-21.85657,0.2833333,-13.13064,-0.31451006816879,0.2352187933516502,-0.3692038760294878,3.417072,44.11933,0.2369238,0.0284086,0.375347,-0.009282375,12.639999717474,19
-21.81778,0.4833333,-13.08518,-0.2857646309518813,0.2231963126612611,-0.3422165237591645,6.835164,43.49276,0.4368349,0.0567797,0.3696261,-0.01855177,12.6599997170269,19
-21.779,0.6833331,-13.03973,-0.2626922205654551,0.2566493285846118,-0.3181706180239363,10.25426,42.8733,0.6005431,0.08509034,0.363569,-0.02780168,12.6799997165799,19
-21.74024,0.8833331,-12.9943,-0.2353118025055884,0.2822620192632071,-0.2878157532914347,13.67391,42.25664,0.7282896,0.113314,0.3571817,-0.03702354,12.6999997161329,19
-21.52139,0.2833333,-12.77878,-0.0396948881057177,-0.3935958437078251,-0.0971505321957657,3.36281,41.85772,0.109916,0.02774848,0.3570282,-0.00958562,12.7199997156858,19
-21.48342,0.4833334,-12.73401,-0.0543863699233497,-0.1467048714408307,-0.105867638777191,6.72521,41.22225,0.1826788,0.05546056,0.3513294,-0.01915829,12.7399997152388,19
-21.44546,0.6833333,-12.68926,-0.0769891033244185,0.1169126831862488,-0.1221497045788435,10.08727,40.58624,0.218268,0.08311553,0.3453225,-0.02871109,12.7599997147918,19
-21.40751,0.8833333,-12.64452,-0.0975033322381051,0.3449862881289546,-0.1370118148801928,13.44853,39.9452,0.2159617,0.1106881,0.3390131,-0.03823582,12.7799997143447,19
-21.25076,0.2833332,-12.49417,0.0210820874159622,-0.3685067097087968,-0.0292447341727939,3.305631,39.95691,359.9883,0.02707237,0.3415274,-0.009950865,12.7999997138977,19
-21.21332,0.4833331,-12.45031,0.0060952944404029,-0.1592505516287261,-0.0406811548949175,6.609927,39.3134,359.9394,0.0541132,0.3358529,-0.01989021,12.8199997134507,19
-21.17589,0.683333,-12.40646,-0.0073077794161804,0.0667319353864023,-0.050576064963506,9.912099,38.66224,359.8523,0.08109587,0.3298942,-0.02980932,12.8399997130036,19
-21.00684,0.2833333,-12.24168,0.1310311323458535,-0.3831437629916483,0.0771974450210013,3.253625,38.31833,359.8944,0.02651453,0.3280858,-0.01018761,12.8599997125566,19
-20.96996,0.4833333,-12.19849,0.116219027532928,-0.1237079558385958,0.0632179664370937,6.50489,37.66882,359.7517,0.05299892,0.3224297,-0.0203638,12.8799997121096,19
-20.93309,0.6833332,-12.15532,0.0973881366860425,0.1524546567826532,0.0450797735691601,9.753369,37.00646,359.5705,0.07943115,0.3165092,-0.03052027,12.8999997116625,19
-20.89623,0.8833331,-12.11216,0.0842052873488334,0.3930734366313161,0.0316188013718647,12.99825,36.32663,359.3489,0.1057865,0.3103295,-0.04064745,12.9199997112155,19
-20.68536,0.2833334,-11.9058,0.2724422628356286,-0.3078745084393184,0.2033434680164454,3.200208,35.19709,359.7602,0.02598394,0.3022828,-0.01043687,12.9399997107685,19
-20.64952,0.4833336,-11.86279,0.2546413805087866,-0.0860734192082678,0.1813258563273034,6.396524,34.5391,359.4832,0.05193885,0.2966423,-0.02086207,12.9599997103214,19
-20.6137,0.6833336,-11.81978,0.2257997654883325,0.1524542641437414,0.1485288002043532,9.588507,33.86095,359.1671,0.07784416,0.2907656,-0.03126725,12.9799997098744,19
-20.57788,0.8833336,-11.77679,0.1956571017465087,0.3554379023305123,0.1140370293305199,12.77531,33.15797,358.8092,0.1036772,0.2846582,-0.04164092,12.9999997094274,19
-20.42285,0.2833335,-11.62959,0.2907719052876203,-0.3831449720093615,0.1896324692481332,3.531126,36.49701,359.7734,0.02864161,0.3130476,-0.01152463,13.0199997089803,19
-20.38272,0.4833335,-11.58259,0.257900239930489,-0.1989783606042763,0.1531762545416111,7.058548,35.84,359.506,0.05724751,0.3073549,-0.02303522,13.0399997085333,19
-20.3426,0.6833336,-11.53561,0.2242787536001174,0.0019148305473687,0.1175254243982042,10.58291,35.16053,359.1945,0.08579846,0.3013649,-0.03452695,13.0599997080863,19
-20.17664,0.2833335,-11.37663,0.3320980961411628,-0.4730501242299045,0.2115573564743051,3.560787,38.59274,359.8375,0.028855,0.3303363,-0.01160437,13.0799997076392,19
-20.1354,0.4833336,-11.33007,0.2944485631784239,-0.2387038787360575,0.1747661250325105,7.118704,37.94335,359.6339,0.05767309,0.3246595,-0.02319863,13.0999997071922,19
-20.09418,0.6833336,-11.28352,0.2539640152228095,0.0123690542687875,0.1373060780238528,10.67305,37.27541,359.3873,0.0864254,0.3186644,-0.03476683,13.1199997067451,19
-20.05296,0.8833336,-11.23698,0.2208854020648907,0.2278980232148572,0.108536923918054,14.22326,36.58316,359.0948,0.1150834,0.3123572,-0.04629739,13.1399997062981,19
-19.84423,0.2833334,-11.03505,0.2201531962652652,0.2221481439598178,0.1078462653613971,3.589942,40.5642,359.9899,0.02935038,0.3464752,-0.01094052,13.1599997058511,19
-19.8031,0.4833333,-10.98779,0.2070157787438518,0.2618736593038367,0.0970164356065179,7.178771,39.93164,359.9403,0.05866529,0.3408203,-0.02186585,13.179999705404,19
-19.76198,0.6833334,-10.94056,0.1920536139068609,0.2937589592583624,0.0857134432920201,10.76579,39.29026,359.85,0.08791243,0.3348263,-0.03276606,13.199999704957,19
-19.57663,0.2833333,-10.75774,0.3402861812443518,-0.3758264257229244,0.2272041940190057,3.56151,41.36121,0.05929395,0.02925532,0.3529725,-0.01049054,13.21999970451,19
-19.53609,0.4833333,-10.71064,0.272440468213091,-0.1226626547863884,0.1653359654502768,7.122238,40.73711,0.07998893,0.05847197,0.3473448,-0.02096586,13.2399997040629,19
-19.49556,0.6833333,-10.66355,0.1921474395357094,0.1472275789849173,0.0919761838017514,10.68196,40.10885,0.06144884,0.08762196,0.3413768,-0.0314177,13.2599997036159,19
-19.45504,0.8833332,-10.61647,0.1100191136044337,0.3815739564618897,0.0167935801361469,14.24025,39.47134,0.002468993,0.1166765,0.3350748,-0.04183549,13.2799997031689,19
-19.29551,0.2833332,-10.46424,0.1643605918503041,-0.3256463088285588,0.0617668777280275,3.635919,41.95245,0.08287156,0.02988042,0.3577788,-0.01068167,13.2999997027218,19
-19.2539,0.4833333,-10.41631,0.0797554696852422,-0.1101170980440987,-0.0169152328521073,7.27146,41.33307,0.1264922,0.05972104,0.3521524,-0.02134945,13.3199997022748,19
-19.21231,0.6833333,-10.36839,-0.0057293831819222,0.1221388167165854,-0.0957498880494682,10.90689,40.71078,0.1304662,0.08949634,0.3461662,-0.03199523,13.3399997018278,19
-19.03921,0.2833333,-10.20123,-0.0813611337051192,0.3188507982581123,-0.1648716723219987,3.628857,42.76397,0.1041549,0.02981435,0.3643743,-0.01069769,13.3599997013807,19
-18.99729,0.4833333,-10.15374,-0.1211834312743675,0.2942838301065564,-0.2022117192261143,7.25757,42.1485,0.1694328,0.05958917,0.3587689,-0.0213814,13.3799997009337,19
-18.95538,0.6833333,-10.10626,-0.1690261561728245,0.3151923556938593,-0.2452726152827233,10.88572,41.5316,0.1957125,0.08929376,0.3527984,-0.03204021,13.3999997004867,19
-18.91349,0.8833333,-10.0588,-0.2137783676524787,0.3282604192618115,-0.2839205113061638,14.51289,40.90813,0.1818109,0.1188969,0.3464692,-0.0426653,13.4199997000396,19
-18.69725,0.2833333,-9.850518,-0.0937249297315663,-0.3601419952018034,-0.1691607702545061,3.569214,45.06002,0.2185932,0.02949594,0.3829259,-0.01017152,13.4399996995926,19
-18.65561,0.4833333,-9.804062,-0.1735604517489051,-0.1257953926130156,-0.240022588711966,7.139488,44.45778,0.399954,0.05895353,0.3773701,-0.02033002,13.4599996991456,19
-18.61399,0.6833331,-9.757618,-0.255628039306444,0.1252776278578766,-0.3125018974166167,10.71044,43.86172,0.5448949,0.08834356,0.3714414,-0.03046551,13.4799996986985,19
-18.57238,0.8833331,-9.711185,-0.3290555322194937,0.3408066142274627,-0.376915670182627,14.28126,43.26725,0.6532784,0.1176327,0.3651461,-0.04056861,13.4999996982515,19
-18.42131,0.2833333,-9.568541,-0.2587642981641664,-0.3852315401344364,-0.3176287719691206,3.50099,45.41203,0.2561127,0.02904191,0.3857588,-0.009730433,13.5199996978045,19
-18.38071,0.4833333,-9.522697,-0.313179930890481,-0.1885203450032621,-0.3670429768383538,7.003438,44.81549,0.476117,0.0580471,0.3802457,-0.01944863,13.5399996973574,19
-18.34012,0.6833334,-9.476866,-0.3597074678849488,0.0249174249087717,-0.4092599971733408,10.50648,44.2276,0.6612498,0.08698445,0.3743705,-0.02914264,13.5599996969104,19
-18.17564,0.2833333,-9.318967,-0.2540253372678815,-0.4375028647745994,-0.3162102748170818,3.441081,45.37532,0.2769429,0.02863298,0.3854654,-0.009351899,13.5799996964633,19
-18.13607,0.4833333,-9.273564,-0.2867502356452753,-0.1906118827504353,-0.346810054932396,6.883433,44.78226,0.5188152,0.05722794,0.3799849,-0.01868943,13.5999996960163,19
-18.09651,0.6833334,-9.228174,-0.3150309964256905,0.0730055370186366,-0.3720542428833404,10.32708,44.19914,0.7266552,0.08576104,0.3741543,-0.02800693,13.6199996955693,19
-18.05696,0.8833333,-9.182796,-0.3290878441284945,0.3010788475910547,-0.3829011450694981,13.77167,43.62196,0.9010803,0.114206,0.3679792,-0.03729598,13.6399996951222,19
-17.84938,0.2833332,-8.983821,-0.1399978133411803,-0.4124144061110157,-0.2055630539550197,3.388828,43.49945,0.1600911,0.02798126,0.3703522,-0.009659757,13.6599996946752,19
-17.81047,0.4833332,-8.939219,-0.140427808270978,-0.2031580000943245,-0.2011507857095829,6.777728,42.89813,0.2847729,0.05592539,0.3648966,-0.01930683,13.6799996942282,19
-17.77158,0.6833333,-8.894629,-0.1416486913993111,0.0228249595336508,-0.1957829857594371,10.16675,42.29957,0.3744149,0.08381071,0.3591163,-0.02893397,13.6999996937811,19
-17.58801,0.2833333,-8.715501,0.0223724642326832,-0.4270503596215931,-0.0368669993358752,3.331276,41.74544,0.05693706,0.0273362,0.3561291,-0.009892226,13.7199996933341,19
-17.54982,0.4833333,-8.671679,0.014092496222295,-0.1676143851156762,-0.0392934180891915,6.661563,41.13678,0.07853206,0.05463703,0.3506944,-0.01977157,13.7399996928871,19
-17.51164,0.6833333,-8.627871,-0.0020607052615684,0.1085481701822078,-0.0493954162179512,9.990925,40.52481,0.0644202,0.08188215,0.3449588,-0.02963109,13.75999969244,19
-17.47347,0.8833333,-8.584074,-0.0161901915989179,0.3491666541795831,-0.0583301006868222,13.319,39.90524,0.01365499,0.109048,0.3389276,-0.03946223,13.779999691993,19
-17.31566,0.2833334,-8.435037,0.1083720164482731,-0.3517812665852482,0.0536925716621823,3.278633,39.87468,359.9344,0.02669774,0.3408681,-0.01029326,13.799999691546,19
-17.27788,0.4833334,-8.392076,0.0974261896414692,-0.1299798195623148,0.0456161843583364,6.555421,39.25792,359.8333,0.05336507,0.3354562,-0.02057487,13.8199996910989,19
-17.2401,0.6833334,-8.349126,0.0865158022643868,0.1085480897726854,0.0373930492406868,9.829615,38.6308,359.6956,0.0799762,0.3297655,-0.03083612,13.8399996906519,19
-17.20234,0.8833333,-8.306188,0.085347834351511,0.3115319165690084,0.0376764461988452,13.10117,37.98893,359.5196,0.1065121,0.3238013,-0.04106864,13.8599996902049,19
-17.00227,0.2833333,-8.11578,0.1181012637348608,0.2932373230857519,0.065350273639809,3.222579,36.82817,359.7929,0.02610825,0.315805,-0.010596,13.8799996897578,19
-16.96546,0.4833334,-8.073136,0.1407881352904514,0.3204179801090836,0.0833885051878384,6.441768,36.20207,359.5504,0.05218726,0.31041,-0.02117993,13.8999996893108,19
-16.92866,0.6833334,-8.030504,0.1632357819833441,0.3397580519288136,0.1007531227329314,9.657147,35.55779,359.2704,0.07821579,0.3047651,-0.03174358,13.9199996888638,19
-16.75075,0.2833335,-7.857756,0.3427743637440343,-0.3423725980380043,0.2606267299406513,3.373133,36.59174,359.7787,0.02733796,0.3138415,-0.01107227,13.9399996884167,19
-16.71231,0.4833335,-7.81298,0.3140601320425524,-0.1017539960834298,0.2276701580520637,6.742752,35.96508,359.5201,0.05464379,0.3084244,-0.02213174,13.9599996879697,19
-16.67387,0.6833336,-7.768217,0.273181586139426,0.1555912980864909,0.1835870051972694,10.10837,35.31812,359.222,0.08189297,0.3027358,-0.03316846,13.9799996875226,19
-16.63546,0.8833336,-7.723473,0.2299108351684768,0.3773928596690364,0.1373950599140414,13.47069,34.64582,358.8812,0.1090714,0.2967807,-0.04417619,13.9999996870756,19
-16.48069,0.2833333,-7.5795,0.3115753645505599,-0.3423724163978568,0.2008047590621844,3.536872,38.22971,359.8094,0.0286142,0.327355,-0.01167631,14.0199996866286,19
-16.43961,0.4833332,-7.533278,0.2636323673226357,-0.1393886375162016,0.1520259288072543,7.070617,37.60702,359.5799,0.05719278,0.3219222,-0.02333941,14.0399996861815,19
-16.39855,0.6833332,-7.487075,0.2140315661893446,0.0803217428042886,0.103468628964225,10.60182,36.96449,359.3087,0.08571561,0.3161778,-0.03498352,14.0599996857345,19
-16.23164,0.2833334,-7.329307,0.1728322620845173,0.2644878451813809,0.064251727980265,3.567545,40.01637,359.8805,0.02889218,0.3420189,-0.01163013,14.0799996852875,19
-16.18977,0.4833333,-7.283195,0.1670495977851143,0.227375783317449,0.0555431624059723,7.132827,39.40193,359.7221,0.05774819,0.3365993,-0.02324867,14.0999996848404,19
-16.14791,0.6833333,-7.237095,0.1532052559844494,0.2357390001861984,0.0410583330605396,10.69517,38.77206,359.5234,0.08653837,0.3308492,-0.03484092,14.1199996843934,19
-16.10606,0.8833332,-7.191008,0.1417819203221615,0.2362615389840102,0.0301919592250579,14.2541,38.12136,359.2817,0.1152341,0.3247748,-0.04639547,14.1399996839464,19
-15.89634,0.2833334,-6.990561,0.2844537728076624,-0.4646864049540949,0.1590212549491054,3.577782,41.71967,0.04564622,0.02931259,0.3558978,-0.01074378,14.1599996834993,19
-15.85515,0.4833335,-6.943642,0.2310682618543431,-0.2428848584428905,0.1098733641527012,7.154932,41.12323,0.05453987,0.05858977,0.3505022,-0.02147032,14.1799996830523,19
-15.81397,0.6833334,-6.896736,0.1720858474081286,-0.0043567141517885,0.056879238490799,10.73097,40.52206,0.02566329,0.08779993,0.3447607,-0.03217263,14.1999996826053,19
-15.62648,0.2833334,-6.715155,0.2736608112107301,-0.4416868178042852,0.1515985700550262,3.598117,42.51622,0.07304828,0.02948917,0.3623725,-0.01078884,14.2199996821582,19
-15.58474,0.4833333,-6.668232,0.1978249354961185,-0.1697056102849903,0.0817339708045654,7.195779,41.92411,0.1089646,0.05894005,0.3569886,-0.02156391,14.2399996817112,19
-15.54301,0.6833333,-6.621324,0.1103386957171643,0.1190020754888883,0.001274537974794,10.79279,41.32896,0.1072366,0.08832382,0.3512483,-0.0323165,14.2599996812642,19
-15.5013,0.8833332,-6.574429,0.0218405417385749,0.3721657069501816,-0.0801794709147447,14.38857,40.72589,0.06698275,0.1176098,0.3451576,-0.04303354,14.2799996808171,19
-15.34083,0.2833334,-6.423587,-0.0570489443897574,0.4236854587696341,-0.1530309877188775,3.643094,42.86642,0.08845469,0.02987032,0.3652088,-0.01089719,14.2999996803701,19
-15.29847,0.4833334,-6.376158,-0.0989098280756053,0.3558030559972025,-0.193402735837628,7.285873,42.27819,0.1395884,0.05970113,0.3598321,-0.02178018,14.3199996799231,19
-15.25611,0.6833334,-6.328742,-0.1460627734337425,0.3338840075650583,-0.2369624436104516,10.92794,41.68783,0.1532069,0.08946148,0.3540873,-0.0326376,14.339999679476,19
-15.21377,0.8833333,-6.281341,-0.1875653163957906,0.3046121304252304,-0.2738088544534833,14.56936,41.09039,0.1282337,0.1191239,0.3479804,-0.04346032,14.359999679029,19
-15.00994,0.2833335,-6.090225,-0.0772792745480366,-0.4256423662355597,-0.1735671127640858,3.59856,44.97558,0.1804588,0.02961272,0.3822518,-0.01055504,14.379999678582,19
-14.96755,0.4833334,-6.043808,-0.1516286195110385,-0.2326596287574031,-0.2384150551341299,7.197727,44.39844,0.3248955,0.05918677,0.3769168,-0.02109654,14.3999996781349,19
-14.92517,0.6833334,-5.997406,-0.2253584975290525,-0.0224625631387008,-0.3009049799865284,10.7971,43.82534,0.4338613,0.08869201,0.3712045,-0.03161387,14.4199996776879,19
-14.7446,0.2833334,-5.825258,-0.1326881870246143,-0.4876358955776321,-0.2119176904408393,3.531407,46.1061,0.240487,0.0291732,0.3913369,-0.01013548,14.4399996772408,19
-14.70288,0.4833333,-5.779735,-0.200327832142511,-0.2430101742005439,-0.2699344109171724,7.064013,45.53614,0.4461718,0.05830922,0.3860426,-0.02025813,14.4599996767938,19
-14.66117,0.6833334,-5.734225,-0.2692131888977211,0.0188299804680038,-0.329404339672469,10.59741,44.97418,0.6180566,0.08737932,0.3803751,-0.0303582,14.4799996763468,19
-14.61948,0.8833334,-5.688726,-0.3290926530201439,0.2456137952421019,-0.3813288897537843,14.13085,44.41604,0.7564595,0.1163517,0.3743403,-0.04042516,14.4999996758997,19
-14.46765,0.2833333,-5.547008,-0.1727336449757022,-0.4686811849560832,-0.2382662408916389,3.469047,46.02376,0.2708598,0.02878338,0.3906759,-0.009657991,14.5199996754527,19
-14.42715,0.4833332,-5.501785,-0.1489218154544058,-0.2597386032789978,-0.210467814409323,6.939281,45.45869,0.5081491,0.05752939,0.385419,-0.01930071,14.5399996750057,19
-14.38666,0.6833332,-5.456574,-0.1261746324011792,-0.0335814463088046,-0.1843993426084447,10.41054,44.90356,0.7128298,0.08621165,0.3798019,-0.02892207,14.5599996745586,19
-14.34619,0.883333,-5.411376,-0.0942943389195516,0.1575196343847226,-0.150825551408416,13.88261,44.3545,0.885536,0.1148042,0.3738304,-0.03851366,14.5799996741116,19
-14.15048,0.2833333,-5.228821,-0.0682910580717308,0.1278298347202995,-0.1229688990232542,3.412679,45.07727,0.2148436,0.02822081,0.3830841,-0.009682738,14.5999996736646,19
-14.11075,0.4833332,-5.184324,-0.0467687829788427,0.1441032779727821,-0.096689271642588,6.825927,44.5092,0.3961315,0.05640423,0.3778585,-0.01935237,14.6199996732175,19
-14.07102,0.6833332,-5.139839,-0.0196213521632842,0.1530241279092735,-0.0629318304948935,10.23981,43.94759,0.5446497,0.08452787,0.3722919,-0.02900168,14.6399996727705,19
-13.89899,0.2833333,-4.976657,0.0232827906258776,0.101276322052532,-0.0126355113867218,3.356902,43.43881,0.1175548,0.02759036,0.3698746,-0.009886586,14.6599996723235,19
-13.85999,0.4833333,-4.932919,0.0641291988553263,0.0421755904391303,0.0312803443604781,6.713383,42.8637,0.201538,0.05514457,0.364671,-0.01976013,14.6799996718764,19
-13.821,0.6833333,-4.889194,0.0975337711341062,0.0290378754982928,0.0687276791724409,10.06959,42.28916,0.2520608,0.08264223,0.3591499,-0.02961355,14.6999996714294,19
-13.63615,0.2833333,-4.71227,0.1337011553592013,0.0085475661960518,0.108654212920896,3.304289,41.63124,359.9935,0.02692922,0.3552156,-0.01029892,14.7199996709824,19
-13.59755,0.4833333,-4.669458,0.1577677776539481,0.0073627463464863,0.1332998430161489,6.607354,41.04701,359.9532,0.05382726,0.350031,-0.02058615,14.7399996705353,19
-13.55896,0.6833332,-4.626655,0.16733388856853,0.0521411673230056,0.1442377639028986,9.908496,40.45609,359.8782,0.08066782,0.3445517,-0.03085293,14.7599996700883,19
-13.52037,0.8833331,-4.583865,0.1723622888981175,0.0895668861736817,0.1502681409303181,13.20776,39.85432,359.7675,0.1074317,0.3387825,-0.04109072,14.7799996696413,19
-13.4818,0.9766704,-4.541086,0.1828035307068596,0.0663239599465855,0.1601919862303535,16.50473,39.23724,359.6191,0.1340959,0.3327287,-0.05129083,14.7999996691942,19
-13.29292,0.2833333,-4.366538,0.1845609971186323,0.0357282248746178,0.1576988084076807,3.248219,39.04916,359.8608,0.02630677,0.3341092,-0.01061651,14.8199996687472,19
-13.25512,0.4833334,-4.324249,0.1803049028086079,0.0510957301060287,0.148976574956948,6.493874,38.45663,359.6878,0.05258383,0.3289491,-0.02122115,14.8399996683002,19
-13.21733,0.6833333,-4.281971,0.1798695762831847,0.0591105188371967,0.1427924650284602,9.736607,37.84995,359.4795,0.07880962,0.323521,-0.03180509,14.8599996678531,19
-13.05289,0.2833334,-4.126816,0.1931073096929392,0.0064566475934869,0.1479146430723621,3.19666,36.74054,359.7751,0.02585261,0.3150854,-0.01065278,14.8799996674061,19
-13.01618,0.4833334,-4.084654,0.2013612731069916,-0.0535500479149064,0.1445791184415705,6.389892,36.14281,359.5164,0.05167671,0.3099407,-0.02129389,14.899999666959,19
-12.97948,0.6833334,-4.042503,0.2003527216457143,-0.0675933990144178,0.1329023969546878,9.579289,35.5264,359.2222,0.07745162,0.304551,-0.03191473,14.919999666512,19
-12.79779,0.2833333,-3.869786,0.1999420929529716,-0.0889894692276989,0.1218676762448776,3.530223,38.14886,359.7808,0.02848616,0.3266962,-0.01187271,14.939999666065,19
-12.75645,0.4833333,-3.823873,0.184744240226939,-0.0910801742179677,0.0949342122932392,7.05706,37.55077,359.5244,0.05693673,0.3214879,-0.02373095,14.9599996656179,19
-12.71513,0.6833333,-3.777976,0.1535918315130633,-0.0472076425637967,0.0545852419358294,10.58126,36.93142,359.2276,0.08533259,0.31597,-0.03557072,14.9799996651709,19
-12.67382,0.8833332,-3.7321,0.116539855425108,-0.0106879372651313,0.0099371559960439,14.10248,36.28545,358.8876,0.1136486,0.3101479,-0.04737773,14.9999996647239,19
-12.44799,0.2833333,-3.519053,0.2396603982720577,-0.6751509825122659,0.1118209141436836,3.563144,40.37695,359.8592,0.02875528,0.3449782,-0.01188212,15.0199996642768,19
-12.4056,0.4833333,-3.473497,0.2250153675456747,-0.4163768051199687,0.0947050730321608,7.123878,39.78823,359.681,0.05747415,0.3397869,-0.02375378,15.0399996638298,19
-12.36323,0.6833333,-3.427954,0.2019614260851767,-0.1403880581843257,0.0709341635072147,10.68156,39.18307,359.4639,0.08612778,0.3342633,-0.03559861,15.0599996633828,19
-12.32087,0.8833333,-3.382425,0.1810464824589104,0.1005446067248915,0.0498850213539532,14.23571,38.55626,359.2052,0.1146876,0.3284131,-0.04740514,15.0799996629357,19
-12.16056,0.2833334,-3.232434,0.1728226530141938,0.1403212724564968,0.0409347715878241,3.592539,41.58361,-0.004092923,0.02929167,0.3547999,-0.01116025,15.0999996624887,19
-12.11867,0.4833333,-3.185793,0.161123381142854,0.0611834521905082,0.0264391936759362,7.184097,41.01006,359.9563,0.05854914,0.3496238,-0.02230286,15.1199996620417,19
-12.0768,0.6833334,-3.139165,0.1425356964318052,0.0284967754298164,0.007488360222053,10.77404,40.42884,359.8798,0.08773909,0.3441005,-0.03342009,15.1399996615946,19
-12.03493,0.8833333,-3.092551,0.1277842385191157,-0.0110547007775014,-0.0064323235812588,14.362,39.83507,359.7646,0.1168325,0.3382359,-0.04450094,15.1599996611476,19
-11.8304,0.2833333,-2.90227,0.1043632280249173,-0.030813011619983,-0.0308308769068351,3.570354,42.98237,0.07617545,0.0292297,0.3661609,-0.01079461,15.1799996607006,19
-11.78867,0.4833332,-2.855998,0.0720328293922651,-0.0041201922861521,-0.0619458761140956,7.140115,42.41865,0.1172155,0.05842047,0.3610146,-0.02157566,15.1999996602535,19
-11.74695,0.6833332,-2.809738,0.0416674983541422,0.0157078009430694,-0.0901114845345657,10.70909,41.85255,0.1229557,0.08754478,0.355514,-0.03233236,15.2199996598065,19
-11.56414,0.2833334,-2.637006,-0.1509688371670012,0.6956430203138453,-0.2655865008691586,3.647532,43.66291,0.09694979,0.02985734,0.371664,-0.01105015,15.2399996593595,19
-11.52118,0.4833333,-2.589998,-0.1571555893716016,0.491439653306662,-0.274704633434253,7.294821,43.1029,0.1583597,0.05967535,0.3665104,-0.02208585,15.2599996589124,19
-11.47822,0.6833333,-2.543004,-0.17160418129024,0.3091202601502695,-0.2901275653066091,10.94149,42.54168,0.1841215,0.08942282,0.3609814,-0.03309571,15.2799996584654,19
-11.43529,0.8833332,-2.496025,-0.1831945710019979,0.0943236075559926,-0.3018746734387179,14.58788,41.97453,0.1731877,0.119074,0.3550826,-0.04407222,15.2999996580184,19
-11.28132,0.2833333,-2.355651,-0.0246488882877766,-0.7195794995794691,-0.1583259954479652,3.619392,44.41021,0.1142643,0.02961448,0.3777055,-0.01101204,15.3199996575713,19
-11.23832,0.4833333,-2.30936,-0.0414122786947643,-0.5106369186864419,-0.1663507891971319,7.238664,43.85411,0.1935356,0.05918997,0.3725817,-0.0220097,15.3399996571243,19
-11.19533,0.6833333,-2.263082,-0.0608917929968733,-0.2844800041644617,-0.1747757786123863,10.85746,43.29805,0.237854,0.08869616,0.3670819,-0.03298194,15.3599996566772,19
-11.15236,0.8833332,-2.216816,-0.0717109822110817,-0.0933791818616643,-0.1735620502763868,14.47534,42.73743,0.246328,0.1181014,0.3612121,-0.04391914,15.3799996562302,19
-10.95445,0.2833333,-2.035614,-0.2145512016080246,0.6168536118944516,-0.2881900442025755,3.55213,46.82793,0.2353814,0.02925695,0.3971214,-0.01043175,15.3999996557832,19
-10.91184,0.4833333,-1.990432,-0.1745385077060657,0.3308982271570998,-0.2452076453286918,7.105297,46.28537,0.4374395,0.05847625,0.3920466,-0.02085027,15.4199996553361,19
-10.86925,0.6833333,-1.945262,-0.1248946548094167,0.0668266834162323,-0.1925863771137457,10.65915,45.7508,0.6072018,0.08762906,0.386589,-0.03124538,15.4399996548891,19
-10.69488,0.2833334,-1.78255,-0.2284593413516766,0.4905659683029067,-0.2773016820139743,3.485662,47.11231,0.2688098,0.02881605,0.3993963,-0.0100053,15.4599996544421,19
-10.6533,0.4833333,-1.737929,-0.1880386993648688,0.2702624789826479,-0.2377773308003704,6.972695,46.57421,0.5052443,0.05759608,0.394357,-0.0199982,15.479999653995,19
-10.61174,0.6833333,-1.693318,-0.1459316118274198,0.071842963513178,-0.1969633407744969,10.46029,46.04627,0.7107186,0.08630963,0.3889466,-0.02996653,15.499999653548,19
-10.42402,0.2833334,-1.515921,-0.091805130175298,-0.1590538252458715,-0.145691719630564,3.429435,46.5147,0.2558948,0.02837277,0.3946225,-0.009764692,15.519999653101,19
-10.38348,0.4833333,-1.4717,-0.0865529396038731,-0.1567195078904816,-0.1411495151630405,6.859728,45.97684,0.4801154,0.05670835,0.3896114,-0.01951467,15.5399996526539,19
-10.34294,0.6833333,-1.427492,-0.0932892355736596,-0.1079340598360774,-0.1457248315540742,10.29097,45.44829,0.6736233,0.08498342,0.3842452,-0.02924395,15.5599996522069,19
-10.30241,0.8833333,-1.383297,-0.1020448367982629,-0.0660133306445451,-0.1505645581835054,13.72283,44.92543,0.8370082,0.1131719,0.3785292,-0.03894379,15.5799996517599,19
-10.2619,0.9766704,-1.339114,-0.1028562316029573,-0.0842735028411457,-0.1468097521708594,17.15503,44.40464,0.9703357,0.1412478,0.3724691,-0.04860536,15.5999996513128,19
-10.0718,0.2833333,-1.165734,-0.0306248934944006,-0.109398620144961,-0.0742123957023255,3.377314,44.33624,0.1394866,0.02774915,0.3771282,-0.009992374,15.6199996508658,19
-10.03215,0.4833332,-1.122079,0.0294188299455573,-0.0880726067497627,-0.0122720722687791,6.754414,43.79056,0.2470711,0.05546246,0.3721451,-0.01997078,15.6399996504188,19
-9.992513,0.6833332,-1.078436,0.0877546777824722,-0.0736115261782009,0.0480357628968931,10.13141,43.24708,0.3229354,0.08311824,0.3668344,-0.02992871,15.6599996499717,19
-9.825834,0.2833333,-0.9246882,0.1548438156146527,-0.1193312157085865,0.1157361444239247,3.318941,42.78785,0.02936025,0.02705715,0.3646182,-0.01032521,15.6799996495247,19
-9.786671,0.4833333,-0.8820406,0.1749524068015029,-0.1719154933383609,0.1365027700352399,6.637026,42.2341,0.02664427,0.05408293,0.3596577,-0.02063852,15.6999996490777,19
-9.747518,0.6833333,-0.839402,0.1881692520300779,-0.1780485228346309,0.1508848158599296,9.953537,41.67603,359.9912,0.08105029,0.3543922,-0.03093107,15.7199996486306,19
-9.708375,0.8833332,-0.7967757,0.2046193754756728,-0.1910464733936631,0.1676312421497093,13.2686,41.10973,359.9223,0.1079401,0.3488264,-0.04119442,15.7399996481836,19
-9.498245,0.2833334,-0.6028504,0.06505464798808,0.4560625871826762,0.0436551630617263,3.260553,40.56359,359.8898,0.02635278,0.3465228,-0.01076326,15.7599996477365,19
-9.459591,0.4833333,-0.5610762,0.1029646267836668,0.2190331788155552,0.072067567258498,6.518915,40.00014,359.7474,0.05267577,0.341585,-0.02151455,15.7799996472895,19
-9.420948,0.6833333,-0.5193139,0.1319742506621866,0.0038877411629877,0.0911998142794752,9.774731,39.42444,359.5714,0.0789469,0.3363673,-0.03224501,15.7999996468425,19
-9.236014,0.2833333,-0.3448376,0.1621706345858298,-0.24373497291539,0.1098635123673854,3.206806,37.81746,359.7864,0.02586713,0.3239835,-0.01083043,15.8199996463954,19
-9.198573,0.4833333,-0.3031017,0.2201950536422483,-0.2581264772965314,0.1561215499577166,6.410414,37.2472,359.5406,0.0517057,0.31906,-0.02164887,15.8399996459484,19
-9.161142,0.6833333,-0.2613774,0.2657439971673483,-0.2260669736402076,0.1905201359549222,9.610445,36.65909,359.2606,0.07749486,0.3138832,-0.03244666,15.8599996455014,19
-9.123718,0.8833332,-0.2196653,0.3090823261128541,-0.2008722981793114,0.2222382778110496,12.80621,36.04906,358.9444,0.1032127,0.3084578,-0.04321124,15.8799996450543,19
-9.086306,0.9766705,-0.1779651,0.3604943077414528,-0.2358583938657729,0.2604548923758578,15.99749,35.41249,358.5884,0.1288397,0.302788,-0.05393808,15.8999996446073,19
-8.891745,0.2833334,-0.001889423,0.4409987254736718,-0.2777093044186733,0.3279369775951075,3.462017,38.65435,359.785,0.02788403,0.3308639,-0.01176734,15.9199996441603,19
-8.850827,0.4833333,0.04277887,0.5042863032043234,-0.2731090868860873,0.3812875168972982,6.920839,38.08482,359.5352,0.05573439,0.3259018,-0.02352068,15.9399996437132,19
-8.809925,0.6833333,0.08743273,0.5609992194302755,-0.275373804267961,0.4300275726986842,10.37668,37.49523,359.2479,0.08352935,0.3206384,-0.03525333,15.9599996432662,19
-8.640151,0.2833333,0.2423193,0.4635519891593258,0.3824685951591624,0.3425543680394285,3.540506,40.70495,359.8412,0.02848158,0.3476683,-0.01204245,15.9799996428192,19
-8.597533,0.4833333,0.2871422,0.4909105137011593,0.1561726313164371,0.3624633550336105,7.078878,40.14166,359.6468,0.05693029,0.3427041,-0.02407596,15.9999996423721,19
-8.554928,0.6833333,0.3319522,0.5095469964509993,-0.0482394823824556,0.3766996600626988,10.61414,39.56129,359.4152,0.08531509,0.3374091,-0.03608277,16.0199996419251,19
-8.37151,0.2833333,0.5026469,0.3548314135559831,0.435159002120206,0.2353938174884784,3.589428,42.21863,359.9634,0.02910187,0.3599811,-0.01157733,16.0399996414781,19
-8.328732,0.4833333,0.5484056,0.1940363167073426,0.9148288890590208,0.0895643633175136,7.177707,41.66831,359.8924,0.05817007,0.3550214,-0.02313917,16.059999641031,19
-8.285966,0.6833334,0.5941513,0.2130067951744623,0.4857930291127166,0.099712260199019,10.7641,41.10855,359.7857,0.08717156,0.3497103,-0.03467461,16.079999640584,19
-8.243212,0.8833333,0.6398841,0.2244958671457322,0.0530284515545475,0.1042516633451504,14.34828,40.5346,359.6414,0.1160774,0.3440533,-0.04617244,16.099999640137,19
-8.016118,0.2833333,0.8512781,0.2396911917196362,-0.3108248029838492,0.1129224753933044,3.56407,43.42227,0.06719646,0.02910816,0.3697314,-0.01095923,16.1199996396899,19
-7.974012,0.4833332,0.897054,0.2410105647518401,-0.342326279626754,0.1118541617726114,7.127417,42.88395,0.1011986,0.05817844,0.3648007,-0.02190211,16.1399996392429,19
-7.931918,0.6833332,0.9428167,0.230058712893479,-0.3278643883390346,0.1003048109143778,10.68991,42.34306,0.101495,0.08718284,0.3595138,-0.03282047,16.1599996387959,19
-7.889836,0.8833331,0.9885665,0.2181601343038206,-0.3207551915979285,0.0881701744429208,14.25123,41.79523,0.06714658,0.1160927,0.3538762,-0.04370356,16.1799996383488,19
-7.72682,0.2833333,1.136568,0.0641131770593608,0.3459732433174108,-0.0468527995446832,3.636494,44.05804,0.08788044,0.02970015,0.3748647,-0.01119026,16.1999996379018,19
-7.683566,0.4833333,1.183039,0.0377163817664376,0.1280751038874694,-0.0749807329076088,7.272615,43.52386,0.1419587,0.05936127,0.3699312,-0.02236587,16.2199996374547,19
-7.640328,0.6833332,1.229495,0.0115223822507903,-0.0684269434626773,-0.1016358367944785,10.90869,42.98822,0.1619264,0.08895749,0.3646213,-0.03351891,16.2399996370077,19
-7.597103,0.8833331,1.275937,-0.0030858395575563,-0.2978942525924279,-0.1167749003650784,14.54376,42.4467,0.147113,0.1184537,0.358941,-0.04463458,16.2599996365607,19
-7.389901,0.2833333,1.463818,-0.2000006011080826,0.3456957362042594,-0.2920069344516136,3.623096,45.28481,0.128,0.02960551,0.3847533,-0.01113961,16.2799996361136,19
-7.34633,0.4833333,1.509675,-0.2154270111496359,0.1046592563292875,-0.3102655038007231,7.246158,44.75661,0.222753,0.05917199,0.3798451,-0.02226473,16.2999996356666,19
-7.302771,0.6833333,1.555519,-0.2301011461157003,-0.1149811325113018,-0.3255843178613569,10.86889,44.22969,0.2844502,0.08866933,0.3745532,-0.03336427,16.3199996352196,19
-7.118778,0.2833334,1.724468,-0.4081754391130614,0.3527013177402118,-0.4871623109242189,3.561496,47.1616,0.2151543,0.02923075,0.3997946,-0.01071129,16.3399996347725,19
-7.075558,0.4833333,1.769263,-0.3996192883509151,0.175853217687418,-0.4946158129175098,7.12377,46.64311,0.3983799,0.058424,0.3949256,-0.0214089,16.3599996343255,19
-7.032351,0.6833333,1.814044,-0.3659259213089267,0.0204010891436897,-0.4720898978650165,10.68648,46.13166,0.5505632,0.08755058,0.3896699,-0.03208245,16.3799996338785,19
-6.989154,0.8833332,1.858816,-0.2990609500664627,-0.1680163017023448,-0.4134522680581183,14.24899,45.62335,0.6717982,0.1165783,0.3840331,-0.0427221,16.3999996334314,19
-6.761599,0.2833333,2.068119,-0.1908250652916967,-0.3157139568456821,-0.3124082990868233,3.491818,47.64592,0.2679105,0.02881509,0.4036581,-0.01016824,16.4199996329844,19
-6.719531,0.4833333,2.112422,0.0449603170760326,-0.3716434187029941,-0.1480478538681264,6.984887,47.13416,0.5049971,0.05759415,0.39883,-0.02032386,16.4399996325374,19
-6.677471,0.6833332,2.156714,0.3132032461779852,-0.3820975256868625,0.0351804905842776,10.47843,46.63283,0.7127541,0.08630678,0.3936258,-0.03045414,16.4599996320903,19
-6.635424,0.8833331,2.200994,0.6187260727251047,-0.400392434187272,0.2430053147809854,13.97262,46.1384,0.8917542,0.1149288,0.3880507,-0.04055275,16.4799996316433,19
-6.474203,0.2833334,2.347034,0.8119264657995728,0.2404439336545002,0.3489835244973509,3.431001,46.99946,0.2553494,0.02834184,0.3985039,-0.009894443,16.4999996311963,19
-6.433265,0.4833333,2.390931,1.07590388143924,-0.0038335697997143,0.1395329663350013,6.862717,46.4884,0.4806436,0.0566464,0.3937092,-0.01977368,16.5199996307492,19
-6.392339,0.6833333,2.434815,1.3823006471120705,-0.2272030912802972,-0.0180859310353058,10.2953,45.98693,0.6768486,0.08489062,0.388556,-0.02963202,16.5399996303022,19
-6.351424,0.8833332,2.478687,1.5655539980896012,0.2362622501247762,-0.2689867356532618,13.72846,45.49165,0.8446165,0.1130485,0.3830495,-0.0394606,16.5599996298552,19
-6.14594,0.2833334,2.664594,1.778843869625995,0.6950229379703106,-0.4745185890623009,3.377784,45.15003,0.1456458,0.0277019,0.383691,-0.01014115,16.5799996294081,19
-6.105754,0.4833333,2.707772,2.168208481944032,0.2441023677683492,-0.8902391367008375,6.755347,44.63106,0.2608693,0.05536763,0.3789223,-0.02026892,16.5999996289611,19
-6.065581,0.6833333,2.750938,2.588872178482132,-0.2115225656302709,-1.240726656062772,10.13284,44.11495,0.3460356,0.08297611,0.3738204,-0.03037591,16.6199996285141,19
-5.884086,0.2833333,2.917317,2.8230995806185595,0.2331253127082996,-1.7178130098786355,3.319161,43.46732,0.02941628,0.02699742,0.3701303,-0.01048572,16.639999628067,19
-5.844428,0.4833333,2.95951,3.2372428550545584,0.0327552318457622,-2.229925608125523,6.637468,42.93966,0.02825377,0.05396354,0.3653841,-0.02095949,16.65999962762,19
-5.804779,0.6833333,3.001693,3.6603016925227783,-0.1467067527448818,-2.680807833003896,9.954224,42.40797,-0.004037443,0.08087146,0.3603285,-0.03141209,16.6799996271729,19
-5.765141,0.8833332,3.043865,4.095685218937643,-0.3596218743523083,-3.0632779007117144,13.26959,41.86852,359.9317,0.1077022,0.3549679,-0.04183494,16.6999996267259,19
-5.610254,0.2833333,3.181409,4.402104379925652,0.3000320003761113,-3.492989610359319,3.2663,41.74291,359.9154,0.02636703,0.3561474,-0.01084309,16.7199996262789,19
-5.571021,0.4833333,3.222761,4.9759475761301,0.0745718902943392,-3.876562310847387,6.530712,41.20762,359.8002,0.05270427,0.351425,-0.02167404,16.7399996258318,19
-5.531799,0.6833332,3.264104,5.527741025585318,-0.1299800050356369,-4.188568315861903,9.792631,40.66179,359.653,0.07898693,0.3464142,-0.032484,16.7599996253848,19
-5.492588,0.8833332,3.305436,6.062937550639393,-0.3679851328632607,-4.422297950821874,13.05203,40.1016,359.4724,0.105196,0.3411196,-0.04326389,16.7799996249378,19
-5.293857,0.2833333,3.482958,6.390614321783226,0.2665789726047705,-4.740953866018165,3.211476,39.57436,359.7972,0.02576847,0.3384406,-0.01115031,16.7999996244907,19
-5.25525,0.4833333,3.523713,6.827717998667599,0.0160290901263752,-4.947953917417571,6.419965,39.03141,359.5638,0.05150847,0.3337396,-0.0222883,16.8199996240437,19
-5.216653,0.6833333,3.564456,7.221472484787101,-0.2136125940654448,-5.074566129210882,9.625129,38.47144,359.2978,0.07719924,0.3287731,-0.03340513,16.8399996235967,19
-5.007746,0.2833334,3.745084,7.411110003364895,0.2435803346009464,-5.263575953459907,5.641949,39.88635,359.7002,0.04537247,0.3407946,-0.01924338,16.8599996231496,19
-4.939934,0.4833333,3.817315,7.762469937033517,0.0557551654621715,-5.295047366698669,11.2798,39.31155,359.3421,0.09062622,0.335266,-0.0384366,16.8799996227026,19
-4.872132,0.6833332,3.889534,8.044815039457614,-0.1111620332024928,-5.244849213417066,16.91271,38.68615,358.9163,0.1356504,0.3289205,-0.0575328,16.8999996222556,19
-4.804342,0.8833331,3.961741,8.268373265534628,-0.3115324823981376,-5.109767326380696,22.53959,37.99363,358.4088,0.1803347,0.3217741,-0.0764855,16.9199996218085,19
-4.486856,0.2833334,4.198651,8.222472546204761,0.3606664031938423,-5.084109055525204,7.048506,41.40775,358.8122,0.0538406,0.3534466,-0.03140865,16.9399996213615,19
-4.388929,0.4833333,4.277098,8.446204310143957,0.1477512956123464,-4.8321635475687845,14.0816,40.65047,357.5219,0.1074626,0.3471344,-0.06269151,16.9599996209145,19
-4.291014,0.6833331,4.355534,8.577782102719567,-0.0442556055806434,-4.50656276560144,21.09403,39.69458,356.0811,0.1606566,0.33947,-0.09372658,16.9799996204674,19
-4.19311,0.8833328,4.433957,8.630202891906308,-0.2697157476345649,-4.106619235213981,28.07841,38.48526,354.4256,0.2132147,0.3304839,-0.1243928,16.9999996200204,19
-4.055021,0.2833334,4.197044,8.787534084093721,-0.262920325314693,-3.574058085645324,7.142613,46.35215,358.287,0.05138606,0.3936059,-0.03822701,17.0199996195734,19
-3.943198,0.4833332,4.261112,8.837988893188548,-0.2106495674614804,-2.986596022735979,14.26666,45.49129,356.446,0.1025694,0.387015,-0.07636631,17.0399996191263,19
-3.831414,0.6833331,4.325164,8.797162609004882,-0.1662197371839375,-2.3444998823930616,21.35924,44.35087,354.4143,0.1533335,0.3788271,-0.1142029,17.0599996186793,19
-3.719667,0.8833328,4.389194,8.681070584969941,-0.1829466322961198,-1.6478550206748004,28.40692,42.85912,352.1028,0.2034709,0.3690758,-0.1515751,17.0799996182323,19
-3.474365,0.2833333,4.208642,8.54521729204486,-0.2075135387684331,-0.9235027067448938,7.212595,57.36917,358.351,0.04828198,0.4797814,-0.04278674,17.0999996177852,19
-3.352325,0.4833332,4.251616,8.313013237828912,-0.1866052206080785,-0.1830417580693506,14.41658,56.51822,356.5702,0.0964155,0.4728149,-0.08553265,17.1199996173382,19
-3.230321,0.683333,4.294577,8.00261859408309,-0.1735377146797277,0.5743703481374167,21.58744,55.39284,354.6012,0.1441301,0.4638662,-0.1279076,17.1399996168911,19
-2.952962,0.2833334,4.251945,7.462928468632845,0.4986610563526419,1.201818372920599,7.734988,69.06306,359.0217,0.05073535,0.5660225,-0.04524979,17.1599996164441,19
-2.820543,0.4833333,4.283455,7.216911098410088,0.2857460510471787,2.0842184150854965,15.45648,68.32935,357.9344,0.1012197,0.5583877,-0.09028348,17.1799996159971,19
-2.688182,0.6833332,4.314969,6.883218061026996,0.0937391093445164,2.933478326887653,23.16168,67.40087,356.6843,0.1512188,0.5481597,-0.1349188,17.19999961555,19
-2.555866,0.8833328,4.346491,6.483208851515248,-0.1317212160047851,3.7526943505975696,30.84179,66.21086,355.198,0.2004889,0.5353872,-0.1789357,17.219999615103,19
-2.175279,0.2833333,4.358003,6.223899022975621,-0.1249258668636753,4.69891531474518,7.873258,83.56023,0.7050223,0.05528368,0.6643742,-0.04116379,17.239999614656,19
-2.040001,0.4833332,4.385016,5.886948092044978,-0.0726553922296994,5.572191230045971,15.74921,83.18287,1.36425,0.110287,0.6562883,-0.08212,17.2599996142089,19
-1.904762,0.683333,4.412021,5.496011345801845,-0.0282256027231851,6.377577953675914,23.62659,82.88547,2.00009,0.1647478,0.6450756,-0.1226736,17.2799996137619,19
-1.769559,0.8833328,4.439016,5.075125347492712,-0.0449525362542175,7.120256758143966,31.50434,82.6685,2.635284,0.2184066,0.630792,-0.1626317,17.2999996133149,19
-1.506195,0.2833333,4.502719,4.8995989611566895,-0.0695193720741774,8.051904405011122,7.57599,85.23467,1.318276,0.05638562,0.6750155,-0.03628233,17.3199996128678,19
-1.376271,0.4833333,4.536132,4.673365870281648,-0.0486111004346065,8.869512566708298,15.1574,84.98006,2.613899,0.1124999,0.6671691,-0.07239004,17.3399996124208,19
-1.246379,0.6833331,4.56953,4.422478496126381,-0.0355436514811512,9.579361092766016,22.73968,84.8997,3.93416,0.1680916,0.6563159,-0.1081505,17.3599996119738,19
-0.9215953,0.2833334,4.680694,3.968932894878256,0.6366549320741968,10.019939702439178,7.536065,76.43201,0.8751403,0.05634566,0.6168783,-0.03466602,17.3799996115267,19
-0.7972152,0.4833332,4.725969,3.754330790245602,0.4237397283148956,10.639944042636769,15.07473,76.08865,1.718103,0.1124511,0.6093286,-0.06912357,17.3999996110797,19
-0.6728705,0.683333,4.771231,3.498196243231655,0.2317327100358848,11.079859537717205,22.61535,75.84974,2.550841,0.1680461,0.5991048,-0.1032678,17.4199996106327,19
-0.5485613,0.8833328,4.81648,3.22462622789452,0.0062724299877224,11.341736175745398,30.15632,75.72149,3.403399,0.2228866,0.5862541,-0.136949,17.4399996101856,19
-0.1142399,0.2833333,5.009027,2.958297194785405,0.0130675866861056,11.621066425406898,7.926141,65.19696,0.4578569,0.06037278,0.5372232,-0.03387642,17.4599996097386,19
0.008211739,0.4833332,5.073934,2.6055553813833305,0.0653381775349287,11.660234199918712,15.85642,64.77502,0.8697859,0.1204995,0.5296236,-0.06753196,17.4799996092916,19
0.1306284,0.683333,5.138822,2.1885582335403586,0.1097680594731895,11.460265300893164,23.78707,64.39405,1.239131,0.1800286,0.5194773,-0.100853,17.4999996088445,19
0.5469835,0.2833334,5.372031,1.7294958993041076,0.0930415691092657,11.022246070559472,8.21425,55.47064,359.804,0.06259879,0.4643003,-0.03484138,17.5199996083975,19
0.6673284,0.4833333,5.450067,1.596401972082914,0.0684745026890824,11.28009992734162,16.424,54.90532,359.5247,0.1248581,0.4568103,-0.06949207,17.5399996079504,19
0.7876387,0.683333,5.528084,1.3730343207717937,0.0893828698966347,11.309059831477404,24.62816,54.26557,359.1415,0.1864572,0.4469712,-0.1037739,17.5599996075034,19
0.9079145,0.8833327,5.606082,1.0842994316227266,0.1024505281936248,11.115222851111913,32.82508,53.50915,358.6188,0.2470793,0.4348358,-0.1375107,17.5799996070564,19
1.2499,0.2833334,5.818607,0.7549521671031867,0.0543618013821456,10.704884021240302,7.786088,45.17009,358.3927,0.05730702,0.3840097,-0.03899267,17.5999996066093,19
1.366328,0.4833332,5.894023,0.4974132702564251,-0.0015676071592124,10.796892652849635,15.54887,44.3142,356.6543,0.1143219,0.3771789,-0.07778466,17.6199996061623,19
1.482721,0.683333,5.969421,0.1709203115822859,-0.0120217811364942,10.710994951533923,23.2786,43.16212,354.7061,0.1707695,0.3685334,-0.1161892,17.6399996057153,19
1.599079,0.8833327,6.0448,-0.1991554983159202,-0.0303166240373716,10.458316847491092,30.96121,41.62391,352.4394,0.226378,0.3581165,-0.1540216,17.6599996052682,19
2.046476,0.2833334,6.356041,-0.7742730103225561,0.6105192616957391,10.153105373932084,7.146976,39.43666,357.5675,0.05151294,0.33791,-0.04096752,17.6799996048212,19
2.158707,0.4833333,6.424824,-1.060637317505316,0.3662419263784466,10.27279601593628,14.25662,38.45641,354.9942,0.1027867,0.3315911,-0.08174351,17.6999996043742,19
2.270905,0.683333,6.493589,-1.4033268404922374,0.1428726368919658,10.240415375726595,21.31131,37.09662,352.1879,0.1535983,0.3238342,-0.122151,17.7199996039271,19
2.686332,0.2833333,6.813758,-1.7774409429765772,-0.1139494665793233,10.071068133781855,7.01145,42.03392,357.7501,0.05004124,0.3590249,-0.0402189,17.7399996034801,19
2.797661,0.4833331,6.877736,-2.2240664184565464,-0.1385166833644426,10.237842963597608,13.98717,41.09975,355.3714,0.0998482,0.3527306,-0.08023523,17.7599996030331,19
2.908959,0.6833329,6.941695,-2.721550759775456,-0.1176084424773744,10.257549626523955,20.91465,39.82166,352.7798,0.1492276,0.3449816,-0.1199085,17.779999602586,19
3.020225,0.8833327,7.005636,-3.2463894507581763,-0.1045411004171855,10.149888228147407,27.77391,38.12115,349.8705,0.1979754,0.3358112,-0.159075,17.799999602139,19
3.546009,0.2833334,7.453633,-3.5566953957827208,-0.7929436353644069,10.40254343507772,7.459104,44.43804,358.0787,0.05388208,0.3783038,-0.04008159,17.819999601692,19
3.661437,0.4833332,7.522528,-4.026433579681906,-0.5585975926802775,10.463558172757924,14.89308,43.54108,356.0246,0.1075293,0.3717157,-0.07997821,17.8399996012449,19
3.776831,0.683333,7.591403,-4.4902150756223085,-0.3075253068719021,10.388467183677172,22.28658,42.31838,353.7545,0.1606735,0.3634475,-0.1195013,17.8599996007979,19
3.892193,0.8833327,7.66026,-4.92541619755476,-0.0919967262088649,10.201001015787584,29.62236,40.68259,351.1581,0.2130745,0.3535382,-0.1584724,17.8799996003509,19
4.259545,0.2833333,8.039611,-5.543806466001572,0.642175210954978,9.831997903947691,7.873718,49.72188,359.2325,0.05948406,0.4198331,-0.03492679,17.8999995999038,19
4.373361,0.4833332,8.11779,-5.932989948569416,0.3796723636912514,9.835572102857938,15.73664,49.04797,358.3649,0.1186675,0.4129016,-0.06967595,17.9199995994568,19
4.487143,0.683333,8.195951,-6.269404559959772,0.1385658049574493,9.707803961929534,23.58554,48.21141,357.3535,0.1772677,0.4040022,-0.1040818,17.9399995990098,19
4.882099,0.2833333,8.640612,-6.531433997425118,-0.1355059109277467,9.475801362340963,7.778661,52.32049,0.4071033,0.06244366,0.4396487,-0.02672332,17.9599995985627,19
4.98541,0.4833333,8.728992,-6.962669751320656,-0.176834763136265,9.388322720956907,15.55803,51.89765,0.7604535,0.1245815,0.4327242,-0.05331248,17.9799995981157,19
5.088689,0.683333,8.817352,-7.327020739473602,-0.1722005136454679,9.161476789260496,23.33744,51.50669,1.069196,0.1861258,0.4238001,-0.07964461,17.9999995976686,19
5.191936,0.8833328,8.905694,-7.605281959868959,-0.1749189592239901,8.82181020651699,31.11641,51.13689,1.338898,0.2467921,0.4129196,-0.1055983,18.0199995972216,19
5.664405,0.2833334,9.513365,-8.13149148852809,0.4819810714414046,8.194074579610092,7.387877,41.2037,0.2626984,0.06111136,0.3510017,-0.0205285,18.0399995967746,19
5.745944,0.4833333,9.613333,-8.47814453110948,0.2542555352762823,8.000445209139064,14.77872,40.75261,0.4772427,0.1220008,0.3447877,-0.04090843,18.0599995963275,19
5.827471,0.6833331,9.713269,-8.73785571021112,0.0479262850275609,7.67789309714758,22.16791,40.31293,0.6417924,0.182364,0.3371412,-0.06108485,18.0799995958805,19
5.908988,0.8833329,9.81317,-8.893064717907137,-0.1913680988508122,7.252946021945828,29.5555,39.87114,0.7553667,0.2419536,0.3280973,-0.08097588,18.0999995954335,19
6.223061,0.2833333,10.30544,-9.158711402996326,-0.1979196093824564,7.040546928491221,7.604429,31.89869,0.3046278,0.06448842,0.2740121,-0.01567135,18.1199995949864,19
6.288944,0.4833331,10.4208,-9.33026919853842,-0.1585077022393369,6.7173435716767145,15.21157,31.46049,0.5684094,0.128731,0.2680881,-0.03115003,18.1399995945394,19
6.354809,0.6833328,10.53613,-9.389952377180023,-0.1264485199597491,6.31159446942323,22.81828,31.0401,0.7816127,0.1923854,0.260982,-0.04648664,18.1599995940924,19
6.420656,0.8833324,10.65143,-9.320359192736513,-0.1550580583759853,5.851850509720254,30.42408,30.62393,0.9449552,0.2551703,0.2527261,-0.06161387,18.1799995936453,19
6.78312,0.2833335,11.27524,-9.501927547799935,0.5489014804758467,5.083805982184893,8.095114,23.93288,0.2443383,0.06949144,0.2066739,-0.01255414,18.1999995931983,19
6.836938,0.4833333,11.40601,-9.607061684473535,0.2566735362938148,4.721222288329884,16.19127,23.48322,0.4291571,0.1386326,0.2009527,-0.02502744,18.2199995927513,19
6.890638,0.6833332,11.53648,-9.593835075107055,-0.013669899135513,4.315538994693004,24.27321,23.04315,0.5584409,0.2069559,0.1942663,-0.03732445,18.2399995923042,19
7.162082,0.2833332,12.07276,-9.808942225369242,0.4037965765403939,3.5965240104699188,8.063765,15.94179,359.2679,0.0687471,0.1387689,-0.01606128,18.2599995918572,19
7.213571,0.4833332,12.20434,-9.976073274595969,0.1772207189985356,3.2206435096482977,16.11725,15.28735,358.4361,0.1371303,0.1335824,-0.03203737,18.2799995914102,19
7.265044,0.6833327,12.33588,-10.029002094309671,-0.027470403546275,2.823184206623612,24.1574,14.47125,357.4601,0.2048081,0.1277322,-0.04784852,18.2999995909631,19
7.521541,0.2833332,12.90538,-9.95118219334496,-0.2646393685197861,2.4381226589275133,7.659087,8.962043,358.1302,0.06530347,0.07903044,-0.02144735,18.3199995905161,19
7.575201,0.483333,13.032,-10.224306029236434,0.3717362786331317,1.6387097050666348,15.29126,8.08417,356.1263,0.1302778,0.07430808,-0.0427868,18.3399995900691,19
7.628846,0.6833327,13.15858,-10.521719781965446,0.1239736373502009,1.338853158093638,22.88439,6.87742,353.9024,0.1946149,0.06923755,-0.06391755,18.359999589622,19
7.682475,0.8833327,13.28513,-10.728929533209952,-0.1019045187017735,1.0394937458235098,30.4213,5.249031,351.3423,0.2580104,0.06384321,-0.08473973,18.379999589175,19
7.736089,0.9766695,13.41164,-10.83072359161708,-0.3602599804510625,0.775220579082113,37.87598,3.046876,348.2758,0.320165,0.05815085,-0.1051552,18.399999588728,19
7.955557,0.2833333,13.97018,-11.249567979590028,-0.3853846187824481,0.6125761416263273,7.061541,8.064537,357.8979,0.06013438,0.07129985,-0.02259272,18.4199995882809,19
8.009731,0.4833333,14.08665,-11.571322783688778,-0.3640577933643261,0.4530449578900501,14.08811,7.179053,355.67,0.1199572,0.06671478,-0.04509067,18.4399995878339,19
8.06389,0.6833332,14.20308,-11.782584477916595,-0.349596216658172,0.3312050015880921,21.07162,5.967999,353.239,0.1792664,0.06185782,-0.06739603,18.4599995873868,19
8.218633,0.2833333,14.69252,-12.208400517830418,0.324972192853682,-0.1580603942655258,7.211608,9.661958,357.8964,0.06111479,0.0851861,-0.02355069,18.4799995869398,19
8.27654,0.4833331,14.81011,-12.638581136957656,0.1154018371351948,-0.3077116303769429,14.39398,8.767908,355.6621,0.1219549,0.08051076,-0.04700782,18.4999995864928,19
8.334432,0.6833329,14.92766,-12.93517906408206,-0.072284256199094,-0.4208410775114615,21.53257,7.538063,353.2162,0.182252,0.07549276,-0.07025632,18.5199995860457,19
8.392306,0.8833324,15.04518,-13.088910543321116,-0.2924478519421823,-0.4630657180208821,28.60884,5.890601,350.4513,0.2417471,0.07015402,-0.09319615,18.5399995855987,19
8.538592,0.2833333,15.66128,-13.534581151767709,0.3609329447306301,-1.0232538179344282,7.680369,12.45511,358.5472,0.06520098,0.1090692,-0.01983901,18.5599995851517,19
8.592804,0.4833332,15.78646,-14.050520009168435,0.1301751526733124,-1.121463379262682,15.34403,11.66867,356.9781,0.1301081,0.1042094,-0.03956224,18.5799995847046,19
8.647,0.683333,15.91161,-14.396511069162887,-0.0786986433182375,-1.1900489862196366,22.98001,10.61856,355.2213,0.1943896,0.09886765,-0.05909576,18.5999995842576,19
8.733075,0.2833333,16.4581,-14.566785905076934,-0.3200497586845602,-1.195345551870698,7.913453,16.32571,359.9046,0.06818597,0.1417056,-0.01061966,18.6199995838106,19
8.773882,0.4833333,16.59005,-15.058015120130191,-0.3281690824082445,-1.2253370230601457,15.82354,15.82026,359.7383,0.1360267,0.1366207,-0.0211836,18.6399995833635,19
8.814672,0.6833331,16.72197,-15.347950509380254,-0.2898373224764059,-1.2417424996195123,23.72955,15.26464,359.4879,0.2031982,0.1308874,-0.03164151,18.6599995829165,19
8.855449,0.8833327,16.85385,-15.433322626877448,-0.2583700473225104,-1.2127292978221649,31.63046,14.62746,359.1294,0.2693802,0.1245336,-0.04194409,18.6799995824695,19
8.89621,0.9766697,16.9857,-15.311443913708604,-0.2870835841741176,-1.1064472320206136,39.52467,13.86098,358.6205,0.3342574,0.1175905,-0.0520421,18.6999995820224,19
8.894334,0.2833331,17.51691,-15.68674505651696,-0.3226624815095404,-1.041154978689793,7.587184,11.81844,0.5298765,0.06628504,0.1024216,-0.002222128,18.7199995815754,19
8.9125,0.4833333,17.64839,-15.84704520095791,-0.3117899831342821,-0.976123032674966,15.17565,11.44566,1.015188,0.1322582,0.09767527,-0.004428872,18.7399995811284,19
8.930653,0.6833329,17.77983,-15.791529990229202,-0.3077824711599736,-0.881993877384506,22.76469,11.12564,1.470295,0.197629,0.09250245,-0.006610663,18.7599995806813,19
8.889209,0.2833331,18.24091,-15.781484233464951,0.3563318136831465,-1.2169380263068523,7.405644,359.4349,359.9604,0.06458238,-0.004898884,-2.675262e-05,18.7799995802343,19
8.888679,0.4833336,18.37014,-15.872915471562514,0.136308177813702,-1.2615562073964952,14.81128,358.9508,359.8734,0.1288978,-0.00893727,8.469194e-05,18.7999995797873,19
8.888164,0.683333,18.49934,-15.757099699099662,-0.0618309503484512,-1.2835544580756917,22.21292,358.4346,359.7184,0.192647,-0.012931,0.0002202401,18.8199995793402,19
8.887666,0.883333,18.62851,-15.682380594912273,0.4278399414044829,-1.7805583017032447,29.61055,357.8639,359.4802,0.2555695,-0.0168619,0.0003781385,18.8399995788932,19
8.771091,0.2833333,19.20495,-15.43650017946596,0.913782112932025,-2.253473578118662,7.821845,346.2407,0.1338763,0.06757473,-0.1195842,0.009327107,18.8599995784461,19
8.736593,0.4833336,19.33711,-15.441324347449529,0.4910186965640233,-2.3348395555692,15.64772,345.7926,0.2191786,0.1348486,-0.1227728,0.01871471,18.8799995779991,19
8.702124,0.6833334,19.46924,-15.250819734573888,0.0645264301654406,-2.394666034782251,23.47151,345.3362,0.2451523,0.2014675,-0.1253803,0.02803447,18.8999995775521,19
8.541795,0.2833337,19.98026,-14.871266502250444,-0.2930543645036654,-2.403133505950791,8.167118,336.1475,359.7056,0.07020339,-0.2059481,0.01220878,18.919999577105,19
8.489212,0.483334,20.1129,-14.897466299440698,-0.3182835249341655,-2.5692765756605667,16.32903,335.6035,359.3305,0.1400291,-0.2083385,0.0243541,18.939999576658,19
8.436639,0.6833335,20.2455,-14.736489379499988,-0.2975491408467129,-2.724703077175711,24.48458,334.972,358.8506,0.2091221,-0.2096636,0.03637399,18.959999576211,19
8.384076,0.8833334,20.37807,-14.398381153335748,-0.2841675137691769,-2.8371512465741127,32.63182,334.2095,358.2261,0.2771306,-0.2099172,0.04820702,18.9799995757639,19
8.22601,0.2833335,20.78699,-14.014718317519248,0.3888328765175698,-3.3223155764572034,7.715888,325.3371,358.2856,0.06866741,-0.2962301,0.005792874,18.9999995753169,19
8.174459,0.4833335,20.91493,-14.054850033195333,0.1772072568938123,-3.394630124918116,15.40809,324.5047,356.4438,0.1369877,-0.2979664,0.01155855,19.0199995748699,19
8.122918,0.6833332,21.04283,-13.928196184427922,-0.0130219314143153,-3.44919650589733,23.06619,323.3659,354.3937,0.2046358,-0.298279,0.01726965,19.0399995744228,19
8.071386,0.8833329,21.17069,-13.648879991187156,-0.2362159991430047,-3.4519276593167767,30.67527,321.8315,352.0252,0.2712898,-0.2971677,0.02289871,19.0599995739758,19
7.828597,0.283333,21.68045,-13.338090395813404,0.4136459373587431,-3.967589578656405,7.039965,318.0591,357.4129,0.06537943,-0.3558258,0.0009275634,19.0799995735288,19
7.780546,0.4833328,21.80209,-13.321480166816096,0.1788817773551163,-4.214412740432113,14.04179,317.0994,354.689,0.1304586,-0.3572912,0.001852997,19.0999995730817,19
7.732504,0.6833326,21.9237,-13.176714648126715,-0.0344862529339255,-4.4303009650979845,20.98643,315.7486,351.7346,0.1949583,-0.35722,0.002772009,19.1199995726347,19
7.475913,0.2833335,22.37259,-12.959606412379546,0.4394681543442307,-5.089195129440146,6.889823,319.3009,357.543,0.06376765,-0.3458304,0.0008258783,19.1399995721877,19
7.430544,0.4833333,22.49181,-12.638728078172091,0.909206015294132,-5.720304292989585,13.74454,318.3792,354.9641,0.1272383,-0.34747,0.001698454,19.1599995717406,19
7.385189,0.6833333,22.611,-12.795808762114689,0.4697508454758363,-5.984560387299641,20.54741,317.096,352.1721,0.1901713,-0.3476884,0.002563652,19.1799995712936,19
7.339847,0.8833328,22.73015,-12.817681490306043,0.026079688014298,-6.205057314662849,27.27643,315.3743,349.0606,0.2523111,-0.3464862,0.003417437,19.1999995708466,19
6.966148,0.2833334,23.28063,-12.72672866882908,-0.3491680536367925,-6.352736502448341,7.40308,319.6312,357.9463,0.06675515,-0.3431821,0.005486988,19.2199995703995,19
6.910296,0.4833335,23.40252,-13.0135006647101,-0.3925518552561352,-6.626025103810648,14.78142,318.7534,355.765,0.1332152,-0.3446094,0.01098341,19.2399995699525,19
6.854461,0.6833333,23.52438,-13.13120584750884,-0.3904606577030953,-6.848748773830277,22.11749,317.5362,353.3674,0.1990562,-0.3444807,0.0164283,19.2599995695055,19
6.798642,0.8833328,23.64621,-13.105130346190691,-0.3962098159730789,-6.9945924552796725,29.39278,315.8925,350.6405,0.2639821,-0.3427979,0.02179686,19.2799995690584,19
6.471626,0.2833336,24.01241,-12.889766718301154,0.2571721906757421,-7.433398735411547,7.853589,323.8571,359.1538,0.06738726,-0.3089858,0.01423879,19.2999995686114,19
6.4031,0.4833336,24.13205,-13.270834310650075,0.0254393902115778,-7.478374647402003,15.69608,323.2087,358.2106,0.1344345,-0.3105599,0.02840727,19.3199995681643,19
6.334589,0.6833335,24.25165,-13.454684014972932,-0.1853844314796559,-7.443469318071468,23.52398,322.3883,357.1244,0.2008226,-0.3106521,0.04243805,19.3399995677173,19
6.266094,0.8833332,24.37122,-13.471801481436978,-0.4296612926159858,-7.304731172595677,31.33205,321.3354,355.8282,0.2662366,-0.3092634,0.05626388,19.3599995672703,19
5.806836,0.2833332,24.81028,-13.213876816055516,0.1986310095008033,-7.575505961466348,7.698261,324.9312,0.4181469,0.06291306,-0.3008308,0.02369617,19.3799995668232,19
5.723775,0.4833329,24.91617,-13.306827810249898,-0.0581916497806198,-7.55962555995886,15.39709,324.552,0.7892416,0.1255216,-0.3025595,0.04728235,19.3999995663762,19
5.64073,0.6833326,25.02202,-13.203874793307213,-0.2941061376948012,-7.451327236275411,23.09587,324.2094,1.12347,0.1875417,-0.3029121,0.07065129,19.4199995659292,19
5.193488,0.2833333,25.39014,-12.7837408905007,0.1568135329310755,-7.685971927243177,7.330547,315.1536,0.1851998,0.05847871,-0.3807595,0.02587568,19.4399995654821,19
5.100986,0.4833336,25.47857,-12.188545457613374,0.6030280559536416,-7.842592383843925,14.66379,314.7287,0.3274888,0.1166952,-0.3820581,0.05173183,19.4599995650351,19
5.008514,0.6833335,25.56698,-12.129675871482752,0.1395626224652923,-7.644951719450521,21.99471,314.3063,0.4206511,0.1743972,-0.3817814,0.07738784,19.4799995645881,19
4.916076,0.883333,25.65539,-11.871869833459334,-0.328607018801962,-7.362411998192055,29.32359,313.8728,0.4613115,0.2313541,-0.3799306,0.1027402,19.499999564141,19
4.298866,0.2833334,26.08009,-11.319483921878335,0.1034960557515241,-7.309701421944183,7.582305,301.0592,0.09948891,0.05713835,-0.4909472,0.03328343,19.519999563694,19
4.184663,0.4833335,26.14705,-11.194609005598236,-0.1094199098509768,-6.96059266958985,15.16759,300.6204,0.1579112,0.1139735,-0.4911293,0.06655489,19.539999563247,19
4.070498,0.6833333,26.21401,-10.888384822081504,-0.3014272220646862,-6.544596210048194,22.75072,300.1706,0.1583249,0.1702821,-0.4891494,0.09953746,19.5599995627999,19
3.956366,0.8833328,26.28095,-10.434381345907184,-0.5268873276163448,-6.044051646794838,30.33147,299.6905,0.0900059,0.2258276,-0.4850198,0.1320729,19.5799995623529,19
3.45997,0.2833332,26.5615,-9.636908125858533,0.1202213748196427,-5.900094052146024,8.129314,294.7237,0.2651314,0.05844454,-0.5381115,0.04017233,19.5999995619059,19
3.329213,0.483333,26.61699,-9.227307444276647,-0.1177837085780145,-5.528508947857709,16.25815,294.3196,0.4754163,0.116577,-0.5373372,0.08013292,19.6199995614588,19
3.198502,0.6833329,26.67247,-8.694349190539649,-0.3348801371058857,-5.101741184148448,24.38731,293.9274,0.6362127,0.1741069,-0.5338461,0.1196966,19.6399995610118,19
3.067851,0.8833328,26.72794,-7.824128828086861,0.1348575327080533,-4.994692013246439,32.51756,293.5328,0.7476084,0.2307465,-0.5276523,0.1586775,19.6599995605648,19
2.408804,0.2833333,27.07485,-6.8781661387062005,0.5998909578052385,-4.839276654069405,7.998641,284.4337,358.9404,0.06077053,-0.6106471,0.03543899,19.6799995601177,19
2.278461,0.4833333,27.12806,-6.55361574476913,0.1552429883416861,-4.388001836450183,15.98353,283.7505,357.7749,0.1212214,-0.6091411,0.07069193,19.6999995596707,19
2.148154,0.6833331,27.18126,-6.153726975034722,-0.2941088662172692,-3.903726593697126,23.94975,282.8554,356.4455,0.1810531,-0.6046091,0.1055838,19.7199995592237,19
1.532087,0.2833336,27.47094,-5.324101668206499,0.1568109981580944,-3.885497362962696,7.53799,281.0467,358.0677,0.06142868,-0.6334431,0.02879811,19.7399995587766,19
1.409811,0.4833335,27.52982,-4.9982200320424806,-0.0372870977130561,-3.648840883244634,15.04953,280.2033,356.0077,0.1225556,-0.6320186,0.05745402,19.7599995583296,19
1.287571,0.6833333,27.58869,-4.600429103761058,-0.2104766735724292,-3.422915067345002,22.52232,279.0312,353.7353,0.183099,-0.627674,0.08583503,19.7799995578825,19
1.165368,0.8833331,27.64754,-4.170006105426629,-0.4171188293316893,-3.190861775781727,29.9392,277.4424,351.1378,0.2427798,-0.620432,0.1138103,19.7999995574355,19
0.3703305,0.2833334,27.99551,-3.4210714840569034,0.2488074104820969,-3.2296972838602223,7.101187,287.1032,358.2488,0.05887121,-0.5921278,0.02451968,19.8199995569885,19
0.2613486,0.4833335,28.06172,-3.38468645020291,0.0296190513939024,-2.971086164521377,14.17305,286.3203,356.3802,0.1174761,-0.5915848,0.04884868,19.8399995565414,19
0.1523974,0.6833336,28.12791,-3.296883037868344,-0.168660895969661,-2.722107801042519,21.21258,285.2604,354.3341,0.1755855,-0.5886281,0.07297131,19.8599995560944,19
0.04347713,0.8833335,28.19408,-3.1985514362203187,-0.400393666988086,-2.467755171747012,28.20681,283.856,352.0229,0.2329632,-0.583272,0.0967894,19.8799995556474,19
-0.5450413,0.2833335,28.44905,-2.661830569043131,0.2404430979355975,-2.577023845834919,7.357066,290.0945,358.0484,0.06231488,-0.5707416,0.02282119,19.8999995552003,19
-0.6535251,0.4833333,28.5257,-2.583808445125237,-0.0038343272870322,-2.4662349961877545,14.68932,289.2606,355.9689,0.12437,-0.5700796,0.04550938,19.9199995547533,19
-0.7619782,0.6833329,28.60233,-2.480858880756558,-0.2272030084314832,-2.350607801913821,21.98317,288.1056,353.6857,0.185858,-0.5668947,0.06798954,19.9399995543063,19
-0.8704004,0.8833325,28.67895,-1.9572763246309477,0.2362625251549612,-2.531686491735321,29.2219,286.5479,351.0925,0.2465072,-0.5612033,0.09016228,19.9599995538592,19
-1.619676,0.2833336,28.99855,-1.937827960254607,0.0547095905994249,-2.4766198119430705,7.821514,299.1681,359.0975,0.06279207,-0.5046161,0.02775237,19.9799995534122,19
-1.730864,0.4833337,29.07932,-1.8802057686289189,-0.1059353174653984,-2.409476658600454,15.63159,298.5309,358.0993,0.1252697,-0.5043054,0.05536538,19.9999995529652,19
-1.84202,0.6833336,29.16007,-1.8274576313158224,-0.3000333667286489,-2.316762196908641,23.42651,297.7149,356.9576,0.187138,-0.5016081,0.08270787,20.0199995525181,19
-2.494298,0.2833332,29.43799,-1.1927809567416618,0.3784372816177824,-2.5888945041132416,7.875977,303.793,0.3460533,0.05916017,-0.4701343,0.03500866,20.0399995520711,19
-2.61169,0.4833333,29.50975,-1.2370150783176053,0.1717941774094793,-2.540888695113356,15.75185,303.4216,0.6441211,0.1180219,-0.4701223,0.06984265,20.0599995516241,19
-2.72905,0.6833333,29.58148,-1.2189152000120451,-0.0139407214557296,-2.468965975372292,23.62713,303.0765,0.9018115,0.1763069,-0.4678793,0.1043364,20.079999551177,19
-2.846379,0.8833326,29.65318,-1.180825666239043,-0.2331284769933616,-2.3591954082195024,31.5015,302.7476,1.123394,0.2337399,-0.4634176,0.1383269,20.09999955073,19
-3.422637,0.283333,29.86929,-1.2973745232824854,-0.2200600705306307,-2.206741854955037,7.592121,301.321,0.7956723,0.05431714,-0.4892971,0.03847828,20.119999550283,19
-3.542944,0.4833331,29.92645,-1.3355626649686592,-0.161516221815527,-2.021108187845261,15.1864,301.0418,1.561313,0.1083748,-0.4893128,0.07677692,20.1399995498359,19
-3.66321,0.6833332,29.9836,-1.336156634489578,-0.1108127506157252,-1.7882700453314977,22.78222,300.8602,2.324263,0.1619342,-0.4871488,0.1147384,20.1599995493889,19
-3.783437,0.8833331,30.04074,-1.3398625015009866,-0.1212657157495293,-1.4940821379479878,30.37695,300.7849,3.114965,0.2147428,-0.482814,0.1521981,20.1799995489419,19
-4.522667,0.2833334,30.31481,-1.2712631775419825,-0.1395601833478899,-1.296204269819551,7.550035,290.1517,0.3976698,0.05199922,-0.5714329,0.04053109,20.1999995484948,19
-4.648668,0.4833333,30.35391,-1.1565344928865675,-0.1123790894299162,-1.0671675549885364,15.10031,289.795,0.7648754,0.1036893,-0.5707605,0.08096871,20.2199995480478,19
-4.774633,0.6833327,30.39301,-1.035269935147543,-0.0930384954274387,-0.7928181490434021,22.65046,289.4744,1.098179,0.1549128,-0.5675966,0.1210417,20.2399995476007,19
-5.422662,0.2833333,30.63017,-0.3637878223632462,0.5854328526473597,-0.7427930243344747,7.97708,287.9996,0.6974971,0.0527025,-0.586696,0.04579635,20.2599995471537,19
-5.558769,0.4833334,30.66201,-0.3920765147544571,0.378789914920742,-0.4243998470346426,15.95923,287.7107,1.365701,0.1051327,-0.5854095,0.09140499,20.2799995467067,19
-5.694836,0.6833334,30.69385,-0.3963533027206374,0.1930551577087113,-0.1009684861013369,23.94183,287.5086,2.02456,0.1570337,-0.581256,0.136553,20.2999995462596,19
-5.830865,0.8833331,30.72568,-0.4172101083716537,-0.0261326261421322,0.2429238923303884,31.92386,287.3992,2.700815,0.2081523,-0.5742583,0.1810199,20.3199995458126,19
-6.639841,0.2833331,31.02954,-0.2600201155238864,-0.0130651772757917,0.4766477418120516,8.202311,282.7184,359.8174,0.05685308,-0.6227472,0.04341659,20.3399995453656,19
-6.778646,0.4833332,31.06472,-0.0561810318525566,0.0454775017116227,0.6720039133082558,16.40056,282.238,359.5637,0.1133984,-0.6208595,0.08659735,20.3599995449185,19
-6.917414,0.6833332,31.09989,0.1528685740363595,0.0961796536028601,0.8450188086711705,24.59394,281.6919,359.2207,0.169346,-0.6157837,0.1293209,20.3799995444715,19
-7.056142,0.8833331,31.13506,0.3256294327631277,0.0857252015462746,1.011632687894796,32.78124,281.0436,358.7574,0.2244099,-0.6075486,0.1713683,20.3999995440245,19
-7.623979,0.2833331,31.37063,0.5012989153022875,0.0674300079100405,1.1305482831604756,7.809453,279.3701,358.7221,0.05911909,-0.6448675,0.03557261,20.4199995435774,19
-7.75454,0.4833332,31.41552,0.6731950491115093,0.0946107082308055,1.1997109961410288,15.60264,278.6638,357.3357,0.1179396,-0.6430768,0.07096292,20.4399995431304,19
-7.885063,0.6833332,31.46039,0.800770271827723,0.1139511476867063,1.235080496626292,23.37326,277.7185,355.7769,0.176181,-0.6382143,0.1060022,20.4599995426834,19
-8.491187,0.2833336,31.71179,0.8433580497546611,0.0721357599350874,1.2523873961639929,7.284632,281.4529,358.4017,0.05798531,-0.6309974,0.02943508,20.4799995422363,19
-8.609796,0.4833334,31.76512,0.8704559359339523,0.0224778797147841,1.234873200355029,14.54887,280.706,356.695,0.1157087,-0.6298455,0.05873272,20.4999995417893,19
-8.728366,0.6833329,31.81844,0.8923596945347558,0.0182945945284301,1.1569658516390398,21.78437,279.6958,354.8145,0.1729259,-0.6260204,0.08776829,20.5199995413423,19
-8.846918,0.8833324,31.87173,0.8703933140784486,0.0062706754397497,1.0334378686025048,28.97726,278.353,352.6711,0.2293901,-0.6195465,0.1163944,20.5399995408952,19
-9.608603,0.2833332,32.19579,0.87444196837337,0.0130659879914759,0.8683662579552376,7.146595,289.3526,358.5598,0.05809989,-0.5763866,0.025799,20.5599995404482,19
-9.717507,0.483333,32.26149,0.9044925845561362,0.0653363109537529,0.6497178871409375,14.27209,288.6419,357.0059,0.1159934,-0.5758926,0.05137169,20.5799995400012,19
-9.82638,0.6833327,32.32717,0.9215162186833564,0.109765714703645,0.3921834364956496,21.37283,287.6962,355.2946,0.1734004,-0.5730618,0.07672834,20.5999995395541,19
-10.48924,0.2833337,32.62462,0.3030092179150934,-0.5472740986382476,0.3519439328566704,7.527362,292.6959,358.3456,0.06261855,-0.5521061,0.02437927,20.6199995391071,19
-10.59893,0.4833336,32.70249,0.2218233264323039,-0.2815649914540047,0.1093201954080811,15.036,291.9278,356.5708,0.1249779,-0.551411,0.04861712,20.63999953866,19
-10.70858,0.6833337,32.78034,0.1510844692059372,0.00087034630955,-0.1507592819561551,22.51403,290.8747,354.6073,0.1867532,-0.5482142,0.07262687,20.659999538213,19
-10.81821,0.8833337,32.85817,0.050394969313217,0.2477614908951102,-0.4130495594605037,29.94841,289.4584,352.3565,0.2476649,-0.5425321,0.09630061,20.679999537766,19
-11.41356,0.2833334,33.10273,-0.1206734902911215,0.2930079915563326,-0.6623580201453194,7.893742,299.6237,359.3773,0.0622213,-0.5013179,0.02992522,20.6999995373189,19
-11.52767,0.4833336,33.1807,-0.2688666438949632,0.2188523982595041,-0.8839876415150485,15.77939,299.0599,358.6708,0.1241272,-0.5008817,0.05969891,20.7199995368719,19
-11.64175,0.6833335,33.25866,-0.3864169055089554,0.1906602045169849,-1.0914151901832128,23.65478,298.3624,357.8445,0.1854223,-0.4980483,0.0891789,20.7399995364249,19
-11.75579,0.8833333,33.33659,-0.5148270942577646,0.1551158520880589,-1.2682651057664105,31.51656,297.4807,356.8448,0.2458139,-0.4928335,0.1182245,20.7599995359778,19
-12.51176,0.2833335,33.63375,-0.5955050606546592,0.13887683892111,-1.420102694212467,7.740614,304.216,0.7787492,0.05648378,-0.4671341,0.03756803,20.7799995355308,19
-12.63098,0.4833333,33.69872,-0.6183626739465993,0.1686014767297889,-1.5391921413121068,15.48318,303.9505,1.528597,0.1126897,-0.4671154,0.07495388,20.7999995350838,19
-12.75018,0.6833332,33.76366,-0.6235973294923021,0.190972997645848,-1.6094994746954825,23.22624,303.7824,2.276117,0.1683583,-0.4649382,0.1119846,20.8199995346367,19
-13.40587,0.2833333,34.01693,-1.2251279478353148,-0.4876388683777831,-1.3866360942200018,7.448266,296.9114,0.6281163,0.0524926,-0.5223482,0.03864145,20.8399995341897,19
-13.52666,0.4833333,34.06613,-1.0137966919656414,-0.2430132965815714,-1.4269299853613688,14.89789,296.6131,1.231696,0.1047036,-0.522096,0.0771753,20.8599995337427,19
-13.64741,0.6833335,34.11533,-0.7433114723333922,0.0188268983352954,-1.428876915076735,22.34742,296.3874,1.823362,0.1564367,-0.5196136,0.1153865,20.8799995332956,19
-13.76811,0.8833334,34.16453,-0.4520968067863364,0.2456113567340413,-1.377489367314567,29.7964,296.2366,2.422591,0.2074775,-0.5149133,0.1531097,20.8999995328486,19
-14.35261,0.2833333,34.37258,-0.6771760027607066,-0.4686829474317535,-1.1009631196602712,7.654865,289.7834,0.6805447,0.05119835,-0.5741551,0.04323729,20.9199995324016,19
-14.48226,0.4833336,34.40693,-0.3883133653980017,-0.2597396813589948,-1.0028002028245666,15.31287,289.5005,1.336811,0.1021235,-0.5732268,0.08633061,20.9399995319545,19
-14.61188,0.6833335,34.44127,-0.0907914283211646,-0.0335822158183501,-0.8650581509965534,22.97138,289.2994,1.983163,0.1525745,-0.5697131,0.1290224,20.9599995315075,19
-14.74147,0.8833337,34.4756,-0.3584052256541739,-0.4827949419538005,-0.4998111900931263,30.62931,289.1848,2.643481,0.2023237,-0.5636322,0.1711204,20.9799995310605,19
-15.48862,0.2833331,34.75302,-0.063658172406054,-0.2222085786421463,-0.3471004570337328,8.125402,286.1945,0.5253493,0.05390761,-0.5992032,0.04619774,20.9999995306134,19
-15.62731,0.4833325,34.7842,0.2335781375026862,0.0555930838225532,-0.1804242974551968,16.2531,285.8856,1.01361,0.1075289,-0.5975357,0.09216991,21.0199995301664,19
-15.76535,0.6833323,34.81524,0.4936439949052342,0.2983386264517997,0.0153729503262525,24.34666,285.6419,1.479206,0.1603716,-0.5928392,0.137473,21.0399995297194,19
-16.40954,0.2833335,35.05816,-0.0264233452382747,-0.399995677139021,0.4953582100325064,8.081047,281.5429,359.5047,0.05730814,-0.6306018,0.04122096,21.0599995292723,19
-16.54582,0.4833333,35.09542,0.1910946976829528,-0.1750934126047586,0.6617494690033183,16.15541,281.0215,358.9305,0.1143142,-0.628584,0.08222331,21.0799995288253,19
-16.68207,0.683333,35.13267,0.4088188424933854,0.0670234996173173,0.8060462733564648,24.22139,280.3845,358.2455,0.1707332,-0.6234241,0.1228023,21.0999995283782,19
-17.36493,0.2833336,35.39636,-0.0190264959321559,-0.3662295071586912,1.15389338026867,7.721778,278.8268,358.5346,0.05943191,-0.6484131,0.03411444,21.1199995279312,19
-17.49386,0.4833336,35.443,0.1986169997826365,-0.0896843806029863,1.1936925045628684,15.42535,278.1107,356.9589,0.1185678,-0.6464826,0.06805557,21.1399995274842,19
-17.62275,0.6833334,35.48964,0.4317730953124652,0.2040745885870165,1.1750939737135866,23.10309,277.1313,355.2034,0.1771295,-0.6415069,0.1016642,21.1599995270371,19
-17.75161,0.8833333,35.53627,0.6406319944600476,0.4627773540473399,1.113187362012212,30.74395,275.8113,353.1729,0.2348417,-0.6335123,0.1347822,21.1799995265901,19
-17.88042,0.9766698,35.58289,0.2766778235319798,-0.2195966251524752,1.22199557615415,38.33101,274.0222,350.7247,0.2914342,-0.6225392,0.1672539,21.1999995261431,19
-18.58022,0.2833329,35.87312,0.4437784809213347,0.0212678100555722,1.0903880652251488,7.135327,284.7859,358.5749,0.05686798,-0.6083997,0.02813764,21.219999525696,19
-18.6938,0.4833329,35.92966,0.5899375715533175,0.2793458129548493,0.9109082007103808,14.25014,284.1051,357.0491,0.1134903,-0.6074689,0.05610136,21.239999525249,19
-18.80736,0.6833327,35.98618,0.1371954935901733,-0.1379483390165379,0.920924169361939,21.34032,283.1937,355.3686,0.1696455,-0.6040886,0.08380562,21.259999524802,19
-19.41447,0.2833333,36.24483,-0.3452222979094586,-0.5657311386966463,0.8921216265741805,7.272586,289.2786,358.3698,0.05993352,-0.5767623,0.02512259,21.2799995243549,19
-19.5245,0.4833338,36.31419,-0.1286644439985238,-0.0990266276614589,0.5755526390370775,14.52488,288.5518,356.6235,0.1196474,-0.5759238,0.05005321,21.2999995239079,19
-19.63449,0.6833335,36.38353,-0.5152265405351493,-0.2831237700307464,0.4705644347567812,21.74869,287.5578,354.7052,0.1788377,-0.572643,0.07476421,21.3199995234609,19
-20.28216,0.2833327,36.66663,-0.8811933104069851,-0.4520970075115152,0.3353604228181268,7.655785,294.1303,358.5602,0.0628421,-0.5417251,0.02577163,21.3399995230138,19
-20.39349,0.4833328,36.74467,-0.6245195117146913,0.0599798461327063,-0.0417662827262432,15.29619,293.4263,357.0099,0.1254071,-0.5408607,0.05140208,21.3599995225668,19
