pX,pY,pZ,aX,aY,aZ,reX,reY,reZ,rtX,rtY,rtZ,t,ID
-41.00041,0.23,-35.99972,4.2284657288345855,-0.2353323640923739,5.146276699374461,0.01571869,0.009938118,0.02319537,0.000137189,8.669867e-05,0.0002024059,0.519999988377094,3
-41.00082,0.43,-35.99944,4.621913232654677,-0.2878007560935898,5.498258998825435,0.03147227,0.009947657,0.04642678,0.0002746825,8.66984e-05,0.0004051263,0.539999987930059,3
-41.00122,0.63,-35.99917,4.956786659529051,-0.1319539999165181,5.786522423208204,0.04728085,0.009963716,0.06983496,0.0004126561,8.669835e-05,0.0006093889,0.559999987483025,3
-41.00159,0.2833333,-35.99886,5.336063897274634,-0.4323936454699574,6.085387185368518,0.02343451,3.899813,0.03417749,0.0002145345,0.03402566,0.0002911238,0.57999998703599,3
-41.00216,0.4833333,-35.99841,5.646899241571994,-0.4952109529444732,6.312281286985957,0.04688318,3.899834,0.06828668,0.0004291724,0.03402565,0.0005816475,0.599999986588955,3
-40.99138,0.2833333,-35.97272,5.890641812620757,-0.3457398714494675,6.46913435622524,0.7556822,8.498449,0.4394925,0.006860516,0.07406761,0.003336043,0.61999998614192,3
-40.99708,0.4833333,-35.95839,6.227190266545136,-0.6485840655857636,6.681258927388981,1.511268,8.507151,0.8792175,0.01372023,0.07406119,0.006672618,0.639999985694885,3
-41.00277,0.6833333,-35.94407,6.481755314625247,-0.7098337818438233,6.811340347475166,2.268816,8.521695,1.320216,0.02059763,0.07405034,0.01001588,0.65999998524785,3
-40.96315,0.2833333,-35.90455,6.6570353105132725,-0.5548225979508192,6.86286830263397,1.37809,13.7803,0.117262,0.0120617,0.1199452,-0.0004268487,0.679999984800816,3
-40.95932,0.4833333,-35.88056,6.85113599578014,-0.8481540610730828,6.9062066219965175,2.756174,13.78452,0.2343882,0.02412137,0.1199189,-0.0008559866,0.699999984353781,3
-40.95551,0.6833332,-35.85659,6.9615288699109215,-0.8959184203146058,6.868427222863936,4.136729,13.79145,0.3497061,0.03619685,0.1198747,-0.00130557,0.719999983906746,3
-40.89563,0.2833332,-35.80332,7.109363919750827,-1.1503248429707558,6.8449773581574505,2.570157,19.38819,0.04682472,0.02217552,0.1683364,-0.003373741,0.739999983459711,3
-40.88141,0.4833331,-35.76051,7.16749976044413,-1.157561186855192,6.737851610906379,5.141642,19.39126,0.0924473,0.04434927,0.168209,-0.006759658,0.759999983012676,3
-40.7968,0.2833332,-35.67593,7.140646717340125,-0.9429614683320796,6.552846845575061,3.7082,25.14039,0.09487785,0.03175905,0.2174954,-0.006233789,0.779999982565641,3
-40.77065,0.4833335,-35.61633,7.127338714893824,-1.171127807233391,6.36539339685152,7.419768,25.14956,0.1894713,0.0635115,0.2171527,-0.01247662,0.799999982118607,3
-40.7445,0.6833333,-35.55677,7.027999048693452,-1.1481519680733463,6.102777709066931,11.13329,25.16505,0.2855516,0.09521382,0.2165817,-0.01871114,0.819999981671572,3
-40.64856,0.2833338,-35.48237,6.965177624042369,-1.3262437148155883,5.862958730677221,4.872338,30.63155,0.2074066,0.04147432,0.2638252,-0.009483448,0.839999981224537,3
-40.60815,0.483334,-35.40707,6.814075952604519,-1.2515899326060436,5.550260577395594,9.747581,30.65814,0.4162531,0.08289479,0.2631072,-0.01896979,0.859999980777502,3
-40.49641,0.2833335,-35.32075,6.5815917426651325,-0.9495240924528544,5.172569820396113,3.621258,35.72132,0.1925156,0.03058837,0.3064991,-0.008092386,0.879999980330467,3
-40.46221,0.4833339,-35.26754,6.367763796392154,-1.0846494341715456,4.807789679021756,7.240911,35.73964,0.385974,0.06113154,0.3060387,-0.01617747,0.899999979883432,3
-40.42803,0.6833339,-35.21433,6.075926007575646,-0.9630566844446596,4.38489477940729,10.85916,35.77025,0.5805563,0.09159736,0.3052715,-0.02425922,0.919999979436398,3
-40.30982,0.2833335,-35.13451,5.8304772736554185,-1.036955648268217,4.003754401630619,3.659495,40.05692,0.205749,0.03061324,0.3422578,-0.009249431,0.939999978989363,3
-40.27143,0.4833335,-35.08335,5.509277586233203,-0.852533570409497,3.571259415246928,7.317916,40.07675,0.4130709,0.06118641,0.3417327,-0.01848728,0.959999978542328,3
-40.12823,0.2833333,-34.91086,5.120165497275636,-0.4351247751061761,3.098494181432205,3.752133,43.54649,0.463466,0.03190134,0.3706094,-0.008389489,0.979999978095293,3
-40.08837,0.4833335,-34.86166,4.768186238228118,-0.449330798415354,2.666212345620845,7.369028,43.63357,0.7602447,0.06211908,0.3704677,-0.01773557,0.999999977648258,3
-39.92868,0.2833333,-34.72367,4.357415090872067,-0.2012433140747362,2.204842796349769,3.553497,46.54673,0.3333512,0.029631,0.394844,-0.009579611,1.01999997720122,3
-39.88762,0.4833332,-34.67684,4.0134389924500695,-0.14307232771212,1.8152280825396647,7.105545,46.63646,0.6727076,0.05922464,0.3947361,-0.0191482,1.03999997675419,3
-39.84657,0.6833328,-34.63002,3.617185840971814,-0.0611007644569187,1.405788178856792,10.656,46.74836,1.020759,0.08875206,0.3942452,-0.02869683,1.05999997630715,3
-39.70955,0.2833333,-34.51442,3.179939618825351,-0.0083655926523487,0.9881891653762268,3.523748,49.31033,0.4035343,0.02941087,0.4168578,-0.009626711,1.07999997586012,3
-39.66748,0.4833337,-34.46903,2.7132744534849564,0.618357885011584,0.5741927598473424,7.04584,49.40613,0.8134785,0.05878419,0.4167191,-0.01924231,1.09999997541308,3
-39.62542,0.683334,-34.42366,2.361684644847344,0.3317413147259921,0.2771792113218616,10.56613,49.52835,1.233074,0.0880923,0.4161812,-0.02883774,1.11999997496605,3
-39.43501,0.2833333,-34.26292,1.980349341495085,0.5179992797116968,-0.031108989299458,3.474805,51.44787,0.4314868,0.02894741,0.43373,-0.009768621,1.13999997451901,3
-39.39227,0.4833333,-34.21928,1.7082810308618122,0.2711083147625798,-0.2456511167455239,6.947961,51.54552,0.8694661,0.05785898,0.4335775,-0.0195261,1.15999997407198,3
-39.34954,0.6833335,-34.17564,1.4388909758558055,0.016899489665048,-0.4492575404471104,10.41911,51.67078,1.316195,0.08670256,0.4330197,-0.02927126,1.17999997362494,3
-39.21763,0.2833328,-34.06955,1.1316364339808231,0.421299552476825,-0.6609038535441449,3.433856,52.2489,0.3529466,0.02825616,0.4400398,-0.01042855,1.19999997317791,3
-39.17405,0.4833328,-34.028,0.91894065900901,0.1524550070824671,-0.7900905587052591,6.865909,52.33871,0.7108294,0.05647222,0.4398926,-0.02085108,1.21999997273088,3
-39.02045,0.2833335,-33.90148,0.7227335578811847,-0.1237070649742275,-0.8978579181890503,3.402425,52.31025,0.2822393,0.02773266,0.4405417,-0.01087643,1.23999997228384,3
-38.9765,0.4833336,-33.86127,0.5949410824002896,-0.1681365948703653,-0.924720596496826,6.803278,52.39335,0.569245,0.05542871,0.4404061,-0.02174382,1.25999997183681,3
-38.93256,0.6833335,-33.82108,0.4771729301465797,-0.1942712822140981,-0.944956702550474,10.20275,52.49441,0.8637374,0.08306815,0.4398796,-0.03258897,1.27999997138977,3
-38.80093,0.2833338,-33.71586,0.2980167161371412,0.2247649812608174,-1.000640540672066,3.36564,51.62775,0.1881617,0.02715081,0.4352173,-0.01131008,1.29999997094274,3
-38.75694,0.4833335,-33.67682,0.2118636104825171,-0.0294439456771604,-0.9986141423043762,6.729918,51.70206,0.3805306,0.05426737,0.4351032,-0.02260988,1.3199999704957,3
-38.60361,0.2833333,-33.55249,0.138383533400983,-0.2909701955094609,-1.00199110702356,3.329671,50.9073,0.1159063,0.02666723,0.4295726,-0.01157341,1.33999997004867,3
-38.55981,0.4833333,-33.51427,0.1148521005084575,-0.3207647398584078,-0.9400009147201124,6.657967,50.975,0.2356773,0.05330112,0.4294793,-0.02313449,1.35999996960163,3
-38.51603,0.6833336,-33.47606,0.0893420706619636,-0.3322648684439489,-0.9027747383279988,9.985102,51.05027,0.3604173,0.07988191,0.429023,-0.03467254,1.3799999691546,3
-38.38521,0.2833333,-33.37244,-0.0136145778901877,0.1014063487802457,-0.8999413437220163,3.290264,50.02542,0.01839682,0.02608438,0.4226409,-0.01199331,1.39999996870756,3
-38.34144,0.4833333,-33.3353,0.0653713386826027,-0.1381673259436385,-0.7613069727022364,6.579536,50.08439,0.04019551,0.05213949,0.4225698,-0.02397328,1.41999996826053,3
-38.18866,0.2833334,-33.21299,0.151714674275091,-0.3850589603913251,-0.624346165157192,3.256018,49.12263,359.945,0.02564036,0.4155114,-0.01224525,1.43999996781349,3
-38.14502,0.4833334,-33.1763,0.1560749873407303,0.0266586710734582,-0.514244368270095,6.520375,49.16861,359.8979,0.05134478,0.4154043,-0.02446906,1.45999996736646,3
-38.10257,0.6833329,-33.13847,0.2725603768521054,-0.23486803490647,-0.3198114601286406,9.770822,49.49459,359.9479,0.07715257,0.4171312,-0.03606187,1.47999996691942,3
-37.97058,0.2833333,-33.03426,0.2757442019060576,-0.0235206926023474,-0.2632255369349714,3.29464,47.4376,359.8728,0.02587266,0.4021109,-0.01257919,1.49999996647239,3
-37.92683,0.4833332,-32.99675,0.2864096146603714,0.1815540459142523,-0.2061205759375006,6.582875,47.52716,359.7538,0.05168262,0.4024108,-0.02509886,1.51999996602535,3
-37.77499,0.283333,-32.87477,0.2442143301604815,0.1679636513239047,-0.1955262249896918,3.19659,45.8827,359.7731,0.02491424,0.3896871,-0.01269457,1.53999996557832,3
-37.73202,0.483333,-32.83836,0.2033682878247376,0.1758043087479767,-0.1875277861366804,6.396068,45.7787,359.539,0.04983178,0.3885506,-0.02539866,1.55999996513128,3
-37.68916,0.6833332,-32.80193,0.2716899067480725,-0.2751160048056044,-0.1007981886373343,9.601372,45.68317,359.3105,0.07479825,0.3872798,-0.03801173,1.57999996468425,3
-37.64634,0.8833328,-32.76551,0.2340253808505608,-0.0397250748777549,-0.0941144846768153,12.80912,45.5815,359.0803,0.09974609,0.3857622,-0.05056168,1.59999996423721,3
-37.47948,0.2833333,-32.63394,0.3183012334267303,-0.2374822450027004,0.0192183462784001,3.539697,47.16293,359.8097,0.02764165,0.3999082,-0.01387661,1.61999996379018,3
-37.43204,0.4833336,-32.59415,0.4034425729813478,-0.4425573811239145,0.1291087262330243,7.071043,47.16119,359.6254,0.05521235,0.3994599,-0.02765979,1.63999996334314,3
-37.28304,0.2833333,-32.4771,0.3224430469009931,0.0109769563556397,0.1044203370892198,3.548743,48.48974,359.8198,0.02758702,0.4104842,-0.01414831,1.65999996289611,3
-37.2342,0.4833333,-32.4383,0.3342944434827473,-0.2087335680573218,0.1600587869539609,7.122336,48.2782,359.6258,0.05534949,0.4083465,-0.02837559,1.67999996244907,3
-37.18545,0.6833333,-32.39947,0.3455892371621374,-0.4357620995860453,0.21033747607839,10.69601,48.07735,359.4295,0.08310098,0.4059987,-0.04249369,1.69999996200204,3
-37.06034,0.2833333,-32.30069,0.2601718132985979,-0.0041811704074026,0.1875736971269752,3.594326,49.31443,359.8939,0.02811571,0.4170096,-0.01392447,1.719999961555,3
-37.0114,0.4833335,-32.26133,0.3307898428035045,-0.2458445680451241,0.2989188883238611,7.204116,49.09679,359.7775,0.05634231,0.4147511,-0.0278646,1.73999996110797,3
-36.86346,0.2833333,-32.14297,0.2688341839070531,-0.0146343314686346,0.3025971317546698,3.614991,50.20914,0.0354615,0.02869317,0.4240517,-0.01310208,1.75999996066093,3
-36.81539,0.4833333,-32.10247,0.2018977344361587,0.2103032608106613,0.2983342858325883,7.238753,50.00916,0.0639513,0.05744672,0.4218157,-0.02617887,1.7799999602139,3
-36.76719,0.6833335,-32.06192,0.2263799162783542,-0.2636162906383713,0.3688916989283939,10.86538,49.78501,0.07378033,0.08615056,0.4189711,-0.03926945,1.79999995976686,3
-36.64323,0.2833333,-31.96425,0.1503016010624449,-0.0512243199168441,0.3596045297791903,3.565081,50.64673,0.08343943,0.02842842,0.4274989,-0.01264708,1.81999995931983,3
-36.59601,0.4833336,-31.92401,0.1879639315970322,-0.2719808493791397,0.4444058407244391,7.134883,50.43336,0.1540194,0.05686516,0.4251411,-0.02529616,1.8399999588728,3
-36.44651,0.2833332,-31.80609,0.0949649961736653,-0.019862827888973,0.4212532560331006,3.619542,51.28014,0.08181247,0.02878018,0.4324801,-0.01302238,1.85999995842576,3
-36.39806,0.4833332,-31.7656,-0.0010968973790781,0.2259827446216012,0.3900850093438812,7.238079,51.06987,0.1503244,0.05752085,0.4301267,-0.02602817,1.87999995797873,3
-36.34961,0.6833332,-31.72511,-0.089507663717562,0.4132846419552824,0.3589503987507427,10.85587,50.86209,0.2059889,0.08619618,0.4273447,-0.03900467,1.89999995753169,3
-36.14563,0.2833334,-31.56416,-0.1435853935032511,0.3563098699855366,0.3590640262045532,3.648915,51.71055,0.1008551,0.02903405,0.435853,-0.01309265,1.91999995708466,3
-36.09666,0.4833334,-31.52342,-0.1953419277570631,0.3218112991493632,0.3544548704958536,7.297135,51.50282,0.188644,0.05803029,0.4334919,-0.02616821,1.93999995663762,3
-36.04771,0.6833334,-31.48269,-0.2592007310752322,0.3097890366885011,0.335270221309532,10.94459,51.29886,0.2638542,0.08695907,0.4306917,-0.03921347,1.95999995619059,3
-35.90666,0.2833337,-31.37284,-0.3275105804141489,0.3202431765156937,0.3072247651008801,3.615657,52.33161,0.1177983,0.02876747,0.4407215,-0.01298924,1.97999995574355,3
-35.85791,0.4833334,-31.33276,-0.3884550656103016,0.2998583503065462,0.2785428104613778,7.230763,52.12608,0.2228216,0.05749862,0.4383745,-0.02596201,1.99999995529652,3
-35.80917,0.6833335,-31.29269,-0.4509670399209966,0.275290766233728,0.2351226092893306,10.84509,51.92542,0.3156643,0.08616327,0.4355913,-0.03890506,2.01999995484948,3
-35.69207,0.2833333,-31.20314,-0.5079285966773419,0.2731997753235771,0.1906022438136219,3.56414,53.79034,0.1911828,0.02848859,0.4520938,-0.01258024,2.03999995440245,3
-35.6438,0.4833333,-31.16381,-0.6783635398854102,0.7204612980168388,0.0520293778021567,7.127873,53.59223,0.3703754,0.0569411,0.4497634,-0.02514421,2.05999995395541,3
-35.50414,0.283333,-31.05473,-0.6851822935117013,0.498659818411932,0.0242489768173719,3.530235,53.75041,0.2344409,0.02839973,0.4517771,-0.01210004,2.07999995350838,3
-35.45683,0.4833325,-31.0151,-0.6809513500459126,0.2737218572768235,-0.0011477217749984,7.06025,53.5566,0.4572874,0.05676405,0.4494617,-0.02418514,2.09999995306134,3
-35.30056,0.2833333,-30.87726,-0.5290304684857716,-0.4355884077871211,0.0757431216450434,3.49235,53.16288,0.2506382,0.02822909,0.447201,-0.01168003,2.11999995261431,3
-35.25437,0.4833336,-30.83731,-0.5089129817232241,-0.2451488118907049,0.0461358825229467,6.984471,52.97078,0.4899271,0.05642297,0.4449043,-0.02334563,2.13999995216727,3
-35.20818,0.6833335,-30.79737,-0.4834950177307213,-0.0609825128892454,0.016161599631264,10.47558,52.79201,0.7202315,0.08455278,0.4421937,-0.03497761,2.15999995172024,3
-35.07657,0.2833333,-30.67969,-0.5649326145402114,0.5448331795996575,-0.0989919886545287,3.4357,52.39938,0.2672173,0.02792677,0.4412386,-0.01114373,2.1799999512732,3
-35.03186,0.4833334,-30.63949,-0.5009051777309708,0.2414898602109412,-0.1136908057722969,6.870863,52.20914,0.5239066,0.05581853,0.4389694,-0.0222686,2.19999995082617,3
-34.98716,0.6833332,-30.59931,-0.4328691389323325,-0.0649893644252183,-0.1268095017265942,10.30589,52.033,0.7712849,0.08365203,0.4363041,-0.03337029,2.21999995037913,3
-34.80365,0.2833334,-30.43635,-0.326106297366131,-0.1355543320958857,-0.1165584201619083,3.39291,50.43642,0.1718129,0.02742137,0.4258394,-0.01125759,2.2399999499321,3
-34.75986,0.4833336,-30.39641,-0.2212420439724809,-0.1836433287976165,-0.1070092100569546,6.785059,50.23799,0.332323,0.0548085,0.4235986,-0.02249898,2.25999994948506,3
-34.71607,0.6833336,-30.35649,-0.2275585909105615,0.2176203390788275,-0.1847662199728077,10.17678,50.04765,0.4822696,0.08213959,0.4209862,-0.03371766,2.27999994903803,3
-34.59187,0.2833336,-30.2462,-0.1377023610455907,-0.0501792973795311,-0.1966460604431468,3.343184,48.93407,0.118355,0.02697868,0.4139657,-0.01114189,2.29999994859099,3
-34.54918,0.4833333,-30.2064,-0.0448951888299689,-0.3211154778313968,-0.2061664869011039,6.685487,48.73139,0.2253022,0.05392493,0.411752,-0.02226781,2.31999994814396,3
-34.40332,0.2833331,-30.07714,-0.0304989658996746,0.0707394369066351,-0.2737771131545798,3.305876,47.53463,0.03235188,0.02651258,0.4028481,-0.01136702,2.33999994769692,3
-34.36109,0.4833332,-30.03787,0.1493376276637441,-0.2064689830070507,-0.2222820971510763,6.610817,47.32478,0.05265549,0.05299483,0.4006546,-0.02272078,2.35999994724989,3
-34.31886,0.6833332,-29.9986,0.2122791700282036,-0.0066207937458591,-0.25825835412709,9.914615,47.11456,0.06079506,0.07942306,0.3981286,-0.03405197,2.37999994680285,3
-34.27664,0.8833329,-29.95934,0.2753010173736925,0.191136447118558,-0.2911293225435045,13.21752,46.90254,0.05659455,0.1057778,0.3952723,-0.04535179,2.39999994635582,3
-34.12153,0.2833335,-29.8248,0.4283076104318049,-0.3057816515577828,-0.2600294021689784,3.262653,46.20785,359.9292,0.02594252,0.3922572,-0.01173897,2.41999994590878,3
-34.07951,0.4833334,-29.78638,0.4040442418041685,-0.1122059015190151,-0.3617635472057721,6.52409,45.98998,359.8459,0.05185648,0.3900878,-0.02346523,2.43999994546175,3
-33.93854,0.2833335,-29.66933,0.3765609030405201,0.0792786268351461,-0.4604379400399097,3.22044,44.75885,359.8697,0.02555072,0.3806173,-0.01174983,2.45999994501472,3
-33.8973,0.4833336,-29.6307,0.4946515732708398,-0.4239126449420755,-0.4531288625628171,6.445001,44.58192,359.742,0.05116004,0.3788265,-0.02340203,2.47999994456768,3
-33.85653,0.6833337,-29.59104,0.4994557068254579,-0.2366104912213703,-0.5233645068931807,9.683173,44.58384,359.6622,0.07697856,0.3782008,-0.03473346,2.49999994412065,3
-33.73381,0.2833331,-29.49762,0.621290420391599,-0.4782749604923906,-0.5044751340176781,3.216334,43.86547,359.8198,0.02544569,0.3734113,-0.01194075,2.51999994367361,3
-33.69262,0.4833332,-29.45909,0.7309922692007547,-0.7230759972786619,-0.4837890047039082,6.428264,43.82171,359.6427,0.05085576,0.372737,-0.02381064,2.53999994322658,3
-33.6515,0.683333,-29.42047,0.7560626863370672,-0.3050866955782948,-0.5123185297214015,9.646052,43.7899,359.4705,0.07629583,0.3719421,-0.03562522,2.55999994277954,3
-33.4693,0.2833329,-29.28302,0.8863226713179309,-0.5561596475747718,-0.4603928305593783,3.507053,46.22726,359.8272,0.02755203,0.3924141,-0.01339838,2.57999994233251,3
-33.42294,0.4833328,-29.24283,0.9009480570310232,-0.3301766019617489,-0.4804769164434113,7.013087,46.20641,359.6528,0.05507037,0.3918226,-0.02678098,2.59999994188547,3
-33.25834,0.2833336,-29.1169,0.9080410742088496,-0.1062838106797767,-0.4902455931449658,3.482528,48.18205,359.8567,0.02722917,0.4080334,-0.01354434,2.61999994143844,3
-33.21169,0.4833337,-29.07717,0.955021160873322,-0.0968748675379347,-0.4901791921288456,6.988431,48.34388,359.7738,0.05479705,0.408824,-0.0267541,2.6399999409914,3
-33.16514,0.6833333,-29.03726,0.978882281519013,-0.0618537201820408,-0.4910711889856642,10.50133,48.54047,359.7147,0.08240561,0.4095225,-0.0398757,2.65999994054437,3
-33.1186,0.8833333,-28.99738,0.9897155349945734,-0.0545360991713707,-0.4847553825469433,14.01298,48.7348,359.6667,0.1099241,0.4098266,-0.05295703,2.67999994009733,3
-32.94427,0.2833333,-28.86902,0.9934083619075232,-0.0482632275844178,-0.4945776714044996,3.570225,50.91003,359.986,0.02807445,0.4295972,-0.01349918,2.6999999396503,3
-32.89573,0.4833336,-28.82988,0.9821767894527582,-0.016377725952707,-0.5005212941366004,7.148263,51.095,359.9793,0.05616709,0.4304306,-0.02704727,2.71999993920326,3
-32.73762,0.2833335,-28.71063,0.966461615139103,-0.0121957619043879,-0.4945014435259836,3.585589,52.44135,0.09204027,0.0284205,0.4415906,-0.01310246,2.73999993875623,3
-32.68906,0.4833334,-28.67113,0.9504695201878944,-0.0090598759970497,-0.5120929474714409,7.169954,52.63941,0.1967573,0.05680644,0.442415,-0.02618794,2.75999993830919,3
-32.64053,0.6833334,-28.63165,0.9128815183687884,0.0196880417186591,-0.5313848035463451,10.75289,52.84591,0.3150634,0.08512841,0.4428039,-0.03924396,2.77999993786216,3
-32.50619,0.2833331,-28.5337,0.8644863722116725,0.0207326043622945,-0.5444442856845235,3.554605,53.63332,0.1033583,0.02808601,0.4508949,-0.01318734,2.79999993741512,3
-32.45738,0.483333,-28.4954,0.8099282848256557,0.0207325329258811,-0.570472996152894,7.107595,53.83172,0.2186767,0.05613303,0.4517048,-0.02636142,2.81999993696809,3
-32.40858,0.6833333,-28.45711,0.7451447720010798,0.0463453248350995,-0.59191027933905,10.65908,54.03912,0.3475629,0.08411738,0.4520777,-0.03950617,2.83999993652105,3
-32.21677,0.2833333,-28.31758,0.5573766284590604,0.5244467014670336,-0.7083253823904485,3.632807,55.22332,0.1320057,0.02862055,0.4632109,-0.01367051,2.85999993607402,3
-32.16606,0.4833336,-28.27945,0.5204079454851183,0.3366211474428106,-0.7179651076564646,7.264075,55.42422,0.2769783,0.05720379,0.4639582,-0.0273233,2.87999993562698,3
-32.11537,0.6833335,-28.24133,0.4736636425390017,0.1487953169074015,-0.7244361314797558,10.89453,55.63622,0.4357803,0.08572492,0.4642361,-0.04095187,2.89999993517995,3
-31.98903,0.2833337,-28.15362,0.5616042788805409,-0.520267026084956,-0.632651231743317,3.635581,56.07162,0.1270402,0.02851957,0.4697554,-0.0139316,2.91999993473291,3
-31.93769,0.4833339,-28.1163,0.5103206972329808,-0.2864434786398505,-0.6465879181741059,7.26966,56.27148,0.2669746,0.05700202,0.4704819,-0.02784528,2.93999993428588,3
-31.88635,0.6833336,-28.07899,0.4522851550045565,-0.0557563880706734,-0.655853621552783,10.90224,56.48222,0.4211824,0.08541925,0.4707323,-0.04172707,2.95999993383884,3
-31.7037,0.2833334,-27.95237,0.2805206320690416,0.5997163352421722,-0.7470878859406334,3.588177,58.33337,0.2063104,0.02821495,0.4870632,-0.01368647,2.97999993339181,3
-31.65236,0.4833333,-27.91636,0.2593858820877344,0.3491657918898496,-0.7344066421804278,7.174567,58.53997,0.4258608,0.05639362,0.4877614,-0.02735588,2.99999993294477,3
-31.48584,0.2833333,-27.80137,0.2377866647519901,0.0986152192660215,-0.7172459956287156,3.540137,59.86403,0.2748862,0.02796493,0.4986683,-0.01333463,3.01999993249774,3
-31.43489,0.4833331,-27.76615,0.259425633837381,0.0871163761003081,-0.6697148554513888,7.078255,60.07636,0.5633474,0.05589486,0.4993536,-0.0266526,3.0399999320507,3
-31.38395,0.6833327,-27.73094,0.2819547180399979,0.1012299641770488,-0.617219311515445,10.61421,60.30864,0.8677946,0.08376282,0.4995574,-0.03994127,3.05999993160367,3
-31.23268,0.2833333,-27.63214,0.3172891101421413,0.0876402694021867,-0.5524474114635822,3.486998,60.73975,0.2984744,0.02756633,0.5052761,-0.01313605,3.07999993115664,3
-31.18221,0.4833331,-27.59779,0.2079539479204868,0.7133195867314475,-0.5866489266124972,6.971925,60.95327,0.6104165,0.05509904,0.5059622,-0.02625616,3.0999999307096,3
-31.13175,0.683333,-27.56344,0.2431592317757633,0.4340211340267046,-0.5235533516627022,10.45424,61.18782,0.9381122,0.08256847,0.5061744,-0.0393482,3.11999993026257,3
-30.92326,0.2833334,-27.42673,0.1428174956617809,0.6359589891397234,-0.5562041913890141,3.434938,61.03008,0.3118736,0.02720112,0.5074643,-0.01287455,3.13999992981553,3
-30.87352,0.4833334,-27.39286,0.1584211769020207,0.4131123090162945,-0.5099708940061944,6.8674,61.2438,0.6370087,0.05436686,0.5081616,-0.02573238,3.1599999293685,3
-30.8238,0.6833332,-27.359,0.1717944042771044,0.1913116427410721,-0.4627383493192951,10.29762,61.47905,0.9780401,0.08147597,0.5083966,-0.03856292,3.17999992892146,3
-30.68197,0.2833336,-27.26719,0.1940412710934786,-0.0838050412329556,-0.4076206099158845,3.393522,60.33192,0.2295701,0.02660601,0.5022338,-0.01314775,3.19999992847443,3
-30.63256,0.4833338,-27.23433,0.0828701059655792,0.4937852596188865,-0.4439919363855544,6.784939,60.53733,0.4713117,0.05317699,0.5029576,-0.02628129,3.21999992802739,3
-30.58317,0.6833335,-27.20147,0.1052235262886966,0.1663969959244348,-0.3885829106561758,10.17453,60.75889,0.7275021,0.07969411,0.5032364,-0.03938778,3.23999992758036,3
-30.38351,0.2833331,-27.07135,0.0019689878984436,0.320246309960645,-0.4219078836062344,3.350702,58.88368,0.1409353,0.02606477,0.491298,-0.01330016,3.25999992713332,3
-30.33479,0.4833328,-27.03896,0.0061927877231369,0.0493104275380064,-0.3845819314547185,6.699617,59.08046,0.2935875,0.05209715,0.4920603,-0.02658366,3.27999992668629,3
-30.28608,0.6833328,-27.00657,0.0101821280165346,-0.2205797287857754,-0.3469694408853101,10.04697,59.2878,0.4591671,0.078077,0.4923992,-0.03984038,3.29999992623925,3
-30.15271,0.2833335,-26.92039,-0.0781777268107717,0.1765025900924339,-0.3727025701310467,3.307704,57.80716,0.05236829,0.02548683,0.4831241,-0.01354976,3.31999992579222,3
-30.10441,0.4833335,-26.8888,0.0134380689995836,-0.0912966295954459,-0.2812014646091292,6.614279,57.99548,0.1156489,0.05094494,0.4839167,-0.02708466,3.33999992534518,3
-30.05612,0.6833332,-26.85721,0.1057702413460468,-0.3580509583806642,-0.18934419630272,9.919401,58.1889,0.1903083,0.0763505,0.4843039,-0.040593,3.35999992489815,3
-29.8649,0.2833331,-26.73348,0.0383037511213864,0.0421669110022179,-0.2118549945261882,3.263817,56.26266,359.9393,0.02486449,0.4713162,-0.01389431,3.37999992445111,3
-29.81701,0.4833328,-26.70266,0.0673555895635722,-0.2224968787517137,-0.172360955981933,6.526847,56.44064,359.8886,0.04970133,0.4721451,-0.02777343,3.39999992400408,3
-29.64456,0.2833333,-26.59014,0.0961149568807755,-0.4861151419931537,-0.1346440724216115,3.220807,54.35738,359.8728,0.02449344,0.4566141,-0.01382344,3.41999992355704,3
-29.59766,0.4833333,-26.55912,0.0444549401890554,-0.0827615862892995,-0.1515959765504568,6.441042,54.52942,359.7552,0.04896041,0.4574842,-0.02763158,3.43999992311001,3
-29.55077,0.683333,-26.5281,0.1616092794283226,-0.3442892978674037,-0.0595766695534116,9.660701,54.69593,359.6465,0.07338163,0.4579903,-0.04141397,3.45999992266297,3
-29.50389,0.8833334,-26.4971,0.2792615653063457,-0.6047711049298544,0.0313690527122823,12.87936,54.85796,359.5465,0.09773637,0.4581327,-0.05515525,3.47999992221594,3
-29.31974,0.2833331,-26.37718,0.2508724302619285,-0.1982806868177568,0.0210430151855263,3.28161,53.08958,359.8064,0.02486048,0.4467567,-0.01430681,3.4999999217689,3
-29.27197,0.4833332,-26.34541,0.312883661459761,-0.4566717264266369,0.0703973519854734,6.562785,53.25497,359.6221,0.04969293,0.4476195,-0.02859743,3.51999992132187,3
-29.10246,0.2833336,-26.23588,0.2404739370473976,-0.2338253727327613,0.0264690985360189,3.527585,54.14353,359.8008,0.02661616,0.4549375,-0.01555475,3.53999992087483,3
-29.05053,0.4833336,-26.20253,0.1673895131472349,-0.0088877191226949,-0.0189243331472965,7.054845,54.30691,359.6114,0.05320023,0.4556937,-0.03109065,3.5599999204278,3
-28.99862,0.6833335,-26.1692,0.2534168384459221,-0.4744434640912254,0.0397887834490973,10.58316,54.45977,359.43,0.07973639,0.456014,-0.04660192,3.57999991998076,3
-28.94674,0.8833336,-26.13588,0.2200946793935578,-0.2453242992699964,0.022371279437376,14.11196,54.603,359.2558,0.1061969,0.4558984,-0.06206892,3.59999991953373,3
-28.76958,0.2833331,-26.02214,0.318852818353033,-0.440990084277761,0.0911612250236508,3.560026,56.0393,359.8599,0.02684717,0.4695809,-0.0156708,3.61999991908669,3
-28.71674,0.4833328,-25.98939,0.4107553877987939,-0.6356097877469582,0.1556759888392207,7.119689,56.20731,359.7296,0.05366079,0.4702871,-0.03132639,3.63999991863966,3
-28.55601,0.2833336,-25.88547,0.3177212133161227,-0.1632578440667222,0.1003582884644345,3.590303,57.09493,359.954,0.02732573,0.4776631,-0.01532301,3.65999991819263,3
-28.50303,0.4833338,-25.85202,0.2200576979825541,0.284527074399943,0.0418233970041228,7.179946,57.27145,359.9192,0.05461961,0.4783374,-0.03062576,3.67999991774559,3
-28.45006,0.6833338,-25.81859,0.2708781887332243,-0.1972332580058842,0.0797427243866586,10.76869,57.44733,359.8954,0.08185251,0.4785402,-0.04589368,3.69999991729856,3
-28.39711,0.883334,-25.78516,0.2106054671627326,0.0167269168042455,0.0470207183128899,14.35642,57.62395,359.8825,0.1089967,0.4782716,-0.0611123,3.71999991685152,3
-28.22941,0.2833333,-25.67526,0.1491150683907314,0.2338230578441194,0.0137458815276296,3.57516,58.27704,0.07714175,0.02757395,0.4866673,-0.0146014,3.73999991640449,3
-28.17712,0.4833333,-25.64123,0.2577275206284888,-0.2385288833968245,0.0913759350003537,7.148935,58.46446,0.1665168,0.05511407,0.487321,-0.02918095,3.75999991595745,3
-28.02571,0.2833333,-25.54345,0.1872296523954766,-0.015159521776993,0.0530699536818595,3.576325,58.83654,0.08551724,0.02754707,0.4909219,-0.01467721,3.77999991551042,3
-27.97313,0.4833336,-25.5098,0.110161097832826,0.2113464708668014,0.0103929961063578,7.15133,59.02434,0.1827014,0.05505843,0.4915623,-0.02933748,3.79999991506338,3
-27.92057,0.6833336,-25.47616,0.1283209481299252,-0.2515959492071841,0.0290167300701931,10.72501,59.21996,0.2927224,0.08250855,0.4917217,-0.04396507,3.81999991461635,3
-27.70816,0.2833333,-25.33895,0.0500110813675931,-0.0188181673251981,-0.0146852354766444,3.648908,59.51506,0.1166366,0.02814399,0.4960507,-0.01491866,3.83999991416931,3
-27.65437,0.4833331,-25.30481,-0.0224081475722819,0.2170957295833513,-0.0549800936230973,7.296414,59.70555,0.2456412,0.05625168,0.4966449,-0.02981791,3.85999991372228,3
-27.60059,0.6833331,-25.27068,0.0742132586099337,-0.2364382926176971,0.0154381230104014,10.94239,59.90615,0.3882417,0.08429389,0.4967332,-0.04468258,3.87999991327524,3
-27.45729,0.2833331,-25.17858,0.0091051456985304,0.005748672589288,-0.018254338008802,3.624045,60.11712,0.1202734,0.02789341,0.5006054,-0.01493024,3.89999991282821,3
-27.40356,0.4833331,-25.14518,0.0803762695325929,-0.1758037403062065,0.0381484727525958,7.246587,60.30731,0.2527916,0.05575041,0.5011949,-0.02984102,3.91999991238117,3
-27.34985,0.683333,-25.11179,4.636398547930298e-05,0.124926111140908,-0.0035890001756548,10.86761,60.50777,0.3988298,0.08354342,0.5012807,-0.04471757,3.93999991193414,3
-27.1472,0.2833333,-24.98152,-0.0859342401575418,0.4287924280885904,-0.0489748613417155,3.573269,61.86341,0.2105162,0.02768734,0.5137161,-0.0144507,3.9599999114871,3
-27.09401,0.4833335,-24.9488,-0.1655880349120302,0.683524679537796,-0.0905382385067561,7.144744,62.06137,0.4337313,0.05533926,0.5142896,-0.02888297,3.97999991104007,3
-27.04084,0.6833334,-24.91609,-0.0776460134010186,-0.0169003857568359,-0.0246168830269795,10.71438,62.27523,0.6716332,0.08292931,0.5143595,-0.04328273,3.99999991059303,3
-26.90721,0.2833332,-24.82946,-0.1379379966675102,0.1918338984938766,-0.056016174238497,3.519727,62.58205,0.2570047,0.02740768,0.5190801,-0.01403493,4.019999910146,3
-26.85482,0.4833331,-24.79712,-0.0637041783215828,-0.023171812324562,-0.0027728827273882,7.037511,62.78345,0.5268366,0.05478123,0.519658,-0.02805205,4.03999990969896,3
-26.80245,0.6833333,-24.76479,-0.1295473283538299,0.2441050035977464,-0.0418680795869654,10.5532,63.00341,0.8117239,0.08209439,0.5197412,-0.04203812,4.05999990925193,3
-26.61015,0.2833333,-24.63981,-0.1993214324802288,0.5145178809693106,-0.0850227725236294,3.464464,62.54646,0.2928945,0.02716255,0.5188149,-0.01350858,4.07999990880489,3
-26.55892,0.4833333,-24.60732,-0.2623124576277043,0.7357965145127144,-0.1252360973311503,6.926568,62.75021,0.5988582,0.05429092,0.5194113,-0.02699709,4.09999990835786,3
-26.38308,0.2833334,-24.49363,-0.1739017174245312,0.0019178915105301,-0.0680104523561944,3.41686,62.08042,0.2720718,0.02676786,0.5153482,-0.01333949,4.11999990791082,3
-26.33268,0.4833339,-24.46144,-0.2225278645452206,0.1771985170844186,-0.1007226489911019,6.831366,62.28153,0.556608,0.053501,0.51597,-0.0266608,4.13999990746379,3
-26.28229,0.6833339,-24.42927,-0.149473705290827,-0.0712603280501554,-0.0523047477231308,10.24391,62.50148,0.85578,0.08017914,0.5161283,-0.0399547,4.15999990701675,3
-26.23192,0.8833341,-24.3971,-0.203529612123912,0.162563184809272,-0.0863971132615546,13.65422,62.74234,1.17212,0.1067776,0.5158236,-0.05320877,4.17999990656972,3
-26.04833,0.2833333,-24.27797,-0.2592813758192456,0.3995228566896398,-0.1210409679006865,3.376808,60.52514,0.1777372,0.02623005,0.5037046,-0.01350964,4.19999990612268,3
-25.99861,0.4833333,-24.24621,-0.1287327354633198,-0.052966598860366,-0.034123614602354,6.751718,60.71684,0.3670318,0.05242712,0.5043653,-0.0270022,4.21999990567565,3
-25.94891,0.6833333,-24.21445,-0.0006936649730207,-0.5300233804409276,0.0515848516578785,10.125,60.92135,0.5694018,0.07857114,0.5045851,-0.04046723,4.23999990522861,3
-25.74926,0.2833334,-24.08497,-0.0015718188470721,-0.126669395334544,0.0516488830759485,3.327603,58.77648,0.07829746,0.02563354,0.4905006,-0.01365297,4.25999990478158,3
-25.70037,0.4833333,-24.05363,0.1102789243529116,-0.3881966006724141,0.1232495378516027,6.653594,58.95868,0.1673071,0.05123509,0.4912061,-0.0272887,4.27999990433455,3
-25.65149,0.6833333,-24.0223,0.1077173627180734,-0.1684862916141031,0.1193893232286917,9.978339,59.1475,0.2677745,0.07678614,0.4914954,-0.04089745,4.29999990388751,3
-25.51798,0.2833333,-23.93625,0.1068435124521514,0.0533147192111304,0.1154180946791676,3.28424,57.57383,359.9779,0.02502224,0.4813606,-0.01396846,4.31999990344048,3
-25.46946,0.4833333,-23.90578,0.2875633562677144,-0.4153783215755814,0.2280546035643311,6.567569,57.74671,359.9657,0.05001659,0.4820973,-0.02792127,4.33999990299344,3
-25.42094,0.6833332,-23.87532,0.2793480556336263,-0.1893955891502426,0.2167028437021585,9.849671,57.92011,359.9632,0.07495927,0.4824363,-0.04184765,4.35999990254641,3
-25.2304,0.2833334,-23.75132,0.2619238174333027,0.038678123556903,0.1982355032101033,3.239096,55.4583,359.8918,0.02457757,0.46513,-0.01398617,4.37999990209937,3
-25.18283,0.4833333,-23.72075,0.2457419978259452,0.2165720715860448,0.179552145977329,6.477552,55.62332,359.7927,0.04912831,0.465911,-0.02795701,4.39999990165234,3
-25.01026,0.2833334,-23.6082,0.2639656617471075,0.1585522373533663,0.1829924451739728,3.208551,53.40847,359.8131,0.02427736,0.4492491,-0.01403761,4.4199999012053,3
-24.96343,0.4833333,-23.57738,0.2759642173377266,0.1313719330690986,0.181680576449672,6.416669,53.56657,359.6348,0.04852841,0.4500678,-0.02805999,4.43999990075827,3
-24.91661,0.6833335,-23.54655,0.4063357650859522,-0.3451611027867598,0.2577681609755267,9.624275,53.71564,359.4642,0.072734,0.4505306,-0.04205562,4.45999990031123,3
-24.8698,0.8833334,-23.51575,0.3586622050958929,-0.1259733356624915,0.2179567705267189,12.83101,53.85653,359.3008,0.09687472,0.4506381,-0.05600831,4.4799998998642,3
-24.68311,0.2833336,-23.39487,0.3030802161318711,0.0963505744530808,0.1735330184424519,3.452692,53.9806,359.8049,0.02607214,0.4536787,-0.01518899,4.49999989941716,3
-24.63239,0.4833336,-23.3621,0.4274951954762969,-0.3707738862455723,0.2476528173053402,6.905023,54.13618,359.6188,0.0521137,0.454399,-0.03036025,4.51999989897013,3
-24.46375,0.2833336,-23.25368,0.4462228432842501,-0.1421771325077909,0.2527991748322904,3.493041,55.25537,359.832,0.02632325,0.4635479,-0.0154314,4.53999989852309,3
-24.412,0.4833337,-23.22126,0.4572872632466911,0.089556016600913,0.2544427350140203,6.985955,55.41288,359.673,0.05261603,0.4642298,-0.03084859,4.55999989807606,3
-24.36028,0.6833336,-23.18885,0.5773439767883737,-0.368159724325362,0.3297220339614313,10.47994,55.56184,359.5222,0.07886481,0.464477,-0.04623976,4.57999989762902,3
-24.30857,0.8833336,-23.15645,0.5307999484367407,-0.1301544504015662,0.2968912877297107,13.9733,55.70314,359.3788,0.1050325,0.4642898,-0.0615834,4.59999989718199,3
-24.13141,0.2833336,-23.04206,0.4795517887955611,0.11098721784774,0.26204492828602,3.555004,56.80619,359.8997,0.02686819,0.4754666,-0.01552414,4.61999989673495,3
-24.07858,0.4833333,-23.00949,0.4541313071050048,0.1428724971554,0.2448978285171748,7.109818,56.96913,359.8091,0.05370619,0.4760944,-0.03103264,4.63999989628792,3
-23.91742,0.2833333,-22.90421,0.4095540364288723,0.2055965984069326,0.2159302850411073,3.5939,57.77734,0.0408569,0.02762758,0.4828618,-0.0148371,4.65999989584088,3
-23.8648,0.4833336,-22.87008,0.3575545312567385,0.2458441213929054,0.1827757924748709,7.186911,57.9533,0.0934711,0.05522487,0.4834557,-0.02965165,4.67999989539385,3
-23.8122,0.6833338,-22.83595,0.4070048106427357,-0.4300147560622933,0.2170988714886839,10.77873,58.13418,0.1578253,0.08276005,0.4835722,-0.04443263,4.69999989494681,3
-23.59324,0.2833333,-22.69375,0.2999826636125924,-0.1977590383615684,0.1501325319775475,3.562033,58.66687,0.0934331,0.02749391,0.4896324,-0.01451515,4.71999989449978,3
-23.54105,0.4833334,-22.65996,0.1910555688268829,0.0365874075027014,0.0826712949427275,7.122507,58.84712,0.19822,0.05495147,0.4902191,-0.02901122,4.73999989405274,3
-23.48888,0.6833332,-22.62618,0.2525069127896806,-0.4195599184233195,0.1264914616161405,10.68165,59.03559,0.3153824,0.08234828,0.4903301,-0.04347517,4.75999989360571,3
-23.33586,0.2833333,-22.52745,0.1357091457872918,-0.1810318038393111,0.0544041767747067,3.637033,59.38316,0.1084551,0.02803582,0.4950552,-0.01489694,4.77999989315867,3
-23.28225,0.4833333,-22.49342,0.0134204451111337,0.0595868244247695,-0.0211505182528242,7.272678,59.56458,0.2286218,0.05603532,0.4955949,-0.02977464,4.79999989271164,3
-23.22865,0.6833335,-22.4594,-0.012632205266911,-0.390287961570912,-0.0334733254598837,10.90751,59.75539,0.3614451,0.08397406,0.4956328,-0.04462252,4.8199998922646,3
-23.01647,0.2833334,-22.32251,-0.13335952377059,-0.145487189622071,-0.1071042988942636,3.641438,59.78271,0.1158237,0.02804905,0.4980772,-0.01495803,4.83999989181757,3
-22.96263,0.4833333,-22.28871,-0.2460799007457801,0.101404200635051,-0.1748627375382732,7.281463,59.96434,0.2434307,0.05606182,0.4986039,-0.02989647,4.85999989137053,3
-22.9088,0.6833332,-22.25492,-0.1870163624132708,-0.3421979444610199,-0.1285960479887506,10.92,60.1559,0.3840343,0.08400971,0.4986251,-0.04480028,4.8799998909235,3
-22.85499,0.8833331,-22.22113,-0.2857626098237311,-0.0911247589023228,-0.1846811148167013,14.5571,60.35923,0.5390377,0.1118649,0.4981409,-0.05965595,4.89999989047647,3
-22.67921,0.2833336,-22.10765,-0.3775095001619242,0.1620392573573049,-0.2355834873767968,3.590399,61.51814,0.1929086,0.02778061,0.5111321,-0.01457561,4.91999989002943,3
-22.62581,0.4833335,-22.07475,-0.4276492019061528,0.2049014544277163,-0.259536987499672,7.179157,61.70618,0.3979439,0.055526,0.5116428,-0.02913269,4.9399998895824,3
-22.4657,0.2833331,-21.97164,-0.4809822506555044,0.2775579769206038,-0.2860394084970892,3.543914,62.3224,0.2482896,0.02758061,0.5171416,-0.01414703,4.95999988913536,3
-22.41302,0.4833332,-21.93901,-0.5252817382299462,0.3266924150209548,-0.3074067624052716,7.085907,62.515,0.5089107,0.0551261,0.5176538,-0.02827597,4.97999988868833,3
-22.36034,0.6833333,-21.90639,-0.4462379233164419,-0.3413248096918706,-0.2508750873260048,10.62591,62.72568,0.7840656,0.08261035,0.5176668,-0.04237348,4.99999988824129,3
-22.14157,0.2833333,-21.76512,-0.5105633545049884,-0.1022739779803733,-0.2887430850330865,3.481847,62.58273,0.2877832,0.02726468,0.5190837,-0.01363404,5.01999988779426,3
-22.09002,0.4833333,-21.73261,-0.5620341082636564,0.1378221093079556,-0.3197825806571615,6.961722,62.778,0.5879186,0.05449611,0.5196122,-0.02725119,5.03999988734722,3
-22.03847,0.6833333,-21.70011,-0.5707046243657565,0.1665709212855774,-0.3238238691609894,10.43905,62.99348,0.9029754,0.0816664,0.5196562,-0.04083576,5.05999988690019,3
-21.88824,0.2833331,-21.60241,-0.5803208104627657,0.224068268032695,-0.329547702961694,3.431446,62.44009,0.2970323,0.0269475,0.5180258,-0.0133032,5.07999988645315,3
-21.83761,0.4833331,-21.57004,-0.5797597732758462,0.2569985374699358,-0.3295229354348841,6.860526,62.6353,0.6063542,0.05386053,0.5185733,-0.02658767,5.09999988600612,3
-21.787,0.6833332,-21.53768,-0.3797103079164046,-0.4282684095991763,-0.1990400688485145,10.28748,62.85088,0.9302021,0.0807168,0.5186508,-0.03984446,5.11999988555908,3
-21.57826,0.2833333,-21.40244,-0.3193634841361827,-0.207512614886513,-0.1592808444040159,3.391245,60.8787,0.1955368,0.02637547,0.5063599,-0.01352044,5.13999988511205,3
-21.52828,0.4833331,-21.37059,-0.2548349905907834,0.0132436004298032,-0.1155013093679642,6.780554,61.06398,0.4022681,0.05271731,0.5069483,-0.02702412,5.15999988466501,3
-21.47831,0.6833329,-21.33875,-0.2004174761249366,0.0216070405809013,-0.0787532777896125,10.16819,61.26314,0.6218892,0.07900529,0.5070897,-0.04050013,5.17999988421798,3
-21.33734,0.2833332,-21.2469,-0.1475855799412286,0.0576736106051363,-0.0434079262963109,3.342484,59.6848,0.1384553,0.02589821,0.4973733,-0.01346514,5.19999988377094,3
-21.28827,0.4833333,-21.21531,-0.0850178590938597,0.0681272064701906,-0.002276417088904,6.683151,59.86429,0.2876801,0.05176412,0.4979972,-0.0269124,5.21999988332391,3
-21.23921,0.6833332,-21.18373,-0.0303781338279058,0.0796268441481919,0.0324625699426519,10.02241,60.05397,0.44877,0.07757887,0.4981951,-0.04033288,5.23999988287687,3
-21.03971,0.2833333,-21.0545,0.0151386911894171,0.1188296218920912,0.059793165461027,3.300303,57.87424,0.01476072,0.02526368,0.4836455,-0.01382053,5.25999988242984,3
-20.99113,0.4833333,-21.0236,0.0626711816892289,0.1324201564803822,0.0869093384904289,6.599584,58.04229,0.03920725,0.05049887,0.4843108,-0.02762572,5.2799998819828,3
-20.94256,0.6833329,-20.9927,0.002276809136088,0.7873700476705376,0.0430149040837797,9.897576,58.21299,0.07353588,0.07568243,0.4845727,-0.0414038,5.29999988153577,3
-20.80981,0.2833333,-20.90653,0.0817460975770778,0.5394333767467228,0.0896795902775764,3.25866,56.68759,359.9414,0.02478199,0.4745819,-0.0139488,5.31999988108873,3
-20.76178,0.4833333,-20.87609,0.1649689164579051,0.2946327968050189,0.1376246086332528,6.516504,56.84882,359.8919,0.04953647,0.4752764,-0.02788224,5.3399998806417,3
-20.71376,0.6833331,-20.84566,0.0725851792184215,0.7188953755375325,0.0706100582557773,9.773404,57.00834,359.8513,0.07424255,0.4755848,-0.04178878,5.35999988019466,3
-20.52351,0.2833333,-20.72128,0.1329521445821377,0.4803671904754057,0.1026510401056199,3.214386,53.73838,359.8222,0.02431826,0.4518155,-0.01405939,5.37999987974763,3
-20.47651,0.4833333,-20.69054,0.1886978187588681,0.2449752559076717,0.1307505179228698,6.428308,53.88906,359.6527,0.04861036,0.4525643,-0.02810334,5.39999987930059,3
-20.42952,0.6833332,-20.6598,0.2507601966853734,-0.0416417692187836,0.1622448979680655,9.641709,54.03116,359.4904,0.0728569,0.4529543,-0.04212098,5.41999987885356,3
-20.22096,0.2833333,-20.52378,0.3515036754991847,-0.1137756532513505,0.2185608176594797,3.371889,53.417,359.8022,0.02550665,0.4493016,-0.01476418,5.43999987840652,3
-20.17168,0.4833333,-20.4914,0.4429787502896367,-0.1582058534301175,0.269310891273868,6.743336,53.56475,359.6129,0.05098385,0.4499978,-0.0295113,5.45999987795949,3
-20.12242,0.6833332,-20.45903,0.4083700214570136,0.2519439903680724,0.2378250313274641,10.11436,53.70235,359.4308,0.07641008,0.4503013,-0.04422873,5.47999987751245,3
-19.97754,0.2833333,-20.36574,0.4682985676213889,-0.0017424360167065,0.2703355943335523,3.544307,54.6755,359.8171,0.0267386,0.4590585,-0.01561869,5.49999987706542,3
-19.92525,0.4833334,-20.3325,0.5259183673554446,-0.2533381572369843,0.3026737865044744,7.088096,54.82333,359.6431,0.05344401,0.4596688,-0.03121801,5.51999987661839,3
-19.87298,0.6833333,-20.29927,0.3932720054725109,0.1630836814839935,0.2120171813369431,10.63272,54.96143,359.4763,0.0800996,0.4598359,-0.04679216,5.53999987617135,3
-19.67045,0.2833333,-20.1688,0.4186176183184429,-0.0843302025311522,0.2261816976514445,3.567332,56.30823,359.8782,0.02694196,0.4716451,-0.01562287,5.55999987572432,3
-19.61752,0.4833332,-20.13597,0.4334578359729519,-0.3296531935563035,0.234982907540278,7.134144,56.46119,359.7655,0.0538502,0.4722161,-0.03122914,5.57999987527728,3
-19.56461,0.6833332,-20.10315,0.3309125914601161,0.0930413646443397,0.167722476517337,10.70022,56.60836,359.6614,0.08069839,0.4723274,-0.04680075,5.59999987483025,3
-19.34474,0.2833333,-19.96045,0.4058170844618942,-0.1481001025376014,0.2169790848209842,3.593781,57.71162,0.02157973,0.02755403,0.4823646,-0.01496802,5.61999987438321,3
-19.29198,0.4833333,-19.92656,0.4699971164165308,-0.3871508459989934,0.2600653556138006,7.186672,57.87766,0.05407941,0.05507661,0.4828984,-0.02991443,5.63999987393618,3
-19.23924,0.6833334,-19.89267,0.34578161889673,0.0418160829496592,0.181363982466582,10.77841,58.04727,0.09748642,0.08253707,0.4829557,-0.04482695,5.65999987348914,3
-19.08855,0.2833333,-19.79431,0.2140015454740655,0.4472612633440271,0.098606650215796,3.548146,58.37741,0.08522902,0.02738985,0.4874336,-0.01444905,5.67999987304211,3
-19.03667,0.4833334,-19.76051,0.2281805145943138,-0.0757924125820818,0.1121449828201868,7.094664,58.54883,0.1814098,0.05474369,0.4879701,-0.02887719,5.69999987259507,3
-18.9848,0.6833333,-19.72672,0.1305317656897617,0.0979197610537019,0.0527764371435424,10.63988,58.72781,0.2892605,0.08203731,0.488037,-0.04327366,5.71999987214804,3
-18.77294,0.2833334,-19.58952,0.1555241080547826,-0.1510624093761584,0.073062086962242,3.622311,59.26868,0.1074531,0.02793476,0.4941899,-0.01481303,5.739999871701,3
-18.7196,0.4833333,-19.55553,0.1751522553949218,-0.3969081208392653,0.0894986035137002,7.24326,59.44193,0.2260281,0.05583348,0.4946772,-0.02960723,5.75999987125397,3
-18.66628,0.6833334,-19.52155,0.0213156931938627,0.0263091356714722,-0.0069793025980118,10.86345,59.62434,0.3566214,0.08367212,0.4946679,-0.04437241,5.77999987080693,3
-18.61298,0.8833333,-19.48759,-0.133137826966065,0.427050139300794,-0.1037194064770581,14.48217,59.81773,0.5009838,0.1114194,0.4941627,-0.05908857,5.7999998703599,3
-18.43668,0.2833333,-19.37333,-0.1421772163067576,-0.0996625506808647,-0.1039162137921465,3.636885,59.71432,0.116149,0.02802494,0.4975606,-0.01491906,5.81999986991286,3
-18.38295,0.4833334,-19.3395,-0.2463579190668952,0.071436131230216,-0.1658652169057397,7.272344,59.88781,0.243529,0.05601338,0.4980291,-0.02981863,5.83999986946583,3
-18.32923,0.6833335,-19.30568,-0.3430846852450848,0.2477618851892754,-0.2221683216019023,10.90634,60.07111,0.3833368,0.08393715,0.497994,-0.04468397,5.85999986901879,3
-18.13569,0.2833332,-19.18074,-0.2681948802665257,-0.2632696687095014,-0.1646143130609694,3.589609,61.34364,0.1908321,0.0277876,0.5098241,-0.01454535,5.87999986857176,3
-18.08237,0.4833331,-19.14772,-0.3514881685542743,-0.076489650606469,-0.2100016726492448,7.177573,61.52353,0.393274,0.05553972,0.5102789,-0.02907204,5.89999986812472,3
-18.02908,0.683333,-19.1147,-0.4276235893409374,0.1155174267382589,-0.2505620303192124,10.76379,61.71792,0.6091025,0.0832288,0.5102302,-0.04356579,5.91999986767769,3
-17.81852,0.2833332,-18.97883,-0.3083169755488661,-0.3798330428254799,-0.1650659828435934,3.527664,62.42391,0.2588932,0.02749477,0.5178991,-0.01401889,5.93999986723065,3
-17.76611,0.4833334,-18.94626,-0.3661471555164119,-0.1773718331456708,-0.1963409746982449,7.053438,62.60928,0.5296311,0.05495495,0.5183558,-0.02802007,5.95999986678362,3
-17.71371,0.6833335,-18.9137,-0.4196927275914124,0.0303163295795101,-0.2264745607886276,10.57724,62.81319,0.8144649,0.08235467,0.5183173,-0.04199042,5.97999986633658,3
-17.57216,0.2833333,-18.82143,-0.3601128346763751,-0.4493530412747878,-0.1853762782245169,3.470822,62.5092,0.2861848,0.02718399,0.5185377,-0.01357856,5.99999986588955,3
-17.52081,0.4833333,-18.78897,-0.3988344452365062,-0.2312107200792543,-0.20954064643918,6.939713,62.69617,0.5841586,0.05433484,0.5190121,-0.02714046,6.01999986544251,3
-17.46946,0.6833333,-18.75652,-0.4260789947253727,-0.0078414468837606,-0.2276280671840247,10.40617,62.90305,0.8964983,0.08142562,0.5190059,-0.04067008,6.03999986499548,3
-17.26903,0.2833335,-18.62598,-0.2710385024762853,-0.4718295087267897,-0.1275081846882386,3.423908,61.94519,0.2767115,0.02685712,0.5143349,-0.01330483,6.05999986454844,3
-17.21863,0.4833336,-18.59355,-0.2817864242865706,-0.2380057995043479,-0.1357181537266871,6.84561,62.13044,0.5651133,0.05368058,0.5148345,-0.02659082,6.07999986410141,3
-17.16825,0.6833334,-18.56113,-0.2878157445778626,0.0010450751561144,-0.1407741180572639,10.26537,62.3347,0.8672848,0.08044849,0.5148702,-0.03984904,6.09999986365438,3
-16.9517,0.2833333,-18.42039,-0.1006532511335169,-0.4472616098981741,-0.0181886687832459,3.379348,60.31034,0.177431,0.02627314,0.5020851,-0.01347389,6.11999986320734,3
-16.90206,0.4833333,-18.38843,-0.109506104321273,-0.1977566407987748,-0.022943136608152,6.756801,60.48592,0.3654601,0.05251278,0.5026276,-0.02693064,6.13999986276031,3
-16.85243,0.6833335,-18.35647,-0.1250539170603453,0.0569751505825129,-0.0318589496677859,10.13264,60.67412,0.5655652,0.07869875,0.5027304,-0.04035999,6.15999986231327,3
-16.80282,0.8833333,-18.32453,-0.136292058180361,0.2646631254821998,-0.0378986543740609,13.50688,60.8766,0.7795113,0.1048092,0.5023938,-0.05375026,6.17999986186624,3
-16.62007,0.2833333,-18.20552,-0.1082843674408344,0.2395732914063334,-0.0197977042698571,3.32808,58.65673,0.07961646,0.02565705,0.4895899,-0.01361818,6.1999998614192,3
-16.57124,0.4833331,-18.17406,-0.0828103868472016,0.2484593047666841,-0.0047323138175698,6.654573,58.82285,0.1689952,0.05128206,0.4901745,-0.02721932,6.21999986097217,3
-16.40572,0.2833333,-18.06708,0.0764310368630418,-0.1888711247055433,0.0959732514273348,3.284683,57.38632,359.977,0.02504461,0.4799266,-0.01393639,6.23999986052513,3
-16.35727,0.4833334,-18.03647,0.049471448964006,0.0726555493022338,0.0745680972030875,6.568435,57.54311,359.963,0.05006113,0.4805443,-0.02785713,6.2599998600781,3
-16.30884,0.6833335,-18.00586,0.0161383915029063,0.3404548257907711,0.0481994365312239,9.850958,57.70021,359.9577,0.07502593,0.4807658,-0.04175137,6.27999985963106,3
-16.26042,0.8833336,-17.97527,-0.0128828338232267,0.5622559315741614,0.0238618437292146,13.13254,57.85868,359.9616,0.09992198,0.480591,-0.05560725,6.29999985918403,3
-16.08623,0.2833332,-17.86122,0.1033297295764743,-0.167963267745633,0.0935796350547075,3.239061,55.3417,359.8923,0.02459385,0.4642293,-0.01395657,6.31999985873699,3
-16.03872,0.4833332,-17.83056,0.0818190236976406,0.0141124401282282,0.0720199865218589,6.477421,55.49065,359.793,0.04916062,0.4648883,-0.02789771,6.33999985828996,3
-15.99123,0.6833332,-17.79991,0.0640337267050696,0.2024606150150218,0.0521260086113315,9.715067,55.63496,359.7014,0.07368083,0.465174,-0.04181226,6.35999985784292,3
-15.80136,0.2833333,-17.67531,0.209385106734544,-0.2955033897450887,0.1385702786270766,3.19488,52.72525,359.7938,0.0241789,0.4439225,-0.01399071,6.37999985739589,3
-15.75488,0.4833333,-17.64434,0.1933460554100339,-0.0946097882696642,0.1190910152235513,6.389337,52.86554,359.5951,0.04833189,0.4446292,-0.02796626,6.39999985694885,3
-15.7084,0.6833333,-17.61339,0.1763406436662009,0.1125563751768483,0.099088994095764,9.583321,52.99557,359.4029,0.07244011,0.4449874,-0.04191576,6.41999985650182,3
-15.49718,0.2833333,-17.47621,0.3366819790392199,-0.3665899298183034,0.1960564922706371,3.530714,54.07859,359.802,0.02665396,0.4544325,-0.01554288,6.43999985605478,3
-15.44524,0.4833333,-17.44276,0.3076289470861919,-0.1468793426806891,0.1702592183537294,7.060992,54.2175,359.6122,0.05327547,0.4549989,-0.03106699,6.45999985560775,3
-15.39333,0.6833332,-17.40933,0.2689819788648773,0.0791033970625249,0.1393137313055508,10.592,54.34565,359.429,0.07984702,0.4551301,-0.0465656,6.47999985516071,3
-15.25022,0.2833332,-17.31711,0.2317766322849905,0.2590880626268669,0.110632107712588,3.561109,55.47972,359.8427,0.0268616,0.4652705,-0.01567728,6.49999985471368,3
-15.1975,0.4833332,-17.28409,0.2310758410831379,0.2073402079842831,0.1073276073928823,7.12179,55.6218,359.6935,0.05368953,0.4657995,-0.03133854,6.51999985426664,3
-15.1448,0.6833332,-17.25109,0.2258637272099974,0.1906136357298368,0.102474200137351,10.6818,55.75569,359.5519,0.08045784,0.4658762,-0.04696494,6.53999985381961,3
-14.94237,0.2833334,-17.11985,0.227647389876731,0.1555923890599063,0.1036027909059988,3.584977,56.93705,359.9398,0.02724704,0.476457,-0.01537189,6.55999985337257,3
-14.88941,0.4833334,-17.08653,0.2192761226469954,0.1289342054962036,0.0987903550462672,7.169278,57.08778,359.889,0.05446136,0.47695,-0.03072475,6.57999985292554,3
-14.83647,0.6833334,-17.05322,0.2025765632876961,0.1372971550011149,0.0891026192843291,10.75268,57.23663,359.8473,0.08161458,0.4769745,-0.04604306,6.5999998524785,3
-14.61714,0.2833335,-16.91011,0.189239289335978,0.1273656260179683,0.0821153628432789,3.57415,58.06473,0.07139996,0.02756895,0.4850505,-0.0145898,6.61999985203147,3
-14.56493,0.4833335,-16.87599,0.1595948074502828,0.1257976089708018,0.0656300604494362,7.146998,58.22744,0.1535758,0.05510474,0.4855252,-0.02915716,6.63999985158443,3
-14.51273,0.6833333,-16.84187,0.1133156252403821,0.1592509619520515,0.0390227586027212,10.71861,58.39681,0.2468437,0.08257931,0.4855261,-0.04369212,6.6599998511374,3
-14.46054,0.8833331,-16.80777,0.0622589500303121,0.1744094757784826,0.0099375541289852,14.28892,58.57437,0.3522431,0.1099656,0.4850535,-0.05818047,6.67999985069036,3
-14.27573,0.2833333,-16.68784,0.1163674236083807,-0.5223568666075368,0.0495930041174084,3.596209,58.97612,0.09936461,0.02773959,0.491976,-0.014691,6.69999985024333,3
-14.22289,0.4833334,-16.65395,0.0173183119462407,-0.3068279586437686,-0.0109437185542997,7.19107,59.14087,0.2092515,0.05544368,0.4924214,-0.02936317,6.7199998497963,3
-14.05284,0.2833331,-16.54374,-0.0801817708154821,-0.0850263467072628,-0.0705808564283394,3.651171,59.32898,0.1125099,0.02816752,0.4946416,-0.01491399,6.73999984934926,3
-13.99908,0.4833331,-16.50948,-0.1442441766196331,-0.0693451326541522,-0.107309025199525,7.300933,59.49486,0.2357803,0.05629799,0.495056,-0.02980854,6.75999984890223,3
-13.94534,0.6833331,-16.47522,-0.2188071077427622,-0.0196880779599954,-0.1501204400412898,10.94927,59.67028,0.371044,0.08436325,0.4949661,-0.04466835,6.77999984845519,3
-13.89162,0.8833331,-16.44098,-0.2917722676819814,0.0106287277172834,-0.1910913131510199,14.59663,59.85696,0.5196761,0.1123382,0.4943721,-0.05948124,6.79999984800816,3
-13.71589,0.2833335,-16.3271,-0.1738757389689524,-0.67202497329869,-0.1055640078892938,3.619714,60.20293,0.1372858,0.02792396,0.5012496,-0.0148038,6.81999984756112,3
-13.66232,0.4833332,-16.29357,-0.2034734387165038,-0.4434283957126472,-0.1161823335940646,7.238021,60.37045,0.2854215,0.05581232,0.5016569,-0.02958854,6.83999984711409,3
-13.60876,0.6833333,-16.26005,-0.2328316870957731,-0.2096047523510895,-0.1259453825001468,10.85475,60.54901,0.4457302,0.08363615,0.5015618,-0.04433933,6.85999984666705,3
-13.41582,0.2833335,-16.13513,-0.2493756718885382,-0.0228246947837925,-0.1268075067402598,3.559569,61.95844,0.2307826,0.02766388,0.5144242,-0.01426058,6.87999984622002,3
-13.36295,0.4833336,-16.10231,-0.2625423783389866,-0.0688227875187112,-0.1271604548862175,7.117398,62.13401,0.4728604,0.05529275,0.5148213,-0.02850313,6.89999984577298,3
-13.31009,0.6833336,-16.0695,-0.2700067167593989,-0.0808451340480337,-0.1252993969652678,10.67339,62.3264,0.7283214,0.08285995,0.5147182,-0.04271368,6.91999984532595,3
-13.10029,0.2833333,-15.93345,-0.2596110984250206,-0.1122077845654259,-0.1135086255043127,3.4971,62.40277,0.2779331,0.02735536,0.5177417,-0.01373363,6.93999984487891,3
-13.04851,0.4833332,-15.90081,-0.2547497808936807,-0.136251988807355,-0.1070119281316568,6.99235,62.58181,0.567258,0.0546772,0.5181525,-0.02745029,6.95999984443188,3
-12.99675,0.6833331,-15.86819,-0.2543555825758243,-0.1263204745470798,-0.1053381991335165,10.48518,62.78032,0.8704667,0.08193727,0.5180767,-0.04113406,6.97999984398484,3
-12.94501,0.8833332,-15.83557,-0.2472526949766873,-0.1357290641658005,-0.1011175965238635,13.97587,63.00033,1.190073,0.1091127,0.5175145,-0.05477521,6.99999984353781,3
-12.77048,0.2833332,-15.72106,-0.153126797883484,-0.1378196589523359,-0.04084917856167,3.438562,62.18254,0.2962931,0.02702715,0.5161023,-0.01328017,7.01999984309077,3
-12.71989,0.4833332,-15.68842,-0.0645153910566023,-0.105934506487866,0.0153867149249293,6.874789,62.36218,0.6040816,0.05401977,0.5165356,-0.02654052,7.03999984264374,3
-12.6693,0.6833332,-15.65579,0.03000415551376,-0.0933893357635544,0.0752250856868226,10.30899,62.56204,0.9255105,0.08095559,0.5164993,-0.03977297,7.0599998421967,3
-12.47786,0.2833332,-15.53105,-0.0379008061806693,0.5667876530871464,0.0283704134841524,3.393353,60.58061,0.1943409,0.02642117,0.5041163,-0.01347007,7.07999984174967,3
-12.428,0.4833332,-15.49895,0.0415777254350953,0.3303504213003799,0.0797759336021339,6.784765,60.75029,0.3989775,0.05280824,0.5045926,-0.026923,7.09999984130263,3
-12.37815,0.6833332,-15.46686,0.1219182070559039,0.1033218748745496,0.1328205012114551,10.17456,60.93358,0.6155387,0.07914121,0.5046237,-0.04034846,7.1199998408556,3
-12.17075,0.2833333,-15.33145,0.0147440686051272,0.5516287480156831,0.0631337498781334,3.340996,58.90168,0.1103485,0.02585779,0.491443,-0.01349495,7.13999984040856,3
-12.12188,0.4833334,-15.29963,0.0690583252220715,0.3434174240376141,0.0977167528905784,6.680282,59.06321,0.2304061,0.05168335,0.4919634,-0.02697172,7.15999983996153,3
-12.07302,0.6833335,-15.26781,0.1168873970539952,0.1446151168157399,0.1267703336842629,10.01825,59.23309,0.361008,0.07745754,0.4920639,-0.04042161,7.17999983951449,3
-11.93227,0.2833333,-15.17644,0.1695355335218593,-0.0991397404246933,0.1576029686250439,3.29374,57.64588,0.01273757,0.0252325,0.4819026,-0.01375802,7.19999983906746,3
-11.88389,0.4833333,-15.14544,0.2578919106154842,-0.1221387677569607,0.2109065716337053,6.586461,57.79834,0.03425988,0.05043664,0.4824566,-0.02750063,7.21999983862042,3
-11.83552,0.6833333,-15.11445,0.3340241385428868,-0.1111619667317624,0.2551910662732961,9.877828,57.95313,0.06463473,0.07558843,0.4826106,-0.04121658,7.23999983817339,3
-11.63706,0.2833333,-14.98507,0.2685110073107069,0.3606670238194718,0.2062586398919919,3.250808,55.75126,359.9131,0.02471901,0.4673846,-0.0139323,7.25999983772635,3
-11.58936,0.4833334,-14.95434,0.1960128568167629,0.8152466436209529,0.1521173142761096,6.500849,55.8947,359.8342,0.04941069,0.467978,-0.02784913,7.27999983727932,3
-11.54169,0.6833334,-14.92362,0.2668998313452828,0.3475997449195225,0.1905742180826113,9.750145,56.03461,359.763,0.07405552,0.4681931,-0.04173943,7.29999983683228,3
-11.32803,0.2833333,-14.78355,0.3351718986627254,-0.1372964151991023,0.2257723408730161,3.205171,53.04325,359.8077,0.02427478,0.4464022,-0.01398873,7.31999983638525,3
-11.28137,0.4833333,-14.75254,0.2656141536489045,0.2655349534877086,0.1696666620267457,6.40986,53.17743,359.6228,0.04852344,0.4470451,-0.02796218,7.33999983593822,3
-11.23473,0.6833333,-14.72155,0.3576481530250976,0.0108032006123897,0.2120018399295062,9.614013,53.30204,359.444,0.0727269,0.4473355,-0.04190939,7.35999983549118,3
-11.1881,0.8833332,-14.69056,0.4442060888263732,-0.2355654721687727,0.250196580815647,12.81738,53.41774,359.2708,0.09686594,0.4472741,-0.05581583,7.37999983504415,3
-11.00192,0.2833333,-14.56928,0.3694185999556083,0.1923556693502497,0.1823954022890763,3.4511,53.6081,359.8027,0.02610039,0.4507818,-0.01511489,7.39999983459711,3
-10.9514,0.4833332,-14.53623,0.4693002594408124,-0.0372865656860027,0.211637017657976,6.901751,53.74009,359.613,0.05217009,0.4513276,-0.03021206,7.41999983415008,3
-10.9009,0.683333,-14.5032,0.5566791512006706,-0.2585655636422273,0.2364686106725191,10.35223,53.8615,359.4295,0.07818716,0.4514612,-0.04528055,7.43999983370304,3
-10.69844,0.2833335,-14.37218,0.4549880204667609,0.1944456759189148,0.1408966750767959,3.549175,55.34107,359.8458,0.026801,0.4642005,-0.01557231,7.45999983325601,3
-10.64599,0.4833334,-14.33911,0.3440167640396669,0.6302075442075983,0.0427128587345571,7.098484,55.47612,359.6992,0.05357274,0.4646796,-0.03113191,7.47999983280897,3
-10.59357,0.6833333,-14.30605,0.3747042471605502,0.1437431319985881,0.0430692741599081,10.64712,55.6031,359.5597,0.08028538,0.4647107,-0.0466573,7.49999983236194,3
-10.37378,0.2833334,-14.16362,0.4006618505211499,-0.3599706509601754,0.0442894777710929,3.581654,56.83796,359.9411,0.02724019,0.4756972,-0.01532465,7.5199998319149,3
-10.32094,0.4833333,-14.13022,0.2864596724074797,0.0240436781386664,-0.0440441198189791,7.162704,56.98149,359.8911,0.05444823,0.4761372,-0.03063083,7.53999983146787,3
-10.26812,0.6833334,-14.09684,0.3347500161211734,-0.2495054365725323,-0.0282198743007349,10.74283,57.12311,359.8497,0.08159517,0.4761106,-0.04590256,7.55999983102083,3
-10.21531,0.8833334,-14.06346,0.3784948792332736,-0.5146912465133473,-0.0124023716828354,14.32203,57.2639,359.817,0.1086548,0.4756179,-0.06112496,7.5799998305738,3
-10.03161,0.2833333,-13.94259,0.2609477320724815,-0.1055871098223835,-0.0991200863449552,3.572982,57.99554,0.0721164,0.02757188,0.4845227,-0.01456275,7.59999983012676,3
-9.979464,0.4833333,-13.90841,0.1449033700605699,0.286267778257671,-0.1818921240425037,7.144702,58.15086,0.1545334,0.0551108,0.4849425,-0.02910332,7.61999982967973,3
-9.927327,0.6833334,-13.87423,0.256041528081349,-0.2441037444007434,-0.1327915607403085,10.71514,58.31278,0.2475686,0.08258805,0.4848895,-0.04361135,7.63999982923269,3
-9.725218,0.2833333,-13.74267,0.1771771292013104,-0.071436652803583,-0.204801058298381,3.596122,58.81182,0.09769197,0.02775279,0.4907284,-0.01466355,7.65999982878566,3
-9.672459,0.4833334,-13.70865,0.0895805611110178,0.1116843268509817,-0.2794673108662238,7.190911,58.96913,0.2054185,0.05546999,0.4911216,-0.02930842,7.67999982833862,3
-9.619717,0.6833333,-13.67464,0.0053604193532912,0.2529886481440853,-0.3489006633073792,10.78463,59.1347,0.3240144,0.0831258,0.4910295,-0.04392288,7.69999982789159,3
-9.399451,0.2833334,-13.53153,-0.0386845995251432,0.1667423180590741,-0.4179220018863709,3.642288,59.34685,0.1158334,0.02811223,0.4947776,-0.01485484,7.71999982744455,3
-9.345843,0.4833335,-13.49732,-0.0838168387779401,0.1196988996176754,-0.4816781807004684,7.283206,59.50561,0.2419772,0.05618795,0.4951394,-0.02969033,7.73999982699752,3
-9.292251,0.6833334,-13.46311,-0.1176108693074793,0.0585423298199457,-0.5320513227003492,10.92272,59.67399,0.3796214,0.08419883,0.4949994,-0.04449163,7.75999982655048,3
-9.238676,0.8833333,-13.42892,-0.1592150715108715,0.0099309197697126,-0.5976069063271723,14.56121,59.85365,0.5301315,0.1121195,0.4943577,-0.05924644,7.77999982610345,3
-9.054131,0.2833334,-13.30962,-0.2033857984374005,0.000522287986085,-0.6566835645666966,3.603665,61.04534,0.1724814,0.02784969,0.5075868,-0.01467312,7.79999982565641,3
-9.000612,0.4833334,-13.27649,-0.2374952259529923,-0.0229994150928263,-0.7012923195346232,7.205773,61.20874,0.3555172,0.05566338,0.5079306,-0.02932751,7.81999982520938,3
-8.947108,0.6833333,-13.24336,-0.2819811320716612,-0.0339760912785391,-0.7675953284014643,10.80631,61.38532,0.550752,0.08341391,0.5077698,-0.0439488,7.83999982476234,3
-8.745178,0.2833333,-13.11956,-0.3298943167940846,-0.0057498686269236,-0.8287342338910975,3.541765,63.51705,0.2663162,0.02749844,0.5260266,-0.01429022,7.85999982431531,3
-8.691981,0.4833332,-13.08779,-0.368863501565257,0.0083632971038097,-0.8770242901168448,7.081724,63.68845,0.5436528,0.0549623,0.5263497,-0.02856265,7.87999982386827,3
-8.6388,0.6833332,-13.05603,-0.3865102363114356,-0.0449525365155607,-0.9048147706051086,10.61974,63.87877,0.8343151,0.08236506,0.5261658,-0.04280355,7.89999982342124,3
-8.420982,0.2833334,-12.93313,-0.4103996527457108,-0.1123814126814133,-0.9604386456994688,3.481963,63.3621,0.2849566,0.02715924,0.5248819,-0.01384067,7.91999982297421,3
-8.36896,0.4833334,-12.90138,-0.424320901070895,-0.1406073745901244,-1.000748122175121,6.962067,63.53432,0.5808544,0.05428524,0.5252288,-0.02766418,7.93999982252717,3
-8.316949,0.6833333,-12.86964,-0.4168125830848206,-0.18294612457488,-1.018695283623213,10.43981,63.72628,0.890276,0.08135097,0.5250866,-0.0414544,7.95999982208014,3
-8.264953,0.8833331,-12.8379,-0.4556048660357703,-0.2127406033242892,-1.058615553618008,13.91545,63.93993,1.215681,0.1083335,0.5244558,-0.05520206,7.9799998216331,3
-8.082012,0.2833333,-12.71836,-0.4859287273655628,-0.2033320605748239,-1.0823399693639555,3.42673,62.94624,0.2787158,0.02676999,0.5218015,-0.01353688,7.99999982118607,3
-8.031024,0.4833333,-12.68677,-0.4967692481893282,-0.2080364403238211,-1.0832770669896732,6.851264,63.11688,0.5682164,0.05350579,0.5221738,-0.02705467,8.01999982073903,3
-7.980051,0.6833333,-12.65519,-0.6446194983038884,-0.2001956715634866,-1.119326563711521,10.27389,63.30646,0.870612,0.08018582,0.5220751,-0.04054409,8.039999820292,3
-7.780199,0.2833333,-12.53096,-0.7805761607947765,-0.1531521224457259,-1.1390793850141936,3.379643,61.86477,0.1873474,0.02613462,0.5137606,-0.01375615,8.05999981984496,3
-7.729783,0.4833333,-12.50022,-0.894135872052332,-0.1202217359224655,-1.1367106145742802,6.757397,62.02644,0.3842952,0.05223497,0.514168,-0.02749617,8.07999981939793,3
-7.679381,0.6833332,-12.46948,-0.9748063498225692,-0.1547204687973272,-1.1064346260947246,10.13361,62.20115,0.592587,0.07828242,0.5141255,-0.04120829,8.09999981895089,3
-7.628994,0.8833332,-12.43875,-1.2876921979209293,-0.2033320190197407,-1.1091456989128634,13.50818,62.39048,0.8139636,0.104254,0.5136338,-0.05488051,8.11999981850386,3
-7.378132,0.2833334,-12.2953,-1.5530504131954783,-0.2127406570758342,-1.0860924543930022,3.324005,61.56324,0.08722433,0.02530685,0.5115329,-0.01418929,8.13999981805682,3
-7.327893,0.4833333,-12.26629,-1.7611669094311644,-0.2362625660135762,-1.0323258563169215,6.646424,61.71522,0.1828123,0.05057954,0.5119638,-0.02836515,8.15999981760979,3
-7.277668,0.6833332,-12.23729,-2.137671994484097,-0.2472393152038168,-0.9586412010324938,9.96762,61.87397,0.2880543,0.0758021,0.5119625,-0.0425135,8.17999981716275,3
-7.227458,0.8833331,-12.2083,-2.456303468844565,-0.2190132733211721,-0.8629713888406005,13.28757,62.04073,0.4039539,0.1009537,0.5115293,-0.05662214,8.19999981671572,3
-7.050759,0.2833333,-12.12423,-2.7080586039901045,-0.2049001704022085,-0.7410941183387809,3.268588,60.1827,359.9513,0.02446335,0.5011866,-0.01466668,8.21999981626868,3
-7.000892,0.4833333,-12.09656,-3.0775768821286933,-0.178242148354493,-0.5790707255274015,6.536324,60.32231,359.9106,0.0488995,0.5016551,-0.02931721,8.23999981582165,3
-6.951039,0.6833332,-12.0689,-3.392729623631717,-0.1123814691336015,-0.4101930699659171,9.802884,60.46053,359.8772,0.07328506,0.5017141,-0.04394049,8.25999981537461,3
-6.761949,0.2833334,-11.96492,-3.64494714402162,-0.0606337432507952,-0.2305105089879777,3.217768,57.58427,359.8304,0.02389293,0.4814794,-0.01481933,8.27999981492758,3
-6.713009,0.4833334,-11.93726,-3.8257134833585456,-0.0763149141807045,-0.0359743229606639,6.434987,57.71325,359.6678,0.04776005,0.4819992,-0.02962254,8.29999981448054,3
-6.664084,0.6833334,-11.90961,-4.092459894550075,-0.106109252409466,0.1852219755878277,9.651596,57.83388,359.5114,0.07158239,0.4821367,-0.04439771,8.31999981403351,3
-6.459414,0.2833334,-11.80031,-4.291850502752743,-0.0967005887408042,0.4078530483361575,3.373182,58.33441,359.8216,0.02494201,0.4871883,-0.01570272,8.33999981358647,3
-6.407688,0.4833334,-11.77199,-4.415826401675491,-0.101404986174671,0.6361888761360692,6.745827,58.46157,359.6505,0.04985532,0.487637,-0.03138755,8.35999981313944,3
-6.355975,0.6833334,-11.74368,-4.586433452623608,-0.0935643465225817,0.892296558686585,10.1179,58.57947,359.4854,0.07471836,0.4876608,-0.04704082,8.3799998126924,3
-6.304286,0.8833333,-11.71538,-4.693116066743309,-0.0465207978404091,1.1365708779933943,13.49063,58.68862,359.3251,0.09951756,0.4872591,-0.06265727,8.39999981224537,3
-6.133088,0.2833334,-11.63797,-4.728389302307511,-0.0135903892764028,1.3739040434801435,3.537116,59.1997,359.8251,0.02608106,0.4937447,-0.01657053,8.41999981179833,3
-6.078515,0.4833333,-11.60892,-4.781536597219715,0.0318848439809071,1.636078036444541,7.073767,59.32588,359.6576,0.05213039,0.4941121,-0.03312204,8.4399998113513,3
-6.023966,0.6833333,-11.57987,-4.78161313349464,0.116562972939313,1.8707684519430805,10.61098,59.4426,359.4962,0.07813062,0.4940059,-0.04964438,8.45999981090426,3
-5.87271,0.2833332,-11.4887,-4.721682898991563,0.1871280541241838,2.0835347930222703,3.566404,58.62539,359.859,0.02653129,0.4893716,-0.01630687,8.47999981045723,3
-5.818337,0.4833332,-11.45832,-4.594883733752205,0.1902642774378924,2.280011083102883,7.132355,58.75427,359.7263,0.05303354,0.4897342,-0.03259004,8.49999981001019,3
-5.76398,0.6833332,-11.42796,-4.370701141411979,0.1792874791133361,2.520039110569325,10.69756,58.8759,359.6006,0.0794767,0.4896206,-0.04883689,8.51999980956316,3
-5.678308,0.2833335,-11.335,-4.10093318778641,0.2075135887734559,2.7194272725104067,3.588087,57.09874,-0.004519024,0.02748127,0.4776827,-0.01499666,8.53999980911613,3
-5.625756,0.4833333,-11.30097,-3.779083431628537,0.2216266501373337,2.884995916804085,7.175414,57.24015,0.001690908,0.05493755,0.4780599,-0.02996113,8.55999980866909,3
-5.573218,0.6833333,-11.26694,-3.5774556371145407,0.8885988221701613,2.912392566610553,10.76168,57.38323,0.01695272,0.082332,0.4779674,-0.0448919,8.57999980822206,3
-5.520696,0.8833332,-11.23293,-3.174571042638143,0.6641840661080829,2.982240186645491,14.34687,57.52917,0.04166055,0.109638,0.4774055,-0.05977429,8.59999980777502,3
-5.579188,0.2833333,-11.16301,-2.7372600006597,0.4544050622278623,3.013854010985052,3.564081,52.36464,359.9707,0.02779386,0.4410227,-0.01395058,8.61999980732799,3
-5.529704,0.4833333,-11.12534,-2.259501743220306,0.2049005639118429,3.0148106726047263,7.127164,52.50307,359.9509,0.05555622,0.4414814,-0.02787608,8.63999980688095,3
-5.480229,0.6833332,-11.08769,-1.806322167761707,0.1813786042716735,2.948054890175557,10.68923,52.64167,359.9409,0.08326153,0.4415124,-0.04176059,8.65999980643392,3
-5.482566,0.2833333,-10.95529,-1.346825212520988,0.1970596737096081,2.837920062659645,3.637391,45.53701,359.9473,0.02908589,0.3868273,-0.01270638,8.67999980598688,3
-5.436719,0.4833333,-10.91136,-0.8755327762431717,0.1986279354700447,2.692644738015968,7.273869,45.67268,359.9032,0.05813462,0.3873678,-0.02539543,8.69999980553985,3
-5.390886,0.6833333,-10.86745,-0.2033434453584299,-0.5075468537489889,2.626470291168994,10.90942,45.80676,359.8676,0.08711698,0.3875169,-0.03805434,8.71999980509281,3
-5.338021,0.2833334,-10.69177,0.3181947626678729,-0.2972449598128921,2.460905924348189,3.608943,39.87864,359.9514,0.02945642,0.3408682,-0.01113739,8.73999980464578,3
-5.297117,0.4833333,-10.64388,0.8300293446864435,-0.0764889557566965,2.2651255643086667,7.216948,40.0143,359.9113,0.05887542,0.3415048,-0.02225952,8.75999980419874,3
-5.256227,0.6833333,-10.59601,1.337743481429651,0.1024506263751429,2.048167791939889,10.82399,40.14864,359.8796,0.08822782,0.3418015,-0.0333553,8.77999980375171,3
-5.215344,0.8833333,-10.54816,1.832915935897618,0.0538389953076208,1.810199202181753,14.43018,40.28294,359.8575,0.1174888,0.3417591,-0.0444058,8.79999980330467,3
-5.182561,0.2833333,-10.39737,2.300295534181043,0.0444302604638991,1.5481744320414244,3.557727,39.0634,0.1300463,0.02963499,0.3341338,-0.009309177,8.81999980285764,3
-5.145306,0.4833334,-10.34768,2.7453252656672267,0.0209083583213292,1.2713031412899678,7.114043,39.21528,0.2698207,0.0592327,0.3347922,-0.01860596,8.8399998024106,3
-5.108062,0.6833333,-10.29799,3.1586802218732,0.0099314927420071,0.9867482415361232,10.66895,39.37733,0.4205593,0.08876493,0.3351263,-0.02788157,8.85999980196357,3
-5.025685,0.2833334,-10.12971,3.5203042807855667,0.0381575212956645,0.6827772107434971,3.497608,40.07217,0.2432029,0.02939737,0.3423907,-0.008462721,8.87999980151653,3
-4.989731,0.4833333,-10.08023,3.83457785001004,0.0522704871786793,0.3685800418904703,6.99352,40.23383,0.4966964,0.05875862,0.3430451,-0.01691477,8.8999998010695,3
-4.95378,0.6833332,-10.03076,4.2906443843160496,-0.6413596271892812,0.1591990279464061,10.48723,40.41268,0.7633591,0.08805538,0.3433776,-0.02534046,8.91999980062246,3
-4.823208,0.2833333,-9.853658,4.544012940446764,-0.4185129686710096,-0.1148918417832591,3.433816,42.9938,0.3418116,0.02896949,0.3662016,-0.008205141,8.93999980017543,3
-4.78677,0.4833333,-9.805734,4.723252424919759,-0.1852120974952518,-0.3924839450977639,6.865341,43.16345,0.6936901,0.05789957,0.3668243,-0.01640444,8.95999979972839,3
-4.750342,0.6833332,-9.757823,4.832491962534489,0.0062722275264864,-0.6639540254376204,10.29477,43.35588,1.05896,0.08676893,0.3671131,-0.02458661,8.97999979928136,3
-4.713924,0.8833331,-9.709926,4.906060548459401,-0.0297943185404159,-0.9101312095188492,13.7219,43.57309,1.44064,0.1155513,0.3670683,-0.03274406,8.99999979883432,3
-4.507963,0.2833333,-9.512563,4.88746815417217,-0.0266579453844778,-1.150724707585737,3.371224,48.06913,0.3153712,0.02798525,0.407036,-0.009467985,9.01999979838729,3
-4.467905,0.4833333,-9.469147,4.781002658830323,-0.0376346087639076,-1.3761752579074864,6.740501,48.2351,0.6383414,0.0559278,0.4075981,-0.01894552,9.03999979794025,3
-4.427857,0.6833333,-9.425743,4.717601135666591,-0.0360666901596004,-1.5575954041953262,10.10781,48.42163,0.9739206,0.08381347,0.4078033,-0.02840392,9.05999979749322,3
-4.387821,0.8833333,-9.382352,4.552742905582088,0.0047043477766182,-1.729757300013211,13.473,48.63058,1.32482,0.1116182,0.4076517,-0.03783464,9.07999979704618,3
-4.201301,0.2833334,-9.269363,4.291620435694233,0.0313622286067458,-1.8833724119506083,3.320462,50.29726,0.1852016,0.02691261,0.4247465,-0.01084997,9.09999979659915,3
-4.158813,0.4833333,-9.229852,3.939431592667872,-0.0094088710958357,-2.0091336148353056,6.639208,50.451,0.3785864,0.05378895,0.4252914,-0.02169447,9.11999979615211,3
-4.116342,0.6833334,-9.190346,3.856656550285139,-0.0642928888538829,-2.013014997286711,9.956481,50.61709,0.5814366,0.08060831,0.4254765,-0.03252657,9.13999979570508,3
-3.914896,0.2833332,-9.065902,3.6873667406021617,-0.0799740017634891,-1.9953351726718476,3.274932,51.41761,0.03683122,0.025886,0.4336121,-0.01210641,9.15999979525805,3
-3.87065,0.4833332,-9.029748,3.438632618215859,-0.1097680460575488,-1.9468514331673676,6.548793,51.55798,0.08167817,0.05174289,0.4341542,-0.02419982,9.17999979481101,3
-3.826419,0.6833333,-8.993599,3.1797460435569342,0.513296804265751,-1.972115377642126,9.821322,51.70184,0.1341361,0.0775447,0.4343401,-0.03627569,9.19999979436398,3
-3.610116,0.2833333,-8.858163,3.0025112190029883,0.244974736686901,-1.8920491909352464,3.229444,51.09148,359.9151,0.02510445,0.431079,-0.01281957,9.21999979391694,3
-3.565371,0.4833333,-8.823893,2.763537723654137,-0.0087115823690263,-1.7859030320363465,6.458128,51.22104,359.8374,0.05018147,0.4316366,-0.0256254,9.23999979346991,3
-3.520639,0.6833333,-8.789633,2.4629868609287486,0.4181644751076703,-1.803642860623797,9.686016,51.34705,359.7664,0.07521104,0.4318501,-0.03840721,9.25999979302287,3
-3.475922,0.8833332,-8.755377,2.2766678420294357,0.1937496392458925,-1.7129636292796269,12.91284,51.4701,359.7011,0.1001684,0.4317191,-0.05116009,9.27999979257584,3
-3.287678,0.2833333,-8.643609,2.041186281422553,-0.0160294486156702,-1.607560847266991,3.283932,51.26139,359.841,0.02523442,0.4324267,-0.01364496,9.2999997921288,3
-3.241268,0.4833333,-8.609868,1.766788454483332,-0.2655341556654005,-1.4800919909291146,6.567258,51.3839,359.6888,0.05044064,0.4329593,-0.02727498,9.31999979168177,3
-3.19487,0.6833332,-8.576137,1.6464029467533323,-0.2890558762549441,-1.3457980614560467,9.849972,51.49844,359.5425,0.07559824,0.4331343,-0.04087872,9.33999979123473,3
-2.987099,0.2833333,-8.452507,1.4914961573321577,-0.2733748125667701,-1.203927451964094,3.535034,53.94969,359.8492,0.02689161,0.4534192,-0.01516342,9.3599997907877,3
-2.935662,0.4833333,-8.41827,1.3140506758594137,-0.2718066946374489,-1.0476884588342266,7.069438,54.07159,359.7056,0.05375016,0.4538219,-0.03030856,9.37999979034066,3
-2.884256,0.6833333,-8.384046,1.0719373771872176,0.3826204097311562,-1.012754810193372,10.60508,54.18534,359.5671,0.0805603,0.4537897,-0.04543726,9.39999978989363,3
-2.659767,0.2833333,-8.250679,0.9619261506065592,0.145660688019537,-0.8866134436322648,3.564641,56.48355,359.9027,0.02699833,0.4729874,-0.01546496,9.41999978944659,3
-2.607001,0.4833333,-8.217699,0.8436846285405071,-0.0766632862145726,-0.7526534619618106,7.128685,56.6099,359.8123,0.05396103,0.4733361,-0.03091766,9.43999978899956,3
-2.55425,0.6833333,-8.184729,0.616675229599455,0.3815751288902276,-0.7578987475942247,10.6919,56.73163,359.729,0.08086377,0.4732253,-0.04633599,9.45999978855252,3
-2.501514,0.8833332,-8.151767,0.5489962302057524,0.1885225439375218,-0.6688261629726062,14.25426,56.84958,359.6525,0.1076806,0.4726556,-0.06170494,9.47999978810549,3
-2.311678,0.2833333,-8.040008,0.4789366327847443,0.01010582703305,-0.5812969306701046,3.592549,58.55087,0.03966754,0.02751145,0.4887587,-0.01502654,9.49999978765845,3
-2.258599,0.4833333,-8.006646,0.4201005615695702,-0.2080363751598752,-0.4893260122592417,7.184211,58.68966,0.08819247,0.05499016,0.4890597,-0.03003446,9.51999978721142,3
-2.205535,0.6833333,-7.973294,0.3560804492488273,-0.2001956960435255,-0.4651664032778004,10.77472,58.8328,0.1460291,0.08240701,0.4888789,-0.04500854,9.53999978676438,3
-1.998564,0.2833333,-7.851418,0.2810554470185821,-0.1531522305586372,-0.4526597082921135,3.561408,59.85138,0.09975892,0.02736521,0.4986119,-0.01474803,9.55999978631735,3
-1.945744,0.4833333,-7.818645,0.2084463000999742,-0.1202218149381064,-0.4457298884687208,7.121331,59.99535,0.2084602,0.05469373,0.498901,-0.029478,9.57999978587031,3
-1.892938,0.6833332,-7.785881,0.1517327571413833,-0.1547205121818798,-0.4383694072661024,10.67995,60.14744,0.3272924,0.08196169,0.4987069,-0.04417517,9.59999978542328,3
-1.840148,0.8833331,-7.753126,0.0867721876798888,-0.20333215309369,-0.4286574658858173,14.23723,60.3091,0.4574626,0.1091427,0.4980304,-0.05882543,9.61999978497624,3
-1.579327,0.2833333,-7.600575,0.0244966717172896,-0.2127409014406341,-0.422211240080558,3.633779,61.19822,0.1306782,0.02787058,0.5087407,-0.01515783,9.63999978452921,3
-1.524884,0.4833333,-7.567967,-0.0218087551065953,-0.2362628202226611,-0.4125655821076774,7.266188,61.34484,0.2708758,0.05570507,0.5089735,-0.03029619,9.65999978408217,3
-1.470461,0.6833333,-7.535367,-0.229684990921726,0.3930745958177833,-0.4952874244004821,10.89765,61.5018,0.4214924,0.08347726,0.5086926,-0.04540489,9.67999978363514,3
-1.416055,0.8833332,-7.502777,-0.2258989065693051,0.1310249882824576,-0.4563740802529725,14.52785,61.67072,0.5844926,0.111159,0.5078987,-0.06046441,9.6999997831881,3
-1.234837,0.2833333,-7.398207,-0.2156034237114711,-0.1163889758808601,-0.4164714838007839,3.614448,62.29973,0.1461025,0.02764888,0.5169863,-0.01522267,9.71999978274107,3
-1.180218,0.4833333,-7.36658,-0.3919472546633435,0.3167595581045834,-0.48795531129407,7.227457,62.44721,0.3017462,0.05526196,0.5172049,-0.03042582,9.73999978229403,3
-1.125615,0.6833333,-7.334962,-0.3925599127687118,0.0986170941233427,-0.4586871058987274,10.839,62.60602,0.4683591,0.08281197,0.5169073,-0.04559428,9.759999781847,3
-0.9269363,0.2833333,-7.219966,-0.3911455824589886,-0.104889619766862,-0.4305405253507111,3.557873,64.23193,0.2359554,0.02738697,0.5313231,-0.0147605,9.77999978139997,3
-0.872862,0.4833333,-7.189215,-0.3744199520414073,-0.3481219374254216,-0.3966979598775282,7.11408,64.38718,0.481939,0.05473932,0.5315297,-0.02950242,9.79999978095293,3
-0.8188031,0.6833333,-7.158473,-0.3132014493225057,-0.3653712532039835,-0.3351447998617249,10.66853,64.55933,0.7400276,0.08203058,0.5312207,-0.04421149,9.8199997805059,3
-0.6027501,0.2833333,-7.033002,-0.2498984048333417,-0.3434176625659856,-0.276013696622174,3.49651,64.80281,0.2811993,0.02707265,0.5355333,-0.0142767,9.83999978005886,3
-0.5496827,0.4833333,-7.002528,-0.1717906393556412,-0.3355770017443285,-0.2125301444205094,6.991252,64.96142,0.5725422,0.05411205,0.5357528,-0.02853574,9.85999977961183,3
-0.4966276,0.6833333,-6.972062,-0.2598400197841906,0.3251225552628075,-0.2458598191060863,10.48369,65.13944,0.8764399,0.08109018,0.5354696,-0.04276137,9.87999977916479,3
-0.4435876,0.8833333,-6.941605,-0.1895476951998242,0.0944351959359106,-0.1900654427198311,13.97413,65.33875,1.195461,0.1079847,0.5346843,-0.05694281,9.89999977871776,3
-0.2639171,0.2833334,-6.836446,-0.1126371004046227,-0.1216164132999498,-0.1338558395752738,3.438365,64.66994,0.2983312,0.02674059,0.5345595,-0.01384773,9.91999977827072,3
-0.2119628,0.4833333,-6.806011,-0.2249652005358624,0.3428943688939214,-0.1896072652544083,6.874515,64.82912,0.6068779,0.05344697,0.5348015,-0.02767538,9.93999977782369,3
-0.1600233,0.6833333,-6.775585,-0.1683825872090096,0.1561142726464208,-0.1468483326538336,10.30877,65.00839,0.9278427,0.08009738,0.5345575,-0.04147392,9.95999977737665,3
0.03719909,0.2833333,-6.660807,-0.1157548754654222,-0.0160300740327453,-0.1068486637006369,3.393347,63.14459,0.1960088,0.02612075,0.5233005,-0.01404539,9.97999977692962,3
0.08843666,0.4833333,-6.630952,-0.0553755931661856,-0.2279000250029764,-0.063017059360809,6.784833,63.29382,0.4010649,0.05220773,0.5235842,-0.02807326,9.99999977648258,3
0.1396597,0.6833333,-6.601107,0.0426310282835133,-0.2137869746159131,0.0032891702427457,10.17479,63.45657,0.6168464,0.07824139,0.5234063,-0.04207237,10.0199997760355,3
0.3534003,0.2833334,-6.476349,0.1299182208586158,-0.1604710183349963,0.0622970073398319,3.341079,61.51477,0.1113392,0.0255484,0.5111619,-0.01407399,10.0399997755885,3
0.4036717,0.4833333,-6.446782,0.2184181312929949,-0.1212681124411433,0.1206489466641791,6.680505,61.65589,0.2311687,0.05106501,0.5114892,-0.02812936,10.0599997751415,3
0.4539288,0.6833333,-6.417223,0.1352906264361491,0.5707937953118061,0.0786956355864498,10.01866,61.80518,0.3603361,0.07653091,0.5113803,-0.04215674,10.0799997746944,3
0.5041716,0.8833332,-6.387672,0.2030839981737728,0.3714687856853131,0.1224970040292943,13.35552,61.96387,0.4999545,0.1019245,0.5108356,-0.05614423,10.0999997742474,3
0.6838862,0.2833334,-6.283588,0.270015543874742,0.1867796451524651,0.1636486060343669,3.290908,59.84616,359.9843,0.02481844,0.4986347,-0.01444281,10.1199997738004,3
0.7336378,0.4833333,-6.254935,0.3478012271378481,-0.0376350863424577,0.2087597288579239,6.580877,59.97559,359.976,0.04960902,0.4990019,-0.02886958,10.1399997733533,3
0.7833764,0.6833333,-6.226287,0.1984212966663405,0.6042470447102601,0.1206151807629272,9.869551,60.10542,359.9749,0.07434785,0.4989565,-0.04326854,10.1599997729063,3
0.8331009,0.8833333,-6.197648,0.2528893175379276,0.3547423784315557,0.1495142541803495,13.15728,60.2366,359.9814,0.09901829,0.4984991,-0.05762766,10.1799997724593,3
1.063841,0.2833333,-6.062726,0.2973671925398489,0.1198734611984749,0.1706994748578596,3.234913,56.86369,359.8488,0.02419375,0.4759556,-0.01459857,10.1999997720122,3
1.112504,0.4833333,-6.034025,0.3432805345878043,-0.154720954129342,0.1907899490736406,6.469182,56.98105,359.7041,0.04836105,0.47638,-0.02918105,10.2199997715652,3
1.161154,0.6833333,-6.005333,0.422524147466873,-0.2033323814288564,0.2303006723759901,9.702777,57.09094,359.5649,0.07248265,0.4764227,-0.04373582,10.2399997711182,3
1.366097,0.2833333,-5.885134,0.4867952009012675,-0.2127410223598291,0.2602163660845189,3.284104,55.45451,359.796,0.02453684,0.4651165,-0.01490748,10.2599997706711,3
1.415289,0.4833333,-5.855507,0.5477738209326941,-0.2362627131551593,0.287486314702539,6.567677,55.56673,359.5981,0.04904639,0.4655393,-0.0297984,10.2799997702241,3
1.464467,0.6833332,-5.825888,0.444164653192983,0.3930745984313105,0.2189565910568935,9.850682,55.66827,359.4052,0.07350864,0.4655772,-0.04466035,10.2999997697771,3
1.689972,0.2833333,-5.694818,0.4752861280150977,0.1310249931610421,0.230901495288518,3.53535,57.06317,359.8181,0.02634254,0.4774583,-0.0161281,10.31999976933,3
1.743486,0.4833333,-5.663869,0.5009454570790455,-0.1163888625408943,0.2404331207108176,7.070114,57.1758,359.6427,0.05265274,0.4777625,-0.03223659,10.339999768883,3
1.796971,0.6833333,-5.632933,0.3384518312019495,0.3167597793832248,0.1408535274801847,10.60619,57.27831,359.4723,0.07891813,0.4776087,-0.04832225,10.359999768436,3
1.850441,0.8833332,-5.602005,0.3263776166888084,0.0986174228179551,0.1311005458811331,14.14157,57.37126,359.3061,0.1051009,0.4769982,-0.06435724,10.3799997679889,3
2.041054,0.2833333,-5.492062,0.302558996256566,-0.1048891841789829,0.1159795325991379,3.564599,58.79305,359.8792,0.02658033,0.4906417,-0.01618418,10.3999997675419,3
2.095317,0.4833333,-5.461582,0.2789827638390307,-0.3481214087959723,0.1024868243401981,7.128649,58.91074,359.7652,0.05312742,0.4909041,-0.03235177,10.4199997670949,3
2.149563,0.6833332,-5.43111,0.2889810827224184,-0.3653707654326783,0.1091028945708769,10.69191,59.02225,359.6576,0.07961552,0.49069,-0.04848338,10.4399997666478,3
2.357496,0.2833333,-5.30969,0.2853526535480952,-0.3434171099792051,0.1083271770269407,3.593026,60.18001,0.02044345,0.02721458,0.5011086,-0.01556331,10.4599997662008,3
2.411675,0.4833333,-5.278134,0.2805056354868309,-0.3355765054355004,0.1073297949100697,7.185205,60.3107,0.04957952,0.05439836,0.5013356,-0.03110448,10.4799997657537,3
2.465839,0.6833332,-5.246588,0.112420523680095,0.3251231004445959,0.0120070791764486,10.7763,60.4444,0.08732463,0.08152102,0.5010687,-0.04661064,10.4999997653067,3
2.691243,0.2833333,-5.115107,0.1768244473685349,0.0944357884225424,0.053438054178883,3.561811,61.06868,0.08662871,0.02715185,0.5077888,-0.01513832,10.5199997648597,3
2.744865,0.4833333,-5.083659,0.2287635711747668,-0.1216157750765903,0.088468500029192,7.122171,61.20511,0.1819711,0.05426836,0.5080113,-0.03025608,10.5399997644126,3
2.798471,0.6833333,-5.05222,0.0861169105656332,0.3428950379569015,0.0106362876086425,10.68127,61.34877,0.2868324,0.08132469,0.5077419,-0.04534025,10.5599997639656,3
2.852062,0.8833332,-5.020791,-0.064409629455362,0.7964290317576197,-0.0714524503539038,14.23909,61.501,0.4023052,0.1082948,0.5069813,-0.06037628,10.5799997635186,3
3.043275,0.2833333,-4.909965,-0.0636712115628475,0.3340090570042873,-0.065639545801686,3.635272,61.90425,0.1122562,0.0277052,0.514036,-0.01547376,10.5999997630715,3
3.098289,0.4833333,-4.878299,-0.0644947834009075,-0.1393877369818175,-0.0611450917065878,7.269237,62.04282,0.2334981,0.05537454,0.51421,-0.03092761,10.6199997626245,3
3.153283,0.6833332,-4.846644,-0.2092535692084558,0.2812157991205824,-0.1398922076792685,10.90252,62.19047,0.3646783,0.08298431,0.5138649,-0.0463503,10.6399997621775,3
3.208261,0.8833331,-4.814998,-0.1821898926203005,0.0505284418845063,-0.1170201607473018,14.53441,62.34869,0.5073618,0.1105026,0.5130016,-0.0617219,10.6599997617304,3
3.450955,0.2833333,-4.674373,-0.1563037994602885,-0.1655231673513537,-0.0938134237709782,3.622383,62.80488,0.1439329,0.02763073,0.5207514,-0.01539662,10.6799997612834,3
3.505992,0.4833333,-4.643196,-0.1181982918000912,-0.4213005024944112,-0.0625268409230623,7.243356,62.94592,0.2970364,0.0552257,0.5209121,-0.03077335,10.6999997608364,3
3.561013,0.6833333,-4.612028,-0.0878041431392118,-0.451094731651969,-0.0349685880137933,10.86288,63.0981,0.4607026,0.08275742,0.5205506,-0.04611481,10.7199997603893,3
3.777861,0.2833334,-4.486862,-0.063603467803798,-0.4416860570064921,-0.0106492890315088,3.560411,64.61723,0.2330733,0.02734247,0.5341669,-0.01488558,10.7399997599423,3
3.832202,0.4833333,-4.456504,-0.032196463202295,-0.4463905415579337,0.0180281668564736,7.119193,64.76598,0.4757771,0.05465035,0.5343205,-0.02975239,10.7599997594953,3
3.886528,0.6833333,-4.426156,-0.1678226956982467,0.2017639864651843,-0.0511961504466662,10.67625,64.93138,0.7301637,0.0818972,0.5339554,-0.04458596,10.7799997590482,3
3.94084,0.8833332,-4.395813,-0.2917625793440574,0.6984544494428335,-0.1146680881332296,14.23113,65.11514,0.9983606,0.1090533,0.5330724,-0.05937173,10.7999997586012,3
4.120716,0.2833333,-4.290741,-0.2010283280238329,0.1686488480440664,-0.0565569348185381,3.497133,65.09862,0.2785806,0.027028,0.5377106,-0.01436872,10.8199997581542,3
4.17397,0.4833333,-4.260581,-0.3034270433880897,0.3485199617725789,-0.1123923740740733,6.992524,65.25064,0.5668941,0.05402268,0.5378789,-0.02871965,10.8399997577071,3
4.227211,0.6833333,-4.230428,-0.4040459771735545,0.5454880583580948,-0.1686405973111564,10.48566,65.42186,0.867394,0.08095648,0.5375426,-0.04303651,10.8599997572601,3
4.424343,0.2833333,-4.115014,-0.3359636615187495,0.078558409372225,-0.1282723791966424,3.439109,64.76559,0.2939157,0.02671388,0.5352653,-0.01390605,10.879999756813,3
4.476394,0.4833333,-4.084732,-0.2610576369899524,-0.4003577117351493,-0.0858618350080169,6.876037,64.91819,0.5977205,0.05339384,0.5354602,-0.02779136,10.899999756366,3
4.52843,0.6833333,-4.054459,-0.331914112526519,0.0137785928592607,-0.1291176069830153,10.31112,65.09055,0.9135058,0.08001786,0.5351686,-0.04164739,10.919999755919,3
4.742917,0.2833333,-3.929393,-0.2185009643935771,-0.2119770972251925,-0.063456602377999,3.393516,63.2252,0.1943827,0.02610469,0.5238998,-0.01407662,10.9399997554719,3
4.794213,0.4833333,-3.899637,-0.1039374687486205,-0.4253955747758691,0.0040827477597118,6.785202,63.36813,0.3974652,0.05217578,0.5241367,-0.02813548,10.9599997550249,3
4.845495,0.6833333,-3.86989,-0.1605993933152918,0.0395715889546524,-0.0285608455266852,10.17538,63.52439,0.6108789,0.07819358,0.5239116,-0.0421655,10.9799997545779,3
4.896762,0.8833332,-3.840151,-0.2130702699098172,0.4915070923287197,-0.0589789733003103,13.56398,63.69546,0.8363981,0.1041352,0.5232251,-0.0561544,10.9999997541308,3
5.161857,0.2833333,-3.685177,-0.1149972915167429,0.0386583358449892,-0.0025564312791765,3.33619,61.0337,0.08074773,0.02543503,0.5075587,-0.01417484,11.0199997536838,3
5.212064,0.4833333,-3.655699,-0.2119048048849912,0.2917374120327968,-0.0607118141870786,6.670774,61.16583,0.1694421,0.05083831,0.5078483,-0.02833056,11.0399997532368,3
5.262256,0.6833333,-3.62623,-0.3092854494505568,0.5583456783581964,-0.1202402476214357,10.00418,61.30421,0.2666669,0.07619119,0.5077064,-0.04245816,11.0599997527897,3
5.312434,0.8833332,-3.59677,-0.2399685392322181,0.1577583930812368,-0.0838989183466445,13.33639,61.44994,0.3732976,0.1014723,0.5071335,-0.05654573,11.0799997523427,3
5.500224,0.2833334,-3.48755,-0.1659531063537427,-0.2580315384792012,-0.0463479894119616,3.280694,59.3916,359.9601,0.02469382,0.4952006,-0.01448302,11.0999997518957,3
5.549808,0.4833333,-3.458958,-0.2406693182376589,0.2161961871248352,-0.0960674899843585,6.560501,59.51268,359.9272,0.04936012,0.4955308,-0.02894991,11.1199997514486,3
5.59938,0.6833333,-3.430372,-0.3078924028271288,0.6757076814177665,-0.1421893918655916,9.839037,59.63268,359.9007,0.07397505,0.495454,-0.0433887,11.1399997510016,3
5.803196,0.2833333,-3.310821,-0.1472599057064068,0.2316283575546907,-0.0565530502462463,3.229635,56.91233,359.8571,0.02418169,0.4763275,-0.01452304,11.1599997505546,3
5.851729,0.4833333,-3.282093,0.0173441754034806,-0.2285836720757455,0.0300843359128484,6.458601,57.02431,359.7204,0.04833706,0.4767065,-0.02903011,11.1799997501075,3
5.900249,0.6833332,-3.253372,-0.0274840618420872,0.2003695613801963,-0.0060109506778822,9.686873,57.12926,359.5891,0.07244695,0.4767052,-0.04350968,11.1999997496605,3
6.121169,0.2833333,-3.123415,0.1116887158320834,-0.0137639988363473,0.0648428024343918,3.282512,55.48106,359.798,0.02452918,0.4653213,-0.01489136,11.2199997492135,3
6.170334,0.4833333,-3.093801,0.2409434214878816,-0.2189812144018214,0.1294703904797289,6.564481,55.58738,359.6018,0.04903115,0.4656975,-0.02976625,11.2399997487664,3
6.219486,0.6833332,-3.064196,0.1779615619806014,0.2510276689773694,0.0822231211801229,9.845858,55.68307,359.4102,0.07348587,0.4656893,-0.04461223,11.2599997483194,3
6.268622,0.8833331,-3.034601,0.1073655436022384,0.6994331975458419,0.0310890385194462,13.12711,55.76853,359.2222,0.09787783,0.4652968,-0.05941796,11.2799997478724,3
6.317743,0.9766705,-3.005015,0.1737313450751827,0.2374705204575823,0.0626175843354259,16.40768,55.84397,359.0365,0.1221823,0.4645207,-0.07417047,11.2999997474253,3
6.545323,0.2842887,-2.873466,0.2377708415703985,-0.2401391330409777,0.0942146446399383,3.525702,57.58381,359.8366,0.02627325,0.4814399,-0.01606513,11.3199997469783,3
6.598802,0.4842887,-2.842827,0.1607393886408719,0.1719829036111316,0.0433881506170412,7.050762,57.69189,359.6796,0.05251438,0.481692,-0.03211077,11.3399997465312,3
6.652251,0.6842886,-2.8122,0.2313536337583084,-0.0807324656715626,0.0792839588677507,10.57707,57.79095,359.5272,0.07871045,0.4814852,-0.04813469,11.3599997460842,3
6.851396,0.2951441,-2.696944,0.3018740419215433,-0.3211154453365818,0.1145878354256033,3.564706,59.07528,359.8988,0.02662537,0.4927803,-0.01610151,11.3799997456372,3
6.905635,0.495144,-2.666438,0.2117342234396559,0.1171151642076777,0.0544393304502983,7.128899,59.18864,359.8043,0.05321868,0.492992,-0.03218589,11.3999997451901,3
6.959859,0.6951439,-2.63594,0.1273402124244764,0.5418041025406324,-0.0032879201016164,10.69226,59.29702,359.716,0.07975291,0.4927252,-0.0482345,11.4199997447431,3
7.176444,0.3066556,-2.508946,0.2590443471988166,0.0410029472744553,0.0094804717253418,3.589461,60.38591,0.05762623,0.0273228,0.5026534,-0.01531622,11.4399997442961,3
7.230361,0.5066556,-2.477054,0.2023620467023725,0.2497488148522578,-0.0882254411187755,7.177965,60.51397,0.1240074,0.05461523,0.5028322,-0.0306092,11.459999743849,3
7.284261,0.7066556,-2.44517,0.1430834551496431,0.4757653527301111,-0.1871234987453409,10.76529,60.64739,0.1991809,0.08184633,0.5025168,-0.04586775,11.479999743402,3
7.338147,0.9066556,-2.413296,0.0928768967642525,0.6670906154331615,-0.2796706650719803,14.3514,60.78741,0.2839894,0.1089894,0.5017079,-0.06107697,11.499999742955,3
7.518522,0.3189334,-2.308255,0.1862464442929123,-0.0863687990147765,-0.3756973552836538,3.567705,61.22733,0.08958273,0.02718823,0.5089788,-0.0151799,11.5199997425079,3
7.5723,0.5189334,-2.276867,0.0419801877176677,0.084916309281084,-0.6059547232526373,7.134054,61.35778,0.1872763,0.05434057,0.5091495,-0.03034142,11.5399997420609,3
7.626064,0.7189333,-2.245488,-0.0994325892944658,0.2752100649546175,-0.8288938995037138,10.69914,61.49556,0.2941519,0.08143248,0.5088256,-0.04546915,11.5599997416139,3
7.82596,0.3298721,-2.129053,-0.0823612208342048,-0.2085620220514543,-1.0814013341176358,3.646273,61.82278,0.114891,0.02781033,0.5134242,-0.01548364,11.5799997411668,3
7.881077,0.5298721,-2.097178,-0.0564718462164783,-0.7003613196224485,-1.314809145427964,7.291249,61.95553,0.2384435,0.05558459,0.5135493,-0.03094718,11.5999997407198,3
7.93618,0.729872,-2.065312,-0.1750888668999959,-0.2949276798675584,-1.6166585374344336,10.93488,62.09751,0.3718038,0.08329457,0.5131533,-0.04637498,11.6199997402728,3
7.991261,0.929872,-2.033457,-0.113290206071392,-0.535243347440832,-1.966384547432072,14.57783,62.25017,0.5162891,0.1109172,0.5122365,-0.06175517,11.6399997398257,3
8.242593,0.3447329,-1.887523,-0.0460718162481477,-0.7573671661700683,-2.281165802169117,3.61007,63.20568,0.1694588,0.02760191,0.5237279,-0.01524726,11.6599997393787,3
8.297451,0.5447329,-1.856437,-0.1464412905981795,-0.295079348430485,-2.6621494989860395,7.218684,63.34301,0.347875,0.05516828,0.523842,-0.0304748,11.6799997389317,3
8.352294,0.7447329,-1.82536,-0.2371215586415633,0.1603740562986103,-3.004982653147587,10.8258,63.49302,0.5368115,0.08267176,0.5234343,-0.0456677,11.6999997384846,3
8.57786,0.3566505,-1.694689,-0.079314528427492,-0.2896184287650857,-3.440751503213038,3.545296,64.70081,0.2470132,0.02728528,0.5347821,-0.01473225,11.7199997380376,3
8.631903,0.5566505,-1.664305,-0.1199504762754664,-0.0262996355003181,-3.9390186762651593,7.088952,64.84469,0.5033454,0.0545363,0.5348961,-0.02944593,11.7399997375906,3
8.68593,0.7566504,-1.63393,-0.1642927098307662,0.2580684796412418,-4.385811238863512,10.63088,65.00595,0.7711164,0.08172682,0.5344949,-0.04412699,11.7599997371435,3
8.739944,0.9513339,-1.603562,-0.2008325835451767,0.5115383939349767,-4.774403557358417,14.17058,65.18632,1.05261,0.1088275,0.5335795,-0.05876043,11.7799997366965,3
8.91891,0.3602122,-1.498494,-0.0792697979084646,-0.1645232558628345,-5.214643976603066,3.482075,65.04665,0.28781,0.02696705,0.5373287,-0.01421795,11.7999997362494,3
8.971831,0.5602123,-1.468252,0.0574952154988981,-0.7457297521333378,-5.578666815346711,6.962411,65.19336,0.585005,0.05390104,0.5374597,-0.02841834,11.8199997358024,3
9.024741,0.7602121,-1.438018,0.0074659980063565,-0.3301609762049657,-5.982267574663522,10.44052,65.35966,0.8940976,0.08077497,0.5370906,-0.04258511,11.8399997353554,3
9.210808,0.3511418,-1.330629,0.1245793841444964,-0.5533900903760367,-6.425154725169597,3.422662,67.22078,0.3248877,0.02643988,0.5532229,-0.01417074,11.8599997349083,3
9.263643,0.5511417,-1.302236,0.2427072283155222,-0.7580470186625938,-6.780612846879842,6.843205,67.36991,0.65842,0.05284225,0.5533428,-0.02832852,11.8799997344613,3
9.316464,0.7511416,-1.273851,0.1986407192735395,-0.2908454647463924,-7.144958877890231,10.26185,67.54048,1.003894,0.07918963,0.552964,-0.04245685,11.8999997340143,3
9.36927,0.9502322,-1.245475,0.1578915743325097,0.1607607418581698,-7.423168855640414,13.67841,67.73428,1.364132,0.1054583,0.5520873,-0.05654283,11.9199997335672,3
9.608299,0.3423494,-1.159901,0.3436991847496387,-0.2900349555790118,-7.752554437158962,3.361242,72.14737,0.2966333,0.0252283,0.5885086,-0.01517773,11.9399997331202,3
9.662523,0.5423494,-1.136979,0.3328337761768534,-0.0416395195816779,-8.089640219222158,6.72068,72.29282,0.599667,0.05041341,0.5885807,-0.03035535,11.9599997326732,3
9.716732,0.7423493,-1.114063,0.3102182713392079,0.225927957859228,-8.330146991742497,10.07834,72.45743,0.9138884,0.07554765,0.5881419,-0.04550238,11.9799997322261,3
9.770926,0.9423493,-1.091154,0.2872404784803475,0.4518614514308234,-8.471571300508094,13.43407,72.64283,1.241779,0.1006093,0.5871929,-0.0606056,11.9999997317791,3
9.940188,0.3382458,-1.084499,0.4031331409153811,-0.2580530088670907,-8.607688133017605,3.301466,77.3438,0.2031463,0.02359773,0.6245596,-0.01661664,12.0199997313321,3
9.995615,0.5382459,-1.068438,0.3739371115602168,-0.0558538181893653,-8.720791687066223,6.60149,77.48035,0.4143403,0.04716827,0.6245852,-0.03321525,12.039999730885,3
10.05102,0.7382458,-1.052365,0.346192567298333,0.1657200824303902,-8.730977742330127,9.899949,77.62991,0.6327159,0.07067875,0.6240888,-0.0497977,12.059999730438,3
10.24173,0.3375178,-1.077928,0.4791348231556416,-0.2925025919223767,-8.738393665157895,3.249245,83.86873,0.1161581,0.02176791,0.6679885,-0.01819273,12.079999729991,3
10.29788,0.5375178,-1.069891,0.4425155922992303,-0.050722690818245,-8.733482051165417,6.497274,83.99719,0.2396222,0.04351107,0.6679476,-0.03636635,12.0999997295439,3
10.35402,0.7375177,-1.061855,0.4022107670309314,0.2102398346854282,-8.626377164217892,9.74415,84.13361,0.3709858,0.06521087,0.6673682,-0.05450871,12.1199997290969,3
10.56585,0.3394158,-1.122483,0.5368847295041039,-0.2094188817764867,-8.52760678959489,3.205785,88.88116,0.02681481,0.02013521,0.6998906,-0.01941819,12.1399997286499,3
10.62177,0.5394158,-1.120956,0.6689614626646971,-0.6365390257121497,-8.316544922177375,6.410572,89.00159,0.06028475,0.04024803,0.6998016,-0.03881628,12.1599997282028,3
10.67766,0.7394157,-1.119432,0.5752569872605502,-0.1839282629455011,-8.131858948803988,9.614349,89.12473,0.1006972,0.0603227,0.6991642,-0.05817914,12.1799997277558,3
10.73355,0.9394157,-1.117903,0.4768713351767388,0.2592728285506098,-7.853521296762025,12.81718,89.25119,0.1474054,0.08033773,0.6979787,-0.07749847,12.1999997273088,3
11.00232,0.345106,-1.246036,0.6076378104170068,-0.22174288345263,-7.627192807746677,3.384008,97.84589,0.007500673,0.01945056,0.7534966,-0.02221506,12.2199997268617,3
11.06087,0.5451061,-1.254016,0.5234367822553132,-0.0050549986325176,-7.41605103086174,6.767067,97.96432,0.02186055,0.03887781,0.7531827,-0.04440552,12.2399997264147,3
11.1194,0.745106,-1.261996,0.4192133892696432,0.2293371626151498,-7.117675990569849,10.14918,98.08452,0.04329182,0.058265,0.7522113,-0.06655206,12.2599997259676,3
11.17791,0.9451059,-1.269954,0.3069022261976997,0.4290305665950306,-6.736985991493283,13.5322,98.20679,0.06938284,0.07758844,0.750581,-0.08866289,12.2799997255206,3
11.3664,0.3517274,-1.38694,0.3386058696289318,-0.3137573308571357,-6.370186309646649,3.519927,105.2326,-0.0002236838,0.01864544,0.7942125,-0.0244048,12.2999997250736,3
11.42568,0.5517274,-1.403106,0.2181762301387984,-0.1421772606577926,-6.010213558281929,7.039675,105.3498,0.005748463,0.03726533,0.7937061,-0.04879073,12.3199997246265,3
11.48495,0.7517273,-1.419249,0.0923239501847064,0.0470319197923294,-5.583987469007312,10.55895,105.468,0.01644162,0.05582957,0.7924489,-0.07314115,12.3399997241795,3
11.69166,0.3591812,-1.541341,0.1325329199844773,-0.4460655766227878,-5.201224241510192,3.567703,110.7969,0.05630343,0.01808136,0.8227134,-0.02534409,12.3599997237325,3
11.75022,0.5591812,-1.562506,0.0116926448323013,-0.2175823267190496,-4.84687457508337,7.134779,110.919,0.1180547,0.03612639,0.8220928,-0.05067123,12.3799997232854,3
11.80876,0.7591812,-1.583664,-0.1155956672995639,0.0300387713282999,-4.445049929695441,10.7007,111.0461,0.1881144,0.05413127,0.8206746,-0.07594205,12.3999997228384,3
11.86729,0.9518402,-1.604816,-0.2369295149170334,0.2443491893706998,-4.004470477595273,14.26544,111.1793,0.2672832,0.07207862,0.8184611,-0.1011319,12.4199997223914,3
12.12477,0.3603314,-1.758675,-0.1260246865126042,-0.4892759931841877,-3.6708069744581424,3.554883,115.9075,0.1777381,0.01777191,0.8471857,-0.02546819,12.4399997219443,3
12.18194,0.5603314,-1.782952,-0.2345663774995863,-0.2875443812651081,-3.368601359556141,7.108414,116.0405,0.3624736,0.03551038,0.8464959,-0.0509122,12.4599997214973,3
12.23908,0.7603313,-1.807222,-0.3529561397906278,-0.0650704253256899,-3.0409441532773696,10.66048,116.1864,0.5573438,0.05320964,0.8449895,-0.07629988,12.4799997210503,3
12.29621,0.9520702,-1.831484,-0.4688315102581839,0.1256964726091046,-2.6980594246398835,14.211,116.3466,0.7641519,0.07085255,0.8426682,-0.1016067,12.4999997206032,3
12.47311,0.3536202,-1.945682,-0.43677997759867,-0.6291116121632762,-2.4372857168984163,3.620146,118.8591,0.1698908,0.01734065,0.8605501,-0.02644241,12.5199997201562,3
12.52989,0.5536202,-1.973556,-0.532935857947983,-0.451845386689049,-2.152750580637795,7.238881,118.9914,0.3483917,0.03465864,0.8597713,-0.05285108,12.5399997197092,3
12.58665,0.75362,-2.00141,-0.6234672882269567,-0.2531021561602597,-1.8649769173262865,10.85686,119.1362,0.5356136,0.05192893,0.8581314,-0.07921131,12.5599997192621,3
12.78185,0.3472779,-2.124024,-0.5437896058332772,-0.7325498780356624,-1.6815435727257215,3.634943,120.7013,0.1586262,0.01689179,0.8686094,-0.02687853,12.5799997188151,3
12.83782,0.5472778,-2.153993,-0.615165662787307,-0.4966251085052059,-1.454231994974132,7.268499,120.8323,0.3258039,0.03376145,0.8677926,-0.0537225,12.5999997183681,3
12.89377,0.7472777,-2.183954,-0.6817595136804062,-0.2389146207687446,-1.229398127319647,10.90059,120.9752,0.503053,0.05059199,0.866101,-0.08050462,12.619999717921,3
13.10644,0.3404276,-2.31683,-0.7313531798842288,-0.0119137463696349,-1.0177401526638603,3.587167,123.4781,0.2228385,0.01653158,0.8803383,-0.02664765,12.639999717474,3
13.16081,0.5404276,-2.348071,-0.7304101059928811,-0.0130127175981817,-0.8786479848823565,7.172763,123.6146,0.4545659,0.03304175,0.8795133,-0.05326135,12.6599997170269,3
13.21516,0.7404276,-2.379304,-0.7330391401900798,0.0365831816032966,-0.7405537376043174,10.75671,123.767,0.6971682,0.04951432,0.8778231,-0.07981493,12.6799997165799,3
13.2695,0.9404275,-2.410524,-0.7270651569829045,0.0832783426575608,-0.6142637406185609,14.33874,123.9369,0.9520212,0.06592597,0.8752701,-0.1062844,12.6999997161329,3
13.53222,0.3312376,-2.575547,-0.5172145897603961,-0.5695676564677848,-0.6060709171901806,3.517774,125.7133,0.299055,0.01632415,0.8894089,-0.02612305,12.7199997156858,3
13.58512,0.5312376,-2.607088,-0.5473257692104561,-0.3017876516937366,-0.4663640234021664,7.033817,125.8559,0.6073407,0.03262794,0.8885975,-0.05221371,12.7399997152388,3
13.638,0.7312375,-2.63862,-0.5821492864257678,-0.0136546857932945,-0.3329722826710082,10.54792,126.019,0.9272546,0.04889485,0.8869427,-0.07824691,12.7599997147918,3
13.69088,0.9312376,-2.670142,-0.6107893549351058,0.2422380328326215,-0.2156201900197043,14.05971,126.2042,1.261245,0.06510628,0.8844469,-0.1041976,12.7799997143447,3
13.87511,0.3237328,-2.786888,-0.4861522867551766,-0.440455264950941,-0.1747067787916099,3.453406,126.1601,0.3128587,0.01607535,0.8911947,-0.02563136,12.7999997138977,3
13.927,0.5237328,-2.817978,-0.5045413695290879,-0.2056903163590199,-0.0313127242176412,6.904637,126.303,0.6346934,0.03212865,0.8904205,-0.05122887,12.8199997134507,3
13.97888,0.7237327,-2.849058,-0.5175198671690922,0.0472190992214401,0.0981342455717446,10.35401,126.4668,0.9681404,0.04814808,0.8888311,-0.07677209,12.8399997130036,3
14.18,0.3170227,-2.976297,-0.3606732533422452,-0.3746692440984751,0.1639608667862897,3.404469,125.3445,0.2377291,0.01547928,0.8879727,-0.02543794,12.8599997125566,3
14.23087,0.5170227,-3.007224,-0.3704804273004232,-0.0954917591131847,0.333706269156262,6.80702,125.4799,0.4836564,0.03093718,0.8872461,-0.0508437,12.8799997121096,3
14.28174,0.7170225,-3.038141,-0.3785690067089398,0.1997249899376736,0.491200893130709,10.20799,125.6311,0.7398748,0.04636341,0.8857325,-0.07619713,12.8999997116625,3
14.33259,0.9170226,-3.069051,-0.3746511289628174,0.4583140093770947,0.6279518910625512,13.60724,125.7998,1.008451,0.06174397,0.883434,-0.1014757,12.9199997112155,3
14.58384,0.3081064,-3.227993,-0.1466468706557613,-0.2173309975661855,0.6958069674908289,3.350851,123.4872,0.1178939,0.01474739,0.8804468,-0.02526665,12.9399997107685,3
14.63376,0.5081065,-3.258483,-0.1478529350845185,0.018720116144902,0.8940451199361634,6.700011,123.6112,0.2431262,0.02947529,0.8797832,-0.05050113,12.9599997103214,3
14.68367,0.7081064,-3.288965,-0.1542720978148946,0.2691038165336279,1.0762431033385456,10.04797,123.7436,0.3767745,0.04417411,0.8783663,-0.0756854,12.9799997098744,3
14.73356,0.9081063,-3.319438,-0.1556203991093845,0.4811472044838755,1.2342725726008812,13.39464,123.8855,0.5199515,0.05883093,0.8761981,-0.1007976,12.9999997094274,3
14.90812,0.3009228,-3.431271,-0.0347577434520971,-0.2416577995496756,1.3587209240750218,3.293863,121.9691,359.9884,0.01385189,0.8741291,-0.02518227,13.0199997089803,3
14.95678,0.5009227,-3.461826,-0.0426591681729995,-0.0460311726725077,1.5525817380668263,6.586777,122.0812,359.9832,0.02768817,0.8735221,-0.05033641,13.0399997085333,3
15.00544,0.7009225,-3.492372,-0.0411916987469211,0.1632909301018403,1.716392864549377,9.878339,122.1938,359.9842,0.04149348,0.8721933,-0.07543991,13.0599997080863,3
15.19676,0.2944676,-3.613647,0.0663202581403119,-0.306643370788329,1.8375898635231616,3.242217,120.0277,359.8965,0.01335674,0.8658122,-0.02495458,13.0799997076392,3
15.24486,0.4944676,-3.643466,0.0267719279227982,-0.0634186633727036,2.030643368524597,6.483663,120.1317,359.7987,0.02669889,0.8652608,-0.04988174,13.0999997071922,3
15.29294,0.6944675,-3.673277,-0.0014590190278624,0.1932779766766428,2.1899653759923474,9.724338,120.2307,359.7061,0.0400159,0.8640158,-0.07476164,13.1199997067451,3
15.34101,0.8944675,-3.703082,-0.0085186353272561,0.4108417759263884,2.3088825315338277,12.96389,120.3254,359.6184,0.05329666,0.8620791,-0.09957129,13.1399997062981,3
15.58423,0.2858919,-3.85556,-0.0603452295353754,0.4114273383661697,2.5055109088644665,3.265704,116.1399,359.7649,0.01332994,0.8483791,-0.02526792,13.1599997058511,3
15.63362,0.4858919,-3.884288,-0.105395548647067,0.4541795394788368,2.6651848826630067,6.530865,116.232,359.5348,0.02664529,0.8478559,-0.05050781,13.179999705404,3
15.68299,0.6858919,-3.913008,-0.1337077240252462,0.4854841085343263,2.78203286597826,9.795447,116.3115,359.3082,0.03993546,0.8466403,-0.07569919,13.199999704957,3
15.90397,0.2833334,-4.031037,-0.060476655110051,-0.1885874060221566,2.837038688045868,3.528348,115.7884,359.7759,0.01470668,0.8466972,-0.02711629,13.21999970451,3
15.95778,0.4833333,-4.061309,-0.210388492123581,0.0669187212182927,3.001395545157377,7.056129,115.8797,359.5572,0.02939546,0.8460051,-0.05419947,13.2399997040629,3
16.01157,0.6833333,-4.091568,-0.3499093977281937,0.3359220532913284,3.127502290322825,10.58527,115.958,359.3423,0.04406344,0.8445061,-0.08123721,13.2599997036159,3
16.06533,0.8833333,-4.121817,-0.4693772661528577,0.5659017664828504,3.2102835903609908,14.11378,116.0238,359.1295,0.05868584,0.842203,-0.1081907,13.2799997031689,3
16.2467,0.2833332,-4.199405,-0.4879462815674884,-0.1494153368751927,3.2410728721114337,3.560194,114.8514,359.8188,0.01539226,0.8423129,-0.02702812,13.2999997027218,3
16.30177,0.4833332,-4.22832,-0.6336648708900654,0.063045801281089,3.324141310807692,7.119965,114.9462,359.644,0.03077245,0.8416116,-0.05402066,13.3199997022748,3
16.35683,0.6833333,-4.257226,-0.7557100343836503,0.2890420558351625,3.3632960020020466,10.67897,115.0306,359.4734,0.04611843,0.8400956,-0.08095311,13.3399997018278,3
16.55607,0.2833333,-4.324302,-0.8444427959934373,0.4760919393589667,3.353838011839376,3.589325,113.202,359.9476,0.01685762,0.8344558,-0.02639743,13.3599997013807,3
16.61332,0.4833333,-4.349734,-0.964720570383328,0.4463041812949291,3.423987671122566,7.178014,113.3085,359.9037,0.033709,0.8337592,-0.05275455,13.3799997009337,3
16.67055,0.6833332,-4.375159,-1.065874677889905,0.4590963351375977,3.4702029046760865,10.76578,113.4132,359.8661,0.05052255,0.8322443,-0.07905263,13.3999997004867,3
16.72776,0.8833331,-4.400577,-1.1381977987203094,0.4609766950899965,3.4868972465637933,14.35258,113.5169,359.8347,0.06728175,0.829913,-0.1052657,13.4199997000396,3
16.97405,0.2833332,-4.463129,-1.112771140393729,-0.2418615309696655,3.475711844681731,3.567243,110.3494,9.730528e-06,0.01777484,0.8204994,-0.0255504,13.4399996995926,3
17.03244,0.4833332,-4.484685,-1.2875218011805707,-0.0146704106899118,3.574610734281114,7.133348,110.4604,0.008658541,0.03553911,0.8198563,-0.0510594,13.4599996991456,3
17.09081,0.6833332,-4.506236,-1.4381812028222534,0.2268824836173073,3.641129833938397,10.69841,110.573,0.02455054,0.05326486,0.8184186,-0.07651093,13.4799996986985,3
17.14917,0.8833332,-4.527781,-1.5553268390157875,0.4303972229528116,3.670024438224268,14.26241,110.688,0.04786732,0.07093399,0.8161885,-0.1018811,13.4999996982515,3
17.30766,0.2833332,-4.550534,-1.5729798828168455,-0.3102785623685827,3.665762960048085,3.646037,109.2917,0.05913649,0.01882819,0.8151688,-0.02564738,13.5199996978045,3
17.36809,0.4833333,-4.570501,-1.6959525522910577,-0.1223346877795585,3.710677707659784,7.290884,109.4079,0.1258096,0.03763206,0.814485,-0.0512611,13.5399996973574,3
17.4285,0.6833333,-4.590463,-1.7804044869111235,0.0804481970144204,3.71394535637385,10.93456,109.5294,0.2007064,0.05639289,0.8129763,-0.07681549,13.5599996969104,3
17.57012,0.2833333,-4.615333,-1.7289486825284437,-0.3946063353645755,3.687813341884469,3.619476,107.8528,0.07805936,0.01914574,0.8078454,-0.0251245,13.5799996964633,3
17.63067,0.4833333,-4.633317,-1.803230293576369,-0.1546722328411237,3.720407407086747,7.23773,107.9704,0.1637181,0.03826698,0.8071983,-0.05021639,13.5999996960163,3
17.6912,0.6833333,-4.651295,-1.8408733101444132,0.1007191983612585,3.7110200649220335,10.85473,108.0945,0.2577974,0.05734468,0.8057454,-0.07525063,13.6199996955693,3
17.75172,0.8833333,-4.669274,-1.8322933440506333,0.3192392132757893,3.656747006206535,14.47033,108.2267,0.3621981,0.07636526,0.8034897,-0.100197,13.6399996951222,3
17.9175,0.2833335,-4.686157,-1.62506585218307,-0.4051932803602793,3.5801941249669467,3.552349,109.7551,0.2302709,0.01947508,0.817494,-0.02419606,13.6599996946752,3
17.97721,0.4833334,-4.703257,-1.6031657481647592,-0.1980254186437472,3.5987383101301527,7.103158,109.8863,0.4690737,0.03892578,0.8168579,-0.04836165,13.6799996942282,3
18.03689,0.6833334,-4.720352,-1.5506769384173893,0.0255546146177459,3.578535313982488,10.65233,110.0337,0.718403,0.05833329,0.8154336,-0.07247333,13.6999996937811,3
18.16665,0.2833334,-4.749821,-1.3187607612062742,-0.4270510539486702,3.54262630654788,3.48542,109.4151,0.2704353,0.01949547,0.8157925,-0.02345923,13.7199996933341,3
18.22558,0.4833333,-4.765512,-1.2611100085975977,-0.1676149301232292,3.5691285106225434,6.969209,109.5492,0.5494722,0.03896712,0.8152016,-0.0468896,13.7399996928871,3
18.2845,0.6833333,-4.781202,-1.1909407478599832,0.1085478540325259,3.564043903775469,10.4508,109.7018,0.8398078,0.05839789,0.8138524,-0.07026367,13.75999969244,3
18.3434,0.8833333,-4.796888,-1.0998485722378852,0.34916686090959,3.527223532375809,13.93056,109.8744,1.143447,0.07776892,0.8117464,-0.09356559,13.779999691993,3
18.46897,0.2833335,-4.81601,-0.8767733218185221,-0.3517813608464633,3.481766919542008,3.429935,106.5306,0.2302036,0.01950909,0.8010168,-0.02278313,13.799999691546,3
18.52749,0.4833336,-4.829109,-0.7825823217610441,-0.1299801993949451,3.458906007978552,6.857906,106.6603,0.4696124,0.03900009,0.8005009,-0.0455302,13.8199996910989,3
18.586,0.6833336,-4.842205,-0.6743237236919377,0.1085476788390808,3.407392021251781,10.28433,106.8056,0.7190126,0.05845063,0.7992645,-0.06822979,13.8399996906519,3
18.6445,0.8833337,-4.855297,-0.5438320408069544,0.3115314889088288,3.3281124086810685,13.70908,106.968,0.9804353,0.07784284,0.7973095,-0.09086157,13.8599996902049,3
18.80104,0.2833333,-4.852101,-0.4074864140221379,0.2932366663063492,3.3001788942012587,3.377315,102.0448,0.1059311,0.01925441,0.7770368,-0.02232723,13.8799996897578,3
18.85808,0.4833333,-4.843892,-0.2744290836880019,0.3204171208684342,3.24379887426875,6.488084,101.8485,1.209644,0.04385031,0.7746494,-0.03728506,13.8999996893108,3
18.91503,0.6833334,-4.834748,-0.1366731278949551,0.3397571358875053,3.160395795185158,9.575116,101.7081,2.391056,0.06880229,0.771567,-0.05158794,13.9199996888638,3
19.02731,0.2833333,-4.817978,0.1469458233139136,-0.3423733056940704,3.078939434121133,3.139071,96.54322,0.8274702,0.02361746,0.7458774,-0.01563648,13.9399996884167,3
19.08323,0.4833333,-4.809153,0.2077377482115601,-0.1017544697416886,3.014137652740942,6.267736,96.20109,1.689479,0.04746244,0.7425857,-0.03085573,13.9599996879697,3
19.13915,0.6833334,-4.800332,0.2536570390047963,0.1555909645132936,2.924159511411853,9.400111,95.90361,2.538355,0.07125846,0.7386876,-0.04604695,13.9799996875226,3
19.19504,0.8833334,-4.791571,0.2921168699618199,0.3773924522201365,2.8110757356664138,12.53586,95.65351,3.375702,0.09496616,0.7342094,-0.06122203,13.9999996870756,3
19.30385,0.2833333,-4.773966,0.4296976410219848,-0.34237279257155,2.6984488837645597,3.08327,94.06075,0.7274633,0.02298069,0.7313192,-0.01535972,14.0199996866286,3
19.35842,0.4833332,-4.765217,0.4418519192789922,-0.1393886510194245,2.5654147807184087,6.169055,93.66813,1.44226,0.0459751,0.7277979,-0.03064636,14.0399996861815,3
19.41297,0.6833332,-4.756485,0.4402518394792416,0.0803220775971336,2.411551018667855,9.258588,93.31281,2.139619,0.06892034,0.7237176,-0.04591194,14.0599996857345,3
19.54984,0.2833333,-4.732651,0.4318805374024705,0.2644887283793634,2.239551841057761,3.005552,93.06071,0.7297212,0.02266181,0.7253597,-0.01465293,14.0799996852875,3
19.60293,0.4833332,-4.723064,0.4756591751275181,0.2273767501483015,2.09044045426792,6.016941,92.66505,1.433023,0.04526886,0.7218527,-0.02933895,14.0999996848404,3
19.65601,0.6833333,-4.713481,0.4964887958001327,0.2357401594597766,1.923572813742904,9.031957,92.30449,2.119946,0.06783509,0.7178121,-0.04399888,14.1199996843934,3
19.70908,0.8833333,-4.703897,0.5015567300855714,0.2362628933138413,1.7419781631105131,12.04975,91.97766,2.793542,0.09033889,0.7132416,-0.05862265,14.1399996839464,3
19.89597,0.2833333,-4.670602,0.6309033831153492,-0.4646848524317798,1.5753215135130834,2.938898,98.61893,1.081154,0.02386983,0.7578012,-0.01329427,14.1599996834993,3
19.94962,0.4833334,-4.66014,0.6156587482512741,-0.2428835842612303,1.3950387734213905,5.890138,98.34547,2.130169,0.04763127,0.7549297,-0.02673406,14.1799996830523,3
20.00325,0.6833333,-4.649686,0.5763211031786781,-0.0043555294398783,1.2049077755940891,8.84483,98.12528,3.171903,0.07135043,0.7514904,-0.04014731,14.1999996826053,3
20.18779,0.2833334,-4.616166,0.6746895042400922,-0.4416857476519882,1.038376698141331,2.794926,104.5359,1.36833,0.02436441,0.7904118,-0.01198144,14.2199996821582,3
20.2411,0.4833335,-4.605867,0.6605733207564732,-0.1697047736949122,0.8805189959893553,5.606079,104.3638,2.70581,0.04860572,0.7880881,-0.02416092,14.2399996817112,3
20.2944,0.6833335,-4.59557,0.6172101990200929,0.1190029052837961,0.7206395919780992,8.419505,104.2571,4.042189,0.07280117,0.785181,-0.03631945,14.2599996812642,3
20.34769,0.8833337,-4.585276,0.5521961643786462,0.3721667433879809,0.5628594053025475,11.2338,104.2166,5.384252,0.09693535,0.7816935,-0.04844754,14.2799996808171,3
20.49715,0.2833333,-4.553401,0.4730879957119711,0.4236864627996929,0.411413994046605,2.609543,109.4553,1.580132,0.02440244,0.8159456,-0.01062803,14.2999996803701,3
20.54939,0.4833332,-4.543195,0.4671976366656309,0.3558038018978861,0.3024843676241886,5.238081,109.3586,3.129688,0.04866713,0.8140513,-0.02149809,14.3199996799231,3
20.60161,0.6833333,-4.532991,0.4346545091097589,0.3338841618502852,0.2008770108933872,7.867508,109.3334,4.682448,0.07288974,0.8115796,-0.03235016,14.339999679476,3
20.65381,0.8833333,-4.52279,0.3832015360482188,0.3046119172485235,0.1112214554926938,10.49591,109.3806,6.245145,0.09705366,0.8085328,-0.04317641,14.359999679029,3
20.8452,0.2833333,-4.482431,0.4629386848989867,-0.4256432044808728,0.0382334332881528,2.396373,114.4238,1.757463,0.02421253,0.8402228,-0.009273954,14.379999678582,3
20.89608,0.4833332,-4.472558,0.405100141644251,-0.2326606586613823,-0.0340504846331439,4.817703,114.3856,3.480608,0.04826479,0.8386768,-0.01886984,14.3999996781349,3
20.94695,0.6833332,-4.462685,0.3238271709174469,-0.0224636586422147,-0.1088555991317887,7.238382,114.4206,5.209304,0.07227737,0.8365672,-0.02845043,14.4199996776879,3
21.12263,0.2833333,-4.427172,0.3947072849368922,-0.4876370506695668,-0.1689879995520602,2.30904,117.4898,1.815548,0.02399375,0.8544195,-0.009003917,14.4399996772408,3
21.17309,0.4833333,-4.418258,0.3720383944488681,-0.2430112628217691,-0.2425683968778962,4.637717,117.5211,3.607628,0.04786442,0.8532235,-0.01826578,14.4599996767938,3
21.22354,0.6833333,-4.409344,0.3244696369022151,0.0188289915092846,-0.318627573233504,6.963676,117.6258,5.407426,0.07169373,0.8514679,-0.02751559,14.4799996763468,3
21.27398,0.8833333,-4.400432,0.2604711841103366,0.2456128329413615,-0.3948526789506799,9.284528,117.8051,7.221453,0.09546912,0.8491542,-0.03674476,14.4999996758997,3
21.41738,0.2833333,-4.371531,0.4225198671539516,-0.4686818601172929,-0.4795123950867839,2.229793,119.8073,1.853358,0.0237456,0.8647488,-0.008723554,14.5199996754527,3
21.4673,0.4833333,-4.363386,0.4957395236667352,-0.2597392099657944,-0.5727860052565417,4.478479,119.9,3.685067,0.04736527,0.8638516,-0.01771458,14.5399996750057,3
21.51721,0.6833334,-4.355244,0.5471693234530868,-0.0335820964672707,-0.6625053063296602,6.722375,120.0653,5.526941,0.0709476,0.8624024,-0.02669159,14.5599996745586,3
21.5671,0.8833333,-4.347103,0.5859515417103403,0.1575188416147845,-0.7462499028620422,8.959009,120.3043,7.384626,0.09447614,0.8604028,-0.03564852,14.5799996741116,3
21.75706,0.2833333,-4.308711,0.6650651029549053,0.1278291459687466,-0.8517116643445872,2.054371,123.8222,2.000524,0.02383777,0.8817947,-0.007594814,14.5999996736646,3
21.80636,0.4833333,-4.300471,0.7264304357353275,0.1441028198214514,-0.9521310649059808,4.139941,123.8406,3.965852,0.04750037,0.8806017,-0.01557295,14.6199996732175,3
21.85564,0.6833332,-4.292233,0.7792400211079347,0.1530236806476409,-1.0447439623145829,6.222995,123.931,5.937831,0.07112664,0.878859,-0.02353846,14.6399996727705,3
22.02945,0.2833334,-4.259174,0.8326410564131095,0.1012759856044548,-1.127174771793682,1.993138,125.5669,1.994941,0.02343192,0.8888764,-0.007504006,14.6599996723235,3
22.07804,0.4833333,-4.251773,0.9100369291308787,0.0421754647284701,-1.2424665677573534,4.013822,125.5818,3.959753,0.04670962,0.8877144,-0.01533902,14.6799996718764,3
22.12662,0.6833334,-4.244388,0.9715375467944511,0.0290379675815688,-1.350694370634672,6.030621,125.6665,5.932012,0.06995676,0.886017,-0.02314465,14.6999996714294,3
22.31998,0.2833333,-4.209116,1.025865208192723,0.0085479903715269,-1.4491548567159178,1.964399,126.3231,2.003932,0.02333873,0.8918802,-0.007399301,14.7199996709824,3
22.36836,0.4833332,-4.201984,1.0552790637203842,0.0073632711427611,-1.564079730874567,3.953538,126.3887,3.979616,0.04651847,0.8909324,-0.01512005,14.7399996705353,3
22.41673,0.6833332,-4.194848,1.0622589848615327,0.0521417613777537,-1.6710867525511857,5.939518,126.5234,5.962335,0.0696623,0.8894522,-0.02283869,14.7599996700883,3
22.46508,0.8833333,-4.187713,1.055521259292309,0.0895673847475654,-1.7674405614187152,7.919054,126.7279,7.957526,0.09275761,0.8874413,-0.03054137,14.7799996696413,3
22.51341,0.9766704,-4.18058,1.0436104572355909,0.0663240644005587,-1.8509462310305351,9.889744,127.0032,9.970123,0.1157912,0.8849013,-0.03822374,14.7999996691942,3
22.71152,0.2833332,-4.147496,0.9452026267594072,0.035728341960639,-1.9290862342016195,2.048146,125.8946,1.926098,0.02309368,0.8901842,-0.008271765,14.8199996687472,3
