pX,pY,pZ,aX,aY,aZ,reX,reY,reZ,rtX,rtY,rtZ,t,ID
-43.00041,0.23,-38.99972,5.46085708015093,0.1744699055818215,3.269094290853481,0.01568057,0.009900271,0.02322287,0.0001368563,8.636843e-05,0.000202646,3.77999991551042,12
-43.00082,0.43,-38.99944,5.897545427478214,0.2298530451075854,3.4019729343283416,0.03139554,0.00990973,0.0463849,0.0002740128,8.636779e-05,0.0004047609,3.79999991506338,12
-43.00122,0.63,-38.99917,6.381782800221217,-0.1661028506614709,3.4789702005787504,0.0471973,0.009925724,0.06978772,0.0004119267,8.636742e-05,0.0006089769,3.81999991461635,12
-43.00171,0.2833333,-38.99872,6.787049397426138,-0.3194889368521207,3.529331311641464,0.02366015,8.011406,0.0354982,0.0002276093,0.0698557,0.0002946001,3.83999991416931,12
-43.00227,0.4833333,-38.99822,7.114362787223342,-0.2556385280964575,3.5532183671893947,0.04733187,8.011427,0.07099158,0.0004553164,0.06985568,0.0005891511,3.85999991372228,12
-43.00283,0.6833333,-38.99773,7.550067080551571,-0.6391533353836765,3.5367069469463672,0.07107142,8.011464,0.1065542,0.0006836561,0.06985565,0.000884263,3.87999991327524,12
-42.9813,0.2833334,-38.97892,7.889937719663521,-0.7761245516495789,3.4910714155204587,0.9086463,13.97003,0.5462796,0.008450126,0.121567,0.003767365,3.89999991282821,12
-42.98678,0.4833333,-38.96103,8.296483202878626,-1.1187645383554423,3.4203223960287303,1.817251,13.98304,1.092902,0.01689996,0.1215515,0.00753495,3.91999991238117,12
-42.99225,0.6833333,-38.94316,8.593480704346575,-1.213259062841585,3.320338059768829,2.727705,14.00478,1.641061,0.02536684,0.1215254,0.01130827,3.93999991193414,12
-42.91992,0.2833332,-38.92052,8.784895023339736,-1.084941987186941,3.1928917372630607,1.536918,22.19643,0.1203516,0.01336306,0.1924602,-0.001551112,3.9599999114871,12
-42.9116,0.4833334,-38.89473,8.87500781446495,-0.7581010042916043,3.03988828043763,3.074007,22.20127,0.2403712,0.02672438,0.1924079,-0.003106563,3.97999991104007,12
-42.90331,0.6833335,-38.86896,9.04322064095971,-1.109730502738305,2.845754142021768,4.613558,22.20919,0.3585807,0.04009842,0.1923201,-0.004684016,3.99999991059303,12
-42.8134,0.2833333,-38.84201,9.10044056231004,-1.20582673141846,2.6246273023163624,2.900103,28.48895,0.04869005,0.02463196,0.2459705,-0.005814952,4.019999910146,12
-42.78983,0.4833332,-38.79686,9.202092956213804,-1.4985998154851834,2.3771993267720006,5.802123,28.49256,0.09621431,0.04926132,0.2457337,-0.01164222,4.03999990969896,12
-42.76628,0.6833333,-38.75174,9.187071873760525,-1.5342366411298127,2.105056060176516,8.706237,28.49859,0.1439964,0.07387628,0.2453387,-0.01746846,4.05999990925193,12
-42.61067,0.2833329,-38.70725,9.062451357919947,-1.3380711072820213,1.811958446675355,4.289485,37.28585,0.1683703,0.03592973,0.3193929,-0.01057208,4.07999990880489,12
-42.56741,0.4833325,-38.64563,8.835620860844386,-0.93439115556258,1.5017296846334958,8.583053,37.30476,0.3368046,0.07183792,0.3187191,-0.02115585,4.09999990835786,12
-42.40349,0.2833333,-38.58872,8.675536313237231,-1.200192249846452,1.171425208706694,3.900687,43.78865,0.2316042,0.0323318,0.3726153,-0.01081661,4.11999990791082,12
-42.35918,0.4833339,-38.53671,8.409226944787356,-1.2014697715082414,0.8301344485709166,7.801607,43.81237,0.4640139,0.06462401,0.371965,-0.0216325,4.13999990746379,12
-42.31489,0.6833342,-38.48471,8.185380703823547,-1.3904329658135426,0.4812490918158048,11.70412,43.85235,0.6999038,0.09685207,0.370881,-0.03243598,4.15999990701675,12
-42.27063,0.8833346,-38.43275,7.856604357290756,-1.313269223190224,0.1279115565113855,15.60796,43.90968,0.9426167,0.1289798,0.3693646,-0.04320618,4.17999990656972,12
-42.06557,0.2833337,-38.41639,7.433378558988814,-0.995312572286028,-0.2252545226923672,3.712628,52.68569,0.3111607,0.03023345,0.4434282,-0.01194199,4.19999990612268,12
-42.0173,0.483334,-38.3729,7.138170635471127,-1.101166105165075,-0.5687932386142194,7.424023,52.71614,0.6247066,0.06042522,0.4427253,-0.02386892,4.21999990567565,12
-41.96904,0.6833344,-38.32941,6.744402774190043,-0.936920521851923,-0.9046578195699836,11.13338,52.76742,0.9425993,0.0905353,0.4415551,-0.03577128,4.23999990522861,12
-41.73301,0.2833332,-38.30123,6.2645565976933,-0.527909161023118,-1.2279245979794735,3.61879,61.61858,0.3604904,0.02872905,0.5118389,-0.01347132,4.25999990478158,12
-41.68039,0.4833333,-38.26578,5.840432913386472,-0.5387350372952522,-1.532653984654317,7.236357,61.65295,0.7236082,0.05741992,0.5110659,-0.02692626,4.27999990433455,12
-41.62778,0.6833333,-38.23035,5.339990643590184,-0.275488998444296,-1.8151458783639496,10.8526,61.71094,1.092272,0.08604383,0.5097788,-0.0403519,4.29999990388751,12
-41.46722,0.283333,-38.22448,4.7777853579926415,-0.0036009818152904,-2.0706827230002247,3.54198,68.60103,0.4795852,0.02788727,0.5631525,-0.01395999,4.31999990344048,12
-41.41267,0.4833326,-38.19427,4.374379060785849,-0.4153764989016635,-2.2897757593438826,7.082686,68.64577,0.9624959,0.05573829,0.5623309,-0.02790397,4.33999990299344,12
-41.35813,0.6833326,-38.16408,3.91689122675529,-0.1893929314543628,-2.473011489049405,10.62184,68.7212,1.452506,0.08352576,0.5609629,-0.04181838,4.35999990254641,12
-41.13021,0.2833334,-38.14726,3.421048695257703,0.0386816296908515,-2.615271310249355,3.45891,75.71806,0.6258082,0.02717764,0.6133019,-0.01421211,4.37999990209937,12
-41.07435,0.4833342,-38.12195,2.902815918837902,0.2165764016780236,-2.7113553752251107,6.916331,75.77502,1.255777,0.05432006,0.6124365,-0.02840802,4.39999990165234,12
-40.86867,0.2833328,-38.09402,2.51583936914691,0.1585558488124625,-2.778658389319098,3.389281,79.09741,0.7071269,0.02673007,0.6363026,-0.01407348,4.4199999012053,12
-40.81287,0.4833325,-38.0709,2.125783526780872,0.1313747330279784,-2.814276183606566,6.777068,79.16049,1.418732,0.05342643,0.6354316,-0.02813203,4.43999990075827,12
-40.7571,0.6833321,-38.04778,1.8884804081458453,-0.3451580246614602,-2.813115925599164,10.16359,79.26641,2.137397,0.08005609,0.6339803,-0.04218369,4.45999990031123,12
-40.70134,0.8833323,-38.02465,1.574795151750067,-0.1259696227985349,-2.781226092742969,13.54762,79.41663,2.868318,0.1065898,0.6319501,-0.05621235,4.4799998998642,12
-40.48177,0.2833333,-38.018,1.269997046731568,0.0963549610843655,-2.720110247275599,3.386034,82.23021,0.4619452,0.02490796,0.6571918,-0.01639172,4.49999989941716,12
-40.4243,0.4833333,-38.00208,1.2046305605145662,-0.370769677421259,-2.621408926398935,6.771243,82.27109,0.9234545,0.04976882,0.6563147,-0.03278943,4.51999989897013,12
-40.22663,0.2833331,-37.98841,1.0598719720283043,-0.1421733533473596,-2.491606570042705,3.371947,82.97245,0.2739275,0.02362291,0.6620986,-0.01769999,4.53999989852309,12
-40.16882,0.4833331,-37.9765,0.9228304152021564,0.0895595662065328,-2.351248281589463,6.742771,82.99661,0.5478424,0.04720738,0.6612331,-0.03539099,4.55999989807606,12
-40.11103,0.683333,-37.96459,0.9354336190380366,-0.3681561112981475,-2.199172025833221,10.11249,83.03734,0.8255495,0.07074425,0.6597921,-0.05304599,4.57999989762902,12
-40.05325,0.8833333,-37.95268,0.814677447193354,-0.1301505599919905,-2.038806402080084,13.48096,83.09531,1.109005,0.09421223,0.6577775,-0.07064995,4.59999989718199,12
-39.84437,0.2833334,-37.94717,0.694808515585926,0.1109920018222868,-1.892410952753856,3.332727,83.38251,0.1655729,0.02267536,0.6648031,-0.01826268,4.61999989673495,12
-39.78694,0.4833332,-37.93761,0.6487225078882872,0.1428776217596686,-1.7543101855964167,6.664244,83.39696,0.3311975,0.04531761,0.6639577,-0.03650998,4.63999989628792,12
-39.59875,0.2833336,-37.92888,0.5916589974331146,0.2056021131237037,-1.628199131595835,3.291084,83.20961,0.04313891,0.02172216,0.663707,-0.01878584,4.65999989584088,12
-39.54183,0.4833338,-37.92136,0.5383109731726634,0.2458496915164559,-1.5174705585990296,6.581206,83.21334,0.08658271,0.04342026,0.6628859,-0.03755052,4.67999989539385,12
-39.48492,0.6833338,-37.91385,0.6182850034232104,-0.4300100372516909,-1.424144540238089,9.870103,83.21951,0.1296175,0.06506898,0.6615186,-0.05628352,4.69999989494681,12
-39.22966,0.2833333,-37.90186,0.5252755616203331,-0.1977552526673195,-1.3116312330285351,3.250259,82.56841,359.9397,0.02096407,0.6595403,-0.01910699,4.71999989449978,12
-39.1733,0.4833331,-37.89558,0.44072284938877,0.0365902562474252,-1.2116569240015167,6.4996,82.56326,359.879,0.04190524,0.6587443,-0.03819339,4.73999989405274,12
-39.11695,0.6833333,-37.88931,0.5684975877312084,-0.4195590791325952,-1.1230681416091102,9.747906,82.55457,359.8176,0.06280623,0.6574191,-0.05724292,4.75999989360571,12
-38.93971,0.2833331,-37.88213,0.4844594267481668,-0.1810315845643738,-1.0359964333902312,3.211096,81.05865,359.8469,0.02042822,0.6496099,-0.01922245,4.77999989315867,12
-38.88395,0.4833331,-37.87606,0.3981523930493367,0.0595868270382975,-0.9603730025955172,6.421193,81.04571,359.6929,0.04083399,0.6488432,-0.03842414,4.79999989271164,12
-38.82821,0.683333,-37.87,0.4259471161635488,-0.3902889162924233,-0.8964712067537945,9.630309,81.02394,359.5369,0.06120187,0.6475668,-0.05758982,4.8199998922646,12
-38.57931,0.2833333,-37.8598,0.3365172397136007,-0.1454889753581346,-0.8139157956199199,3.372514,81.46675,359.8176,0.02126002,0.652292,-0.02040731,4.83999989181757,12
-38.52061,0.4833336,-37.85422,0.2567448082447541,0.1014025377347671,-0.7404767857633985,6.744019,81.45056,359.634,0.04249519,0.6514423,-0.04079127,4.85999989137053,12
-38.46193,0.6833338,-37.84864,0.3791978910742202,-0.3421994463680229,-0.6729393034264746,10.11452,81.42326,359.4478,0.06368752,0.6500275,-0.06113425,4.8799998909235,12
-38.40327,0.8833338,-37.84307,0.3084153661629685,-0.0911271107283935,-0.602715846844994,13.48535,81.3843,359.2574,0.08482571,0.6480483,-0.08142872,4.89999989047647,12
-38.19106,0.2833331,-37.83809,0.2417998404170021,0.1620353916020048,-0.540401080590307,3.537084,83.7084,359.8446,0.02208297,0.6669501,-0.02160184,4.91999989002943,12
-38.12938,0.4833328,-37.83404,0.2140671101695801,0.2048970488047999,-0.4848078186119267,7.073264,83.69391,359.6879,0.04413852,0.6659954,-0.04317869,4.9399998895824,12
-37.93844,0.2833335,-37.82802,0.1723908808969767,0.2775533671812088,-0.4384071770780267,3.565417,85.14146,359.8836,0.02222344,0.6761954,-0.02179277,4.95999988913536,12
-37.87628,0.4833336,-37.82478,0.1310171412703624,0.3266884469025028,-0.4028469326611059,7.130037,85.13049,359.7659,0.04441781,0.6752126,-0.04356255,4.97999988868833,12
-37.81413,0.6833338,-37.82154,0.2201995253996145,-0.3413280711996664,-0.3778971210963178,10.69357,85.11198,359.6465,0.0665628,0.6735763,-0.06528349,4.99999988824129,12
-37.55215,0.2833333,-37.81212,0.1267623798593433,-0.1022771290230836,-0.3481793994648967,3.593272,86.84785,0.02534062,0.02292256,0.6870479,-0.0213906,5.01999988779426,12
-37.48956,0.4833331,-37.80823,0.0375724600596427,0.1378188754164314,-0.3244487896592858,7.185781,86.85028,0.0511963,0.04581962,0.6860348,-0.04275361,5.03999988734722,12
-37.427,0.6833333,-37.80433,-0.0111486800656734,0.1665678929915308,-0.299846943115206,10.77719,86.85437,0.07739583,0.06866432,0.684348,-0.06406848,5.05999988690019,12
-37.24698,0.2833333,-37.79811,-0.0714096581868588,0.2240653228488163,-0.2784201663086136,3.547858,87.62565,0.08474451,0.02284971,0.6919562,-0.02089755,5.07999988645315,12
-37.1852,0.4833331,-37.79407,-0.1290321411423889,0.2569958079020558,-0.2606903544999568,7.094398,87.63357,0.170169,0.04566944,0.6909611,-0.04176699,5.09999988600612,12
-37.12343,0.6833333,-37.79003,0.0420174949673892,-0.4282705093069849,-0.2418696215625217,10.63982,87.64693,0.2568651,0.06843815,0.6893045,-0.06259012,5.11999988555908,12
-36.87117,0.2833336,-37.78196,0.0363495645149996,-0.2075139740949284,-0.2212868485403305,3.622568,88.73578,0.1075395,0.02325105,0.6988919,-0.02143147,5.13999988511205,12
-36.808,0.4833336,-37.7787,0.03017766759951,0.0132427358749828,-0.2035082857362908,7.244124,88.74604,0.2159301,0.04647254,0.6978436,-0.04283552,5.15999988466501,12
-36.74485,0.6833335,-37.77544,0.0090513767348419,0.0216057471462552,-0.1849694304264559,10.8653,88.76333,0.3257065,0.06964316,0.6960978,-0.06419688,5.17999988421798,12
-36.57415,0.2833333,-37.77069,-0.0170079032907928,0.0576716701482575,-0.1677512514277239,3.641617,89.14115,0.1082409,0.02329774,0.7014112,-0.02162584,5.19999988377094,12
-36.51064,0.4833333,-37.76786,-0.0332901171922905,0.0681251051942647,-0.1518905210688288,7.282161,89.15154,0.217323,0.04656513,0.7003481,-0.04322359,5.21999988332391,12
-36.44715,0.6833336,-37.76502,-0.0612232091519935,0.079624400761549,-0.136734354102856,10.9216,89.16908,0.3281219,0.06977838,0.6985782,-0.06477153,5.23999988287687,12
-36.20596,0.2833333,-37.75829,-0.1017888200116949,0.1188275739321234,-0.1222055556458698,3.604023,90.53453,0.1617165,0.02313364,0.7100142,-0.02134629,5.25999988242984,12
-36.14306,0.4833333,-37.75606,-0.1401536405409302,0.1324181892784071,-0.1083125499675503,7.206962,90.54988,0.3246002,0.04623713,0.708959,-0.04266562,5.2799998819828,12
-36.08017,0.6833335,-37.75383,-0.3066318864110187,0.7873686202490605,-0.0961958106737839,10.80876,90.57581,0.4900725,0.06928805,0.7072021,-0.06393617,5.29999988153577,12
-35.92125,0.2833333,-37.74968,-0.2914482164264242,0.5394318696997831,-0.0814482251373434,3.551881,91.80541,0.2237235,0.0229674,0.7177708,-0.02089851,5.31999988108873,12
-35.85919,0.4833331,-37.74773,-0.2630195561379338,0.2946312432372923,-0.0675180986600594,7.102705,91.82635,0.4491721,0.04590654,0.7167326,-0.04177063,5.3399998806417,12
-35.79715,0.6833333,-37.74578,-0.4385058725803432,0.7188931666714027,-0.0594742976854689,10.65229,91.86169,0.6779615,0.06879355,0.7150041,-0.06259646,5.35999988019466,12
-35.56762,0.2833336,-37.73902,-0.417136061956743,0.4803650863246017,-0.0495748313676855,3.494837,92.33724,0.2742608,0.02284357,0.720993,-0.02034062,5.37999987974763,12
-35.5065,0.4833333,-37.73672,-0.3890062410879693,0.2449729873660026,-0.0421840898752563,6.988648,92.36249,0.5505036,0.04565962,0.7199812,-0.04065669,5.39999987930059,12
-35.4454,0.6833336,-37.73442,-0.3402506982322073,-0.0416442876136596,-0.0372194160521459,10.48083,92.40511,0.8310081,0.06842475,0.7182969,-0.06092496,5.41999987885356,12
-35.1962,0.2833331,-37.72651,-0.2390620660304634,-0.1137770828507679,-0.0291808508437725,3.438364,92.14502,0.2925543,0.02265087,0.7198387,-0.01983676,5.43999987840652,12
-35.13607,0.4833331,-37.72365,-0.1380328502803749,-0.1582055728244084,-0.02268664503368,6.875191,92.17153,0.5873541,0.04527324,0.71886,-0.03964571,5.45999987795949,12
-35.07595,0.683333,-37.72079,-0.1787133430870469,0.2519449276660696,-0.0197940278997919,10.31085,92.21623,0.8863353,0.06784794,0.7172307,-0.05941327,5.47999987751245,12
-34.90714,0.2833333,-37.71606,-0.0952470131588931,-0.001741600994744,-0.0126712165111229,3.395042,91.12463,0.2143461,0.02207499,0.713659,-0.01984211,5.49999987706542,12
-34.84785,0.4833336,-37.71349,-0.0035936435383305,-0.2533375853101001,-0.0044571442348342,6.788667,91.14378,0.430005,0.04412094,0.712716,-0.03965943,5.51999987661839,12
-34.78857,0.6833333,-37.71091,-0.1302463597771961,0.1630845338423552,-0.0023487856519253,10.1813,91.17606,0.6486362,0.066122,0.7111461,-0.05943683,5.53999987617135,12
-34.55066,0.2833333,-37.70355,-0.0601784603388075,-0.0843287129948439,0.0040868945707686,3.351234,89.43694,0.1285645,0.02156683,0.7032992,-0.01977768,5.55999987572432,12
-34.49221,0.4833329,-37.70073,0.0056534341026015,-0.3296513888286059,0.0098696895464698,6.701195,89.4483,0.2580607,0.0431077,0.702396,-0.03953043,5.57999987527728,12
-34.43378,0.6833329,-37.69791,-0.0604390115841262,0.093043149247876,0.012342600336396,10.05011,89.46743,0.3893143,0.0646052,0.7008923,-0.05924335,5.59999987483025,12
-34.17685,0.2833336,-37.69007,0.0944880884286654,-0.1480982080787998,0.0190368803706348,3.302671,87.72777,0.009875779,0.02083659,0.6926579,-0.01990673,5.61999987438321,12
-34.11929,0.4833338,-37.68762,0.2450857149972947,-0.3871486060318884,0.0237921583889502,6.604357,87.72862,0.01980837,0.04164963,0.6917952,-0.03979104,5.63999987393618,12
-34.06174,0.6833338,-37.68517,0.1763430394074205,0.0418184105570455,0.0219516515040112,9.90477,87.73005,0.02974963,0.06241938,0.6903587,-0.05963542,5.65999987348914,12
-33.88432,0.2833333,-37.68005,0.1025753262262796,0.4472638198964019,0.018882290232618,3.259187,86.55144,359.9368,0.02032651,0.685244,-0.01989606,5.67999987304211,12
-33.8275,0.4833331,-37.67773,0.203760857042365,-0.0757901927391381,0.0181024921015691,6.517444,86.54602,359.8732,0.04063097,0.6844124,-0.0397702,5.69999987259507,12
-33.77069,0.6833332,-37.67542,0.1757073860167821,0.09792257042128,0.0138803997813141,9.774574,86.53687,359.8087,0.06089496,0.6830279,-0.05960608,5.71999987214804,12
-33.52462,0.2833331,-37.6674,0.2929367596238812,-0.1510597224087717,0.0121273763658678,3.21437,83.68803,359.8188,0.01983978,0.6668747,-0.01988749,5.739999871701,12
-33.46854,0.4833333,-37.66438,0.4024017444567498,-0.3969060152945805,0.0089489351780613,6.42768,83.67269,359.6365,0.0396571,0.6660854,-0.03975343,5.75999987125397,12
-33.41247,0.6833335,-37.66135,0.3043436126407783,0.02631099850659,7.295227403147919e-05,9.639977,83.64689,359.452,0.05943758,0.6647711,-0.0595819,5.77999987080693,12
-33.35642,0.8833335,-37.65832,0.2017339185453188,0.4270513633898497,-0.0092223623685825,12.85105,83.61028,359.2643,0.07916625,0.6629338,-0.07935425,5.7999998703599,12
-33.14496,0.2833329,-37.65223,0.2633855719497724,-0.0996616441353731,-0.0144841681067546,3.372401,83.40033,359.7983,0.02079981,0.6649821,-0.02088828,5.81999986991286,12
-33.08607,0.4833326,-37.64896,0.2109740442037271,0.0714368931605325,-0.0220390565353909,6.743773,83.38241,359.5952,0.04157494,0.6641153,-0.0417529,5.83999986946583,12
-33.02719,0.6833324,-37.6457,0.1610564312948526,0.2477627548840329,-0.0290448167494687,10.11415,83.35223,359.3894,0.06230892,0.6626722,-0.06257499,5.85999986901879,12
-32.79548,0.2833331,-37.63975,0.3057285904343061,-0.2632690252590891,-0.0296600410685385,3.537302,85.15662,359.8307,0.02172724,0.6763077,-0.02197013,5.87999986857176,12
-32.73369,0.4833331,-37.6375,0.2557630454353869,-0.0764894883935426,-0.0344477878072027,7.073668,85.14082,359.6599,0.04342736,0.6753391,-0.04391454,5.89999986812472,12
-32.67194,0.6833331,-37.63524,0.2043217025701871,0.1155175442598699,-0.0382831042269842,10.61016,85.1141,359.4861,0.06508513,0.6737256,-0.0658205,5.91999986767769,12
-32.42069,0.2833333,-37.62853,0.3657849293703137,-0.3798335605652307,-0.0353881959007793,3.567903,86.69208,359.8957,0.02201452,0.6860906,-0.02202984,5.93999986723065,12
-32.35843,0.4833338,-37.62676,0.3018014520896024,-0.1773723121181001,-0.0379326215086095,7.134929,86.68225,359.7903,0.04400081,0.6850923,-0.04403463,5.95999986678362,12
-32.29619,0.6833341,-37.62499,0.2278388743153954,0.030316030330639,-0.0402539041579999,10.70095,86.66566,359.6833,0.06593822,0.6834301,-0.06599092,5.97999986633658,12
-32.12571,0.2833333,-37.61903,0.2734456220942789,-0.4493531388464725,-0.039913736160372,3.597428,87.71445,0.03698599,0.02285665,0.692515,-0.02151521,5.99999986588955,12
-32.06301,0.4833333,-37.61587,0.1911935630702608,-0.2312108330707493,-0.0414621291025412,7.194078,87.71801,0.07488621,0.04568963,0.6914914,-0.04300065,6.01999986544251,12
-32.00033,0.6833333,-37.61271,0.1118603348587186,-0.0078416056119841,-0.0422564584452729,10.78971,87.72404,0.1133823,0.06847116,0.6897873,-0.06443767,6.03999986499548,12
-31.75969,0.2833336,-37.6054,0.2403627227515166,-0.4718298502276874,-0.037223989724886,3.563224,88.59854,0.08845785,0.02279001,0.6980512,-0.02116121,6.05999986454844,12
-31.69758,0.4833336,-37.60234,0.1614005805651146,-0.2380061011925132,-0.0370358767437863,7.125232,88.60684,0.1775743,0.04555027,0.6970385,-0.04229481,6.07999986410141,12
-31.63548,0.6833333,-37.59928,0.0806046221236442,0.0010449429987536,-0.0365669054107087,10.68623,88.62086,0.2680612,0.06826016,0.6953526,-0.06338164,6.09999986365438,12
-31.37291,0.2833331,-37.59143,0.2241624167944778,-0.4472616285413351,-0.0304157511900058,3.636269,89.39168,0.1092688,0.02322356,0.7029672,-0.02163754,6.11999986320734,12
-31.30947,0.4833334,-37.58886,0.1295650568054043,-0.1977575218188174,-0.0304954637716718,7.271405,89.40215,0.2193836,0.04641653,0.7019048,-0.04324666,6.13999986276031,12
-31.24606,0.6833336,-37.58628,0.0239214582918911,0.0569735076321543,-0.0306784019688137,10.90616,89.41979,0.3309707,0.06955859,0.7001356,-0.06481205,6.15999986231327,12
-31.18266,0.8833338,-37.58371,-0.0784141029282246,0.2646615377643843,-0.0305905961642736,14.53981,89.44498,0.445287,0.0926239,0.6976622,-0.08630595,6.17999986186624,12
-30.96238,0.2833335,-37.57807,-0.1360259401160632,0.2395717895864463,-0.0284119249859955,3.628178,90.04116,0.1228071,0.02313419,0.7069819,-0.02163542,6.1999998614192,12
-30.89908,0.4833337,-37.57598,-0.1987330316609501,0.2484581072484905,-0.0253295919077203,7.255252,90.05291,0.2465924,0.04623839,0.7059179,-0.04324253,6.21999986097217,12
-30.69769,0.2833332,-37.57061,-0.1028324450112485,-0.1888721309135426,-0.0169167173240083,3.583077,91.38471,0.1893929,0.02301975,0.7152128,-0.02121796,6.23999986052513,12
-30.63512,0.4833333,-37.56882,-0.2280309598308392,0.0726549564671314,-0.0138275977864452,7.165034,91.4026,0.3801764,0.04600975,0.7141613,-0.04240899,6.2599998600781,12
-30.57256,0.6833333,-37.56704,-0.3569293232400881,0.340453870546555,-0.0105746013774137,10.74586,91.43277,0.573883,0.06894767,0.7124107,-0.06355256,6.27999985963106,12
-30.51002,0.883333,-37.56525,-0.4748822518717865,0.5622546241135864,-0.0069943826426097,14.32535,91.47575,0.7718164,0.09180811,0.7099633,-0.08462884,6.29999985918403,12
-30.30123,0.2833335,-37.55972,-0.3978345445450379,-0.1679651583712585,-0.0009816495377066,3.52551,92.50175,0.2556702,0.02288221,0.7219835,-0.02067881,6.31999985873699,12
-30.23959,0.4833331,-37.55794,-0.481085371726472,0.0141108937912612,0.0010850929792738,7.049969,92.52551,0.5131836,0.0457361,0.7209533,-0.04133242,6.33999985828996,12
-30.17797,0.6833331,-37.55617,-0.548284437129098,0.202459835574071,0.0024144113539676,10.57319,92.56557,0.7745697,0.06853944,0.7192383,-0.06194034,6.35999985784292,12
-29.94875,0.2833333,-37.5494,-0.4057860705836802,-0.2955028159887355,0.0063418894568911,3.466359,92.5155,0.289719,0.02273757,0.7220718,-0.02010342,6.37999985739589,12
-29.88811,0.4833332,-37.54699,-0.4487144581943134,-0.094608909950266,0.0053606667791612,6.931301,92.54198,0.581735,0.04544723,0.7210743,-0.04017899,6.39999985694885,12
-29.82749,0.6833333,-37.54459,-0.4826323620757193,0.1125575638090518,0.0038863411999017,10.39494,92.58662,0.8779538,0.0681075,0.7194136,-0.06021125,6.41999985650182,12
-29.57862,0.2833332,-37.53713,-0.2923037458688711,-0.3665887714159002,0.0082282550336998,3.415397,91.74986,0.2543905,0.02234073,0.7174551,-0.01984651,6.43999985605478,12
-29.51893,0.4833332,-37.53451,-0.3178188720934152,-0.1468781025620009,0.0076006077483228,6.829315,91.77275,0.5105478,0.04465263,0.7164943,-0.03966677,6.45999985560775,12
-29.45925,0.6833332,-37.53189,-0.3445129343338315,0.0791047770049243,0.0077188175866211,10.24211,91.81133,0.7703488,0.06691845,0.7148946,-0.05944572,6.47999985516071,12
-29.29103,0.2833332,-37.52724,-0.3593698785629442,0.2590893470884015,0.0090064240661362,3.370134,90.43413,0.1680285,0.02175436,0.7094426,-0.01983912,6.49999985471368,12
-29.23221,0.4833332,-37.52476,-0.3229880108667196,0.2073416546587426,0.0111083707954691,6.738889,90.44904,0.337147,0.04348109,0.7085202,-0.03965318,6.51999985426664,12
-29.17341,0.6833334,-37.52227,-0.2838011053353355,0.1906155433433905,0.0132910580939196,10.10658,90.47415,0.5085515,0.0651635,0.7069846,-0.05942718,6.53999985381961,12
-28.93565,0.2833333,-37.51532,-0.2285565053182594,0.1555948055272185,0.0157095726694649,3.325607,88.72166,0.07238532,0.02118742,0.6988671,-0.01983674,6.55999985337257,12
-28.87767,0.4833335,-37.51276,-0.1767420117415241,0.1289364081769848,0.0167698632589434,6.649868,88.72801,0.1452497,0.04234857,0.6979843,-0.03964868,6.57999985292554,12
-28.81971,0.6833333,-37.5102,-0.1267038890905212,0.1372990348241611,0.0169228330098576,9.973225,88.73869,0.2191187,0.06346858,0.6965142,-0.05942173,6.5999998524785,12
-28.56307,0.2833333,-37.50284,-0.0653485312724519,0.1273674335334261,0.0164130383809677,3.277632,87.02827,359.954,0.02046399,0.6882601,-0.01998197,6.61999985203147,12
-28.50593,0.483333,-37.50068,-0.0186738439810838,0.125799381813464,0.0143725443893814,6.554345,87.02431,359.9078,0.04090546,0.6874156,-0.03994206,6.63999985158443,12
-28.4488,0.6833331,-37.49852,0.0122639157381776,0.15925239146435,0.0111498648967938,9.829705,87.01759,359.8607,0.06130392,0.6860096,-0.05986254,6.6599998511374,12
-28.39168,0.8833336,-37.49636,0.0403136581313923,0.1744104656954957,0.0070627438364425,13.10405,87.00805,359.8128,0.08164606,0.6840436,-0.07972801,6.67999985069036,12
-28.17436,0.2833335,-37.48984,0.1915800689046989,-0.5223566675438753,0.0043915882914333,3.228152,84.5732,359.853,0.01997477,0.6725987,-0.01990086,6.69999985024333,12
-28.11805,0.4833335,-37.48706,0.1630325279724154,-0.3068281311365669,-0.0029755182028239,6.455369,84.56071,359.7051,0.03992824,0.6717967,-0.03978002,6.7199998497963,12
-27.92219,0.2833333,-37.48044,0.1348565609237546,-0.0850273929022296,-0.0108111691540528,3.201232,82.98191,359.791,0.01971546,0.6622804,-0.01987055,6.73999984934926,12
-27.86632,0.4833333,-37.47722,0.1433418563480692,-0.0693459704638773,-0.0177809672329303,6.401473,82.96432,359.5809,0.03940974,0.6615021,-0.03971951,6.75999984890223,12
-27.81046,0.6833329,-37.47401,0.1356946407128774,-0.0196888371025503,-0.0250304301531798,9.600751,82.93469,359.3681,0.05906804,0.6602061,-0.05953164,6.77999984845519,12
-27.75462,0.883333,-37.47079,0.1250171795978012,0.010628265907014,-0.0320526294538012,12.79849,82.89268,359.1519,0.0786743,0.6583945,-0.07928535,6.79999984800816,12
-27.54007,0.2833333,-37.46575,0.3361213948687478,-0.6720247697920341,-0.0323668538372103,3.532752,84.32861,359.7976,0.02166239,0.6709793,-0.02199968,6.81999984756112,12
-27.47832,0.4833332,-37.46318,0.368389387697146,-0.4434283285449963,-0.0361113676078517,7.064552,84.30977,359.5937,0.04329868,0.6700198,-0.04397263,6.83999984711409,12
-27.41658,0.6833332,-37.46062,0.3924624741160336,-0.2096044220883603,-0.0388508320439058,10.59653,84.2779,359.3862,0.06489284,0.6684215,-0.06590812,6.85999984666705,12
-27.1861,0.2833335,-37.45514,0.4219662872523599,-0.0228243396925562,-0.0401381945940713,3.561464,86.12482,359.8532,0.02182912,0.6824934,-0.02215311,6.87999984622002,12
-27.12392,0.4833336,-37.45351,0.4373951932122821,-0.0688227376874587,-0.0411836142133026,7.122079,86.111,359.7048,0.0436293,0.681503,-0.04428264,6.89999984577298,12
-27.06176,0.6833337,-37.45187,0.442263628249524,-0.0808451459831431,-0.0414341643608437,10.68165,86.08769,359.5542,0.06538156,0.6798541,-0.06636273,6.91999984532595,12
-26.81026,0.2833332,-37.44473,0.4503714519304687,-0.1122074269477783,-0.0405835309289486,3.595517,87.57545,359.9786,0.02251841,0.6916521,-0.02184346,6.93999984487891,12
-26.74756,0.4833332,-37.44245,0.439861753130824,-0.1362517342497988,-0.0399383468756724,7.190269,87.57344,359.9574,0.04501161,0.6906309,-0.04365897,6.95999984443188,12
-26.68488,0.6833335,-37.44016,0.4114399751307154,-0.1263201943769551,-0.0391217415688984,10.78396,87.57006,359.9357,0.0674535,0.6889307,-0.06542547,6.97999984398484,12
-26.62221,0.8833337,-37.43788,0.3791042483870868,-0.1357288682383728,-0.0378579791698001,14.37661,87.56524,359.9136,0.08982286,0.6865538,-0.08712123,6.99999984353781,12
-26.41305,0.2833334,-37.43163,0.438302156868275,-0.1378196560774577,-0.0329315673859724,3.555557,88.48219,0.07867259,0.02270403,0.6973279,-0.02115255,7.01999984309077,12
-26.35108,0.4833337,-37.42861,0.481147791493683,-0.105934684904661,-0.0277921008590453,7.109754,88.48959,0.1582817,0.04537972,0.6963209,-0.04227449,7.03999984264374,12
-26.28912,0.6833338,-37.42559,0.522342896531292,-0.0933898165654522,-0.0221437283025593,10.66295,88.5021,0.2391758,0.06800584,0.6946443,-0.06334948,7.0599998421967,12
-26.05764,0.2833333,-37.41954,0.3617391455967826,0.5667872023408105,-0.0210459161732785,3.624936,89.38752,0.1022172,0.02311081,0.7029451,-0.0216109,7.07999984174967,12
-25.9944,0.4833331,-37.41709,0.3754655824705359,0.3303498810842934,-0.0164353143128863,7.248854,89.39729,0.2052497,0.04619221,0.7018894,-0.04319404,7.09999984130263,12
-25.93118,0.6833332,-37.41463,0.3856644370486783,0.1033213534758586,-0.0119883018359345,10.87228,89.41373,0.3096256,0.06922252,0.7001315,-0.06473312,7.1199998408556,12
-25.6791,0.2833332,-37.40781,0.168642037377559,0.5516282752286015,-0.0131363633826993,3.63799,89.80302,0.1104694,0.02316376,0.7055125,-0.02172394,7.13999984040856,12
-25.61562,0.4833333,-37.40567,0.1425236829238869,0.3434174046975123,-0.0087228911723613,7.274881,89.8136,0.2217661,0.04629704,0.7044452,-0.04341972,7.15999983996153,12
-25.55217,0.6833333,-37.40353,0.1060123410867035,0.144615278593077,-0.0036212162498543,10.9107,89.83147,0.3348112,0.0693768,0.7026684,-0.06506578,7.17999983951449,12
-25.38261,0.2833332,-37.39957,0.0740505229776467,-0.0991402951894141,0.0024829467505753,3.595525,90.95468,0.1516426,0.02294059,0.7125925,-0.02143973,7.19999983906746,12
-25.31984,0.4833333,-37.39797,0.0828150302318739,-0.1221398188305113,0.0104875709515681,7.189928,90.96905,0.3044012,0.04585134,0.7115387,-0.04285203,7.21999983862042,12
-25.2571,0.6833333,-37.39638,0.0802226115518003,-0.1111633755100768,0.0185834943717324,10.78323,90.99329,0.459545,0.0687102,0.7097842,-0.06421594,7.23999983817339,12
-25.01691,0.2833336,-37.39027,-0.0861550396537786,0.3606650614089629,0.0223183816502299,3.541095,92.41131,0.2385988,0.02288512,0.7214378,-0.02086194,7.25999983772635,12
-24.95502,0.4833336,-37.38871,-0.2525087683733602,0.8152439428889913,0.0254243410150891,7.081122,92.43356,0.4789622,0.0457418,0.7204001,-0.04169796,7.27999983727932,12
-24.89314,0.6833337,-37.38715,-0.2277606252844677,0.3475972652048508,0.0301073462927448,10.61996,92.47112,0.722974,0.06854777,0.7186723,-0.06248776,7.29999983683228,12
-24.6329,0.2833335,-37.37997,-0.1904532727353043,-0.1372985271904879,0.033207913079714,3.481377,92.6507,0.2811049,0.02274996,0.7228854,-0.02027688,7.31999983638525,12
-24.57201,0.4833337,-37.37787,-0.3163893510855118,0.2655336643218248,0.0327386368351056,6.961615,92.67648,0.5641896,0.04547175,0.7218783,-0.04052892,7.33999983593822,12
-24.51113,0.6833337,-37.37577,-0.238245434592951,0.010802165916945,0.0352674248380608,10.4403,92.71999,0.8516904,0.0681442,0.720202,-0.0607336,7.35999983549118,12
-24.45026,0.8833334,-37.37367,-0.156297877631129,-0.2355658059162036,0.0362312501358417,13.91776,92.78203,1.145622,0.09074716,0.7178584,-0.08087635,7.37999983504415,12
-24.23189,0.2833333,-37.36749,-0.2590652109796352,0.1923557925345017,0.032526914991017,3.426836,92.15291,0.272879,0.02245615,0.7198926,-0.01988496,7.39999983459711,12
-24.17196,0.4833333,-37.36497,-0.1408785807397308,-0.0372866410427069,0.0350643886162203,6.852191,92.17755,0.5478213,0.04488424,0.7189214,-0.03974261,7.41999983415008,12
-24.11206,0.6833336,-37.36245,-0.0266089222232928,-0.258565787098808,0.0383185872477511,10.27638,92.2191,0.8266343,0.06726519,0.7173042,-0.05955888,7.43999983370304,12
-23.87382,0.2833336,-37.35574,-0.1294626674950407,0.1944456872442006,0.036094771741773,3.380203,90.49126,0.1723706,0.0218332,0.7097908,-0.01988568,7.45999983325601,12
-23.81483,0.4833336,-37.35324,-0.234907725053695,0.630207826904132,0.0338559894364536,6.759045,90.50661,0.3458892,0.04363884,0.7088624,-0.03974613,7.47999983280897,12
-23.75585,0.6833335,-37.35073,-0.1625052052649849,0.1437434430954511,0.0354130767126008,10.13686,90.53247,0.5218351,0.06540044,0.7073167,-0.05956611,7.49999983236194,12
-23.49845,0.2833335,-37.34317,-0.0871665705368478,-0.3599704882245442,0.037283491061153,3.328558,88.78506,0.07368792,0.02120279,0.6992616,-0.01985835,7.5199998319149,12
-23.44042,0.4833334,-37.34066,-0.1708250731250942,0.0240438748501523,0.0350030665546015,6.655762,88.79153,0.1479034,0.04237945,0.6983767,-0.03969155,7.53999983146787,12
-23.38241,0.6833336,-37.33814,-0.0512358760530489,-0.2495053703631754,0.035959181947085,9.981977,88.80241,0.2230782,0.06351396,0.6969031,-0.05948566,7.55999983102083,12
-23.32441,0.8833336,-37.33562,0.0714201210337144,-0.5146916225128043,0.0356671725453949,13.30725,88.81791,0.2998179,0.08458927,0.6948429,-0.07922393,7.5799998305738,12
-23.10674,0.2833336,-37.33018,0.0076473550331712,-0.1055874142983097,0.0307316221277389,3.278195,87.09386,359.9545,0.02045878,0.6886747,-0.01999425,7.59999983012676,12
-23.04959,0.4833335,-37.32808,-0.0500240183056988,0.2862675531458559,0.0252827313959755,6.555477,87.08994,359.9087,0.04089528,0.6878294,-0.03996643,7.61999982967973,12
-22.99244,0.6833335,-37.32598,0.1657296881115186,-0.2441039746524966,0.0251686160836541,9.831438,87.0833,359.8622,0.06128892,0.686422,-0.05989923,7.63999982923269,12
-22.756,0.2833334,-37.31896,0.1561899999575295,-0.0714368521285946,0.0187140749056879,3.228636,84.63902,359.8531,0.01996728,0.6730232,-0.01991428,7.65999982878566,12
-22.69969,0.4833335,-37.31625,0.1358459290924862,0.1116846352471993,0.0113202233157991,6.456295,84.62654,359.7053,0.03991283,0.6722205,-0.03980676,7.67999982833862,12
-22.64338,0.6833333,-37.31353,0.1179742898707587,0.2529896902445254,0.0034032481078014,9.683005,84.60554,359.5557,0.05982112,0.6708838,-0.05966198,7.69999982789159,12
-22.38695,0.2833333,-37.30535,0.1436170433436565,0.1667436565335073,-0.0038305075136406,3.28359,83.21915,359.7944,0.02023062,0.663816,-0.02036679,7.71999982744455,12
-22.32962,0.4833334,-37.30214,0.1647045407518597,0.119700232080995,-0.0112036251205012,6.566179,83.20138,359.5874,0.0404387,0.6629955,-0.0407108,7.73999982699752,12
-22.2723,0.6833332,-37.29894,0.1949279624863216,0.0585443410162959,-0.0181682222802876,9.847806,83.17146,359.3779,0.06060849,0.6616293,-0.06101543,7.75999982655048,12
-22.21501,0.8833329,-37.29573,0.2130778552444141,0.0099324701140889,-0.0248754044273553,13.12891,83.1289,359.1643,0.08072695,0.6597186,-0.08126634,7.77999982610345,12
-21.99223,0.2833334,-37.29055,0.2216973465823528,0.0005236230629301,-0.0308862209455682,3.534374,84.77261,359.8139,0.02168346,0.6738413,-0.0219878,7.79999982565641,12
-21.93047,0.4833336,-37.28817,0.2346344546621068,-0.0229983975595413,-0.0357059572581022,7.067719,84.75528,359.6265,0.04334025,0.6728774,-0.04394836,7.81999982520938,12
-21.86875,0.6833338,-37.2858,0.2282739220600227,-0.0339753750849489,-0.0400783796668022,10.60198,84.72596,359.4356,0.06495892,0.6712713,-0.06587629,7.83999982476234,12
-21.62799,0.2833335,-37.28001,0.2025555940901959,-0.0057495591852962,-0.0437022878657131,3.564555,86.45336,359.8745,0.02191267,0.6845796,-0.02209842,7.85999982431531,12
-21.56578,0.4833337,-37.27836,0.1715299066017905,0.0083631856804307,-0.0462230697633998,7.128272,86.44155,359.7478,0.04379708,0.6835849,-0.04417249,7.87999982386827,12
-21.50358,0.6833336,-37.2767,0.1492701028253904,-0.0449526314737169,-0.0472961840599452,10.69099,86.42162,359.6192,0.06563356,0.6819289,-0.06619745,7.89999982342124,12
-21.24185,0.2833332,-37.26913,0.1188968475725609,-0.112381694158299,-0.0486877479424521,3.593064,87.85312,0.01693705,0.02268187,0.6933914,-0.02164239,7.91999982297421,12
-21.17921,0.4833333,-37.26648,0.0848248588351232,-0.1406078999091052,-0.0495004329583181,7.185305,87.85477,0.03445503,0.04533897,0.6923692,-0.04325576,7.93999982252717,12
-21.11659,0.6833333,-37.26382,0.0613259120865663,-0.1829473394294704,-0.0494412191421886,10.77654,87.85754,0.05224646,0.06794517,0.6906671,-0.06482058,7.95999982208014,12
-21.05398,0.8833332,-37.26117,0.0283241714772444,-0.2127415164036002,-0.0490741492373558,14.36675,87.86152,0.07049539,0.09047848,0.6882875,-0.08631548,7.9799998216331,12
-20.83455,0.2833336,-37.25521,-0.0118042485409581,-0.2033329200768248,-0.0480174478920432,3.561711,88.72823,0.08244074,0.02271992,0.6988619,-0.02121529,7.99999982118607,12
-20.77245,0.4833336,-37.2524,-0.0446062285492345,-0.2080371609604058,-0.0460014774980379,7.12222,88.73598,0.1656146,0.04541099,0.697849,-0.04240224,8.01999982073903,12
-20.71037,0.6833335,-37.24958,-0.0926650398822488,-0.2001967011189961,-0.0447220339354501,10.68169,88.74906,0.2500349,0.06805152,0.6961627,-0.06354236,8.039999820292,12
-20.46848,0.2833337,-37.24323,-0.1559123300901852,-0.1531530965944559,-0.043681309953591,3.635751,89.51279,0.107298,0.02318536,0.7037183,-0.0216711,8.05999981984496,12
-20.40504,0.4833336,-37.24082,-0.2197112749221226,-0.1202225570927327,-0.0425630774645853,7.270521,89.52309,0.2154585,0.04634134,0.7026551,-0.04331449,8.07999981939793,12
-20.34163,0.6833335,-37.23841,-0.2694244490162347,-0.1547211722717515,-0.0410428409230618,10.90489,89.54041,0.325128,0.06944676,0.7008845,-0.0649135,8.09999981895089,12
-20.27823,0.8833333,-37.23601,-0.3214636798029033,-0.2033331864823712,-0.0385900891401433,14.53818,89.56518,0.437516,0.09247594,0.6984091,-0.08644088,8.11999981850386,12
-19.97654,0.2833335,-37.2284,-0.3714188665220472,-0.2127420586233908,-0.0349699182851566,3.622442,90.48509,0.1411011,0.02312828,0.7097111,-0.021577,8.13999981805682,12
-19.91331,0.4833333,-37.22648,-0.4044946309352522,-0.2362640795072155,-0.0298709614309515,7.24384,90.49857,0.2833198,0.04622703,0.708646,-0.0431262,8.15999981760979,12
-19.85011,0.6833336,-37.22456,-0.4396667142824402,-0.2472407123083773,-0.0243919715766836,10.86408,90.5213,0.4277297,0.06927206,0.7068727,-0.06462611,8.17999981716275,12
-19.78692,0.8833336,-37.22263,-0.4747240028001975,-0.2190147787128782,-0.017985963600168,14.48325,90.55373,0.5754542,0.09224032,0.7043936,-0.08605661,8.19999981671572,12
-19.57833,0.2833335,-37.2179,-0.4947411649626172,-0.2049017558549686,-0.0105133577219191,3.560088,92.319,0.2301054,0.02296324,0.7208781,-0.02101432,8.21999981626868,12
-19.51611,0.4833333,-37.2164,-0.5160440170178759,-0.1782436527879074,-0.0046302294342766,7.119104,92.34058,0.4619247,0.04589763,0.7198304,-0.04200233,8.23999981582165,12
-19.45391,0.6833338,-37.2149,-0.540040910405148,-0.1123828381863037,0.0001183143954648,10.67688,92.37701,0.6972615,0.06878012,0.7180861,-0.06294328,8.25999981537461,12
-19.22479,0.2833333,-37.20896,-0.5527063510371839,-0.0606346957943668,0.0039203083424865,3.497443,92.76022,0.2744562,0.02278525,0.7235428,-0.02044008,8.27999981492758,12
-19.16361,0.4833334,-37.20711,-0.5399972383646094,-0.0763152614313606,0.0069149314457419,6.993752,92.78551,0.5508933,0.04554234,0.7225259,-0.04085482,8.29999981448054,12
-19.10246,0.6833334,-37.20526,-0.5283841257756734,-0.1061090574403331,0.0086456788971389,10.48848,92.82818,0.8316008,0.06824885,0.7208332,-0.06122178,8.31999981403351,12
-18.8533,0.2833333,-37.19825,-0.5099390786712501,-0.0967004071006591,0.0094029571349665,3.439188,92.50017,0.2913925,0.02258693,0.7219846,-0.01991907,8.33999981358647,12
-18.79313,0.4833334,-37.19579,-0.4712814211235052,-0.101404948104289,0.0095714773733277,6.876836,92.5266,0.5850786,0.04514577,0.7210026,-0.03980985,8.35999981313944,12
-18.73299,0.6833334,-37.19332,-0.4342660344173481,-0.093564144148455,0.0102298684509705,10.31333,92.57113,0.8829337,0.06765714,0.7193677,-0.05965915,8.3799998126924,12
-18.67286,0.8833335,-37.19085,-0.3966744346424953,-0.0465209108319047,0.0115458665483814,13.74856,92.63457,1.187248,0.09010057,0.7170818,-0.07944889,8.39999981224537,12
-18.46456,0.2833332,-37.18577,-0.3453411437064044,-0.0135907396632924,0.0138951487866449,3.393258,90.98348,0.1910089,0.02194334,0.7128012,-0.01994651,8.41999981179833,12
-18.40531,0.4833331,-37.18345,-0.3060489043143537,0.0318849456471175,0.0159520208823309,6.78512,91.00055,0.3832664,0.04385848,0.7118611,-0.03986765,8.4399998113513,12
-18.34608,0.6833332,-37.18114,-0.2796208033207392,0.1165634567903274,0.0179751349174779,10.1759,91.0293,0.5781657,0.06572843,0.710296,-0.05974805,8.45999981090426,12
-18.11841,0.2833335,-37.17493,-0.2529009978368961,0.1871288374854233,0.0201240902906292,3.340983,89.30302,0.1061141,0.02138869,0.7024747,-0.01982893,8.47999981045723,12
-18.06015,0.4833334,-37.17237,-0.2127437157659528,0.1902651575867575,0.0225719025069679,6.680584,89.31237,0.2130426,0.04275123,0.7015786,-0.03963206,8.49999981001019,12
-18.0019,0.6833335,-37.1698,-0.067145540356444,0.1792884523908915,0.0270594595036683,10.0192,89.32812,0.321413,0.06407128,0.7000865,-0.05939577,8.51999980956316,12
-17.75515,0.2833333,-37.16339,0.0664331712442489,0.2075146238173728,0.0302326039428635,3.290964,87.56696,359.9786,0.02060207,0.6916535,-0.02000371,8.53999980911613,12
-17.69777,0.4833334,-37.16133,0.2015352991780634,0.2216277278688623,0.032323695822221,6.580937,87.56511,359.9571,0.04118091,0.6907982,-0.03998495,8.55999980866909,12
-17.64041,0.6833336,-37.15927,0.1358327656247233,0.8885994822600327,0.029324734263703,9.869577,87.56196,359.9351,0.06171621,0.6893739,-0.05992652,8.57999980822206,12
-17.58306,0.8833335,-37.15721,0.2395615459611235,0.6641847388300023,0.028468978318493,13.15733,87.55747,359.9126,0.08219516,0.6873825,-0.0798134,8.59999980777502,12
-17.37519,0.2833332,-37.15167,0.3377986782596078,0.4544059233850984,0.0264350268568591,3.240736,85.52409,359.8896,0.02010632,0.6787033,-0.01990607,8.61999980732799,12
-17.31868,0.4833333,-37.14917,0.4438010182376484,0.2049015758696016,0.0235945408800759,6.48047,85.51467,359.7785,0.04019046,0.6778884,-0.03979005,8.63999980688095,12
-17.26218,0.6833332,-37.14668,0.473752275954034,0.181379862772172,0.0178062052266412,9.719254,85.49881,359.666,0.06023676,0.6765315,-0.0596365,8.65999980643392,12
-17.03565,0.2833335,-37.13999,0.4816365733594629,0.1970613817367957,0.0108439689532104,3.195165,82.99358,359.7912,0.0196749,0.6623575,-0.01983623,8.67999980598688,12
-16.97987,0.4833333,-37.1368,0.480531800535898,0.1986294838978344,0.0031606517948006,6.3894,82.97604,359.5812,0.03932885,0.6615821,-0.03965162,8.69999980553985,12
-16.92412,0.6833332,-37.13361,0.6948514645408146,-0.5075456482159778,0.0002848483529973,9.582593,82.94649,359.3686,0.05894633,0.6602908,-0.05943009,8.71999980509281,12
-16.67257,0.2833333,-37.12691,0.7253563631620157,-0.2972437084560377,-0.0061760349844988,3.530931,84.37589,359.7981,0.02164482,0.6712851,-0.02199434,8.73999980464578,12
-16.61085,0.4833332,-37.12439,0.7418200603970568,-0.076487789600829,-0.0122910266996143,7.060915,84.35711,359.5948,0.0432634,0.6703262,-0.04396221,8.75999980419874,12
-16.54914,0.6833333,-37.12186,0.7578339173185871,0.1024511094420994,-0.0175862768750931,10.59106,84.32534,359.3878,0.06483976,0.6687288,-0.0658926,8.77999980375171,12
-16.48747,0.8833332,-37.11934,0.7541951381493508,0.0538394486674842,-0.0224873722915504,14.12156,84.28001,359.1761,0.08635774,0.6664944,-0.087763,8.79999980330467,12
-16.27764,0.2833335,-37.11518,0.7342282776750615,0.0444306977070118,-0.0264778102663427,3.560789,86.17641,359.8535,0.0218163,0.6828222,-0.02215737,8.81999980285764,12
-16.21547,0.4833333,-37.11359,0.7117444771882173,0.0209088869507801,-0.0292128491295002,7.120777,86.16263,359.7053,0.04360414,0.6818317,-0.04429124,8.8399998024106,12
-16.15332,0.6833334,-37.11201,0.6647578044348705,0.009932007868233,-0.0323875355498017,10.67967,86.13934,359.5549,0.06534322,0.6801825,-0.06637599,8.85999980196357,12
-15.92277,0.2833335,-37.10593,0.5942212385748284,0.0381579318807985,-0.0354672638126203,3.595259,87.65352,359.9789,0.02250374,0.6921436,-0.02185533,8.87999980151653,12
-15.86007,0.4833333,-37.10372,0.5141404195998973,0.0522708089038861,-0.0382002031421464,7.189813,87.65155,359.958,0.04498277,0.6911218,-0.04368294,8.8999998010695,12
-15.79739,0.6833332,-37.10152,0.6497610800555993,-0.6413596187388764,-0.035287653507062,10.78334,87.64822,359.9367,0.06741095,0.6894206,-0.06546155,8.91999980062246,12
-15.54677,0.2833333,-37.09429,0.5995977433130122,-0.418512805325556,-0.0350517478240135,3.555896,88.57574,0.07911605,0.02269157,0.6979121,-0.02117038,8.93999980017543,12
-15.48478,0.4833333,-37.09136,0.5371919653268744,-0.1852117369156047,-0.0342793895337436,7.110486,88.58319,0.159163,0.0453551,0.6969041,-0.04231049,8.95999979972839,12
-15.42281,0.6833332,-37.08843,0.4770206660379088,0.0062726019578268,-0.0326901384486788,10.66404,88.59575,0.2404372,0.06796852,0.6952257,-0.06340384,8.97999979928136,12
-15.36086,0.883333,-37.08551,0.4012806196564611,-0.0297942603458761,-0.0320272869510773,14.21659,88.61367,0.323612,0.09051023,0.6928792,-0.08443031,8.99999979883432,12
-15.04862,0.2833334,-37.0774,0.3132496946593921,-0.0266582149262566,-0.031560850739531,3.625412,89.65567,0.1107454,0.02311557,0.704604,-0.02161509,9.01999979838729,12
-14.98536,0.4833334,-37.07509,0.2275970881885882,-0.0376355392667337,-0.0310144493051822,7.249795,89.66624,0.222308,0.04620124,0.7035455,-0.04320275,9.03999979794025,12
-14.92212,0.6833333,-37.07278,0.1236742970111048,-0.0360673507721769,-0.030637944566827,10.87376,89.68407,0.3353943,0.06923655,0.7017826,-0.06474654,9.05999979749322,12
-14.8589,0.8833331,-37.07048,0.0026168725899307,0.0047036350677324,-0.0299847021377388,14.49664,89.70953,0.4512317,0.0921959,0.6993181,-0.08621932,9.07999979704618,12
-14.63886,0.2833335,-37.0656,-0.1207238163707806,0.0313612213533363,-0.02872398014226,3.625061,90.28453,0.1227706,0.02306879,0.7084814,-0.02166546,9.09999979659915,12
-14.5756,0.4833336,-37.06378,-0.2314957477849031,-0.0094103101910678,-0.0265351336310999,7.249068,90.29626,0.2465186,0.04610801,0.707417,-0.04330288,9.11999979615211,12
-14.51235,0.6833335,-37.06195,-0.2406788027195201,-0.0642941922199318,-0.0208488475056256,10.87203,90.31607,0.3722647,0.06909481,0.7056448,-0.06489079,9.13999979570508,12
-14.27201,0.2833334,-37.05659,-0.2588753120925808,-0.0799753749978331,-0.0145150687111126,3.573836,92.04006,0.2075526,0.02295604,0.7191923,-0.02118126,9.15999979525805,12
-14.20957,0.4833335,-37.05519,-0.2705709424492593,-0.1097693617942933,-0.0073458585016155,7.146566,92.05961,0.4166611,0.04588284,0.7181398,-0.04233562,9.17999979481101,12
-14.14715,0.6833335,-37.05379,-0.4643695300991446,0.5132952065294143,-0.0041809902321787,10.71815,92.09258,0.6289668,0.06875792,0.7163875,-0.06344272,9.19999979436398,12
-13.8867,0.2833335,-37.04762,-0.4743396313472416,0.2449730894677816,0.0003714780701216,3.512312,92.81017,0.264324,0.02280176,0.7238422,-0.02060489,9.21999979391694,12
-13.82527,0.4833336,-37.04601,-0.4686962244925592,-0.0087130337478365,0.004095676022203,7.023534,92.83462,0.5305409,0.04557523,0.7228167,-0.04118454,9.23999979346991,12
-13.76386,0.6833333,-37.0444,-0.6677157161790124,0.4181632386479197,0.0029231257248838,10.53325,92.87589,0.8008485,0.06829776,0.7211096,-0.06171655,9.25999979302287,12
-13.70247,0.8833333,-37.0428,-0.6759981321933122,0.1937487440256853,0.0038854700238815,14.04166,92.93475,1.077276,0.09094884,0.7187229,-0.08218437,9.27999979257584,12
-13.48404,0.2833333,-37.03706,-0.6813897866781105,-0.0160301153264771,0.0035593105326015,3.452732,92.69913,0.290535,0.02262844,0.723181,-0.02004891,9.2999997921288,12
-13.42363,0.4833334,-37.03482,-0.670013851688779,-0.2655344793071933,0.0022962015153495,6.903923,92.72556,0.5833756,0.04522862,0.7221897,-0.04006924,9.31999979168177,12
-13.36324,0.6833334,-37.03259,-0.604013715785424,-0.2890563148048208,0.0035108731604438,10.35396,92.77015,0.8804393,0.06778111,0.7205393,-0.06004731,9.33999979123473,12
-13.12489,0.2833333,-37.02648,-0.5382810482627036,-0.2733750246980655,0.0054107071143576,3.404595,91.53239,0.2223291,0.02211226,0.7161414,-0.01993166,9.3599997907877,12
-13.06541,0.4833333,-37.02419,-0.4588834575864471,-0.2718068987539284,0.0083866870564577,6.807758,91.55232,0.4461573,0.04419605,0.7151896,-0.03983753,9.37999979034066,12
-13.00595,0.6833333,-37.0219,-0.5540426475324516,0.3826199947030263,0.0074319481216917,10.20985,91.58593,0.6731854,0.06623482,0.7136049,-0.05970208,9.39999978989363,12
-12.74855,0.2833333,-37.01489,-0.4758632916101621,0.1456604151672899,0.0104570101057177,3.354185,89.81261,0.1303872,0.02153133,0.7056231,-0.01985519,9.41999978944659,12
-12.69004,0.4833333,-37.01242,-0.3865092379422492,-0.0766631971804089,0.014624244488715,6.706956,89.82413,0.2617193,0.04303585,0.7047154,-0.03968446,9.43999978899956,12
-12.63154,0.6833333,-37.00995,-0.4977658079142735,0.3815756671897268,0.014100990194187,10.05874,89.84355,0.3948353,0.06449742,0.703204,-0.05947413,9.45999978855252,12
-12.57307,0.8833331,-37.00748,-0.4147901476937878,0.1885231802442944,0.0160283184550067,13.40954,89.87119,0.5307067,0.08589777,0.7010907,-0.07920735,9.47999978810549,12
-12.35538,0.2833333,-37.00251,-0.3254803427849069,0.0101065702330884,0.0171247541265344,3.303337,88.07735,0.01011759,0.0207814,0.6948531,-0.01997272,9.49999978765845,12
-12.29779,0.4833332,-37.00041,-0.2161507874504771,-0.2080355028515901,0.0175867647653191,6.605709,88.07824,0.02032626,0.04153964,0.6939873,-0.03992287,9.51999978721142,12
-12.24022,0.683333,-36.9983,-0.1722362201722802,-0.2001947924600311,0.0151867975214798,9.90678,88.07971,0.03051683,0.06225432,0.6925458,-0.05983296,9.53999978676438,12
-12.00371,0.2833333,-36.99236,-0.1410286973954075,-0.1531511939466051,0.0117165560141359,3.253431,86.22736,359.9099,0.02018604,0.6831887,-0.01997508,9.55999978631735,12
-11.94697,0.4833333,-36.99019,-0.1093482298528574,-0.1202205435442084,0.0074699836550564,6.505887,86.21965,359.8193,0.04035,0.6823623,-0.0399279,9.57999978587031,12
-11.89025,0.6833332,-36.98802,-0.0640119324892722,-0.1547185569150138,0.0027617665511598,9.7574,86.20667,359.7276,0.0604757,0.6809863,-0.05984285,9.59999978542328,12
-11.83354,0.883333,-36.98586,-0.0252569532842521,-0.2033303028035004,-0.0029953984338888,13.00762,86.1882,359.6341,0.08054491,0.6790624,-0.0797018,9.61999978497624,12
-11.53801,0.2833333,-36.97769,0.0123807639215982,-0.212739385769054,-0.0092808182622192,3.201099,82.98486,359.7753,0.01962288,0.6623024,-0.01997338,9.63999978452921,12
-11.4821,0.4833332,-36.97475,0.0621129226776222,-0.2362614173683414,-0.0156737150434196,6.401206,82.96593,359.5492,0.03922451,0.6615236,-0.03992533,9.65999978408217,12
-11.42621,0.6833333,-36.97182,-0.0754521341143465,0.39307566640567,-0.0260052584009926,9.60025,82.93407,359.3203,0.0587896,0.6602268,-0.05983992,9.67999978363514,12
-11.37033,0.8833331,-36.96888,0.0218181943362516,0.131026038659066,-0.0307385653667608,12.79799,82.88885,359.0876,0.07830394,0.6584139,-0.07969789,9.6999997831881,12
-11.15611,0.2833332,-36.96446,0.1189194284438066,-0.1163878876081049,-0.0346969179386107,3.532416,84.38029,359.7938,0.02162819,0.6713141,-0.02203187,9.71999978274107,12
-11.09435,0.4833333,-36.96201,-0.0082749944632869,0.3167604222238159,-0.0431363720946649,7.063841,84.3611,359.5861,0.04322992,0.6703543,-0.04403691,9.73999978229403,12
-11.03262,0.6833333,-36.95956,0.0544984162071706,0.0986176977610242,-0.0461528442858423,10.59545,84.32866,359.3748,0.06479011,0.6687554,-0.06600402,9.759999781847,12
-10.80242,0.2833334,-36.9549,0.1069547807558288,-0.1048889671691025,-0.047887642704552,3.561509,86.21939,359.8528,0.02180903,0.6830959,-0.02217362,9.77999978139997,12
-10.74024,0.4833334,-36.95337,0.1628882734561987,-0.3481213661083603,-0.0479667803101548,7.122183,86.20555,359.7042,0.04358965,0.6821046,-0.04432325,9.79999978095293,12
-10.67808,0.6833334,-36.95184,0.2588299630492985,-0.365370773360377,-0.0464597769283656,10.68179,86.18217,359.5532,0.06532171,0.6804541,-0.0664239,9.8199997805059,12
-10.42677,0.2833333,-36.94558,0.3388833129813777,-0.3434173911076201,-0.0444303381572197,3.595446,87.7029,359.9789,0.02249526,0.6924542,-0.02186639,9.83999978005886,12
-10.36406,0.4833333,-36.94342,0.4173007281331378,-0.3355770694346836,-0.0415995135196496,7.190129,87.70091,359.9579,0.0449651,0.6914318,-0.04370508,9.85999977961183,12
-10.30138,0.6833333,-36.94127,0.2946745296130446,0.3251223634299064,-0.0423570443984715,10.7838,87.69758,359.9365,0.06738441,0.6897298,-0.06549467,9.87999977916479,12
-10.23871,0.8833331,-36.93912,0.3443670855903846,0.0944349882476116,-0.0392917253826397,14.37647,87.69282,359.9146,0.08973139,0.6873501,-0.08721356,9.89999977871776,12
-10.03008,0.2833334,-36.9337,0.3895038688958392,-0.1216168615198763,-0.035459823971891,3.555658,88.63483,0.07918158,0.02267957,0.698281,-0.02118022,9.91999977827072,12
-9.968093,0.4833335,-36.93083,0.2068321932589203,0.3428934816014128,-0.0362941925522974,7.109997,88.64229,0.159324,0.04533122,0.6972725,-0.04232991,9.93999977782369,12
-9.906125,0.6833336,-36.92797,0.2125244390976739,0.1561134131444204,-0.0335417563092761,10.6633,88.65487,0.2406951,0.06793272,0.6955936,-0.06343277,9.95999977737665,12
-9.674949,0.2833333,-36.92281,0.205815684478269,-0.0160310252695534,-0.0310011551631959,3.624695,89.55942,0.1026882,0.02307977,0.7040101,-0.02164114,9.97999977692962,12
-9.611704,0.4833333,-36.92054,0.2012550846214065,-0.2279008406848373,-0.0284278152320851,7.248328,89.56922,0.2061637,0.04612971,0.702953,-0.04325442,9.99999977648258,12
-9.548481,0.6833332,-36.91827,0.2335350500182551,-0.2137878799417586,-0.0241092401968785,10.87155,89.58575,0.3110445,0.06912945,0.7011926,-0.06482374,10.0199997760355,12
-9.296598,0.2833334,-36.91242,0.2497624617376237,-0.1604718916886918,-0.0196506585058529,3.637991,89.99114,0.1108837,0.02313063,0.7066738,-0.0217594,10.0399997755885,12
-9.233118,0.4833334,-36.91048,0.2648954284220739,-0.1212685915878093,-0.0147743131926816,7.274909,90.00178,0.2226291,0.04623115,0.7056048,-0.04349054,10.0599997751415,12
-9.169655,0.6833334,-36.90854,0.0790566551768936,0.5707933810677344,-0.013800495508903,10.91075,90.01973,0.3361628,0.0692784,0.703825,-0.06517164,10.0799997746944,12
-9.106212,0.8833335,-36.90659,0.0694381517522302,0.3714684277191955,-0.0087201295454875,14.54567,90.04533,0.4522919,0.09224915,0.7013366,-0.08678299,10.0999997742474,12
-8.897682,0.2833333,-36.90256,0.0576149751666177,0.1867792286433355,-0.0026328847781016,3.589709,91.71059,0.1873851,0.02298705,0.7171944,-0.02133705,10.1199997738004,12
-8.834986,0.4833332,-36.90117,0.0586433179986132,-0.0376353294004931,0.0046649545316697,7.178329,91.72832,0.3762196,0.0459449,0.7161362,-0.04264672,10.1399997733533,12
-8.772307,0.6833332,-36.89977,-0.1991285358808676,0.6042470747658238,0.0061216997841384,10.76581,91.75825,0.5679619,0.06885055,0.7143744,-0.06390841,10.1599997729063,12
-8.709644,0.8833331,-36.89838,-0.2052200276299949,0.3547424493452632,0.0107889890511998,14.35188,91.8009,0.7640103,0.09167885,0.7119114,-0.08510117,10.1799997724593,12
-8.440945,0.2833335,-36.89244,-0.2105203410790839,0.1198734746145813,0.0144069819667365,3.520373,92.92088,0.2679468,0.02285318,0.7245055,-0.02065612,10.1999997720122,12
-8.379373,0.4833335,-36.8909,-0.2005288028092753,-0.1547208697995282,0.017095839803126,7.039634,92.94574,0.5378532,0.04567799,0.7234742,-0.04128656,10.2199997715652,12
-8.317817,0.6833333,-36.88935,-0.1480879181826004,-0.2033323106893828,0.0200239312138421,10.55764,92.98768,0.811918,0.0684531,0.7217574,-0.06187075,10.2399997711182,12
-8.079015,0.2833334,-36.88346,-0.1031550779928451,-0.2127407295576564,0.0213064587386284,3.455409,92.78182,0.2910555,0.02263336,0.7236782,-0.02007901,10.2599997706711,12
-8.018557,0.4833334,-36.88131,-0.0519413515734656,-0.2362624284549218,0.0212604432352208,6.909256,92.80834,0.5844479,0.04523845,0.7226847,-0.04012911,10.2799997702241,12
-7.958115,0.6833333,-36.87915,-0.1829365365851201,0.3930746581939668,0.0175443036588376,10.36195,92.85305,0.8820463,0.06779561,0.7210307,-0.06013707,10.2999997697771,12
-7.699707,0.2833333,-36.87273,-0.1457997489237961,0.1310250503101709,0.0175758227977027,3.405383,91.63193,0.2227922,0.02210263,0.7167466,-0.01995298,10.31999976933,12
-7.640208,0.4833333,-36.87053,-0.1039882913945469,-0.1163888257772768,0.0183438949031966,6.809313,91.65191,0.4471433,0.044177,0.7157936,-0.03987965,10.339999768883,12
-7.580727,0.6833333,-36.86833,-0.2710841337954139,0.3167596845993035,0.014512376809769,10.21218,91.6856,0.674638,0.06620602,0.7142068,-0.0597654,10.359999768436,12
-7.521263,0.8833332,-36.86613,-0.2553230058319391,0.0986175383358595,0.0146106105881358,13.61393,91.73359,0.9069933,0.08817023,0.7119882,-0.07959263,10.3799997679889,12
-7.303404,0.2833334,-36.86103,-0.2442848492050444,-0.1048890890465914,0.0152915128473765,3.354137,89.92191,0.1306843,0.02151392,0.706298,-0.01987359,10.3999997675419,12
-7.244889,0.4833332,-36.85867,-0.224573206638027,-0.3481210845443562,0.01672977175037,6.706914,89.93346,0.262309,0.04300135,0.7053894,-0.03972161,10.4199997670949,12
-7.186391,0.6833329,-36.85631,-0.1553202903772499,-0.3653703083267581,0.0182297011851844,10.0587,89.95293,0.3957548,0.064446,0.7038766,-0.05952974,10.4399997666478,12
-6.949442,0.2833334,-36.85093,-0.0929272725025054,-0.343416869186226,0.0185322605251627,3.303603,88.17389,0.01003785,0.02076575,0.6954582,-0.01999234,10.4599997662008,12
-6.891844,0.4833333,-36.84892,-0.0238409720898071,-0.3355766177300541,0.0177962476875634,6.606234,88.17477,0.02013397,0.04150812,0.6945915,-0.03996223,10.4799997657537,12
-6.834259,0.6833333,-36.84691,-0.1376421288370126,0.3251228568638543,0.0134275451993559,9.907546,88.17622,0.03021313,0.06220684,0.6931484,-0.05989189,10.4999997653067,12
-6.578673,0.2833333,-36.84071,0.0230178190317729,0.0944354347251846,0.0134344797583665,3.253537,86.32673,359.91,0.02016986,0.6838212,-0.0199927,10.5199997648597,12
-6.521929,0.4833333,-36.83864,0.1733588764997153,-0.121615991476649,0.0123149230822292,6.506086,86.31902,359.8195,0.04031739,0.6829939,-0.03996326,10.5399997644126,12
-6.465201,0.6833334,-36.83657,0.1006862704470936,0.3428948599756956,0.006064472248866,9.757648,86.30605,359.7278,0.06042624,0.6816167,-0.05989584,10.5599997639656,12
-6.408487,0.8833333,-36.83451,0.0188322472702906,0.7964288867068566,-0.000828444569592,13.00797,86.28761,359.6343,0.08047932,0.6796909,-0.07977225,10.5799997635186,12
-6.191334,0.2833334,-36.82896,0.1066684897498131,0.334008926066571,-0.0057548040829047,3.205455,83.61657,359.8038,0.01970693,0.6664142,-0.01992084,10.5999997630715,12
-6.135377,0.4833333,-36.82614,0.1901150065277526,-0.1393881127199214,-0.011527258202399,6.409928,83.60002,359.6064,0.03939231,0.6656293,-0.03982049,10.6199997626245,12
-6.079437,0.6833333,-36.82331,0.1086966470213206,0.281215612253383,-0.0202553764454265,9.613364,83.57216,359.4066,0.05904096,0.6643225,-0.05968287,10.6399997621775,12
-6.023511,0.8833334,-36.8205,0.2200132296775727,0.0505285584478227,-0.0248432319068925,12.81552,83.53263,359.2035,0.07863827,0.6624956,-0.0794889,10.6599997617304,12
-5.741906,0.2833333,-36.81449,0.324484227365414,-0.1655228579968414,-0.0289446315379109,3.463012,84.52924,359.8034,0.02120754,0.6722859,-0.02159117,10.6799997612834,12
-5.681377,0.4833333,-36.81215,0.4362219694868963,-0.4212999765656081,-0.03210907293127,6.925048,84.51129,359.6053,0.04238969,0.6713622,-0.04315703,10.6999997608364,12
-5.620869,0.6833333,-36.80981,0.5330738704794431,-0.4510945379024803,-0.0346418770543976,10.38672,84.48099,359.404,0.06352956,0.6698238,-0.0646835,10.7199997603893,12
-5.370421,0.2833333,-36.80483,0.6117737852784071,-0.4416863055529369,-0.0360619370957735,3.541049,86.35235,359.8546,0.02166395,0.6839453,-0.02206528,10.7399997599423,12
-5.308589,0.4833335,-36.80344,0.68665256639895,-0.4463909844636858,-0.0360434071874067,7.081643,86.33875,359.7078,0.04330207,0.682964,-0.0441094,10.7599997594953,12
-5.246772,0.6833333,-36.80205,0.5592399392290108,0.2017633693242792,-0.039457344605708,10.62124,86.3158,359.5587,0.06489298,0.6813301,-0.06610546,10.7799997590482,12
-5.184974,0.8833331,-36.80066,0.4333879101735229,0.6984536638165366,-0.0420735812308521,14.15975,86.28304,359.4061,0.08641549,0.6790459,-0.08803225,10.7999997586012,12
-4.974942,0.2833334,-36.79584,0.5335930955858013,0.1676285184608557,-0.040325567075989,3.589287,87.82517,359.9789,0.02243365,0.6932241,-0.02185266,10.8199997581542,12
-4.912338,0.4833334,-36.79382,0.3984838327223952,0.3466024308414847,-0.0427255343198496,7.177962,87.82322,359.9581,0.04484353,0.6922041,-0.04367806,10.8399997577071,12
-4.849752,0.6833332,-36.79181,0.25410897711974,0.542790901527294,-0.0445584271286918,10.76563,87.81991,359.9369,0.06720299,0.6905058,-0.06545472,10.8599997572601,12
-4.620334,0.2833335,-36.78614,0.2934771638718889,0.0636088713567285,-0.0426463095965772,3.554242,88.75756,0.0791869,0.02264808,0.6990468,-0.02119583,10.879999756813,12
-4.558366,0.4833333,-36.78341,0.3285638031719728,-0.4260618561795748,-0.0399304540234481,7.10724,88.76501,0.1593011,0.04526855,0.698038,-0.04236177,10.899999756366,12
-4.496417,0.6833333,-36.78068,0.1840163214796981,-0.0212442651373481,-0.0396984686314567,10.6592,88.7776,0.2407088,0.06783942,0.6963585,-0.06348052,10.919999755919,12
-4.244544,0.2833334,-36.77509,0.2448716270271196,-0.2672297918589258,-0.0359324281079693,3.624217,89.68547,0.1027472,0.02305336,0.7047902,-0.02166322,10.9399997554719,12
-4.181301,0.4833333,-36.77295,0.2993165469398775,-0.4980911947655189,-0.0323036326128018,7.247426,89.69527,0.2063141,0.04607745,0.7037322,-0.04329867,10.9599997550249,12
-4.118082,0.6833333,-36.77082,0.1483200865269118,-0.0479028708728208,-0.032186450761948,10.87018,89.71181,0.3111879,0.06905052,0.7019702,-0.06489044,10.9799997545779,12
-4.05488,0.8833331,-36.76868,-0.0023413606354443,0.3917966371742342,-0.0317056924208074,14.49188,89.73541,0.418678,0.09194851,0.699507,-0.08641089,10.9999997541308,12
-3.742789,0.2833332,-36.76213,0.0218936403315046,-0.0839698332746193,-0.0278306068279334,3.629627,90.45929,0.1278673,0.02309533,0.7095538,-0.02169759,11.0199997536838,12
-3.67944,0.4833333,-36.76041,-0.1825403571281997,0.1500627427746718,-0.0279506984058386,7.258137,90.47153,0.2567551,0.04616063,0.7084851,-0.04336665,11.0399997532368,12
-3.616109,0.6833333,-36.75869,-0.3890960259559936,0.40130954625659,-0.027443316933656,10.88558,90.49218,0.387665,0.06917287,0.7067057,-0.06498633,11.0599997527897,12
-3.552796,0.8833333,-36.75697,-0.4020856610553838,-0.0228140295017303,-0.0227324166082922,14.51206,90.52162,0.5215407,0.09210853,0.7042179,-0.08653671,11.0799997523427,12
-3.333878,0.2833335,-36.7531,-0.4109645805187154,-0.4574264216283976,-0.0166423318081569,3.574813,92.23967,0.2094261,0.02293679,0.7203997,-0.02121602,11.0999997518957,12
-3.271417,0.4833334,-36.75189,-0.5930076516223923,0.0024495181524561,-0.0132283246957953,7.148529,92.2594,0.4204237,0.04584442,0.7193448,-0.04240517,11.1199997514486,12
-3.208973,0.6833334,-36.75068,-0.7615973455261389,0.4518365332778132,-0.0095685327673677,10.7211,92.2927,0.6346805,0.06870057,0.7175885,-0.0635468,11.1399997510016,12
-2.969511,0.2833335,-36.74588,-0.6502002239779946,-0.0142424193772732,-0.0030396977211353,3.51265,93.00864,0.2647995,0.02277108,0.7250348,-0.02064364,11.1599997505546,12
-2.908073,0.4833334,-36.74448,-0.5202093147841795,-0.4908105506355877,0.0024381160459086,7.024218,93.03314,0.5315599,0.04551435,0.7240074,-0.04126166,11.1799997501075,12
-2.84665,0.6833332,-36.74308,-0.6274709942455616,-0.0728901386391442,0.0031721251793044,10.53426,93.07449,0.8023777,0.0682064,0.7222971,-0.06183211,11.1999997496605,12
-2.587434,0.2833332,-36.73726,-0.5099341155376638,-0.3057728464973274,0.0060981170565597,3.453199,92.8926,0.2905951,0.02259774,0.724345,-0.02008967,11.2199997492135,12
-2.52701,0.4833331,-36.73523,-0.3917999671642754,-0.5235318194333833,0.0074703147019334,6.904866,92.91906,0.5834977,0.04516732,0.7233518,-0.04015077,11.2399997487664,12
-2.466603,0.683333,-36.7332,-0.4867906721981542,-0.0602405356339363,0.0044250240166761,10.35536,92.96367,0.8806251,0.06768917,0.7216983,-0.06016943,11.2599997483194,12
-2.406213,0.883333,-36.73117,-0.5804785772557248,0.392561569562283,0.0012055852977539,13.80459,93.02724,1.184285,0.09014279,0.7193866,-0.08012745,11.2799997478724,12
-2.345841,0.9766704,-36.72914,-0.4911643588049719,-0.0701025336406859,0.0020433601755271,17.25245,93.111,1.496982,0.1125078,0.7164192,-0.1000067,11.2999997474253,12
-2.087818,0.2833334,-36.72398,-0.3938444627972691,-0.5432552167749034,0.0041360463065629,3.40184,91.30245,0.1992342,0.02199137,0.7147457,-0.0200109,11.3199997469783,12
-2.028404,0.4833333,-36.72185,-0.4525624993326913,-0.1219197968594736,0.0036648534752643,6.802272,91.3203,0.3999267,0.04395525,0.713798,-0.03999531,11.3399997465312,12
-1.969008,0.6833334,-36.71972,-0.3077427794418773,-0.3513875106503609,0.0067855792691418,10.20162,91.3504,0.6033601,0.06587347,0.7122203,-0.05993891,11.3599997460842,12
-1.741703,0.2833332,-36.71481,-0.1587412099578101,-0.5657314772355486,0.0105703500715392,3.343642,89.62405,0.1086424,0.02136505,0.7044632,-0.01988948,11.3799997456372,12
-1.683384,0.4833333,-36.71252,-0.1918107160273459,-0.0990254020914054,0.0108323561802805,6.685795,89.63362,0.2180069,0.04270264,0.7035631,-0.03975307,11.3999997451901,12
-1.625082,0.6833334,-36.71024,-0.2150140493113563,0.3571918514573355,0.0107799288231831,10.02697,89.64974,0.3289119,0.0639982,0.7020644,-0.05957679,11.4199997447431,12
-1.378551,0.2833332,-36.70522,0.0407760785510666,-0.1020570798713702,0.0139620376610309,3.291796,87.89129,359.9795,0.02055618,0.693693,-0.02006119,11.4399997442961,12
-1.32115,0.4833333,-36.70347,0.0757229276389879,0.1484929473964318,0.012658906829543,6.582604,87.88952,359.9589,0.04108919,0.6928346,-0.04009985,11.459999743849,12
-1.263762,0.6833332,-36.70172,0.1042823345686101,0.4162576590285511,0.0107775330900068,9.872109,87.8865,359.9378,0.06157884,0.6914055,-0.06009898,11.479999743402,12
-1.206391,0.8833332,-36.69997,0.1396441259237171,0.6489661756427443,0.008531023455653,13.16065,87.88219,359.9162,0.08201139,0.6894072,-0.08004316,11.499999742955,12
-0.9989513,0.2833335,-36.69564,0.3503097783471882,-0.0594038234163938,0.0071662482275982,3.241023,85.85497,359.89,0.02005325,0.6808194,-0.01996288,11.5199997425079,12
-0.9424177,0.4833334,-36.69347,0.2764438482276345,0.1554635405974296,-0.0002230122662041,6.481125,85.8456,359.7794,0.04008505,0.6800018,-0.03990394,11.5399997420609,12
-0.8859002,0.6833332,-36.69129,0.1961514673129554,0.3875450153934457,-0.0081466171217314,9.720246,85.82981,359.6673,0.06007873,0.6786404,-0.05980735,11.5599997416139,12
-0.6594924,0.2833332,-36.68595,0.2995181397612818,-0.0557435654960974,-0.0140102484958646,3.195375,83.32785,359.7914,0.01961931,0.6645385,-0.01989366,11.5799997411668,12
-0.6037006,0.4833332,-36.68308,0.3996048382926078,-0.5095212112133174,-0.0203931703148612,6.38975,83.31032,359.5816,0.03921767,0.6637604,-0.03976554,11.5999997407198,12
-0.5479248,0.6833332,-36.68021,0.3232468828113772,-0.0688106662406067,-0.029506627018172,9.583103,83.28082,359.3693,0.05877979,0.6624649,-0.05960052,11.6199997402728,12
-0.4921629,0.8833331,-36.67735,0.4502736936198404,-0.2789031545276509,-0.0345677661328736,12.77518,83.23892,359.1533,0.07829099,0.6606535,-0.07937975,11.6399997398257,12
-0.2003544,0.2833334,-36.67204,0.5686893600169722,-0.4738721419774956,-0.0387051278990426,3.51749,85.26621,359.8177,0.02150275,0.6770172,-0.02195675,11.6599997393787,12
-0.1388598,0.4833333,-36.67015,0.4800275808233842,0.0122092251412017,-0.0458284271461124,7.034024,85.24932,359.6341,0.04297964,0.676058,-0.04388695,11.6799997389317,12
-0.07739483,0.6833333,-36.66827,0.3875173306477966,0.4878015237732874,-0.0519754519937549,10.55119,85.22073,359.4472,0.06441717,0.6744599,-0.06578343,11.6999997384846,12
0.1834468,0.2833333,-36.66375,0.568720138020335,0.0479278569771005,-0.0519985991336184,3.559728,86.9288,359.875,0.02179293,0.6875961,-0.02215734,11.7199997380376,12
0.2455921,0.4833334,-36.66261,0.5023219989649501,0.3178533820782898,-0.0555442321909112,7.118716,86.91705,359.7487,0.04355832,0.6865997,-0.04429097,11.7399997375906,12
0.3077198,0.6833333,-36.66147,0.4142440825298221,0.6049934929266989,-0.0583796217894274,10.67667,86.89722,359.6205,0.06527577,0.6849409,-0.06637546,11.7599997371435,12
0.3698298,0.8833333,-36.66033,0.3182817338486505,0.8570776580005681,-0.0603397323939063,14.23356,86.8689,359.4893,0.08692405,0.6826216,-0.08838961,11.7799997366965,12
0.5898499,0.2833332,-36.65561,0.3965511520861442,0.1680831985912524,-0.0594764059312851,3.591401,88.31712,0.01661259,0.02258167,0.6963011,-0.02172598,11.7999997362494,12
0.6524833,0.4833333,-36.65347,0.4733118631136128,-0.430011820112898,-0.0576509181163586,7.182042,88.31874,0.03380381,0.04513912,0.6952754,-0.04342325,11.8199997358024,12
0.715099,0.6833333,-36.65133,0.3260168626431254,-0.0344979726871305,-0.0584405779571142,10.77166,88.32147,0.05129743,0.06764601,0.6935678,-0.06507149,11.8399997353554,12
0.9549936,0.2833333,-36.64641,0.3704615559195168,-0.290275036633177,-0.0559954838090419,3.561499,89.19059,0.08238202,0.02263246,0.7017394,-0.02130586,11.8599997349083,12
1.017107,0.4833332,-36.6441,0.4066580052423019,-0.5314163834186281,-0.0528828512379533,7.121785,89.19833,0.1654015,0.04523554,0.7007225,-0.04258376,11.8799997344613,12
1.079202,0.6833332,-36.64178,0.2479087699516204,-0.0919950376960095,-0.0522606139541323,10.68101,89.21138,0.2497315,0.06778855,0.6990295,-0.06381413,11.8999997340143,12
1.141279,0.8833331,-36.63947,0.0886890389619341,0.3364494600450362,-0.0512236360279274,14.23922,89.23002,0.3360371,0.09026984,0.6966625,-0.084977,11.9199997335672,12
1.443094,0.2833332,-36.63391,0.1973094038538527,-0.1510607177270942,-0.0465233204880277,3.634344,90.12885,0.1152685,0.02310907,0.7075225,-0.02173764,11.9399997331202,12
1.506529,0.4833331,-36.63205,0.076348821899681,0.0707404127976871,-0.0451382555767523,7.267641,90.13988,0.2314933,0.04618866,0.7064542,-0.04344689,11.9599997326732,12
1.569941,0.6833332,-36.63018,-0.0577208467486718,0.309268138227484,-0.0433377879295804,10.90031,90.15851,0.3493045,0.06921622,0.7046754,-0.06511062,11.9799997322261,12
1.633335,0.8833331,-36.62832,-0.1902493852555586,0.5122519126661444,-0.0408818650670568,14.53209,90.18509,0.4700028,0.09216887,0.7021883,-0.0867039,11.9999997317791,12
1.842246,0.2833332,-36.62548,-0.146158487116959,-0.2263308241150791,-0.0352795515727422,3.614996,90.98273,0.1341754,0.02294575,0.7127637,-0.02167327,12.0199997313321,12
1.90535,0.4833334,-36.62423,-0.2715611190870737,-0.0421645535139487,-0.0311220743581728,7.228872,90.99553,0.2693437,0.04586142,0.7116986,-0.04331862,12.039999730885,12
1.968437,0.6833332,-36.62297,-0.390548850885219,0.158728270437115,-0.0260307925625227,10.84172,91.01711,0.4067116,0.06872547,0.7099253,-0.06491458,12.059999730438,12
2.19775,0.2833334,-36.61958,-0.3031563734269307,-0.3162368260804538,-0.0182132882023893,3.55837,92.8046,0.2276843,0.02284835,0.7238064,-0.02111515,12.079999729991,12
2.259948,0.4833333,-36.61865,-0.4027876088326207,-0.0818904973893212,-0.0130990770608008,7.115636,92.82595,0.4570946,0.04566803,0.7227556,-0.04220349,12.0999997295439,12
2.322129,0.6833333,-36.61772,-0.4927375441827051,0.1691824107870139,-0.0081010023590977,10.67175,92.86198,0.6900213,0.06843688,0.721006,-0.06324491,12.1199997290969,12
2.571633,0.2833333,-36.61349,-0.3536103858622521,-0.2556029339459481,-0.0022653618620012,3.497032,93.26228,0.2739727,0.02268995,0.7265574,-0.02054001,12.1399997286499,12
2.632814,0.4833332,-36.61219,-0.1969016023634084,-0.6913650610609512,0.0021255991667814,6.992968,93.28753,0.5499255,0.04535211,0.7255365,-0.04105477,12.1599997282028,12
2.693979,0.6833333,-36.61088,-0.2906801586597041,-0.233127048526469,0.0022418924186027,10.48728,93.33012,0.8301132,0.06796354,0.7238371,-0.06152148,12.1799997277558,12
2.755127,0.8833331,-36.60958,-0.3758114344879422,0.2141343929732124,0.0019308304029976,13.98039,93.39086,1.116627,0.09050518,0.7214613,-0.08192502,12.1999997273088,12
3.063917,0.2833332,-36.60378,-0.172838280248059,-0.2545581265019264,0.0040047601199333,3.434746,92.73144,0.2755514,0.02241995,0.7233822,-0.02003193,12.2199997268617,12
3.124001,0.4833332,-36.60183,-0.2050523925112992,-0.0139393562361969,0.0022117584491709,6.867931,92.75638,0.5532581,0.04481175,0.7224016,-0.04003542,12.2399997264147,12
3.184067,0.6833332,-36.59987,-0.2469602105297061,0.2434058575242005,0.0005061618417769,10.29997,92.79844,0.8348941,0.0671565,0.720769,-0.05999725,12.2599997259676,12
3.244117,0.8833332,-36.59792,-0.2850880052180162,0.4652070889311349,-0.0007652146332404,13.73079,92.85838,1.122686,0.08943446,0.7184864,-0.07989904,12.2799997255206,12
3.461872,0.2833334,-36.59431,-0.1383933923947111,-0.2545582222441422,0.0013906578754259,3.382355,91.10423,0.1738239,0.02174871,0.7135446,-0.02000671,12.2999997250736,12
3.520929,0.4833334,-36.59241,-0.1706834968835719,-0.0515741839263457,0.0012103767644049,6.763273,91.11972,0.3488142,0.04346952,0.7126101,-0.0399875,12.3199997246265,12
3.579969,0.6833334,-36.59052,-0.2006018371369959,0.1681364179341398,0.0015261779761104,10.14317,91.14581,0.52619,0.06514606,0.7110543,-0.05992796,12.3399997241795,12
3.817051,0.2833334,-36.58633,-0.0244494552554073,-0.2880113691052094,0.0032267304756317,3.329277,89.39714,0.0743653,0.02110503,0.7030666,-0.01997153,12.3599997237325,12
3.875117,0.4833335,-36.58442,-0.054214061823778,-0.0348477463556705,0.0015770720636822,6.657171,89.40366,0.1492912,0.04218404,0.7021765,-0.03991742,12.3799997232854,12
3.933167,0.6833335,-36.5825,-0.0867639017888466,0.235042666703604,-0.0005275753104783,9.984098,89.41467,0.2251866,0.06322123,0.7006943,-0.05982411,12.3999997228384,12
3.991201,0.8833336,-36.5806,-0.1086657690670049,0.4693890989775333,-0.0030048158437594,13.31005,89.43031,0.3026299,0.08419911,0.698622,-0.07967467,12.4199997223914,12
4.287372,0.2833333,-36.57579,0.1485775938804465,-0.2378312216325756,-0.0037040737763689,3.274746,87.25001,359.9337,0.02028456,0.6896657,-0.02013268,12.4399997219443,12
4.344492,0.4833331,-36.57421,0.1257899394862782,-0.0223023891997462,-0.0087556909399495,6.548537,87.24429,359.8669,0.04054646,0.6888207,-0.04024331,12.4599997214973,12
4.401597,0.6833332,-36.57263,0.090514118272404,0.2099531566180038,-0.0140714747280554,9.820963,87.23463,359.7992,0.06076605,0.6874141,-0.06031363,12.4799997210503,12
4.458687,0.8833331,-36.57105,0.0559230804058286,0.4066645374838479,-0.019525043673795,13.09246,87.22091,359.73,0.08093023,0.6854472,-0.08032936,12.4999997206032,12
4.666083,0.2833333,-36.56736,0.1861769148858796,-0.3381904733448734,-0.0200168310999444,3.218628,84.41528,359.8184,0.01973825,0.6715865,-0.02004064,12.5199997201562,12
4.722275,0.4833333,-36.56504,0.1498925422107762,-0.160296330085248,-0.0224961973020683,6.436283,84.39991,359.6358,0.03945554,0.6707895,-0.04005907,12.5399997197092,12
4.778451,0.6833332,-36.56273,0.1159443013759258,0.0343241674606525,-0.0249876031532778,9.652915,84.37404,359.451,0.05913567,0.6694625,-0.06004002,12.5599997192621,12
5.008041,0.2833332,-36.55881,0.2632468389366211,-0.4469130409786058,-0.0210130902712109,3.37261,84.15586,359.7986,0.02066494,0.6698879,-0.02102403,12.5799997188151,12
5.066971,0.4833333,-36.55631,0.2190086185395614,-0.2188391955913913,-0.0199363780188619,6.74421,84.13799,359.5959,0.04130599,0.6690148,-0.04202375,12.5999997183681,12
5.125886,0.6833333,-36.55382,0.1750286242195837,0.0259612041911649,-0.0187649689617543,10.1148,84.10786,359.3905,0.06190552,0.6675608,-0.0629812,12.619999717921,12
5.376629,0.2833332,-36.5504,0.14478549039125,0.2352175196055769,-0.0171530237483352,3.537668,85.93505,359.831,0.02158197,0.6812916,-0.02211708,12.639999717474,12
5.438442,0.4833331,-36.54898,0.1494255667410371,0.2231953056692042,-0.0177959166093302,7.074409,85.9193,359.6607,0.04313729,0.6803156,-0.04420806,12.6599997170269,12
5.500229,0.683333,-36.54755,0.1409361123235406,0.2566485789378746,-0.017926113826121,10.61129,85.89263,359.4873,0.06465025,0.6786899,-0.0662607,12.6799997165799,12
5.561998,0.8833331,-36.54613,0.13322497503838,0.2822610501672937,-0.0173016114852799,14.14704,85.85458,359.3098,0.08609524,0.6764169,-0.08824367,12.6999997161329,12
5.873069,0.2833333,-36.54228,0.3261422072432722,-0.3935969514077982,-0.0170547028524978,3.57512,87.9539,359.9333,0.02204395,0.694044,-0.02207831,12.7199997156858,12
5.935457,0.4833333,-36.54122,0.2270030918002277,-0.1467058922845815,-0.0211818195917246,7.149499,87.94761,359.866,0.04406068,0.6930305,-0.04413186,12.7399997152388,12
5.997826,0.6833333,-36.54016,0.1149956537015732,0.1169117868335128,-0.0253840926635291,10.72283,87.93699,359.7976,0.06602833,0.6913431,-0.06613585,12.7599997147918,12
6.060178,0.8833332,-36.5391,0.0039156475336028,0.3449853260895666,-0.0294876789456139,14.29516,87.92183,359.7277,0.08792596,0.688984,-0.08806932,12.7799997143447,12
6.279526,0.2833334,-36.53556,0.0337297673759788,-0.3685072893891439,-0.0369715839734752,3.571211,89.09554,0.06622948,0.02261166,0.7011501,-0.02144691,12.7999997138977,12
6.341813,0.4833333,-36.53342,-0.1134105076019817,-0.1592507810964206,-0.0458706443233793,7.141403,89.10182,0.133459,0.04519799,0.7001287,-0.04286382,12.8199997134507,12
6.404081,0.6833334,-36.53127,-0.2543252578272401,0.0667321706909735,-0.0541568063934292,10.71056,89.11242,0.2017295,0.06773396,0.6984281,-0.06423296,12.8399997130036,12
6.644632,0.2833332,-36.52835,-0.2466836699875063,-0.3831429345035054,-0.0644819553209501,3.595703,89.99388,0.0941255,0.02276593,0.7067025,-0.0216025,12.8599997125566,12
6.707377,0.4833333,-36.52671,-0.4353045639184323,-0.1237066581351883,-0.0746765237142597,7.190317,90.00281,0.1889926,0.04550277,0.7056584,-0.04317711,12.8799997121096,12
6.770103,0.6833334,-36.52506,-0.6153708830441005,0.1524559267826716,-0.0823579504214819,10.78416,90.01783,0.2851166,0.06818859,0.7039199,-0.06470612,12.8999997116625,12
6.83281,0.8833334,-36.52341,-0.7730978879244752,0.3930745005982671,-0.0875643145345677,14.37694,90.03929,0.3835396,0.09080087,0.7014894,-0.08616536,12.9199997112155,12
7.134496,0.2833333,-36.51984,-0.7266388384121143,-0.3078738442549225,-0.0428191682902721,3.636837,90.26237,0.1099971,0.02306648,0.7083452,-0.0218124,12.9399997107685,12
7.197971,0.4833332,-36.51821,-0.9379652906186032,-0.0860725241622951,0.0015335742581115,7.272617,90.2729,0.2208216,0.0461029,0.7072743,-0.04359677,12.9599997103214,12
7.261428,0.6833332,-36.51658,-1.1382977513242525,0.1524554876229733,0.0484055567231322,10.90732,90.29072,0.3334897,0.06908661,0.7054914,-0.06533054,12.9799997098744,12
7.324864,0.8833331,-36.51495,-1.3139489761103036,0.3554392193740201,0.0972749186913759,14.54136,90.31614,0.448847,0.09199639,0.7029987,-0.08699536,12.9999997094274,12
7.52976,0.2833333,-36.50868,-1.3757689554809218,-0.3831432226884445,0.2262557911565821,3.589857,91.72441,0.1823368,0.02295377,0.7172793,-0.02137141,13.0199997089803,12
7.592457,0.4833332,-36.50739,-1.5778030794353324,-0.1989767591218833,0.3524589719934567,7.178624,91.74166,0.3660561,0.0458782,0.716221,-0.04271556,13.0399997085333,12
7.655137,0.6833332,-36.5061,-1.745014997293966,0.0019160631739459,0.4762587095953137,10.76626,91.77077,0.5526398,0.06875075,0.7144591,-0.06401145,13.0599997080863,12
7.872996,0.2833334,-36.49899,-1.772414751970917,-0.4730486965470746,0.7105508880051374,3.527691,93.09502,0.2581707,0.02280377,0.7255514,-0.02079581,13.0799997076392,12
7.934691,0.4833334,-36.49782,-1.953305516114076,-0.2387022784733113,0.9335214405222558,7.054268,93.11901,0.5182329,0.04557908,0.7245148,-0.0415657,13.0999997071922,12
7.996369,0.6833333,-36.49664,-2.0931638019538514,0.0123705917197614,1.1452775653234395,10.57968,93.1595,0.7822121,0.06830438,0.7227889,-0.06229,13.1199997067451,12
8.058033,0.8833332,-36.49547,-2.179572790222654,0.2278994753777251,1.3445374231126124,14.10347,93.21723,1.052216,0.0909557,0.7203764,-0.08294698,13.1399997062981,12
8.337605,0.2833333,-36.49345,-2.324828913281504,0.2221497146025883,1.718784823088562,3.460312,93.53679,0.3002841,0.02258852,0.7282021,-0.02020371,13.1599997058511,12
8.398182,0.4833333,-36.49194,-2.440039830159183,0.2618754593271851,2.067764162284327,6.919056,93.56417,0.6028103,0.04514775,0.7271991,-0.04037929,13.179999705404,12
8.458742,0.6833332,-36.49043,-2.5130150155889943,0.293760446965201,2.390234520529262,10.37663,93.61034,0.9097193,0.06765919,0.7255293,-0.06051213,13.199999704957,12
8.693518,0.2833332,-36.49023,-2.4470071706513448,-0.3758246864205266,2.885668453173537,3.406371,92.84924,0.2337434,0.02196457,0.7241048,-0.02012704,13.21999970451,12
8.753075,0.483333,-36.48911,-2.630171659959437,-0.1226609259381007,3.3345434429369902,6.811283,92.87019,0.4688792,0.04389952,0.7231409,-0.04022896,13.2399997040629,12
8.812614,0.683333,-36.48799,-2.785368442881662,0.1472293954734872,3.7391245206512735,10.21508,92.90549,0.7072766,0.0657889,0.7215362,-0.06028951,13.2599997036159,12
8.872138,0.8833328,-36.48687,-2.9008907589198696,0.3815760525978776,4.098916466457162,13.61775,92.95581,0.9508046,0.08761408,0.7192926,-0.08029085,13.2799997031689,12
9.049875,0.2833333,-36.48919,-2.9123150537467204,-0.3256441930040004,4.579941483140175,3.354166,91.63138,0.1424163,0.02128862,0.7167684,-0.02012116,13.2999997027218,12
9.10844,0.4833333,-36.48838,-3.0611827003699865,-0.1101156488432287,4.997696811686588,6.706925,91.64395,0.2856554,0.04254958,0.7158461,-0.04021735,13.3199997022748,12
9.166988,0.6833332,-36.48756,-3.1683547445142217,0.1221393772310647,5.353904557484498,10.05869,91.66513,0.4308074,0.06376784,0.7143103,-0.06027359,13.3399997018278,12
9.345921,0.2833333,-36.48941,-3.2224082137975145,0.3188502443645672,5.649027532654323,3.30325,87.18413,359.9676,0.02067993,0.6892387,-0.02007849,13.3599997013807,12
9.403505,0.4833334,-36.48713,-3.3375549502860373,0.2942832786523033,6.102327877465648,6.605504,87.18131,359.9349,0.04133659,0.6883798,-0.04013409,13.3799997009337,12
9.461077,0.6833333,-36.48486,-3.4163790416062287,0.3151916701656571,6.475058194556134,9.906476,87.17667,359.9026,0.06195505,0.6869502,-0.06014432,13.3999997004867,12
9.518631,0.8833333,-36.48258,-3.44795313423314,0.3282597566455323,6.76895127864028,13.20649,87.17005,359.8695,0.08251596,0.6849512,-0.08009905,13.4199997000396,12
9.733646,0.2833333,-36.4358,-3.340362038869067,-0.360143610710125,7.170027624998845,3.233266,77.09173,359.7401,0.02065218,0.6229413,-0.01935274,13.4399996995926,12
9.789632,0.4833333,-36.42755,-3.463443188019605,-0.1257975127063351,7.473815802098407,6.465518,77.06963,359.4788,0.04128233,0.6221929,-0.0386836,13.4599996991456,12
9.845601,0.6833332,-36.4193,-3.553091049196029,0.125275276990097,7.685607679952639,9.696699,77.03244,359.2143,0.06187383,0.6209468,-0.05797746,13.4799996986985,12
9.901559,0.883333,-36.41107,-3.5995336151919872,0.3408039995676665,7.808904801413746,12.92673,76.98002,358.9471,0.08242294,0.6192058,-0.07720283,13.4999996982515,12
10.02822,0.2833334,-36.32921,-3.5358353347187297,-0.3852337851543596,7.992731946204778,3.166838,66.81255,359.6236,0.02125908,0.5504348,-0.01795476,13.5199996978045,12
10.08158,0.4833332,-36.31341,-3.5889798680037828,-0.1885222117586711,8.073350637803387,6.332648,66.7812,359.245,0.04249585,0.5497956,-0.03589037,13.5399996973574,12
10.13491,0.683333,-36.29761,-3.5979886459707497,0.0249160271943856,8.061066327852899,9.497264,66.72843,358.8619,0.0636944,0.5487311,-0.05379181,13.5599996969104,12
10.27377,0.2833334,-36.17508,-3.483114655445672,-0.4375042203240753,8.124463320902635,3.478226,59.11219,359.5047,0.02426806,0.4931577,-0.01872821,13.5799996964633,12
10.33031,0.4833333,-36.15119,-3.5033584783740164,-0.1906133823923818,8.0794108935456,6.955331,59.06683,359.006,0.04850818,0.4924626,-0.03743268,13.5999996960163,12
10.38682,0.6833333,-36.12732,-3.4833323640096,0.0730039199421968,7.938785694264144,10.43233,58.99053,358.5015,0.07271234,0.4913055,-0.05609249,13.6199996955693,12
10.44331,0.8833333,-36.10347,-3.414461150792816,0.3010774860304635,7.709398975861276,13.90981,58.88227,357.9883,0.09686944,0.4896884,-0.07468456,13.6399996951222,12
10.59873,0.2833332,-35.90181,-3.188115421209302,-0.412415471646084,7.619448092750275,3.510756,49.79329,359.5908,0.02628287,0.4208817,-0.01613314,13.6599996946752,12
10.65007,0.4833332,-35.86761,-3.1724131254869548,-0.203159288301916,7.427790585044818,7.021483,49.75565,359.1809,0.05255052,0.4202816,-0.03223294,13.6799996942282,12
10.70141,0.6833329,-35.83345,-3.1257811083840856,0.0228234753115145,7.143621843527846,10.53098,49.69256,358.7675,0.07877155,0.4192835,-0.04827669,13.6999996937811,12
10.83204,0.2833335,-35.61144,-2.951320988196718,-0.4270513611252428,6.966883020277109,3.560403,44.08313,359.8089,0.02816943,0.3751454,-0.01320284,13.7199996933341,12
10.87761,0.4833333,-35.56907,-2.9518619953107645,-0.1676148238397872,6.693937113322185,7.120659,44.06563,359.621,0.0563257,0.3746018,-0.02635556,13.7399996928871,12
10.92316,0.6833333,-35.52671,-2.933229467698851,0.1085483763895091,6.334335467148346,10.67981,44.03609,359.4302,0.08441939,0.373696,-0.03947884,13.75999969244,12
10.96871,0.8833336,-35.48436,-2.888403346539251,0.3491676034126872,5.898883022019341,14.23779,43.99395,359.2349,0.1124231,0.3724291,-0.05256017,13.779999691993,12
11.06374,0.2833334,-35.28619,-2.739760862259665,-0.3517801134098995,5.552107740063295,3.54541,39.73212,359.9287,0.02888224,0.339678,-0.01109742,13.799999691546,12
11.10419,0.4833331,-35.23937,-2.7028921789373044,-0.1299789876765854,5.1370352146815925,7.08999,39.72568,359.859,0.05773666,0.3391908,-0.0221635,13.8199996910989,12
11.14464,0.6833329,-35.19257,-2.6441363764712094,0.1085486199702495,4.662815770735584,10.63351,39.71493,359.7893,0.08653002,0.3383797,-0.03319753,13.8399996906519,12
11.18508,0.8833328,-35.14578,-2.557175722253076,0.31153250940411,4.142199631681983,14.17598,39.69958,359.7179,0.1152322,0.3372452,-0.04419688,13.8599996902049,12
11.30846,0.2833333,-34.89334,-2.48117543128042,0.2932379822173296,3.802578688965127,3.626581,35.87696,359.9851,0.03006427,0.3078454,-0.009869725,13.8799996897578,12
11.34572,0.4833334,-34.84217,-2.392921895613622,0.3204183618582994,3.415439325237088,7.252117,35.87554,359.9701,0.06008992,0.307383,-0.01972629,13.8999996893108,12
11.38297,0.6833338,-34.79102,-2.286555052214436,0.3397581706700689,2.9953241035315585,10.87703,35.87323,359.9554,0.0900517,0.3066135,-0.02955689,13.9199996888638,12
11.49622,0.2833332,-34.56746,-2.071684199664455,-0.3423723965350504,2.7389769086303133,3.613167,34.16762,0.04960712,0.03026167,0.2936112,-0.008847686,13.9399996884167,12
11.53088,0.4833332,-34.51479,-2.0281252201946103,-0.1017536199968561,2.4038561810939605,7.225279,34.17236,0.09965322,0.06048461,0.2931734,-0.01768354,13.9599996879697,12
11.56553,0.6833332,-34.46214,-1.9808517337318232,0.1555917138115627,2.0462684754745943,10.83633,34.18035,0.1505493,0.09063876,0.2924446,-0.02649877,13.9799996875226,12
11.60018,0.8833331,-34.4095,-1.9246791241945955,0.3773931795647732,1.68162841045001,14.44631,34.19201,0.2037581,0.1206968,0.2914265,-0.03527642,13.9999996870756,12
11.68853,0.2833332,-34.22076,-1.783844829664039,-0.3423716618725343,1.4746131979789183,3.559437,34.125,0.1692481,0.03012311,0.293229,-0.007701276,14.0199996866286,12
11.7209,0.4833334,-34.16769,-1.7167828786136567,-0.1393875165743572,1.1886905880061178,7.117759,34.14088,0.3397853,0.060208,0.2928038,-0.01539255,14.0399996861815,12
11.75326,0.6833334,-34.11462,-1.6404055758783862,0.0803233769557727,0.9094469689327482,10.67499,34.16768,0.5130008,0.09022623,0.292096,-0.02306625,14.0599996857345,12
11.85182,0.2833331,-33.90851,-1.5499785255226808,0.2644907155312627,0.6521606030076086,3.498629,33.20432,0.2322622,0.02983275,0.2855315,-0.0067807,14.0799996852875,12
11.88183,0.4833331,-33.85521,-1.444997778506952,0.2273781513473892,0.5079648027716175,6.996122,33.22574,0.4662364,0.0596285,0.2851307,-0.01355262,14.0999996848404,12
11.91184,0.683333,-33.80193,-1.342140452702882,0.2357410866521341,0.3702026093601311,10.49204,33.262,0.7046489,0.08935856,0.2844639,-0.02030083,14.1199996843934,12
11.94184,0.8833331,-33.74866,-1.237819621322501,0.2362635641191724,0.2538308908613125,13.98678,33.31372,0.9484556,0.1189966,0.2835315,-0.02702806,14.1399996839464,12
12.06574,0.2833332,-33.48823,-1.0472178131101018,-0.4646843537707766,0.3464272036970257,3.436169,31.39713,0.2409299,0.02943194,0.2703934,-0.006089159,14.1599996834993,12
12.09337,0.4833331,-33.43486,-0.9767695147777448,-0.2428828261640865,0.2574945682334402,6.870784,31.41902,0.4844911,0.05882686,0.2700274,-0.01216189,14.1799996830523,12
12.12099,0.6833331,-33.38151,-0.9117735483215216,-0.0043547446847541,0.1796425566015713,10.30428,31.45593,0.7315587,0.08816022,0.2694178,-0.01822163,14.1999996826053,12
12.23217,0.2833335,-33.14919,-0.7593633708978569,-0.4416846872568555,0.3187208613631114,3.3832,29.08226,0.1519365,0.02890684,0.2509274,-0.006128783,14.2199996821582,12
12.25853,0.4833336,-33.09632,-0.712553442282001,-0.1697041064614,0.2490312612850438,6.76494,29.09583,0.3053125,0.05777715,0.2505989,-0.01224594,14.2399996817112,12
12.28489,0.6833335,-33.04346,-0.6763884537902651,0.1190030569554952,0.1753616686293462,10.14572,29.11871,0.4608558,0.08658937,0.250052,-0.01835039,14.2599996812642,12
12.31124,0.8833335,-32.99061,-0.6467796639753693,0.3721662827102397,0.1108789553698699,13.52544,29.1513,0.6196464,0.1153176,0.2492872,-0.0244373,14.2799996808171,12
12.4039,0.2833331,-32.79398,-0.6197629879291089,0.4236852647587943,0.0688070032217531,3.329241,26.89167,0.05992549,0.02837433,0.2324131,-0.006246252,14.2999996803701,12
12.42923,0.4833331,-32.7417,-0.559440600628772,0.3558027265185332,0.0649981531214258,6.657058,26.89695,0.1205469,0.05671326,0.232119,-0.01248192,14.3199996799231,12
12.45456,0.683333,-32.68944,-0.5050170489148851,0.3338838578099452,0.0611159500224971,9.98393,26.90585,0.1819578,0.08499635,0.2316293,-0.01870549,14.339999679476,12
12.47988,0.8833331,-32.6372,-0.452036329776778,0.3046126115756028,0.0700750605171087,13.30983,26.91851,0.2446427,0.1131997,0.2309445,-0.02491131,14.359999679029,12
12.59817,0.2833334,-32.38712,-0.3189136089903481,-0.4256417854226826,0.2661439147641289,3.274383,24.2685,359.9215,0.02778831,0.2101363,-0.006674642,14.379999678582,12
12.6229,0.4833331,-32.33561,-0.2867818506266548,-0.2326593707151443,0.2351212589673856,6.547828,24.26174,359.8426,0.05554603,0.2098789,-0.01334191,14.3999996781349,12
12.64762,0.683333,-32.2841,-0.2591972376813665,-0.0224626367530522,0.2039584135679319,9.819922,24.25037,359.7627,0.08324722,0.2094504,-0.01999496,14.4199996776879,12
12.75169,0.2833333,-32.06208,-0.1458086253423918,-0.4876366832076322,0.3649400892570718,3.21834,21.18151,359.8109,0.0273001,0.1837655,-0.006782293,14.4399996772408,12
12.77504,0.4833333,-32.01091,-0.129408567496295,-0.2430110193281446,0.3207841104649134,6.435696,21.1655,359.6208,0.05457059,0.1835474,-0.01355707,14.4599996767938,12
12.79838,0.6833333,-31.95976,-0.1214010422801585,0.0188291089437769,0.2660122713954145,9.652024,21.13855,359.4282,0.08178988,0.1831843,-0.02031884,14.4799996763468,12
12.82173,0.8833333,-31.90863,-0.1170772750374329,0.2456131567573897,0.2128215901881738,12.86701,21.10034,359.2326,0.1089349,0.182677,-0.02705779,14.4999996758997,12
12.91139,0.2833335,-31.71789,0.0008833983465255,-0.4686814350706416,0.4121108937179301,3.371537,20.70134,359.7929,0.02861465,0.1796465,-0.007062494,14.5199996754527,12
12.93557,0.4833336,-31.6641,0.0457659812781123,-0.259738893467641,0.4444810841743987,6.742098,20.68297,359.5845,0.05719659,0.1794125,-0.01411656,14.5399996750057,12
12.95975,0.6833336,-31.61033,0.0825447218018737,-0.0335821372382957,0.467495326155575,10.11165,20.652,359.3732,0.08572112,0.1790228,-0.02115641,14.5599996745586,12
12.98392,0.8833338,-31.55659,0.1164217414050483,0.157518715120064,0.4939129120578727,13.48139,20.6079,359.1576,0.1141741,0.1784778,-0.02817739,14.5799996741116,12
13.1005,0.2833331,-31.31193,0.1439046358690578,0.1278286865977718,0.5039248297421821,3.532858,22.78288,359.8436,0.02994846,0.1974581,-0.007425353,14.5999996736646,12
13.12691,0.4833331,-31.25613,0.1628407386119938,0.1441020610273682,0.5026389394788922,7.065192,22.76828,359.6856,0.05986331,0.1971759,-0.01484701,14.6199996732175,12
13.15331,0.6833332,-31.20036,0.1787965490929561,0.153023096611414,0.5028896725732395,10.5972,22.74363,359.5251,0.08971883,0.1967061,-0.02225401,14.6399996727705,12
13.25597,0.2833335,-30.98303,0.197314600725754,0.1012752661003989,0.517513725387424,3.576881,24.1901,359.9352,0.03039793,0.2094492,-0.007091728,14.6599996723235,12
13.28258,0.4833335,-30.92655,0.2105864755134145,0.0421744206243257,0.5202427008672714,7.153114,24.18401,359.87,0.06076082,0.2091432,-0.0141751,14.6799996718764,12
13.30918,0.6833335,-30.87009,0.2147240812087627,0.0290367698891401,0.508233708591046,10.72829,24.17371,359.8037,0.09105568,0.2086335,-0.02124261,14.6999996714294,12
13.41951,0.2833333,-30.63394,0.215595309235546,0.0085463837491962,0.4944115382133773,3.572191,25.24423,0.06520201,0.03053921,0.2183964,-0.006255896,14.7199996709824,12
13.44505,0.4833332,-30.57708,0.2042766192050784,0.0073614127506396,0.4576705544468069,7.143333,25.25042,0.131459,0.06104089,0.2180782,-0.01249912,14.7399996705353,12
13.47059,0.683333,-30.52023,0.1803730635883127,0.0521396478182501,0.3980860965706938,10.71347,25.26087,0.1986982,0.09147467,0.2175483,-0.01872882,14.7599996700883,12
13.49612,0.883333,-30.46339,0.149934034565959,0.0895650254293835,0.3287085952073099,14.28255,25.27578,0.2675541,0.1218109,0.2168075,-0.0249383,14.7799996696413,12
13.52164,0.9766703,-30.40658,0.1190201799093895,0.0663218283537445,0.2626050333180281,17.8506,25.29546,0.3386036,0.1520204,0.2158566,-0.03112189,14.7999996691942,12
13.63283,0.2833335,-30.17212,0.0834109579912922,0.0357264792126378,0.1831373478403826,3.607918,26.3006,0.1065981,0.03086583,0.2273649,-0.006256453,14.8199996687472,12
13.65906,0.4833336,-30.11485,0.0431706964294438,0.0510940692965672,0.0956073663266323,7.214786,26.31074,0.2140084,0.06169217,0.2270267,-0.01250497,14.8399996683002,12
13.68528,0.6833337,-30.0576,0.0044272454931615,0.0591091230393991,0.0132616036382771,10.82096,26.32782,0.3229131,0.09245123,0.2264633,-0.01874171,14.8599996678531,12
13.78382,0.2833333,-29.84922,-0.0266746437386018,0.0064555651576104,-0.0506605690042931,3.633204,26.67697,0.1110158,0.0310686,0.2305574,-0.006371192,14.8799996674061,12
13.81056,0.4833334,-29.7917,-0.0601884353219794,-0.0535508070574602,-0.1184228059746388,7.265329,26.68761,0.2229135,0.0620969,0.2302096,-0.01273398,14.899999666959,12
13.83729,0.6833334,-29.7342,-0.0984058354896255,-0.0675935965970802,-0.1926546641751692,10.89639,26.70556,0.3365761,0.09305388,0.2296305,-0.01908238,14.919999666512,12
13.94446,0.2833334,-29.50799,-0.1350328956025066,-0.0889889577604121,-0.2600074920988113,3.588766,28.34779,0.1863246,0.03075743,0.2446959,-0.006091698,14.939999666065,12
13.97133,0.4833333,-29.45134,-0.1767181066971535,-0.0910793766565633,-0.3375514124246095,7.176451,28.36541,0.374065,0.06147569,0.2443351,-0.01217565,14.9599996656179,12
13.99819,0.6833333,-29.39471,-0.2235807501580282,-0.0472067673806316,-0.4244380916246939,10.763,28.39516,0.5647072,0.09212443,0.2437343,-0.01824608,14.9799996651709,12
14.02505,0.8833333,-29.3381,-0.2691593763835751,-0.010686952836526,-0.5074204224379564,14.34816,28.43756,0.7596572,0.1226714,0.2428943,-0.02429825,14.9999996647239,12
14.15748,0.2833334,-29.05785,-0.2133806933574149,-0.6751496304474903,-0.3778357380563442,3.520308,29.54832,0.2673928,0.03029484,0.2548194,-0.00557754,15.0199996642768,12
14.1837,0.4833334,-29.00213,-0.2313374551622882,-0.4163755329420118,-0.4049895545901307,7.039513,29.57312,0.5366848,0.06055198,0.2544567,-0.01114861,15.0399996638298,12
14.20992,0.6833334,-28.94641,-0.2470539188160092,-0.140386900914452,-0.4300654427103154,10.55743,29.61497,0.810158,0.09074232,0.253853,-0.01670609,15.0599996633828,12
14.23613,0.8833336,-28.89072,-0.2544248933306257,0.100545479643,-0.4403593599870135,14.07373,29.67466,1.089823,0.1208348,0.253009,-0.02224586,15.0799996629357,12
14.32869,0.2833332,-28.69344,-0.2473134943443788,0.1403213298669785,-0.4231266062179877,3.455221,29.41103,0.2909528,0.02980453,0.2536608,-0.005198305,15.0999996624887,12
14.35386,0.4833333,-28.63843,-0.238946548146453,0.0611836799158491,-0.4051750279089035,6.908845,29.43753,0.5841962,0.05956943,0.2533127,-0.01038716,15.1199996620417,12
14.37903,0.6833335,-28.58344,-0.2292969350356664,0.0284974133047051,-0.3857684379870605,10.3613,29.48222,0.8816385,0.08927129,0.2527331,-0.01556533,15.1399996615946,12
14.40419,0.8833334,-28.52847,-0.2126897290182601,-0.0110536775815771,-0.3524763519218759,13.81252,29.54591,1.18565,0.1188833,0.2519227,-0.02072767,15.1599996611476,12
14.52249,0.2833332,-28.27713,-0.1997154652924635,-0.0308121994228248,-0.3245808773314778,3.402873,27.7505,0.1982769,0.02923963,0.2396528,-0.005441161,15.1799996607006,12
14.54707,0.483333,-28.22298,-0.1893726402088908,-0.0041197210671861,-0.2997054206177445,6.804307,27.76828,0.3979429,0.05844152,0.2393349,-0.01087474,15.1999996602535,12
14.57164,0.6833329,-28.16884,-0.1758828930764053,0.0157081336450906,-0.2657078477133687,10.20466,27.79824,0.6004096,0.08758324,0.2388057,-0.01629704,15.2199996598065,12
14.67636,0.2833334,-27.94526,-0.2540217306143386,0.6956433102411368,-0.4261644483507432,3.343939,26.06167,0.1082779,0.02863883,0.2253525,-0.005658566,15.2399996593595,12
14.70029,0.4833335,-27.89202,-0.2230734296684478,0.4914400233821244,-0.3596219881156592,6.68643,26.07122,0.2173502,0.05724116,0.2250645,-0.01130904,15.2599996589124,12
14.72421,0.6833333,-27.8388,-0.1945080819037965,0.3091209543902286,-0.3003276666135193,10.02797,26.08729,0.3278733,0.0857868,0.224585,-0.01694852,15.2799996584654,12
14.74813,0.8833334,-27.78559,-0.1623977109049104,0.0943246319715636,-0.2360292505852363,13.36849,26.11017,0.4406554,0.114251,0.2239146,-0.02257202,15.2999996580184,12
14.83703,0.2833335,-27.59848,-0.0294477355591791,-0.7195783636534007,0.0375738365130402,3.291613,24.31616,359.9794,0.02803874,0.2105278,-0.006224545,15.3199996575713,12
14.86101,0.4833332,-27.5463,0.0058963353056835,-0.5106360089176003,0.1052286400890984,6.582307,24.31438,359.9586,0.05604652,0.2102674,-0.01244231,15.3399996571243,12
14.88498,0.6833332,-27.49413,0.0400399085550198,-0.2844792318671542,0.1681278433116837,9.871643,24.31135,359.9374,0.08399616,0.2098336,-0.01864912,15.3599996566772,12
14.90895,0.8833333,-27.44198,0.0787457943926117,-0.093378818494256,0.2384202273188727,13.16002,24.30702,359.9158,0.1118685,0.2092272,-0.02483876,15.3799996562302,12
15.02234,0.2833335,-27.20055,0.0409279938326321,0.6168536806302192,0.1468082385466012,3.234941,21.35611,359.8452,0.02748745,0.1852537,-0.006556924,15.3999996557832,12
15.0454,0.4833335,-27.14897,0.0985715243943001,0.330898048304716,0.2529420563697258,6.468921,21.34294,359.6895,0.05494501,0.1850319,-0.01310663,15.4199996553361,12
15.06845,0.6833335,-27.09741,0.1563887325547543,0.0668263968865264,0.3574652357429961,9.701913,21.32076,359.5318,0.08235078,0.1846625,-0.01964384,15.4399996548891,12
15.16864,0.2833335,-26.88257,0.1235354402944253,0.4905654739106654,0.2701815443274107,3.283926,19.93721,359.7921,0.02790719,0.1730884,-0.006746196,15.4599996544421,12
15.19159,0.4833333,-26.82993,0.1667505579815511,0.2702621162250637,0.3434002251232932,6.566912,19.91924,359.5829,0.05578375,0.1728744,-0.01348506,15.479999653995,12
15.21453,0.6833332,-26.77731,0.2060088302309068,0.0718427261177837,0.4087131340313732,9.848867,19.88898,359.371,0.08360638,0.1725181,-0.02021068,15.499999653548,12
15.3252,0.2833335,-26.54161,0.2470006725411391,-0.1590540625541472,0.4786136893187382,3.535058,21.50502,359.8134,0.02999897,0.1865274,-0.007353955,15.519999653101,12
15.35087,0.4833333,-26.48538,0.2535553989309704,-0.1567200833020673,0.4778364611561372,7.069171,21.48763,359.6253,0.05996156,0.1862605,-0.01469941,15.5399996526539,12
15.37653,0.6833335,-26.42917,0.2481386545844,-0.1079348457237266,0.4543479946519042,10.60416,21.45821,359.4338,0.08987425,0.1858155,-0.02203663,15.5599996522069,12
15.40218,0.8833334,-26.37298,0.2365290963924309,-0.0660143199517342,0.420542725083866,14.13806,21.41622,359.2379,0.1196931,0.1851934,-0.02935073,15.5799996517599,12
15.42783,0.9766705,-26.3168,0.2245246342302191,-0.0842748224110619,0.3888388882516516,17.67079,21.36084,359.0359,0.1493893,0.184395,-0.03663482,15.5999996513128,12
15.53929,0.2833333,-26.08291,0.2509832525106024,-0.1093999176741337,0.4403023241339276,3.566395,23.5857,359.8952,0.03027403,0.2043027,-0.007254326,15.6199996508658,12
15.56588,0.4833335,-26.02662,0.2664015911087318,-0.0880739562881272,0.4703823416270083,7.131958,23.57582,359.7893,0.06051113,0.2040056,-0.01450299,15.6399996504188,12
15.59245,0.6833336,-25.97033,0.2769905146316311,-0.0736131351527056,0.4921206857309705,10.6965,23.55914,359.6817,0.09068115,0.203511,-0.02173553,15.6599996499717,12
15.68955,0.2833334,-25.76199,0.2889593457054182,-0.1193330658245398,0.5185489783832651,3.590106,24.91396,0.05423504,0.03068906,0.2155862,-0.006294968,15.6799996495247,12
15.71507,0.4833333,-25.70477,0.2691867051542331,-0.1719171138123861,0.4785861601645536,7.17939,24.91915,0.1094897,0.06134215,0.215269,-0.01257722,15.6999996490777,12
15.74059,0.6833335,-25.64757,0.2417058143944483,-0.1780498820430455,0.4240317142931999,10.76762,24.92792,0.1656247,0.09192613,0.2147407,-0.01884517,15.7199996486306,12
15.76609,0.8833333,-25.59038,0.2127402659108863,-0.1910472985713394,0.3678414617044012,14.35487,24.94042,0.2230448,0.1224117,0.214002,-0.02509341,15.7399996481836,12
15.88976,0.2833335,-25.32802,0.0922937273534998,0.4560620906996132,0.1195500900033756,3.586958,25.98697,0.0985568,0.03068893,0.2247038,-0.006199183,15.7599996477365,12
15.91564,0.4833335,-25.27101,0.0730636027927591,0.2190324465923312,0.083057609121262,7.172907,25.99627,0.1976592,0.06133885,0.2243734,-0.01239229,15.7799996472895,12
15.94151,0.6833336,-25.21402,0.0482089497559385,0.0038871275939023,0.0343711766381957,10.75782,26.01197,0.2983372,0.09192005,0.2238232,-0.01857127,15.7999996468425,12
16.05298,0.2833334,-24.97712,0.0241090398354799,-0.2437356870181581,-0.0131436028585127,3.63975,26.51232,0.1125795,0.03113643,0.229159,-0.006326363,15.8199996463954,12
16.07958,0.4833334,-24.9194,0.0147048020880973,-0.2581274054471832,-0.0256276559864048,7.278442,26.52312,0.2259997,0.06223242,0.2288119,-0.01264488,15.8399996459484,12
16.10617,0.6833335,-24.86171,-0.001333578430998,-0.226067644009952,-0.0500158640999011,10.91606,26.54136,0.3412528,0.0932567,0.2282342,-0.01894874,15.8599996455014,12
16.13276,0.8833334,-24.80403,-0.0174312163251322,-0.2008727853407952,-0.0725345987345456,14.55311,26.56737,0.4591731,0.1241822,0.2274263,-0.02523405,15.8799996450543,12
16.15933,0.9766703,-24.74636,-0.0270386993764155,-0.2358588924396565,-0.0794089507976423,18.18907,26.60174,0.5810487,0.1549738,0.2263894,-0.03149189,15.8999996446073,12
16.27028,0.2833333,-24.51315,-0.017727511911584,-0.277709596523905,-0.0437276826445405,3.596885,28.34921,0.1953211,0.03084523,0.2447049,-0.006033342,15.9199996441603,12
16.29708,0.4833333,-24.45631,-0.0140266440463392,-0.2731092080666354,-0.0184324498925647,7.192672,28.36773,0.3921243,0.06165092,0.2443423,-0.01205903,15.9399996437132,12
16.32388,0.6833333,-24.39948,-0.0091330058944087,-0.2753736833487651,0.0104303259869595,10.78732,28.39898,0.5920054,0.09238669,0.2437386,-0.01807113,15.9599996432662,12
16.42167,0.2833335,-24.19293,-0.0888482620985726,0.3824691365948932,-0.1392159592325264,3.530123,29.42451,0.2565216,0.03035957,0.253777,-0.005658268,15.9799996428192,12
16.44803,0.4833335,-24.13709,-0.0869375471594438,0.1561731329394389,-0.1231375307638877,7.059138,29.44837,0.5149475,0.06068132,0.2534139,-0.01130931,15.9999996423721,12
16.47437,0.6833335,-24.08127,-0.0807432610270701,-0.0482386544170165,-0.1014283623360867,10.58697,29.48862,0.7772579,0.09093629,0.2528095,-0.01694803,16.0199996419251,12
16.58022,0.2833332,-23.85611,-0.169151962678967,0.4351600434365875,-0.2806637052396432,3.467936,29.43304,0.2896838,0.02990799,0.2538457,-0.005242918,16.0399996414781,12
16.60554,0.4833333,-23.80093,-0.2558282790691066,0.9148304581336756,-0.4575005531864455,6.934423,29.45953,0.5816966,0.05977736,0.2534948,-0.01047637,16.059999641031,12
16.63085,0.6833334,-23.74576,-0.2342430789513301,0.4857944286565693,-0.4105674751656742,10.39959,29.5042,0.8779468,0.08958189,0.2529106,-0.01569844,16.079999640584,12
16.65616,0.8833334,-23.69061,-0.2106893526712987,0.0530297969112674,-0.3625161298090376,13.86352,29.56787,1.180762,0.1192956,0.2520937,-0.02090468,16.099999640137,12
16.7871,0.2833332,-23.41185,-0.1791718603333194,-0.3108235037123241,-0.3005180795003461,3.412045,28.20039,0.2278034,0.02935836,0.2434524,-0.005325613,16.1199996396899,12
16.81172,0.4833332,-23.35751,-0.1515515204702637,-0.3423247920941511,-0.2431017428641944,6.822589,28.22087,0.4572614,0.05867843,0.2431275,-0.01064316,16.1399996392429,12
16.83634,0.6833331,-23.30318,-0.1279176024618671,-0.3278630645874729,-0.1917837236391086,10.23207,28.25539,0.6899561,0.08793809,0.2425863,-0.0159497,16.1599996387959,12
16.86095,0.883333,-23.24887,-0.1023078055677828,-0.3207540778868415,-0.133897344123639,13.64039,28.30458,0.9276562,0.1171112,0.2418298,-0.02124039,16.1799996383488,12
16.95348,0.2833334,-23.05248,-0.1534429562899113,0.3459744464982453,-0.2393022491916419,3.356193,26.48876,0.1323061,0.0287696,0.2289736,-0.005585735,16.1999996379018,12
16.97753,0.4833333,-22.99904,-0.1298604637864393,0.1280764964619161,-0.2092697456242866,6.710976,26.50046,0.2655326,0.0575027,0.2286787,-0.01116383,16.2199996374547,12
17.00157,0.6833333,-22.94562,-0.1026894415313783,-0.06842571405945,-0.1735476019046586,10.06475,26.52017,0.4005642,0.08617812,0.2281877,-0.01673078,16.2399996370077,12
17.02561,0.8833333,-22.89222,-0.0659358431398935,-0.2978930859138541,-0.1196394464800327,13.41751,26.54823,0.5383571,0.1147714,0.2275011,-0.02228211,16.2599996365607,12
17.14391,0.2833332,-22.64212,-0.1315056530668172,0.3456968338857115,-0.281365524429404,3.300761,24.27132,359.9817,0.02812341,0.2101444,-0.006210744,16.2799996361136,12
17.16788,0.4833333,-22.58976,-0.0970058124920498,0.1046601586931361,-0.2666500417196538,6.600525,24.26974,359.9633,0.05621507,0.2098829,-0.01241414,16.2999996356666,12
17.19184,0.6833333,-22.53741,-0.0600412066206779,-0.1149804589182084,-0.2437022791603489,9.898936,24.26704,359.9445,0.08424831,0.2094476,-0.01860627,16.3199996352196,12
17.29597,0.2833333,-22.31523,-0.1175945966269047,0.352701955353748,-0.4164383808580041,3.243979,22.24017,359.8907,0.02758998,0.1928151,-0.00639452,16.3399996347725,12
17.31915,0.4833333,-22.26357,-0.0964908169437954,0.1758533723211134,-0.409650458141769,6.486994,22.23084,359.7808,0.05514972,0.1925831,-0.0127821,16.3599996343255,12
17.34233,0.6833332,-22.21192,-0.0566965276750934,0.0204007790922384,-0.3579636789308971,9.729042,22.21513,359.6694,0.08265728,0.1921969,-0.01915746,16.3799996338785,12
17.3655,0.8833331,-22.16029,0.004838971865734,-0.1680172864794201,-0.2552363325496856,12.96974,22.19283,359.5562,0.1100878,0.1916571,-0.02551316,16.3999996334314,12
17.49476,0.2833335,-21.88343,0.0913224970609682,-0.3157150019952361,-0.0951120506162652,3.268341,19.81519,359.785,0.0277697,0.1720421,-0.006754497,16.4199996329844,12
17.51762,0.4833335,-21.83105,0.076897534042402,-0.3716445768440437,-0.096734223433291,6.535706,19.79669,359.5686,0.0555088,0.1718313,-0.01350172,16.4399996325374,12
17.54047,0.6833335,-21.77868,0.0835094356970955,-0.3820987565710871,-0.0672290251275633,9.802032,19.76554,359.3494,0.08319461,0.1714804,-0.02023577,16.4599996320903,12
17.56332,0.8833335,-21.72632,0.1142864547775843,-0.4003933912609581,0.0017961292011783,13.06762,19.72128,359.1263,0.1108079,0.1709899,-0.02694961,16.4799996316433,12
17.65869,0.2833333,-21.52574,0.0872333113140513,0.240443211188446,-0.0608630651007437,3.530378,21.41239,359.8116,0.02996201,0.1857342,-0.007336896,16.4999996311963,12
17.68427,0.4833334,-21.46955,0.1258593538936345,-0.0038346560687647,-0.152815065058931,7.059756,21.39488,359.6219,0.05988736,0.1854692,-0.01466469,16.5199996307492,12
17.70984,0.6833335,-21.41339,0.2102961736142425,-0.2272041142148707,-0.1889330100599373,10.59005,21.36523,359.4287,0.08976341,0.1850273,-0.02198453,16.5399996303022,12
17.7354,0.8833336,-21.35724,0.2453280847822192,0.2362618115748987,-0.3648061895203547,14.11933,21.32293,359.2311,0.1195465,0.1844094,-0.02928149,16.5599996298552,12
17.85549,0.2833334,-21.10476,0.3170722831871835,0.6950231411284975,-0.4919640308862867,3.565413,23.55459,359.8958,0.03026861,0.204037,-0.007239605,16.5799996294081,12
17.88203,0.4833333,-21.04846,0.5056215838943814,0.2441026066447418,-0.4725906240489692,7.13006,23.54477,359.7904,0.0605008,0.2037404,-0.01447399,16.5999996289611,12
17.90856,0.6833333,-20.99218,0.7388613907024428,-0.2115223090690102,-0.3995759987504144,10.69366,23.52818,359.6833,0.0906658,0.2032467,-0.02169231,16.6199996285141,12
18.01487,0.2833334,-20.76539,0.8892938597712927,0.2331260101716091,-0.5334568515270242,3.589787,25.36173,0.06298369,0.03067827,0.2193959,-0.006339779,16.639999628067,12
18.0407,0.4833334,-20.70831,1.186855813435212,0.0327555826682407,-0.5422969594134059,7.178754,25.36773,0.1268944,0.0613203,0.219073,-0.01266815,16.65999962762,12
18.06652,0.6833335,-20.65125,1.5174983665377155,-0.1467065895736641,-0.5156824180962509,10.76667,25.37786,0.1917834,0.09189332,0.2185354,-0.01898244,16.6799996271729,12
18.09234,0.8833334,-20.59421,1.879457614678156,-0.3596217398427708,-0.4456509686515026,14.35358,25.39232,0.2582114,0.1223677,0.2177837,-0.02527644,16.6999996267259,12
18.18315,0.2833335,-20.41941,2.1898237175779443,0.3000319055921891,-0.4946499005901117,3.567297,26.92246,0.1015249,0.03047655,0.2326477,-0.006384408,16.7199996262789,12
18.20975,0.4833334,-20.36312,2.7146552670337023,0.0745719119866142,-0.3843096193397279,7.133451,26.93196,0.2033393,0.06091294,0.2323092,-0.01276456,16.7399996258318,12
18.23636,0.6833333,-20.30684,3.238325905100254,-0.1299800936342123,-0.2596616614628324,10.69859,26.948,0.3067164,0.09128182,0.2317458,-0.01913065,16.7599996253848,12
18.26295,0.8833333,-20.25057,3.761085458849141,-0.3679852383626426,-0.1096050524622391,14.26264,26.97088,0.412548,0.1215534,0.2309582,-0.02547615,16.7799996249378,12
18.37633,0.2833334,-20.04298,4.170451007681127,0.2665787440082502,-0.1591045707020839,3.638583,27.13976,0.1104854,0.03108714,0.2344831,-0.006512121,16.7999996244907,12
18.40358,0.4833335,-19.98559,4.588985716194426,0.0160287789423952,-0.2141173508505076,7.276123,27.15037,0.2218205,0.06213411,0.2341283,-0.01301597,16.8199996240437,12
18.43082,0.6833335,-19.92822,4.933270385069207,-0.2136129606562045,-0.2772264203128749,10.9126,27.16825,0.3349287,0.09310959,0.2335375,-0.01950499,16.8399996235967,12
18.53054,0.2833332,-19.7088,5.1159409830616696,0.2435802732701731,-0.5366676394711227,6.424142,22.76665,359.772,0.05453738,0.1971709,-0.01300685,16.8599996231496,12
18.57783,0.4833332,-19.60647,5.332314592011723,0.0557549846060855,-0.7760921320548348,12.84712,22.72745,359.5381,0.1088942,0.1962402,-0.02597043,16.8799996227026,12
18.6251,0.6833329,-19.50415,5.481347316857779,-0.1111618518236994,-1.009375471515506,19.26884,22.65927,359.2921,0.1629,0.1946926,-0.03885024,16.8999996222556,12
18.67237,0.8833329,-19.40186,5.572194639821859,-0.3115318156002135,-1.2211322061397087,25.68913,22.55733,359.0258,0.2163847,0.1925334,-0.05160562,16.9199996218085,12
18.69354,0.2833332,-19.31365,5.4867604893836734,0.3606673072129249,-1.6665675936474411,3.296632,19.06531,359.1595,0.02715249,0.1657448,-0.01199354,16.9399996213615,12
18.73895,0.4833332,-19.22843,5.562022800403792,0.1477520696520058,-2.094053807291189,8.726824,19.37859,358.3106,0.07251479,0.1689048,-0.02729374,16.9599996209145,12
18.78435,0.6833333,-19.14322,5.59423776476401,-0.0442549824286251,-2.4727701123909096,14.16037,19.61469,357.4758,0.1177044,0.1716711,-0.04252845,16.9799996204674,12
18.82974,0.8833332,-19.05802,5.590315801203492,-0.2697155368971495,-2.791143958300905,19.59609,19.77339,356.6405,0.162617,0.1740374,-0.05766273,16.9999996200204,12
18.9166,0.2833333,-19.03512,5.672504212126629,-0.2629200697988437,-3.13886477086397,5.137323,20.06444,358.0156,0.04111114,0.1747651,-0.0248408,17.0199996195734,12
18.98687,0.4833335,-18.94763,5.682845939528736,-0.2106494630946221,-3.4446351515852065,11.19373,20.17183,355.9528,0.08980703,0.1775717,-0.05166881,17.0399996191263,12
19.05712,0.6833336,-18.86017,5.630893939570505,-0.1662195668690778,-3.697237954680343,17.25133,20.05342,353.8443,0.138232,0.1798194,-0.07834914,17.0599996186793,12
19.12734,0.8833335,-18.77274,5.5264136307560925,-0.1829463517775261,-3.88560757538791,23.30185,19.68747,351.6375,0.1862374,0.1815012,-0.104792,17.0799996182323,12
19.27218,0.2833335,-18.60048,5.4489860036820055,-0.2075134095730686,-4.130087596714347,6.803563,29.72285,358.2422,0.05341863,0.2568798,-0.03001655,17.0999996177852,12
19.35776,0.4833335,-18.51208,5.348505097241006,-0.1866053175699396,-4.30659957450985,13.63129,29.80798,356.4745,0.1067726,0.2587894,-0.06002453,17.1199996173382,12
19.44331,0.6833335,-18.42371,5.230117800377361,-0.1735379931074975,-4.407666033023633,20.4589,29.67149,354.6515,0.1597267,0.2597141,-0.08980771,17.1399996168911,12
19.63875,0.2833333,-18.25533,5.003604602935781,0.4986605205795518,-4.630582651049647,7.63581,42.57692,359.054,0.05904946,0.3627577,-0.03184913,17.1599996164441,12
19.74096,0.4833332,-18.16808,4.897529781134786,0.2857451810039514,-4.640939528198228,15.27434,42.79074,358.1278,0.1178172,0.363539,-0.06355194,17.1799996159971,12
19.84312,0.6833332,-18.08086,4.760451112221517,0.0937377198191848,-4.588911204532051,22.91539,42.87956,357.1855,0.1760448,0.3626717,-0.09499125,17.19999961555,12
19.94522,0.8833328,-17.99367,4.6000213002386765,-0.131722765913573,-4.468404668100421,30.55687,42.82752,356.1887,0.233472,0.3601595,-0.1260182,17.219999615103,12
20.22925,0.2833335,-17.7958,4.4520450850791065,-0.1249275792467423,-4.324092513630507,7.142469,59.18677,0.2574804,0.05527125,0.4927596,-0.028811,17.239999614656,12
20.33377,0.4833333,-17.72795,4.286187856846713,-0.0726566165801084,-4.142813035220902,14.28061,59.64216,0.5736868,0.1103091,0.4928905,-0.05750281,17.2599996142089,12
20.43826,0.6833333,-17.66013,4.109954237128857,-0.0282263934023015,-3.916481965782991,21.41366,60.15786,0.9631352,0.1648988,0.4910985,-0.08596374,17.2799996137619,12
20.54272,0.8833327,-17.59233,3.931340425856813,-0.0449527320945273,-3.6370950121627086,28.54062,60.75882,1.448269,0.2188289,0.4873922,-0.1140829,17.2999996133149,12
20.66709,0.2833333,-17.55017,3.853619386788015,-0.0695202227773031,-3.4234682377955323,3.178828,62.50473,0.1129417,0.02422318,0.5185853,-0.0135479,17.3199996128678,12
20.71467,0.4833333,-17.52332,3.767319914894735,-0.048612124240356,-3.171123206894933,6.353567,62.91043,0.247594,0.04839898,0.5209267,-0.02707793,17.3399996124208,12
20.76225,0.6833333,-17.49648,3.6806574850460976,-0.0355447539540711,-2.8728319484467058,9.521844,63.32613,0.4038786,0.07248713,0.5228598,-0.04057786,17.3599996119738,12
20.90376,0.2833333,-17.45123,3.5153314649427863,0.6366544189516754,-2.716006713272879,3.125939,65.02174,359.8795,0.02243639,0.5372835,-0.01554571,17.3799996115267,12
20.9536,0.4833334,-17.43046,3.4230506135600933,0.4237394752383387,-2.594493489696081,6.242693,65.40661,359.7762,0.04476574,0.5395758,-0.03105982,17.3999996110797,12
21.00344,0.6833333,-17.40967,3.316287266711885,0.2317335097752286,-2.486179789760449,9.355373,65.78799,359.6912,0.06701692,0.5414602,-0.04654418,17.4199996106327,12
21.05326,0.8833332,-17.38888,3.201729632337301,0.0062738266566953,-2.3917002388689514,12.46405,66.16782,359.624,0.08917434,0.5429363,-0.06198893,17.4399996101856,12
21.30409,0.2833334,-17.36966,3.0967542082053434,0.0130688473645416,-2.093827310307084,4.762432,68.26802,0.2559489,0.03564265,0.5605677,-0.02146664,17.4599996097386,12
21.37963,0.4833334,-17.33448,3.007347139136744,0.0653396092251659,-1.808513974522908,9.523374,68.69609,0.5467535,0.07121837,0.5619377,-0.04291036,17.4799996092916,12
21.45513,0.6833331,-17.2993,2.9418063219390227,0.1097693561311864,-1.5346068906443904,14.28334,69.15612,0.8787652,0.1066773,0.5623239,-0.06428987,17.4999996088445,12
21.71998,0.2833334,-17.19218,2.9088941643327573,0.0930420768304961,-1.2711477566280092,3.996123,68.01671,0.1522709,0.02964486,0.5589348,-0.01839998,17.5199996083975,12
21.78341,0.4833333,-17.16347,2.92574320874002,0.0684751774147055,-0.6903876470689596,7.989698,68.42628,0.3334863,0.05924319,0.5607368,-0.03677083,17.5399996079504,12
21.84682,0.6833333,-17.13477,2.90212863954514,0.0893834003555517,-0.1740971047271884,11.98046,68.85339,0.5459762,0.08875839,0.5618479,-0.05509021,17.5599996075034,12
21.91022,0.8833333,-17.10607,2.843652386925015,0.1024505615596567,0.2784031261343624,15.96559,69.30277,0.7923663,0.1181336,0.5622687,-0.07332724,17.5799996070564,12
22.14519,0.2833334,-16.97951,2.7638168300606942,0.0543611818019461,0.6724839137469303,6.67155,63.27185,359.7656,0.04846951,0.5237314,-0.03225882,17.5999996066093,12
22.25131,0.4833331,-16.93023,2.514759337687781,-0.0015683455677831,1.1713960765801108,13.3433,63.6274,359.5713,0.09676588,0.5239549,-0.06440187,17.6199996061623,12
22.35741,0.6833329,-16.88095,2.2408934865577024,-0.0120226522251344,1.5864980215670776,20.01489,63.97116,359.4141,0.1447246,0.5223933,-0.09631979,17.6399996057153,12
22.46349,0.8833326,-16.83169,1.954426304619581,-0.0303174692520909,1.921778270096098,26.6861,64.31184,359.2935,0.192183,0.519053,-0.1279041,17.6599996052682,12
22.69795,0.2833332,-16.64477,1.535497545888198,0.6105195880381779,2.0847508524526326,6.620015,54.03262,359.1704,0.04815349,0.4538468,-0.03266533,17.6799996048212,12
22.80019,0.483333,-16.58802,1.0986671794890164,0.3662421612474297,2.4003371798718582,13.24303,54.28117,358.3643,0.09613524,0.4545509,-0.06521321,17.6999996043742,12
22.90241,0.683333,-16.53127,0.6492973444722168,0.1428729311751371,2.653648100756847,19.86765,54.4392,357.5607,0.1437822,0.4537078,-0.09753293,17.7199996039271,12
23.10372,0.2833333,-16.3896,0.1959988117063282,-0.1139489881295982,2.8425900752243933,6.514384,52.32656,357.8713,0.04281071,0.4410897,-0.04169347,17.7399996034801,12
23.21676,0.4833336,-16.34912,-0.5347819098711604,-0.1385163618134699,2.9461256462016827,13.03807,52.34855,355.7274,0.08548371,0.4417444,-0.08328319,17.7599996030331,12
23.32976,0.6833334,-16.30865,-1.286475283882698,-0.1176079524410123,3.0068449760235527,19.55894,52.11223,353.5128,0.127856,0.4408089,-0.1245824,17.779999602586,12
23.44272,0.8833334,-16.26819,-2.051025495839827,-0.1045404889389204,3.021114120546427,26.06663,51.58402,351.1592,0.169776,0.4382859,-0.1654401,17.799999602139,12
23.74214,0.283333,-16.17627,-2.895063430316977,-0.7929429217843466,3.115608899590029,7.250507,57.57462,358.0398,0.04718715,0.4814736,-0.04540602,17.819999601692,12
23.86737,0.4833333,-16.13694,-3.7721335442842303,-0.5585967553061407,3.1757525651839167,14.51601,57.58533,356.0604,0.0942302,0.4813056,-0.09069514,17.8399996012449,12
23.99257,0.6833332,-16.09763,-4.583429287545293,-0.3075243362949908,3.2203821325406388,21.77535,57.32682,353.999,0.1408538,0.4790586,-0.1355798,17.8599996007979,12
24.11773,0.8833331,-16.05833,-5.312137691081023,-0.0919957453520814,3.2523509984614094,29.01838,56.75454,351.773,0.1868569,0.4747442,-0.1798668,17.8799996003509,12
24.32679,0.2833335,-16.03684,-6.054240308615796,0.6421768533826321,3.252778789316471,7.749153,64.19662,358.7872,0.05162894,0.5307353,-0.04484977,17.8999995999038,12
24.45767,0.4833339,-15.99666,-6.865819898361661,0.37967385531838,3.343451528658923,15.50107,64.33696,357.5821,0.1030015,0.529838,-0.08948139,17.9199995994568,12
24.5885,0.6833334,-15.95649,-7.567328330471799,0.1385668002757499,3.424571041776158,23.25426,64.30682,356.3388,0.1538918,0.5264521,-0.1336934,17.9399995990098,12
24.69952,0.283333,-15.72769,-8.14056799789185,-0.1355055322276458,3.5019440984008465,7.936017,72.6835,0.2030325,0.0567873,0.5910801,-0.0395838,17.9599995985627,12
24.83051,0.4833333,-15.68258,-8.959384357527238,-0.1768347633104987,3.6944968524487214,15.86804,73.12109,0.469052,0.1132856,0.5895112,-0.07896516,17.9799995981157,12
24.96146,0.683333,-15.63749,-9.668539282196711,-0.1722007627146159,3.863537069406293,23.79543,73.62082,0.8146364,0.1692242,0.585109,-0.1179553,17.9999995976686,12
