pX,pY,pZ,aX,aY,aZ,reX,reY,reZ,rtX,rtY,rtZ,t,ID
-41.00041,0.23,-38.99972,5.507915380973984,0.5279905565417751,5.562735814226301,0.01568617,0.009933932,0.02319489,0.0001369052,8.66622e-05,0.0002024017,2.1799999512732,8
-41.00082,0.43,-38.99944,5.448754837220939,0.1246130035176557,5.95562015519053,0.03143916,0.009943316,0.04636085,0.0002743935,8.666078e-05,0.0004045509,2.19999995082617,8
-41.00122,0.63,-38.99917,5.32262133302094,-0.0375181455457493,6.281218513546939,0.04727952,0.009959249,0.06976757,0.0004126444,8.665962e-05,0.0006088009,2.21999995037913,8
-40.90335,0.283333,-38.9987,5.235881211718429,-0.410614026452546,6.6398822083426765,0.4345891,4.326095,354.6612,0.002027877,0.03787861,-0.0466824,2.2399999499321,8
-40.79482,0.4833334,-38.99809,5.080189045156615,-0.5408609246312712,6.919679520591231,0.9248453,4.258323,348.646,0.004350566,0.03776671,-0.09914754,2.25999994948506,8
-40.63332,0.6833334,-38.99781,4.86107332339612,-0.4535928452079212,7.122490438862734,1.580664,3.950284,339.8397,0.007540619,0.03634343,-0.1753733,2.27999994903803,8
-40.27289,0.2833334,-38.95891,4.668205456365399,-0.8134112569848313,7.323332996495395,1.208498,7.326676,357.2433,0.008984532,0.06412488,-0.02467703,2.29999994859099,8
-40.23642,0.4833333,-38.94447,4.414235203532691,-0.9264086314353416,7.441809954767791,2.261526,6.512702,355.304,0.0173591,0.05755191,-0.04201522,2.31999994814396,8
-40.19362,0.2833333,-38.89415,4.105533995908836,-0.8179180655718434,7.481113789509195,1.201122,10.66445,359.7117,0.01020237,0.09295151,-0.003479205,2.33999994769692,8
-40.18512,0.4833333,-38.8739,3.879309575806957,-1.1525422522857212,7.573639293179475,2.4054,10.10416,359.4652,0.02049689,0.08813839,-0.006495976,2.35999994724989,8
-40.17699,0.6833334,-38.85386,3.596204339517904,-1.2363725030798025,7.577608692259844,3.598299,9.501563,359.2097,0.03071643,0.08299477,-0.009469354,2.37999994680285,8
-40.16887,0.8833334,-38.83382,3.263751335094128,-1.0947418471890005,7.497759100754152,4.790537,8.893082,358.9383,0.04094791,0.07784386,-0.01246875,2.39999994635582,8
-40.09986,0.2833333,-38.74724,2.9661704507809645,-1.3922545217508493,7.404997639130244,2.429058,16.05063,359.9714,0.02095357,0.1395845,-0.00320592,2.41999994590878,8
-40.08733,0.4833333,-38.70629,2.625848394527452,-1.4350004264407386,7.229696011948071,4.85973,15.45969,359.9176,0.0419146,0.1344116,-0.006413958,2.43999994546175,8
-40.00295,0.2833336,-38.59281,2.251200401803459,-1.2483132585111585,6.977823062478045,3.73099,20.43518,0.05213573,0.03211769,0.1772783,-0.005327007,2.45999994501472,8
-39.98056,0.4833336,-38.53107,1.975108827292594,-1.4967962444486438,6.776675323266289,7.466622,19.85007,0.06594027,0.06423695,0.1719568,-0.01065713,2.47999994456768,8
-39.95818,0.6833334,-38.46936,1.6672179786454606,-1.4865400981294516,6.496030810018304,11.20443,19.26014,0.04099299,0.09630527,0.1664528,-0.0159797,2.49999994412065,8
-39.86955,0.2833338,-38.37536,1.4440442156713615,-1.6697545055469938,6.252948415957498,4.045346,24.24767,0.1573871,0.034796,0.2098468,-0.006070838,2.51999994367361,8
-39.84258,0.4833339,-38.30966,1.1956294854833018,-1.5926267125139604,5.931209592706843,8.094409,23.67529,0.2741925,0.06956674,0.2044617,-0.01214228,2.53999994322658,8
-39.81562,0.6833339,-38.24398,0.9324144810489514,-1.2804907241563506,5.539449242703242,12.14634,23.10465,0.3510768,0.1042648,0.1988203,-0.01820258,2.55999994277954,8
-39.67627,0.2833332,-38.09701,0.7538981107852365,-1.397948222714558,5.172017094227115,3.47585,29.14013,0.1601079,0.02970384,0.2514068,-0.006277733,2.57999994233251,8
-39.64882,0.4833335,-38.04276,0.5714629393291304,-1.251090907016145,4.741410843018258,6.952197,28.56862,0.2856852,0.05937141,0.2461325,-0.01254839,2.59999994188547,8
-39.51837,0.2833335,-37.88742,0.3965292183806852,-0.8652527929025713,4.257511434198115,3.523909,31.49197,0.1507886,0.02995015,0.2712055,-0.007078014,2.61999994143844,8
-39.48816,0.4833334,-37.83374,0.3757091893530813,-0.905036639997289,3.868673260321863,7.048233,30.92088,0.2665566,0.05986315,0.2659303,-0.0141481,2.6399999409914,8
-39.45795,0.6833331,-37.78006,0.3688707732899061,-0.6765334951399243,3.430073753755778,10.57264,30.35211,0.347644,0.08971018,0.2604015,-0.02120345,2.65999994054437,8
-39.42777,0.8833328,-37.72641,0.3887145801884699,-0.2050768976388001,2.953035010827449,14.09839,29.78106,0.3922818,0.1194727,0.2546231,-0.0282526,2.67999994009733,8
-39.28118,0.2833335,-37.57235,0.529323305536515,-0.1552685435860028,2.526851466292051,3.567498,34.76029,0.1935115,0.03021026,0.2985148,-0.007687189,2.6999999396503,8
-39.24817,0.4833339,-37.51945,0.7123415723497146,-0.0732963969915144,2.0758697731793703,7.135688,34.19564,0.3520597,0.0603813,0.29325,-0.01536507,2.71999993920326,8
-39.11995,0.2833332,-37.37316,0.9515556585646864,-0.0121979566574699,1.6124973385741723,3.519476,37.26923,0.2870685,0.02989853,0.3193073,-0.007439587,2.73999993875623,8
-39.08645,0.4833332,-37.32145,1.2764002146744815,-0.0090613183156291,1.2823110811973422,7.040567,36.71427,0.5404061,0.05975904,0.3140665,-0.01487016,2.75999993830919,8
-39.05296,0.683333,-37.26974,1.528847713267503,0.0196876913317692,0.9521011278402298,10.56292,36.17039,0.7613474,0.0895526,0.3085247,-0.02228511,2.77999993786216,8
-38.9408,0.2833338,-37.14975,1.6442503010079932,0.0207338369017536,0.6355747669328125,3.488809,38.50033,0.2879458,0.02956686,0.3294673,-0.007664925,2.79999993741512,8
-38.90657,0.4833334,-37.09917,1.450530877099105,0.020733752397707,0.3671656906753568,6.979383,37.94702,0.5425374,0.05909771,0.3242519,-0.01532118,2.81999993696809,8
-38.87235,0.6833336,-37.04859,1.2170747573507228,0.0463463758215321,0.1103347667237457,10.47098,37.40473,0.7644178,0.08855933,0.3187307,-0.02296651,2.83999993652105,8
-38.71571,0.2833337,-36.87719,0.9426296875955984,0.5244477210040228,-0.1658191578360259,3.445295,39.57782,0.3060203,0.02918972,0.338326,-0.007665717,2.85999993607402,8
-38.68128,0.4833336,-36.82763,0.7949581835804409,0.3366223521046464,-0.299153887954489,6.892188,39.0276,0.5789845,0.05834076,0.3331394,-0.01532459,2.87999993562698,8
-38.64685,0.6833342,-36.77808,0.6498994314872277,0.1487971105711663,-0.4109897079138136,10.34044,38.4896,0.8207456,0.08742818,0.3276461,-0.02296703,2.89999993517995,8
-38.54073,0.2833333,-36.66678,0.6227611393053749,-0.5202654107508681,-0.3795908174433791,3.406863,39.42666,0.2519409,0.02872515,0.3371029,-0.00795819,2.91999993473291,8
-38.50613,0.4833334,-36.61825,0.5338591779400446,-0.286441182133438,-0.393658824907547,6.814749,38.87309,0.4708827,0.0574122,0.3319413,-0.01590935,2.93999993428588,8
-38.47154,0.6833336,-36.56973,0.4544170701826573,-0.0557532142031579,-0.3946174057275584,10.22357,38.32836,0.6583274,0.08603849,0.3264816,-0.02384365,2.95999993383884,8
-38.3205,0.2833332,-36.40777,0.3092428088961014,0.5997198804047941,-0.4596206639248628,3.364387,38.48511,0.1563048,0.02816487,0.3293878,-0.008387399,2.97999993339181,8
-38.28587,0.4833331,-36.3603,0.2860249644289609,0.3491697784772286,-0.4185631088274384,6.728807,37.92459,0.2795388,0.05629259,0.3242495,-0.0167667,2.99999993294477,8
-38.15103,0.2833332,-36.21014,0.2685649383284385,0.098619653811974,-0.3861354381945538,3.318063,37.55626,0.06010334,0.02757925,0.3217549,-0.008823239,3.01999993249774,8
-38.11634,0.4833332,-36.16379,0.2862236796187716,0.0871194674674804,-0.2945623474198555,6.635555,36.9884,0.08737291,0.05512638,0.3166351,-0.01763618,3.0399999320507,8
-38.08166,0.683333,-36.11745,0.3051700883709856,0.1012317034794469,-0.2175177414787228,9.951867,36.41786,0.08117196,0.08261427,0.3112469,-0.02643357,3.05999993160367,8
-37.96371,0.2833336,-35.99103,0.3351783471170861,0.0876407225878138,-0.1481526108111808,3.280967,36.3685,359.9575,0.02708252,0.311956,-0.009286127,3.07999993115664,8
-37.92894,0.4833337,-35.94555,0.2511904094166439,0.7133192819070513,-0.1772955742374762,6.560413,35.79351,359.8819,0.05413429,0.3068553,-0.0185624,3.0999999307096,8
-37.89417,0.6833336,-35.90009,0.2858020566880057,0.4340199169070557,-0.1001782686796382,9.837738,35.20992,359.7722,0.08112989,0.3015004,-0.0278217,3.11999993026257,8
-37.73289,0.2833333,-35.72512,0.2092811580526543,0.6359579433803456,-0.1397521591937334,3.237721,34.68097,359.8781,0.02664964,0.297959,-0.0094355,3.13999992981553,8
-37.69878,0.483333,-35.68004,0.2264090396843485,0.4131109201007854,-0.0934111409287297,6.473142,34.10106,359.7231,0.05326976,0.2928768,-0.01886069,3.1599999293685,8
-37.66468,0.6833329,-35.63498,0.2451497986874287,0.1913096895650274,-0.0513881052993809,9.705832,33.50818,359.5338,0.07983787,0.2875584,-0.02826781,3.17999992892146,8
-37.5545,0.2833336,-35.5171,0.2751227748153724,-0.0838070743829351,-0.0053719833208596,3.197199,32.65929,359.8056,0.02629499,0.2810989,-0.009471038,3.19999992847443,8
-37.52132,0.4833336,-35.47213,0.1867370199329485,0.4937823635693187,-0.067693779964113,6.39138,32.0752,359.5783,0.05256141,0.2760338,-0.01893187,3.21999992802739,8
-37.48816,0.6833333,-35.42717,0.2076442362301591,0.166393837215378,-0.0340572745637359,9.582172,31.47427,359.3164,0.07877834,0.2707514,-0.02837465,3.23999992758036,8
-37.32999,0.2833333,-35.25742,0.1226683590868162,0.3202432738260159,-0.1094135506010225,3.449566,33.51897,359.7909,0.02829418,0.2882762,-0.01042535,3.25999992713332,8
-37.29343,0.4833335,-35.2094,0.1211230501068243,0.049307712431644,-0.1040028609260552,6.895886,32.93346,359.5462,0.05655393,0.2831717,-0.02083843,3.27999992668629,8
-37.25689,0.683334,-35.16139,0.1219161772270993,-0.2205822440444179,-0.1007392623081706,10.33885,32.32818,359.2632,0.08475474,0.2778076,-0.03123344,3.29999992623925,8
-37.14962,0.2833333,-35.05043,0.0397587453137759,0.1764992059230904,-0.173204201839848,3.551551,34.85394,359.8105,0.02907059,0.2993946,-0.01085811,3.31999992579222,8
-37.11123,0.4833333,-35.00165,0.0934296098859945,-0.0913001163021728,-0.1047495630903476,7.10036,34.27117,359.584,0.05810603,0.2942814,-0.02170682,3.33999992534518,8
-37.07285,0.6833333,-34.95288,0.1484669833258536,-0.3580543569244069,-0.0383667196773203,10.64609,33.66904,359.3187,0.08707934,0.2888824,-0.03253315,3.35999992489815,8
-36.921,0.2833333,-34.79293,0.0673466600150689,0.0421634434613547,-0.1102434500500884,3.571755,36.69986,359.8831,0.02925882,0.3146968,-0.01077863,3.37999992445111,8
-36.88187,0.4833335,-34.74438,0.0625233083231222,-0.2224998803877821,-0.1082137063674935,7.141268,36.12548,359.7299,0.0584801,0.309595,-0.02154678,3.39999992400408,8
-36.74494,0.2833337,-34.59332,0.0603520769859073,-0.4861183155993166,-0.1073310136678422,3.599037,37.77876,0.02195743,0.0297732,0.3235767,-0.009985058,3.41999992355704,8
-36.70654,0.4833338,-34.54363,-0.0159871815041654,-0.0827636371241469,-0.1729175414574726,7.197337,37.21862,0.009262791,0.05951137,0.3184793,-0.01995343,3.43999992311001,8
-36.66814,0.6833338,-34.49395,0.0477170578112691,-0.3442907407086905,-0.0885138438391877,10.79434,36.65264,359.9607,0.08918118,0.3130652,-0.02989893,3.45999992266297,8
-36.62976,0.883334,-34.44429,0.1150179375244562,-0.6047727592926166,-0.0037393041248492,14.38963,36.07608,359.8748,0.1187522,0.3073401,-0.03981184,3.47999992221594,8
-36.48643,0.2833337,-34.29338,0.0557705375485184,-0.1982821337535701,-0.0454535515075207,3.563806,38.52103,0.06922391,0.02955379,0.3296866,-0.009687132,3.4999999217689,8
-36.44841,0.4833335,-34.24417,0.0777434283013605,-0.4566725608387775,-0.0056743945616943,7.126925,37.96757,0.1040981,0.05906847,0.3246181,-0.01936138,3.51999992132187,8
-36.318,0.2833333,-34.10197,-0.0141941275628383,-0.2338254552331071,-0.0857366313577188,3.638502,39.30005,0.08618066,0.03015056,0.3360819,-0.009967632,3.53999992087483,8
-36.27869,0.4833333,-34.05207,-0.10420808379844,-0.0088874956661132,-0.1659526829453312,7.276632,38.74932,0.1374699,0.06026139,0.3310033,-0.01992233,3.5599999204278,8
-36.23941,0.6833335,-34.00219,-0.0597221994593937,-0.4744429542791717,-0.1046231206414916,10.91466,38.19679,0.1534168,0.09030567,0.3255878,-0.02985794,3.57999991998076,8
-36.20013,0.8833335,-33.95232,-0.1104411895226817,-0.2453236566036419,-0.1385048184585429,14.55166,37.63789,0.1334144,0.1202485,0.3198414,-0.03976018,3.59999991953373,8
-36.06349,0.2833333,-33.81059,-0.0522516321323252,-0.44098991683778,-0.0536998747104036,3.645252,39.75817,0.06849661,0.03011339,0.3398463,-0.01025316,3.61999991908669,8
-36.02332,0.4833332,-33.76031,0.0039001231997843,-0.6356104671769325,0.0267752035646715,7.32486,39.26727,0.1270634,0.06053587,0.3352514,-0.02042102,3.63999991863966,8
-35.89983,0.2833333,-33.62907,-0.0840130711055877,-0.1632582265999983,-0.0426661114228466,3.5658,41.39406,0.1936071,0.02970133,0.3532056,-0.00941621,3.65999991819263,8
-35.86096,0.4833333,-33.57988,-0.1710153640401586,0.2845270653397147,-0.1141382067922336,7.14518,41.08354,0.3795924,0.05951075,0.350013,-0.01876901,3.67999991774559,8
-35.8221,0.6833333,-33.53066,-0.1287627039050995,-0.1972323634826176,-0.0507586982399779,10.72806,40.79098,0.5496135,0.0892859,0.3465479,-0.02810248,3.69999991729856,8
-35.78276,0.8833334,-33.48145,-0.1722544895890045,0.0167283934471506,-0.0722950602448833,14.33977,40.4443,0.6731692,0.119131,0.3422642,-0.03767254,3.71999991685152,8
-35.65178,0.2833333,-33.34925,-0.2097725708417464,0.2338252491996159,-0.0915755997465908,3.547585,43.17763,0.2465733,0.02957341,0.3677039,-0.009389276,3.73999991640449,8
-35.61246,0.483333,-33.30135,-0.0971125576348157,-0.2385259370804187,0.0452543397763953,7.096514,42.8326,0.4707629,0.05911256,0.3642019,-0.01878095,3.75999991595745,8
-35.49855,0.2833332,-33.17772,-0.1217295277900625,-0.0151560459599608,0.0389649560982583,3.504602,43.6754,0.2863191,0.02931327,0.3717327,-0.009056349,3.77999991551042,8
-35.4598,0.4833331,-33.13018,-0.145183260516827,0.2113500507022188,0.0281145927308834,7.009807,43.33468,0.5521812,0.05858958,0.3682484,-0.01810161,3.79999991506338,8
-35.42105,0.6833332,-33.08266,-0.0846619663678716,-0.2515931058637508,0.0967970874993255,10.51482,43.00756,0.7989883,0.08779536,0.3644173,-0.02712766,3.81999991461635,8
-35.26335,0.2833333,-32.90921,-0.0985351789331652,-0.0188145713730291,0.0935553466810823,3.441755,43.47974,0.2880942,0.02882524,0.3701549,-0.008788819,3.83999991416931,8
-35.22553,0.4833332,-32.86229,-0.1049426243496505,0.217100395949172,0.0933537740346253,6.883744,43.13989,0.556271,0.05761229,0.3666983,-0.01756487,3.85999991372228,8
-35.18773,0.6833332,-32.8154,0.026507883284534,-0.2364332742968722,0.237482938036841,10.32623,42.81366,0.8061176,0.0863382,0.3629084,-0.02632219,3.87999991327524,8
-35.08132,0.2833333,-32.69939,0.03119035714478,0.0057538857050126,0.253403065158885,3.39674,42.19603,0.2008184,0.02828157,0.3597574,-0.009034265,3.89999991282821,8
-35.04396,0.4833335,-32.65326,0.1442447777520676,-0.1757997295872592,0.3871030095778067,6.793274,41.84916,0.3812359,0.05652624,0.3563253,-0.01805752,3.91999991238117,8
-35.00662,0.6833335,-32.60713,0.1360859902892635,0.1249293573160091,0.391556146420335,10.18988,41.51042,0.5423603,0.08471274,0.3525789,-0.02706215,3.93999991193414,8
-34.8484,0.2833332,-32.429,0.1203961671901581,0.4287944635036278,0.3834166990592713,3.351985,40.41998,0.115601,0.02779508,0.3452862,-0.009157566,3.9599999114871,8
-34.81188,0.4833331,-32.38329,0.1056852494413043,0.6835250522267833,0.3711688216789319,6.703269,40.06652,0.2108039,0.05555531,0.341878,-0.01830227,3.97999991104007,8
-34.77536,0.6833331,-32.33758,0.2172717563226989,-0.0169011351422226,0.4859718139934728,10.05412,39.71601,0.2858799,0.08325968,0.338177,-0.02742829,3.99999991059303,8
-34.66904,0.2833332,-32.21977,0.2077496397837563,0.1918318821575885,0.4775714843404905,3.308144,39.02501,0.02841056,0.02729001,0.3338667,-0.009407678,4.019999910146,8
-34.63295,0.4833333,-32.17474,0.2993524202282209,-0.023174552607901,0.5729591139931642,6.615368,38.66494,0.03600216,0.05454836,0.3304806,-0.01880488,4.03999990969896,8
-34.59686,0.6833333,-32.12972,0.2770648607922865,0.2441021325509257,0.5467146655606214,9.921335,38.30264,0.02256134,0.08175044,0.3268192,-0.02818302,4.05999990925193,8
-34.44495,0.2833335,-31.96028,0.2463504008427293,0.5145149515537122,0.5058008980217181,3.263351,37.40537,359.9201,0.02674726,0.3205461,-0.009790449,4.07999990880489,8
-34.40912,0.4833334,-31.91602,0.2154916132057494,0.7357931317372539,0.4587152597025365,6.525189,37.03711,359.8191,0.05346467,0.3171818,-0.01957064,4.09999990835786,8
-34.2738,0.2833333,-31.76102,0.3008496925767616,0.001914644899839,0.5265455006521336,3.219896,35.34039,359.8538,0.02638249,0.3034515,-0.009743177,4.11999990791082,8
-34.2391,0.4833335,-31.71677,0.2728218166950107,0.177195369265058,0.4806568839572804,6.437806,34.96738,359.6864,0.05273588,0.3001057,-0.01947539,4.13999990746379,8
-34.2044,0.6833338,-31.67254,0.336148732366766,-0.0712639079726898,0.5276809301504457,9.653598,34.58223,359.4966,0.07903934,0.2965229,-0.02918916,4.15999990701675,8
-34.16971,0.8833337,-31.62832,0.2938003213042961,0.1625598269494385,0.4656621110117847,12.86689,34.18229,359.283,0.1052712,0.2927063,-0.03887315,4.17999990656972,8
-34.02346,0.2833334,-31.46455,0.2444772684255767,0.3995196690575475,0.3910488782004577,3.280599,33.73746,359.7843,0.02684712,0.2901121,-0.01010655,4.19999990612268,8
-33.9884,0.4833334,-31.41914,0.3387509604859033,-0.052968880556788,0.4689661583200859,6.558811,33.35958,359.5468,0.05366435,0.2867672,-0.02020177,4.21999990567565,8
-33.95334,0.6833333,-31.37374,0.4244080273764439,-0.5300246170749153,0.5326476076776423,9.834439,32.96517,359.2854,0.08042946,0.2831868,-0.03027735,4.23999990522861,8
-33.79213,0.2833334,-31.19297,0.4005731204092342,-0.1266700571667667,0.4921651505438866,3.533285,35.35796,359.8041,0.02885403,0.3035889,-0.01098991,4.25999990478158,8
-33.75348,0.4833335,-31.14476,0.4594713967008985,-0.3881970358247048,0.5393469666665212,7.064254,34.98124,359.5846,0.05767207,0.3001897,-0.02196685,4.27999990433455,8
-33.71484,0.6833337,-31.09657,0.4230551959680326,-0.1684870078076915,0.4889605566598405,10.59466,34.58742,359.3389,0.08644132,0.2965041,-0.03292992,4.29999990388751,8
-33.60676,0.2833336,-30.97772,0.3804172583546119,0.0533139457812937,0.4317990563556968,3.560219,36.54834,359.8372,0.02905199,0.3134546,-0.0110884,4.31999990344048,8
-33.56733,0.4833336,-30.92963,0.4764606916931058,-0.4153781563135404,0.5258580384391287,7.118545,36.17559,359.6508,0.05806846,0.3100536,-0.02216594,4.33999990299344,8
-33.5279,0.6833338,-30.88156,0.4242123613014605,-0.1893948338408621,0.4628090888156713,10.67451,35.78782,359.439,0.08701971,0.306353,-0.0332186,4.35999990254641,8
-33.37413,0.2833337,-30.70919,0.3607315088734069,0.0386797349706992,0.3874674398192965,3.595279,38.14371,359.9688,0.02955884,0.3266009,-0.0105071,4.37999990209937,8
-33.3348,0.4833336,-30.6603,0.2951535098943054,0.2165746477398724,0.309665302999413,7.18959,37.78436,359.9153,0.05908323,0.323195,-0.02099965,4.39999990165234,8
-33.19562,0.283333,-30.50038,0.2640295624923858,0.1585546766454836,0.2712907949958172,3.563622,38.86024,0.0641588,0.02950877,0.3324797,-0.009815703,4.4199999012053,8
-33.15734,0.483333,-30.45137,0.2262196547847281,0.1313739598594948,0.2269481232391754,7.12627,38.51065,0.1070576,0.05897915,0.3290859,-0.01961489,4.43999990075827,8
-33.11906,0.6833329,-30.40238,0.2854213267451229,-0.3451593526817824,0.2872462918534424,10.6881,38.16069,0.1282847,0.08838364,0.3253742,-0.02939221,4.45999990031123,8
-33.0808,0.8833327,-30.35341,0.2001419755271385,-0.125971260608959,0.1905078693436905,14.249,37.80761,0.1273956,0.1176937,0.3213482,-0.03913824,4.4799998998642,8
-32.93313,0.2833332,-30.18952,0.1096564692781356,0.0963531912908183,0.0882084967644445,3.59392,39.61489,0.08306586,0.029748,0.3386721,-0.009944217,4.49999989941716,8
-32.8941,0.4833331,-30.1404,0.1666868489191557,-0.3707709345278743,0.1469661217301876,7.187214,39.26847,0.1444793,0.05945757,0.3352791,-0.01987591,4.51999989897013,8
-32.76011,0.2833333,-29.98834,0.1361131883953561,-0.1421742908195895,0.1143563405171015,3.650684,40.08106,0.09832719,0.03021805,0.3424851,-0.01010978,4.53999989852309,8
-32.72025,0.4833333,-29.93861,0.1027236177629795,0.0895585034592262,0.0787682358993109,7.300855,39.73688,0.1748205,0.0603964,0.3390802,-0.0202067,4.55999989807606,8
-32.6804,0.6833332,-29.8889,0.163866051514443,-0.3681571711705718,0.145005296761429,10.95038,39.39447,0.2298176,0.0905044,0.3353312,-0.03027988,4.57999989762902,8
-32.64056,0.8833331,-29.8392,0.0913348939135048,-0.1301518889706074,0.0689657924255051,14.59962,39.05102,0.262961,0.1205148,0.3312419,-0.04032188,4.59999989718199,8
-32.49943,0.2833335,-29.684,0.0188014451202391,0.1109896105319542,-0.0051169988913279,3.619888,40.89037,0.1207339,0.02996247,0.3491054,-0.01004598,4.61999989673495,8
-32.45952,0.4833335,-29.635,-0.0269185816422314,0.1428747046276488,-0.0502603508620786,7.239396,40.5497,0.220126,0.05988616,0.3457182,-0.02007893,4.63999989628792,8
-32.33188,0.2833333,-29.49188,-0.0827596060056521,0.2055995251218849,-0.1054369991701769,3.571352,42.43814,0.1993066,0.02967743,0.361708,-0.009657616,4.65999989584088,8
-32.29226,0.4833335,-29.44368,-0.1385022659143153,0.2458476094063978,-0.1598025741375224,7.142732,42.10546,0.3781377,0.05931656,0.3583356,-0.01930313,4.67999989539385,8
-32.25264,0.6833334,-29.39549,-0.0960140747016851,-0.4300112740599137,-0.1115534631723562,10.71405,41.7812,0.5376173,0.08888893,0.3546141,-0.02892691,4.69999989494681,8
-32.07981,0.2833335,-29.20087,-0.1728919724500457,-0.1977561948438995,-0.1905252057155664,3.512076,43.20317,0.2542325,0.02930794,0.3679132,-0.009219707,4.71999989449978,8
-32.04096,0.4833336,-29.15328,-0.2410356537252411,0.0365899522942039,-0.2605049073205343,7.024552,42.8764,0.4888628,0.0585796,0.3645643,-0.01842755,4.73999989405274,8
-32.00211,0.6833336,-29.10571,-0.1596575582199833,-0.4195576794145081,-0.1719177366032127,10.5369,42.56147,0.705344,0.08778411,0.3608713,-0.02761384,4.75999989360571,8
-31.88291,0.2833331,-28.97155,-0.2164840740223006,-0.1810300777787861,-0.2339420789962893,3.460053,43.05465,0.2783824,0.02897503,0.3667083,-0.00881921,4.77999989315867,8
-31.84511,0.4833328,-28.92424,-0.2718755978307072,0.0595881494830948,-0.2955096813638036,6.920279,42.73085,0.5379007,0.05791271,0.363383,-0.01762418,4.79999989271164,8
-31.80732,0.6833327,-28.87693,-0.2443246122696223,-0.3902878464885928,-0.2724058041089847,10.38087,42.42033,0.7798869,0.08678829,0.3597242,-0.02641034,4.8199998922646,8
-31.64208,0.2833335,-28.69058,-0.289447630998211,-0.1454881639450372,-0.3234032045206021,3.413927,42.35653,0.2449592,0.02854776,0.3610503,-0.008769002,4.83999989181757,8
-31.60497,0.4833335,-28.64379,-0.3252354003875446,0.1014026806947088,-0.3633510123811021,6.8279,42.03046,0.4709168,0.05705914,0.3577483,-0.01752584,4.85999989137053,8
-31.56787,0.6833338,-28.59702,-0.2212802276072807,-0.3422002142223345,-0.2501908833076705,10.24207,41.71549,0.6791356,0.08551075,0.3541272,-0.0262643,4.8799998909235,8
-31.53079,0.8833339,-28.55026,-0.2432082702321345,-0.0911276507702442,-0.2707467892694666,13.65633,41.40961,0.8706335,0.1138773,0.3501906,-0.03497694,4.89999989047647,8
-31.39084,0.2833336,-28.39569,-0.260036223474561,0.1620360973414852,-0.2838416498553009,3.366578,40.57467,0.1444762,0.0279894,0.3465437,-0.009002964,4.91999989002943,8
-31.35442,0.4833335,-28.34955,-0.2460185699688999,0.2048984217777921,-0.2657783781024925,6.732627,40.24084,0.2695597,0.05594355,0.3432702,-0.01799412,4.9399998895824,8
-31.22971,0.2833334,-28.20932,-0.2380601180831654,0.2775550705911642,-0.2552503062061433,3.318729,39.43555,0.05801069,0.02743016,0.337232,-0.009293475,4.95999988913536,8
-31.19357,0.4833335,-28.16407,-0.2270414261361324,0.3266904113167171,-0.2426255930407457,6.636744,39.0947,0.0962723,0.05482861,0.3339789,-0.01857682,4.97999988868833,8
-31.15745,0.6833335,-28.11883,-0.1225143177601957,-0.3413266612017044,-0.1339397790926284,9.953644,38.75356,0.1147217,0.08216968,0.3304459,-0.02784184,4.99999988824129,8
-30.98705,0.2833334,-27.92699,-0.1365160026141865,-0.1022762507036859,-0.1508554161747888,3.275381,37.73299,359.9428,0.02688235,0.3232455,-0.009713854,5.01999988779426,8
-30.95116,0.4833333,-27.88251,-0.1443900201457388,0.1378192159590335,-0.1616196812422643,6.549397,37.38324,359.8655,0.05373466,0.3200145,-0.01941676,5.03999988734722,8
-30.91527,0.6833333,-27.83805,-0.1218415435708024,0.1665680872637263,-0.1418841266431023,9.821635,37.02646,359.7672,0.08053204,0.3165223,-0.0291012,5.05999988690019,8
-30.79738,0.2833333,-27.70546,-0.1051818230788157,0.2240657747276816,-0.1296125707057882,3.233772,36.04013,359.8841,0.02651952,0.3092538,-0.009689798,5.07999988645315,8
-30.76242,0.4833335,-27.66113,-0.0856406887731822,0.2569964421180055,-0.1153620432089859,6.4658,35.68653,359.7481,0.0530096,0.3060438,-0.01936898,5.09999988600612,8
-30.72748,0.6833334,-27.61682,0.0889749484831945,-0.428270033819256,0.0662046966945979,9.696004,35.32267,359.5909,0.0794495,0.3025903,-0.0290298,5.11999988555908,8
-30.56469,0.2833333,-27.43265,0.1449148861417697,-0.207514159045542,0.1222271434090487,3.192772,33.56807,359.7839,0.02612751,0.2887027,-0.009849038,5.13999988511205,8
-30.53063,0.4833336,-27.38842,0.1991542974359497,0.0132415990777376,0.1758842782513632,6.383175,33.20726,359.5475,0.05222645,0.2855143,-0.01968732,5.15999988466501,8
-30.49657,0.6833336,-27.3442,0.2409726851683871,0.0216050564781167,0.2153247743336237,9.571098,32.83063,359.2889,0.07827689,0.2821039,-0.02950729,5.17999988421798,8
-30.38014,0.2833331,-27.21475,0.2761857921818205,0.0576714645507797,0.2484455175510831,3.538148,34.49281,359.7788,0.02891113,0.2963968,-0.01099548,5.19999988377094,8
-30.3418,0.4833331,-27.16611,0.313841379815976,0.0681253317870786,0.2852285616830663,7.073897,34.13018,359.5348,0.05778648,0.2931359,-0.02197737,5.21999988332391,8
-30.30348,0.6833333,-27.1175,0.3387743515533934,0.0796249543937415,0.3080785521872649,10.60801,33.74903,359.2654,0.0866053,0.2895948,-0.03294082,5.23999988287687,8
-30.14212,0.2833333,-26.93807,0.3492996792460232,0.1188277097484239,0.3168992415659595,3.574348,36.38546,359.8317,0.02916963,0.3121057,-0.01113172,5.25999988242984,8
-30.1026,0.4833331,-26.88972,0.3546733178160259,0.1324178667691434,0.3217447385455614,7.14686,36.02852,359.6403,0.05830313,0.308837,-0.02225454,5.2799998819828,8
-30.0631,0.683333,-26.84139,0.267690155901068,0.7873681830930672,0.2287200947257126,10.71704,35.65628,359.4244,0.08737066,0.3052676,-0.03335252,5.29999988153577,8
-29.95555,0.2833329,-26.72319,0.2932038708209958,0.5394323408316313,0.2544200583105223,3.58012,37.43929,359.8863,0.02926669,0.3208103,-0.01096426,5.31999988108873,8
-29.91586,0.4833329,-26.67492,0.317315437073006,0.29463292896238,0.2799250614729018,7.158454,37.08854,359.7504,0.05849577,0.3175451,-0.02191553,5.3399998806417,8
-29.87617,0.6833332,-26.62666,0.1966197248257515,0.7188956315760873,0.1485702176484942,10.73482,36.72603,359.591,0.0876587,0.3139701,-0.0328418,5.35999988019466,8
-29.72248,0.2833336,-26.45435,0.2001904477448448,0.4803678052641377,0.1501258152140323,3.594132,38.92459,0.04770634,0.02970636,0.3330102,-0.01005625,5.37999987974763,8
-29.68359,0.4833335,-26.40514,0.1983549762556826,0.2449758368947848,0.146488482196613,7.187628,38.59014,0.07502735,0.05937774,0.3297445,-0.02009571,5.39999987930059,8
-29.64471,0.6833338,-26.35595,0.2008531772778568,-0.0416414432248144,0.1479937780739639,10.78015,38.25443,0.08127411,0.08898129,0.3261548,-0.0301125,5.41999987885356,8
-29.47769,0.2833336,-26.16849,0.2307981276816875,-0.1137746455623546,0.1832388485259741,3.569662,39.77375,0.07659552,0.02951603,0.3399795,-0.009966544,5.43999987840652,8
-29.43872,0.4833337,-26.11988,0.2542123525879596,-0.158204199067356,0.2114360461277158,7.138534,39.44297,0.1324873,0.0589929,0.3367257,-0.01992164,5.45999987795949,8
-29.39977,0.683334,-26.07129,0.1751069803954799,0.2519457916110669,0.1303141721241907,10.70663,39.1128,0.1679627,0.08840343,0.3331454,-0.02985457,5.47999987751245,8
-29.28466,0.2833333,-25.9437,0.1793052634822629,-0.0017408676389919,0.1360274124274347,3.651865,40.21902,0.09348192,0.030201,0.3436165,-0.01018938,5.49999987706542,8
-29.2446,0.4833331,-25.89409,0.184641607018257,-0.2533367228461027,0.1433543141605469,7.303211,39.89096,0.1661865,0.06036281,0.3403461,-0.02036558,5.51999987661839,8
-29.20456,0.6833326,-25.8445,0.0399146422119258,0.1630848796120128,-0.0128921031291717,10.95409,39.56456,0.2182382,0.09045564,0.3367301,-0.03051975,5.53999987617135,8
-29.04313,0.2833333,-25.66501,0.0281770124720139,-0.0843290910851215,-0.0242540121888978,3.633216,40.95103,0.1123625,0.03004051,0.349602,-0.01017091,5.55999987572432,8
-29.00292,0.4833333,-25.61597,0.0119705298789227,-0.3296522336948543,-0.0386343274500724,7.265956,40.62577,0.2042515,0.06004176,0.3463425,-0.02032867,5.57999987527728,8
-28.96271,0.6833333,-25.56694,-0.0970539884915773,0.0930424132785988,-0.150991598370048,10.89809,40.30344,0.2760469,0.08997323,0.3427348,-0.03046321,5.59999987483025,8
-28.78811,0.2833333,-25.37183,-0.0564128554055578,-0.1480994455839617,-0.0988799641662758,3.576573,42.71953,0.1975485,0.02969045,0.3639949,-0.009761335,5.61999987438321,8
-28.74817,0.4833333,-25.32377,-0.0174368615247004,-0.3871503701627962,-0.0474307981429653,7.153138,42.40319,0.3756154,0.05934276,0.3607536,-0.01951046,5.63999987393618,8
-28.70824,0.6833332,-25.27572,-0.1231441952565042,0.0418163998833982,-0.1535184000923131,10.72957,42.09537,0.5353199,0.08892798,0.3571601,-0.02923763,5.65999987348914,8
-28.58807,0.2833333,-25.14213,-0.2262726309559042,0.4472611885971473,-0.2574780158690188,3.521626,43.29692,0.239658,0.02933092,0.3686761,-0.009392577,5.67999987304211,8
-28.54885,0.4833331,-25.09466,-0.194361489140757,-0.0757931810462174,-0.2213441719105446,7.043524,42.98527,0.4605242,0.05862543,0.3654571,-0.01877347,5.69999987259507,8
-28.50964,0.683333,-25.0472,-0.2498331611186905,0.0979193804370126,-0.2769543869690309,10.56547,42.68476,0.6639931,0.08785499,0.3618914,-0.02813352,5.71999987214804,8
-28.34328,0.2833334,-24.86086,-0.1983576768756627,-0.1510625062509012,-0.2198564737834552,3.465753,43.39597,0.2794434,0.02899825,0.3694754,-0.008915261,5.739999871701,8
-28.30515,0.4833333,-24.81368,-0.144069767227112,-0.3969082637992073,-0.1623460763008424,6.931642,43.08868,0.5410025,0.05795936,0.36628,-0.01781617,5.75999987125397,8
-28.26703,0.6833333,-24.76652,-0.2251982273194919,0.0263089497625638,-0.2513516465986569,10.3978,42.79494,0.7860296,0.08685788,0.3627476,-0.02669796,5.77999987080693,8
-28.22892,0.8833333,-24.71936,-0.303021856045305,0.4270500597624471,-0.3375196667821214,13.86415,42.51294,1.015902,0.1156676,0.3588817,-0.03555278,5.7999998703599,8
-28.08867,0.2833333,-24.56512,-0.2603621041909676,-0.0996625079061358,-0.2962864826521745,3.415423,42.61855,0.2442575,0.02853757,0.3631807,-0.008844703,5.81999986991286,8
-28.05132,0.4833333,-24.51849,-0.2918452896277621,0.0714366590756068,-0.329987786105427,6.83076,42.30909,0.4704764,0.05703821,0.3600127,-0.0176771,5.83999986946583,8
-28.01399,0.6833333,-24.47187,-0.3162024403255117,0.2477630756509474,-0.3544506365576687,10.24628,42.01087,0.679976,0.08547958,0.3565235,-0.02649096,5.85999986901879,8
-27.86113,0.2833333,-24.30228,-0.2025594359539937,-0.2632683562832264,-0.229490065972385,3.367219,40.99583,0.1474131,0.02797034,0.3499864,-0.009083737,5.87999986857176,8
-27.8244,0.4833333,-24.25636,-0.216521769798998,-0.0764881437337617,-0.2408446310205256,6.733843,40.6785,0.2763642,0.05590495,0.3468443,-0.01815576,5.89999986812472,8
-27.78768,0.6833333,-24.21045,-0.2264779932173084,0.1155193873192985,-0.247699730099324,10.10017,40.36642,0.387477,0.08378283,0.3434025,-0.02720961,5.91999986767769,8
-27.6227,0.2833336,-24.02615,-0.0847339167768375,-0.3798317283083814,-0.0920906737047246,3.315907,39.29166,0.0333822,0.0273464,0.3360563,-0.009453081,5.93999986723065,8
-27.58639,0.4833338,-23.98112,-0.0898181943196085,-0.177370880340745,-0.0962988359246033,6.630973,38.96523,0.04788793,0.0546616,0.3329397,-0.01889548,5.95999986678362,8
-27.55008,0.6833338,-23.93609,-0.0961757910593057,0.0303171901269223,-0.1026834826716012,9.944772,38.63719,0.04324843,0.0819196,0.3295448,-0.02831926,5.97999986633658,8
-27.43719,0.2833333,-23.81189,-0.0150155853225619,-0.4493531773524403,-0.0194232642156393,3.269063,38.00785,359.939,0.02679611,0.3255147,-0.00979158,5.99999986588955,8
-27.4011,0.4833333,-23.76771,-0.0178068324453981,-0.2312112268421914,-0.0240265656233553,6.536755,37.67429,359.8588,0.05356225,0.3224204,-0.01957233,6.01999986544251,8
-27.36502,0.6833331,-23.72355,-0.0157417190270656,-0.0078420591460824,-0.0239574988092989,9.802693,37.33365,359.7586,0.08027388,0.319064,-0.02933476,6.03999986499548,8
-27.20697,0.2833333,-23.54723,0.1297362602632894,-0.4718293605397943,0.1283228647147218,3.225602,35.64395,359.8437,0.02637694,0.3059755,-0.009912324,6.05999986454844,8
-27.17184,0.4833333,-23.50318,0.1362900022244417,-0.2380056480940009,0.1305257023083861,6.449293,35.3034,359.6679,0.05272502,0.3029038,-0.01981388,6.07999986410141,8
-27.13672,0.6833335,-23.45915,0.1419871606232554,0.0010447799146502,0.1313429697087969,9.670886,34.95044,359.4715,0.07902287,0.2995922,-0.02969644,6.09999986365438,8
-26.96649,0.2833332,-23.26722,0.2992418767332623,-0.4472625498096957,0.2960067655609499,3.282291,34.21504,359.7849,0.02682025,0.2940959,-0.01021821,6.11999986320734,8
-26.93105,0.4833332,-23.22206,0.2939555473974593,-0.1977580658680766,0.2833456546723987,6.562292,33.87009,359.5497,0.05361022,0.2910228,-0.02042525,6.13999986276031,8
-26.89561,0.6833332,-23.17692,0.2786597222458873,0.0569733977768899,0.259979370568093,9.839851,33.50897,359.2925,0.08034796,0.2877106,-0.03061245,6.15999986231327,8
-26.8602,0.8833333,-23.13179,0.2621908153797108,0.2646612141225893,0.2356301388579069,13.1153,33.12891,359.0115,0.1070161,0.2841623,-0.04077145,6.17999986186624,8
-26.70997,0.2833333,-22.96708,0.2715689352779158,0.2395714830196993,0.2393931999603111,3.533579,35.68337,359.8025,0.02882065,0.3062924,-0.01108657,6.1999998614192,8
-26.67103,0.4833333,-22.91908,0.2722809472233862,0.2484578475509968,0.2353585672393201,7.064979,35.33966,359.5833,0.05760565,0.3031661,-0.02215985,6.21999986097217,8
-26.5366,0.2833333,-22.76928,0.3738166297112038,-0.1888718614588816,0.341938618708351,3.559778,37.02818,359.8403,0.0290101,0.3174254,-0.01118354,6.23999986052513,8
-26.49683,0.4833334,-22.72149,0.3195477988115875,0.0726551846280626,0.2805523951331636,7.117754,36.68847,359.6589,0.05798442,0.3142924,-0.02235631,6.2599998600781,8
-26.45707,0.6833334,-22.67371,0.2556003185131317,0.3404550194531415,0.2095626610683538,10.67356,36.3343,359.4543,0.08689389,0.310856,-0.03350455,6.27999985963106,8
-26.41731,0.8833334,-22.62594,0.1912554949524221,0.5622568585922838,0.1388671753267836,14.227,35.96251,359.2242,0.1157104,0.30712,-0.04461716,6.29999985918403,8
-26.27592,0.2833333,-22.47035,0.245931208488809,-0.1679625230645965,0.1925183251916422,3.594767,38.47473,359.9675,0.02952036,0.3293287,-0.01060184,6.31999985873699,8
-26.23631,0.4833331,-22.4217,0.1825290755021171,0.0141135663842466,0.1232231760724325,7.188595,38.14823,359.9148,0.05900659,0.3261922,-0.0211886,6.33999985828996,8
-26.19672,0.6833332,-22.37307,0.1203045194967877,0.2024621014150972,0.0558382017634464,10.78098,37.81544,359.8407,0.08842537,0.3227351,-0.0317513,6.35999985784292,8
-26.04281,0.2833333,-22.20206,0.1921773121552412,-0.2955019632819052,0.1315256029937792,3.555906,39.55456,0.07161967,0.02940745,0.3381836,-0.009910304,6.37999985739589,8
-26.00414,0.4833336,-22.15354,0.1298682695249908,-0.0946088156890492,0.0651835654530685,7.110809,39.23885,0.123973,0.05877593,0.3350613,-0.01980529,6.39999985694885,8
-25.96547,0.6833338,-22.10503,0.0669323636677354,0.1125570309108399,-0.0010414644718217,10.66494,38.92369,0.1569278,0.08807909,0.3316169,-0.0296783,6.41999985650182,8
-25.79694,0.2833333,-21.91738,0.1505762305032689,-0.3665892825347159,0.0901839400585622,3.625087,40.5121,0.09382379,0.02995675,0.3460185,-0.01018292,6.43999985605478,8
-25.75694,0.4833333,-21.86834,0.0822222212652512,-0.1468787827760315,0.0170440571097181,7.249603,40.19951,0.1679876,0.05987471,0.3428808,-0.02035282,6.45999985560775,8
-25.71696,0.6833336,-21.8193,0.0088987031787937,0.0791038835270678,-0.0614172112873063,10.874,39.88879,0.2224326,0.08972739,0.3393999,-0.03050387,6.47999985516071,8
-25.60217,0.2833333,-21.69311,-0.0597016832748167,0.2590881694330141,-0.1347860392250055,3.642729,40.74022,0.09380969,0.03008063,0.3478827,-0.01029622,6.49999985471368,8
-25.56178,0.4833331,-21.644,-0.0947423497591515,0.2073402414374311,-0.1709532056561329,7.284894,40.42862,0.1679208,0.06012211,0.3447469,-0.02057927,6.51999985426664,8
-25.52141,0.683333,-21.59489,-0.1302541306688773,0.1906135825009984,-0.2054828665771744,10.92633,40.11894,0.222622,0.09009349,0.3412629,-0.03083848,6.53999985381961,8
-25.35942,0.2833335,-21.41628,-0.1562163355799555,0.1555923697198036,-0.2276308288099997,3.6048,42.11474,0.1499735,0.02982225,0.359086,-0.01008024,6.55999985337257,8
-25.31904,0.4833335,-21.36799,-0.1846844427066578,0.1289343549899628,-0.2526456475095955,7.209327,41.80938,0.280969,0.05960621,0.3559635,-0.0201475,6.57999985292554,8
-25.27868,0.6833332,-21.31971,-0.2152822260871403,0.1372976098419768,-0.2780460485989664,10.81347,41.50966,0.3936639,0.08932204,0.3524885,-0.03019228,6.5999998524785,8
-25.10368,0.2833331,-21.1255,-0.237770687364339,0.1273659378988888,-0.2930960715109769,3.544331,43.57878,0.2314366,0.029465,0.3709596,-0.00960481,6.61999985203147,8
-25.06385,0.4833331,-21.07803,-0.2611387835142196,0.1257979965568948,-0.3119489682574503,7.088759,43.28182,0.4448589,0.05889255,0.367857,-0.01919735,6.63999985158443,8
-25.02403,0.683333,-21.03058,-0.2874246127952098,0.1592511113586934,-0.3348966436992313,10.63318,42.99571,0.641605,0.08825442,0.3644014,-0.02876874,6.6599998511374,8
-24.98422,0.8833327,-20.98313,-0.3070421579264888,0.1744095661194091,-0.3518965060535315,14.17716,42.71852,0.8227067,0.1175196,0.3605964,-0.03830907,6.67999985069036,8
-24.83711,0.2833333,-20.82129,-0.2291784289806422,-0.5223567895955988,-0.2701500774385508,3.48266,43.75213,0.2709729,0.02907973,0.3723604,-0.009128872,6.69999985024333,8
-24.79839,0.4833333,-20.77424,-0.2720453551415502,-0.3068279959300907,-0.3159335954902147,6.965658,43.45976,0.5245765,0.05812364,0.3692853,-0.01824647,6.7199998497963,8
-24.66572,0.2833333,-20.6256,-0.3080057305834636,-0.0850267198318399,-0.3552283177332782,3.432793,43.6043,0.2818276,0.0287228,0.3711665,-0.008841862,6.73999984934926,8
-24.62785,0.4833333,-20.57894,-0.3123960295188261,-0.069345504471966,-0.3612400402743141,6.865643,43.31324,0.5467754,0.05740862,0.3681113,-0.01767066,6.75999984890223,8
-24.58999,0.6833335,-20.5323,-0.3217604283988358,-0.0196882313740477,-0.3720244469252733,10.29875,43.03597,0.7963538,0.08603379,0.3647239,-0.02648087,6.77999984845519,8
-24.55215,0.8833336,-20.48566,-0.3271909198988147,0.0106287840823553,-0.377966876146619,13.73203,42.77083,1.031958,0.1145726,0.3610076,-0.03526492,6.79999984800816,8
-24.41113,0.2833333,-20.33203,-0.176293878934409,-0.6720247947947772,-0.2126452990398277,3.391732,42.05839,0.1811928,0.02819021,0.3586423,-0.009144401,6.81999984756112,8
-24.37371,0.4833335,-20.28608,-0.1438899042821617,-0.4434283022354874,-0.1708822658149422,6.783038,41.75933,0.3448602,0.05634419,0.3556142,-0.01827749,6.83999984711409,8
-24.3363,0.6833335,-20.24014,-0.1121560815804443,-0.2096042979458141,-0.1289125112948355,10.17419,41.46775,0.4919676,0.0844404,0.3522741,-0.027392,6.85999984666705,8
-24.18322,0.2833332,-20.07133,-0.0718650827425868,-0.0228240055095343,-0.0770714381457757,3.340628,40.51826,0.09926859,0.02764495,0.3460956,-0.009280749,6.87999984622002,8
-24.14655,0.4833332,-20.02599,-0.0339159263020469,-0.0688220951082208,-0.0311515810882774,6.68036,40.21275,0.1809078,0.055255,0.3430934,-0.01854911,6.89999984577298,8
-24.10989,0.6833334,-19.98067,0.0028955878536081,-0.0808446835630509,0.0126164979865386,10.0195,39.90975,0.245144,0.08280949,0.3397998,-0.02779912,6.91999984532595,8
-23.94433,0.2833335,-19.79748,0.0477941829955064,-0.1122074352239484,0.0638396461717292,3.290701,38.8113,359.9708,0.026997,0.3321241,-0.009780288,6.93999984487891,8
-23.90783,0.4833335,-19.75317,0.0853176829614845,-0.1362519066554821,0.1042757306200705,6.580241,38.49552,359.9234,0.05396368,0.3291465,-0.01954976,6.95999984443188,8
-23.87133,0.6833335,-19.70887,0.1149561798697149,-0.1263205327416195,0.1352459242126933,9.868155,38.17462,359.8569,0.080874,0.3258981,-0.02930132,6.97999984398484,8
-23.83485,0.8833333,-19.66458,0.1456528068513485,-0.1357298428226924,0.1661768626257433,13.15473,37.84636,359.7709,0.1077097,0.3223817,-0.03902565,6.99999984353781,8
-23.69431,0.2833333,-19.51091,0.2411621484689519,-0.1378208337328449,0.269092487511358,3.240325,36.71481,359.8801,0.02650526,0.3148456,-0.009896918,7.01999984309077,8
-23.65873,0.4833333,-19.46694,0.3274180789978942,-0.1059356207216594,0.36058945494851,6.47899,36.39264,359.7419,0.05298144,0.311895,-0.01978274,7.03999984264374,8
-23.62315,0.6833332,-19.42298,0.4136349634294447,-0.0933903719399991,0.4505491020874572,9.715878,36.06026,359.5841,0.07940711,0.3086955,-0.02964998,7.0599998421967,8
-23.47104,0.2833333,-19.2547,0.3629951806658305,0.5667863667090244,0.3933986395801945,3.194738,34.30501,359.7844,0.02608109,0.2948511,-0.01001846,7.07999984174967,8
-23.43641,0.4833333,-19.21087,0.4288955930803624,0.3303488760959413,0.4583914001096367,6.387276,33.97591,359.5501,0.05213404,0.2919239,-0.02002586,7.09999984130263,8
-23.40178,0.6833333,-19.16705,0.4904986435893477,0.1033204218405048,0.5186839322167582,9.577449,33.63134,359.2955,0.07813829,0.2887696,-0.03001457,7.1199998408556,8
-23.23317,0.2833334,-18.98017,0.3953723056811569,0.5516275524140754,0.4090990474645934,3.530549,35.70293,359.7893,0.02875853,0.3064583,-0.01119227,7.13999984040856,8
-23.19406,0.4833332,-18.93235,0.425561716714018,0.3434167727466196,0.4341398446252338,7.058972,35.37295,359.5579,0.05748211,0.303456,-0.02237142,7.15999983996153,8
-23.15496,0.6833332,-18.88454,0.4438689525256372,0.1446150459020335,0.4475210519702735,10.58622,35.02557,359.3032,0.08615145,0.3001648,-0.03353344,7.17999983951449,8
-23.03981,0.2833333,-18.7592,0.459626413710307,-0.0991391922809074,0.459343377417083,3.560425,36.98952,359.8267,0.02898147,0.317109,-0.01128838,7.19999983906746,8
-22.99988,0.4833332,-18.7115,0.4973279471538987,-0.1221382395631005,0.4973053749882705,7.119048,36.66375,359.6324,0.05792742,0.3141012,-0.02256606,7.21999983862042,8
-22.95996,0.6833332,-18.66382,0.5197838787283118,-0.1111610975597113,0.5190801168152621,10.67545,36.32284,359.4158,0.08680847,0.3107902,-0.03381855,7.23999983817339,8
-22.79784,0.2833333,-18.48541,0.4238810357331495,0.3606679957031456,0.4131218321951149,3.584861,38.57637,359.9274,0.0293138,0.3301768,-0.01092975,7.25999983772635,8
-22.75772,0.4833336,-18.4374,0.3201058130171361,0.8152478934968101,0.298167838986755,7.168406,38.26094,359.8349,0.05859171,0.3271641,-0.02184583,7.27999983727932,8
-22.7176,0.6833335,-18.38941,0.3892768108792417,0.3476003286072796,0.1811157932046647,10.75039,37.93681,359.7215,0.08780374,0.3238317,-0.03273761,7.29999983683228,8
-22.54302,0.2833332,-18.19451,0.4489651564641228,-0.1372964178997472,0.0737938397497632,3.574358,39.68975,0.05732448,0.02950479,0.3392949,-0.01011692,7.31999983638525,8
-22.50384,0.4833333,-18.14598,0.3854300472099403,0.2655354687010507,-0.1421700552421327,7.147852,39.38754,0.09632821,0.05897282,0.3362881,-0.02021698,7.33999983593822,8
-22.46467,0.6833335,-18.09746,0.5021802828629944,0.0108033130811814,-0.2796569222676819,10.72048,39.08514,0.1165499,0.08837468,0.3329547,-0.03029449,7.35999983549118,8
-22.42551,0.8833334,-18.04895,0.6038426168821616,-0.2355653507268712,-0.4007085098113254,14.29216,38.78014,0.1176267,0.1176817,0.3292982,-0.04033959,7.37999983504415,8
-22.2766,0.2833333,-17.88662,0.5620892275728728,0.192356238663607,-0.642744891853285,3.596795,40.48228,0.08285526,0.02969478,0.3457802,-0.01017951,7.39999983459711,8
-22.23682,0.4833333,-17.83805,0.669333637673617,-0.0372857206455183,-0.7295574514199519,7.192935,40.18369,0.147046,0.0593514,0.3427736,-0.02034627,7.41999983415008,8
-22.19705,0.6833335,-17.7895,0.7587674257025192,-0.2585646001218411,-0.8042047559150571,10.78856,39.88649,0.1926209,0.08894199,0.3394296,-0.03049225,7.43999983370304,8
-22.03435,0.2833334,-17.61054,0.6864442700252376,0.1944463344406692,-1.021862416947581,3.642622,41.11438,0.1030414,0.03007425,0.3509379,-0.01031866,7.45999983325601,8
-21.99377,0.4833334,-17.56157,0.6002650813685264,0.6302078862312015,-1.224610697682298,7.284697,40.8187,0.1874372,0.06010936,0.3479227,-0.02062391,7.47999983280897,8
-21.9532,0.6833332,-17.51262,0.6379860943019899,0.1437430110793931,-1.2919659213392265,10.92615,40.52576,0.2535595,0.09007497,0.3445564,-0.03090544,7.49999983236194,8
-21.77711,0.2833333,-17.31825,0.6659681724742796,-0.3599709164945464,-1.3384558670998885,3.604874,42.39823,0.1512898,0.02980196,0.3613923,-0.01014351,7.5199998319149,8
-21.73652,0.4833334,-17.27013,0.5702382055963611,0.0240431589179163,-1.4851388392728602,7.209405,42.10799,0.2845465,0.05956533,0.3583901,-0.02027392,7.53999983146787,8
-21.69594,0.6833334,-17.22203,0.6098277424270329,-0.2495061995482608,-1.4755192468786014,10.81351,41.82366,0.400515,0.08926056,0.3550331,-0.03038146,7.55999983102083,8
-21.65538,0.8833334,-17.17394,0.64252418820411,-0.5146920175910097,-1.443688558144478,14.41689,41.54306,0.4993848,0.1188557,0.3513248,-0.04045744,7.5799998305738,8
-21.50702,0.2833333,-17.01261,0.5396713925139629,-0.1055878934449754,-1.528747327661069,3.544093,43.80151,0.2309547,0.02944278,0.3727631,-0.009665188,7.59999983012676,8
-21.46701,0.4833333,-16.9653,0.437400498670236,0.2862667508801015,-1.5883882203025834,7.088258,43.51975,0.4448245,0.0588484,0.3697828,-0.01931825,7.61999982967973,8
-21.42701,0.6833333,-16.918,0.5245830204451885,-0.2441050076927077,-1.4275005531893843,10.63236,43.249,0.6429917,0.08818839,0.3664478,-0.0289499,7.63999982923269,8
-21.26593,0.2833334,-16.74088,0.4550976326761144,-0.0714380384957418,-1.4130422328511347,3.48268,44.13425,0.2740288,0.0290593,0.3754507,-0.009201157,7.65999982878566,8
-21.22693,0.4833336,-16.69405,0.3771351733817774,0.1116833852842241,-1.3878730330957634,6.965635,43.85703,0.5316018,0.05808268,0.3724944,-0.01839102,7.67999982833862,8
-21.18795,0.6833334,-16.64722,0.300722021764038,0.2529882791140353,-1.3432524127141043,10.44839,43.59346,0.7746326,0.0870411,0.3691925,-0.02755805,7.69999982789159,8
-21.01407,0.2833333,-16.45522,0.2518640112158152,0.1667420790084468,-1.2469627938186587,3.427043,44.37209,0.2775886,0.02860251,0.3773783,-0.009049404,7.71999982744455,8
-20.9756,0.4833336,-16.4092,0.2005093503383896,0.1196991222030816,-1.137667348499825,6.853989,44.09574,0.5389435,0.05716695,0.3744451,-0.01808737,7.73999982699752,8
-20.93715,0.6833336,-16.36318,0.1567126531398273,0.0585431076927773,-1.006542155316648,10.28118,43.83305,0.7858213,0.08567177,0.3711753,-0.02710652,7.75999982655048,8
-20.8987,0.8833337,-16.31718,0.1041959396329978,0.0099317889417637,-0.8682649837804419,13.70843,43.58248,1.019634,0.1140906,0.3675721,-0.03609862,7.77999982610345,8
-20.69956,0.2833332,-16.27404,0.0465865243138203,0.0005230117589024,-0.7234427297699746,3.378905,44.06042,0.1910383,0.02795464,0.3748863,-0.009513907,7.79999982565641,8
-20.66084,0.4833334,-16.22946,-0.0059851429597799,-0.0229988471733499,-0.5635241847032262,6.757359,43.77722,0.3650751,0.05587167,0.3719792,-0.01901995,7.81999982520938,8
-20.62213,0.6833336,-16.1849,-0.0684592733956748,-0.0339754367641935,-0.4085037120729904,10.13565,43.50224,0.5236492,0.0837316,0.3687482,-0.02850667,7.83999982476234,8
-20.41167,0.2833333,-16.08169,-0.1397330368924159,-0.0057493247518998,-0.2603310642039957,3.32777,43.54259,0.09346048,0.02726746,0.3707241,-0.01001249,7.85999982431531,8
-20.37274,0.4833335,-16.03859,-0.2095449936055153,0.0083635192536282,-0.1105497815893787,6.654598,43.25153,0.1695921,0.05449878,0.3678412,-0.0200166,7.87999982386827,8
-20.33382,0.6833334,-15.9955,-0.2676256540265385,-0.0449525285878592,0.0492834666590642,9.980848,42.96278,0.2291986,0.08167619,0.3646482,-0.03000117,7.89999982342124,8
-20.14672,0.2833333,-15.82598,-0.3264593674828973,-0.1123814991891654,0.2064941971051013,3.278363,42.36032,359.9628,0.02655558,0.3611625,-0.01063787,7.91999982297421,8
-20.10758,0.4833333,-15.78427,-0.3810797787824,-0.1406075429883974,0.3621504102434283,6.555518,42.05885,359.9082,0.05308128,0.358303,-0.02126419,7.93999982252717,8
-20.06846,0.6833332,-15.74256,-0.4214382676061348,-0.1829469630815448,0.5245256796545164,9.831035,41.75196,359.8352,0.07955108,0.3551504,-0.03187291,7.95999982208014,8
-20.02935,0.8833331,-15.70087,-0.4632653583844082,-0.2127410092050734,0.6751217206833537,13.10518,41.4375,359.7434,0.1059479,0.351708,-0.04245229,7.9799998216331,8
-19.87071,0.2833333,-15.5554,-0.5033143707324825,-0.2033321695589125,0.814151013096982,3.228163,39.74605,359.847,0.02603612,0.339837,-0.01083044,7.99999982118607,8
-19.83254,0.4833333,-15.5139,-0.5316838346284278,-0.2080360530861974,0.9498689403258708,6.454518,39.43604,359.6763,0.05204372,0.3370046,-0.02164898,8.01999982073903,8
-19.79439,0.6833332,-15.47241,-0.5652067561338008,-0.2001952398087813,1.0629588352097503,9.678962,39.11411,359.4866,0.07800221,0.3339048,-0.03244692,8.039999820292,8
-19.62837,0.2833332,-15.30938,-0.6028228795062738,-0.1531514303837048,1.1515399599673106,3.281912,37.65951,359.7756,0.02647191,0.3226774,-0.01109482,8.05999981984496,8
-19.59017,0.4833333,-15.26652,-0.634604181286754,-0.1202208196198055,1.2240485366925995,6.561603,37.34396,359.5329,0.05291406,0.3198434,-0.0221771,8.07999981939793,8
-19.55198,0.6833333,-15.22367,-0.6505853429822661,-0.1547193494235986,1.288885191238318,9.838962,37.01201,359.27,0.07930496,0.3167465,-0.03323774,8.09999981895089,8
-19.51381,0.8833331,-15.18084,-0.6636431350395551,-0.2033311430525174,1.3326098596252258,13.11436,36.66114,358.9849,0.1056283,0.3133897,-0.04426666,8.11999981850386,8
-19.30878,0.2833333,-14.96411,-0.6692066812128008,-0.2127399913233215,1.356597605666975,3.524566,38.7284,359.8037,0.02844527,0.3314641,-0.0118123,8.13999981805682,8
-19.26748,0.4833333,-14.91835,-0.6571706563529673,-0.2362619577586622,1.369376290435499,7.047086,38.41494,359.5877,0.05685571,0.3285745,-0.02361021,8.15999981760979,8
-19.2262,0.6833334,-14.87261,-0.6413162768653269,-0.2472388518254323,1.3546980504892918,10.56928,38.08524,359.3499,0.08521879,0.3253733,-0.03539035,8.17999981716275,8
-19.18493,0.8833333,-14.82689,-0.6189849060006356,-0.2190128559408669,1.3123931633674903,14.08904,37.73634,359.088,0.1134925,0.3218639,-0.04713359,8.19999981671572,8
-19.04315,0.2833334,-14.67196,-0.5798179852410446,-0.2048998201895553,1.2510273165933068,3.563682,39.62016,359.8696,0.02886841,0.3387727,-0.01160786,8.21999981626868,8
-19.00163,0.4833336,-14.62561,-0.5389194458543791,-0.1782418464920929,1.1522505431843513,7.125906,39.31384,359.72,0.05770307,0.3358791,-0.02320137,8.23999981582165,8
-18.96011,0.6833336,-14.57928,-0.4954795299751371,-0.112381196804059,1.0139899414109728,10.68628,38.99537,359.5497,0.08647364,0.3326609,-0.03476882,8.25999981537461,8
-18.8058,0.2833335,-14.40791,-0.4390224449641575,-0.0606335216236819,0.8449863138350722,3.589461,40.64511,0.03526012,0.02947612,0.3471254,-0.01058877,8.27999981492758,8
-18.76536,0.4833335,-14.36008,-0.3591183788384651,-0.0763153380077098,0.6539932518787328,7.178272,40.35529,0.05321165,0.05891914,0.3442281,-0.02115817,8.29999981448054,8
-18.72492,0.6833334,-14.31226,-0.3288457356737861,-0.1061095184665422,0.5684443850170364,10.7661,40.06402,0.05289124,0.08829561,0.3409936,-0.03170373,8.31999981403351,8
-18.55672,0.2833334,-14.12592,-0.2908753661036627,-0.0967009999357625,0.466150692503728,3.568506,41.16826,0.06815989,0.02935725,0.3513945,-0.01039032,8.33999981358647,8
-18.51651,0.4833333,-14.07837,-0.2349912272522125,-0.1014055524389112,0.3567055966133257,7.13615,40.88233,0.1185748,0.05867624,0.3485078,-0.02076734,8.35999981313944,8
-18.47631,0.6833333,-14.03083,-0.2331603120124139,-0.0935650783102191,0.3104042778274731,10.70299,40.59707,0.1513822,0.08792965,0.3452838,-0.03112122,8.3799998126924,8
-18.43612,0.8833333,-13.98331,-0.2321258169371312,-0.0465218128472831,0.2529814857787631,14.2689,40.31025,0.1663278,0.1170888,0.3417257,-0.041442,8.39999981224537,8
-18.2938,0.2833333,-13.82755,-0.222006997275761,-0.0135913926966405,0.1947092973678366,3.646776,41.5321,0.09521712,0.03004613,0.3543487,-0.01050488,8.41999981179833,8
-18.25272,0.4833333,-13.77891,-0.2342187382857545,0.0318837339287595,0.142258444748105,7.292943,41.25001,0.1726169,0.06005307,0.351447,-0.02099611,8.4399998113513,8
-18.21165,0.6833332,-13.73028,-0.2557119248202095,0.1165617980716884,0.0755218865543891,10.93841,40.97032,0.2325375,0.08999032,0.3481897,-0.03146304,8.45999981090426,8
-18.05646,0.2833335,-13.56003,-0.2766369479499335,0.1871269629765489,0.0050779179654902,3.619171,42.31641,0.1207301,0.02982929,0.3607332,-0.01041583,8.47999981045723,8
-18.01538,0.4833335,-13.51203,-0.287158729957401,0.1902632856914115,-0.0584591078753842,7.237837,42.03759,0.2240225,0.05961992,0.3578431,-0.02081824,8.49999981001019,8
-17.97432,0.6833336,-13.46404,-0.2409070594779478,0.1792865896428909,-0.0326215246563386,10.8559,41.76286,0.3104157,0.08934187,0.3545962,-0.03119686,8.51999980956316,8
-17.80588,0.2833335,-13.27829,-0.2017967302954986,0.2075126982575988,-0.0154366071480325,3.560148,44.03393,0.2156673,0.02950296,0.3746454,-0.009901011,8.53999980911613,8
-17.76529,0.4833337,-13.23113,-0.1596413020864826,0.2216258953506596,0.0040808311770401,7.120226,43.76474,0.4149199,0.0589683,0.371772,-0.01978957,8.55999980866909,8
-17.72472,0.6833336,-13.18397,-0.2577924493378773,0.8885981269719087,-0.1090060929975571,10.68017,43.50579,0.5990535,0.08836778,0.368539,-0.02965627,8.57999980822206,8
-17.68415,0.8833335,-13.13683,-0.2279145620436313,0.6641833543574907,-0.0885720122535698,14.2395,43.25531,0.7690201,0.1176695,0.3649499,-0.03949089,8.59999980777502,8
-17.5437,0.2833332,-12.98278,-0.1938748677915445,0.4544043506515051,-0.064171869032318,3.497868,44.35118,0.2617837,0.0291242,0.3772049,-0.009405072,8.61999980732799,8
-17.50419,0.4833332,-12.93605,-0.1460628953973977,0.2048999887616074,-0.0253663032646862,6.995891,44.0871,0.5078506,0.0582123,0.3743578,-0.01879835,8.63999980688095,8
-17.4647,0.6833331,-12.88933,-0.144079611517844,0.1813786352855303,-0.0313636165586714,10.49355,43.83612,0.7400014,0.08723441,0.3711606,-0.02816829,8.65999980643392,8
-17.3114,0.2833333,-12.71979,-0.1507365094003958,0.1970600757572203,-0.046363346494255,3.439812,44.11839,0.2821141,0.02874052,0.3753255,-0.00899131,8.67999980598688,8
-17.27304,0.4833335,-12.67337,-0.1571714926825222,0.1986283544184663,-0.060445449582227,6.879467,43.85669,0.549183,0.05744369,0.372503,-0.01796826,8.69999980553985,8
-17.2347,0.6833334,-12.62697,-0.0108617757624269,-0.507546545788359,0.0934777597595299,10.31932,43.60917,0.802667,0.0860865,0.3693431,-0.02692642,8.71999980509281,8
-17.06847,0.2833333,-12.44251,0.0149870891826164,-0.2972447583970581,0.1192892077058971,3.394053,42.55405,0.1816863,0.02817082,0.3626742,-0.009269588,8.73999980464578,8
-17.03065,0.4833334,-12.39684,0.0363964773209879,-0.0764892976931795,0.142772333902565,6.787559,42.28391,0.3475463,0.0563051,0.3598782,-0.01852762,8.75999980419874,8
-16.99283,0.6833335,-12.35118,0.0623606162421577,0.1024497413476919,0.1738728118296268,10.18082,42.02162,0.4985959,0.08438147,0.3567662,-0.02776671,8.77999980375171,8
-16.95503,0.8833332,-12.30554,0.0817960856403257,0.0538380178484221,0.1936961809449631,13.5738,41.76553,0.6355509,0.1123755,0.3533413,-0.03697878,8.79999980330467,8
-16.81474,0.2833333,-12.15191,0.0951076337719314,0.0444293067006817,0.2071393201744573,3.341138,40.7981,0.09630398,0.02761736,0.3483853,-0.009374022,8.81999980285764,8
-16.77782,0.4833333,-12.10677,0.1114621726846731,0.0209076505781474,0.2239537484130931,6.681328,40.5214,0.1767394,0.05520017,0.3456191,-0.01873486,8.8399998024106,8
-16.74091,0.6833335,-12.06165,0.1182434570416486,0.0099311338175965,0.2271478838321456,10.02089,40.24736,0.2414691,0.08272761,0.3425596,-0.02807714,8.85999980196357,8
-16.5878,0.2833333,-11.89368,0.1145508043636738,0.0381576150341748,0.2183390921006012,3.290892,39.13457,359.9714,0.02697257,0.3347823,-0.009852192,8.87999980151653,8
-16.55106,0.4833334,-11.84956,0.1093805679091417,0.0522710322733499,0.2071827456723056,6.580609,38.84781,359.9262,0.05391458,0.3320412,-0.01969329,8.8999998010695,8
-16.51434,0.6833335,-11.80545,0.2562000620347824,-0.6413590706822084,0.3587663968395169,9.868753,38.55629,359.8638,0.08080051,0.329027,-0.02951607,8.91999980062246,8
-16.34963,0.2833332,-11.6225,0.2799501164832652,-0.4185121475878592,0.3783762355500322,3.240766,37.08371,359.8817,0.0264812,0.3178976,-0.009970599,8.93999980017543,8
-16.31379,0.4833332,-11.57873,0.2977063162054509,-0.1852111049647125,0.3900998079978297,6.479911,36.79023,359.7466,0.05293298,0.3151816,-0.01993028,8.95999979972839,8
-16.27796,0.6833332,-11.53497,0.3184908883797508,0.0062733117047152,0.403722362389642,9.717368,36.48695,359.5937,0.07933448,0.3122139,-0.02987065,8.97999979928136,8
-16.24213,0.8833332,-11.49122,0.3293713160224758,-0.0297933564139122,0.4035057715442782,12.95271,36.17168,359.4218,0.1056624,0.3089975,-0.03978156,8.99999979883432,8
-16.03758,0.2833334,-11.2634,0.3314558218131296,-0.0266571337971441,0.3932631900414165,3.267815,34.63502,359.7763,0.02663985,0.2975982,-0.01035011,9.01999979838729,8
-16.00185,0.4833333,-11.21879,0.3337750049289916,-0.0376339911002979,0.3829329299256727,6.53351,34.3335,359.5351,0.05325019,0.2948925,-0.02068883,9.03999979794025,8
-15.96613,0.6833333,-11.17418,0.321475858855468,-0.0360658445092948,0.3552450573891157,9.796912,34.01587,359.2746,0.07980902,0.2919469,-0.03100759,9.05999979749322,8
-15.93042,0.8833332,-11.12959,0.2940934632266287,0.0047049367785481,0.3119905111584344,13.05822,33.67969,358.9929,0.1062982,0.2887639,-0.04129699,9.07999979704618,8
-15.77997,0.2833333,-10.96535,0.2607937805088127,0.0313626216812467,0.2632506329139108,3.52958,36.13783,359.8014,0.02874031,0.3100638,-0.01119909,9.09999979659915,8
-15.7407,0.4833333,-10.91772,0.2307182147236854,-0.0094088277112835,0.2191320083958619,7.057153,35.83797,359.5839,0.05744537,0.3072992,-0.02238458,9.11999979615211,8
-15.70144,0.6833333,-10.87012,0.2653667998470865,-0.0642926435307912,0.2476973779398559,10.5845,35.52182,359.3451,0.08610235,0.3042424,-0.03355512,9.13999979570508,8
-15.53933,0.2833335,-10.6922,0.2869973620864652,-0.0799736554711249,0.2640465669622909,3.563071,37.93068,359.8666,0.02902282,0.324873,-0.01120412,9.15999979525805,8
-15.49916,0.4833334,-10.64469,0.3053875338300642,-0.1097675791944605,0.2787252729874794,7.124666,37.63754,359.7144,0.05801018,0.3220981,-0.02239793,9.17999979481101,8
-15.45899,0.6833334,-10.59719,0.193673573935456,0.5132973984947349,0.1548262736199186,10.68441,37.3322,359.5421,0.08693285,0.3190122,-0.03356678,9.19999979436398,8
-15.28419,0.2833333,-10.40244,0.193410687939231,0.2449751054555988,0.1471689418918638,3.592773,39.34771,0.008545567,0.02954288,0.336498,-0.01048352,9.21999979391694,8
-15.24445,0.4833332,-10.35395,0.1905997696676564,-0.008711339398108,0.1377239819049034,7.184783,39.06879,1.785601e-05,0.0590515,0.3337156,-0.02095097,9.23999979346991,8
-15.20471,0.683333,-10.30548,0.0416381850337899,0.4181648247976199,-0.0286452502582417,10.77568,38.78683,359.9736,0.08849337,0.3306061,-0.03139481,9.25999979302287,8
-15.16499,0.883333,-10.25703,0.0162242720084666,0.1937499818793168,-0.0631931091696333,14.36537,38.49949,359.9287,0.1178393,0.3271726,-0.04180471,9.27999979257584,8
-15.01722,0.2833332,-10.09496,-0.0152948407164643,-0.0160292534723002,-0.1029131272204084,3.561818,40.16985,0.07294936,0.02940622,0.343228,-0.01007488,9.2999997921288,8
-14.97799,0.4833333,-10.04675,-0.0428852469806546,-0.2655337821052374,-0.1370813834925046,7.122681,39.89808,0.1291979,0.05877374,0.3404593,-0.02013559,9.31999979168177,8
-14.93877,0.6833333,-9.998545,-0.0418197728955505,-0.289055437530834,-0.1379782545776606,10.68277,39.62749,0.1688208,0.08807591,0.3373623,-0.030174,9.33999979123473,8
-14.77625,0.2833335,-9.819576,-0.0466131300061629,-0.2733741946418053,-0.1449372056472624,3.635848,41.0617,0.1001796,0.03001491,0.350509,-0.01030748,9.3599997907877,8
-14.73576,0.4833335,-9.770682,-0.0469668273632351,-0.2718062492924033,-0.1468839123416048,7.271099,40.79344,0.1834785,0.0599909,0.3477214,-0.02060169,9.37999979034066,8
-14.69529,0.6833335,-9.721805,-0.1720756110799293,0.3826209037749272,-0.2802534084709851,10.90633,40.52806,0.250051,0.0899023,0.3445839,-0.03087618,9.39999978989363,8
-14.51947,0.2833332,-9.52732,-0.1772800324711632,0.1456610123582702,-0.2861284705423292,3.628722,41.7144,0.1140081,0.02994058,0.355832,-0.01034343,9.41999978944659,8
-14.47871,0.4833333,-9.478834,-0.1778083918556081,-0.0766633771653189,-0.2844345023890477,7.25685,41.44829,0.2113256,0.05984192,0.3530499,-0.02067341,9.43999978899956,8
-14.43795,0.6833333,-9.430362,-0.3169426957949,0.3815751758466011,-0.4307060748787377,10.88435,41.18601,0.2924522,0.08967428,0.3499142,-0.03097981,9.45999978855252,8
-14.39721,0.883333,-9.381902,-0.3229372735970699,0.1885227361188938,-0.4337160550682659,14.51118,40.92549,0.3573835,0.1194075,0.3464282,-0.04125401,9.47999978810549,8
-14.24868,0.2833333,-9.220551,-0.3262641979807537,0.0101060527546903,-0.4311924749540896,3.575009,43.44208,0.1983623,0.02961827,0.3698571,-0.009936709,9.49999978765845,8
-14.20819,0.4833333,-9.172984,-0.3163646968160307,-0.2080362403889856,-0.4120019854056087,7.14984,43.18491,0.3809849,0.05919878,0.3670912,-0.01986076,9.51999978721142,8
-14.16772,0.6833334,-9.125432,-0.3419576713062859,-0.2001958834334303,-0.433862630389334,10.72437,42.93706,0.5490401,0.08871234,0.3639676,-0.02976251,9.53999978676438,8
-14.00634,0.2833334,-8.948414,-0.3688135108845074,-0.153152505501706,-0.4573428956449419,3.513084,44.31658,0.2575636,0.02923608,0.3769247,-0.00948044,9.55999978631735,8
-13.96663,0.4833334,-8.901516,-0.387128857342466,-0.1202221695937564,-0.4721705160981164,7.026274,44.06545,0.5001318,0.05843593,0.3741796,-0.01894902,9.57999978587031,8
-13.92693,0.6833333,-8.85463,-0.387076543238356,-0.1547208186615115,-0.4680351641344371,10.53908,43.82731,0.7293474,0.08756901,0.3710818,-0.02839536,9.59999978542328,8
-13.88724,0.8833331,-8.807755,-0.3860958781130783,-0.2033324964240541,-0.4653535919410192,14.05174,43.60072,0.9465531,0.1166105,0.3676343,-0.03781212,9.61999978497624,8
-13.68614,0.2833334,-8.586301,-0.3793604437362052,-0.2127412599294574,-0.457061179184957,3.449359,44.19281,0.2860593,0.02882477,0.3759249,-0.009009421,9.63999978452921,8
-13.64767,0.4833333,-8.53976,-0.3576384428894474,-0.2362630654586366,-0.4332400036901163,6.898497,43.94501,0.5579307,0.05761202,0.3732077,-0.01800393,9.65999978408217,8
-13.60921,0.6833333,-8.493232,-0.4591919844802703,0.3930737924195003,-0.5404512054422463,10.34775,43.71183,0.8170612,0.08633814,0.3701507,-0.02697953,9.67999978363514,8
-13.57075,0.8833333,-8.446717,-0.393373453875034,0.1310239531514244,-0.4685271414770788,13.79701,43.49193,1.065046,0.114977,0.3667571,-0.03592798,9.6999997831881,8
-13.42961,0.2833333,-8.293868,-0.322146524786989,-0.1163902508465788,-0.3885978251932886,3.396555,42.64441,0.1833447,0.02818909,0.3634079,-0.009286259,9.71999978274107,8
-13.39172,0.4833333,-8.248202,-0.3979048223005517,0.3167582742528714,-0.467525088115889,6.792496,42.38812,0.3516566,0.05634126,0.3607218,-0.01856099,9.73999978229403,8
-13.35383,0.6833333,-8.20255,-0.3381818387675182,0.0986159256153009,-0.4020915945443502,10.18816,42.13996,0.5059971,0.08443538,0.3577186,-0.02781675,9.759999781847,8
-13.20037,0.2833334,-8.034483,-0.2802642363129379,-0.1048904148018559,-0.3381158480774164,3.34204,41.07887,0.1003651,0.0276141,0.3506788,-0.009411248,9.77999978139997,8
-13.16327,0.4833334,-7.989467,-0.2148237698506339,-0.3481223260569259,-0.2658682433752002,6.683114,40.8159,0.1856062,0.05519334,0.3480203,-0.01880969,9.79999978095293,8
-13.12619,0.6833334,-7.944463,-0.1162947675385499,-0.3653714410294764,-0.1558747972304663,10.0236,40.55598,0.2560021,0.08271752,0.3450664,-0.02818948,9.8199997805059,8
-12.96005,0.2833334,-7.762046,-0.0222850155971752,-0.3434177479412097,-0.0515320496815405,3.291209,39.36433,359.972,0.02695708,0.3366699,-0.00990239,9.83999978005886,8
-12.92314,0.4833334,-7.718056,0.0765949834270802,-0.335577096354015,0.0569674833682354,6.581287,39.09095,359.9281,0.05388386,0.3340372,-0.0197938,9.85999977961183,8
-12.88625,0.6833334,-7.674075,0.0416925463999682,0.3251223258822312,0.0224520626861215,9.869806,38.81298,359.8678,0.08075449,0.3311296,-0.02966688,9.87999977916479,8
-12.84937,0.8833333,-7.630107,0.127719470957901,0.0944349186406683,0.1132953390387294,13.15705,38.52845,359.7904,0.1075505,0.32795,-0.03951267,9.89999977871776,8
-12.70872,0.2833334,-7.477254,0.213696712362422,-0.1216168789433909,0.2032746886885599,3.240544,37.27648,359.8816,0.02646222,0.3194916,-0.01001552,9.91999977827072,8
-12.67273,0.4833333,-7.433601,0.146274390748653,0.3428940536154155,0.127253127088549,6.479538,36.99656,359.7472,0.05289548,0.3168866,-0.02001986,9.93999977782369,8
-12.63676,0.6833334,-7.389961,0.2078353721803996,0.1561139000445501,0.1870278270991558,9.716859,36.70695,359.5956,0.07927819,0.3140288,-0.03000527,9.95999977737665,8
-12.48424,0.2833334,-7.222423,0.2610794913084202,-0.0160303786829069,0.2371255172636823,3.194907,34.84944,359.7854,0.02603724,0.2993854,-0.01013428,9.97999977692962,8
-12.44922,0.4833334,-7.178898,0.3150938169225625,-0.2279000163783369,0.2873016838115765,6.387778,34.56242,359.5544,0.05204632,0.296805,-0.0202575,9.99999977648258,8
-12.41421,0.6833334,-7.135386,0.3934130226889873,-0.2137868598820653,0.3662359152690069,9.578492,34.26039,359.3056,0.07800689,0.2939937,-0.03036197,10.0199997760355,8
-12.24496,0.2833333,-6.949334,0.4578556967106664,-0.1604707912194775,0.4309994232846597,3.530119,36.24208,359.7906,0.0287053,0.3109308,-0.01131617,10.0399997755885,8
-12.20543,0.4833333,-6.901864,0.5177854102506512,-0.1212678867195048,0.4917027208590809,7.058246,35.95413,359.563,0.05737554,0.308272,-0.02261871,10.0599997751415,8
-12.16592,0.6833333,-6.854412,0.4373934682778451,0.5707940120603354,0.4030156489330325,10.58543,35.64938,359.3148,0.08599193,0.3053201,-0.03390406,10.0799997746944,8
-12.12643,0.8833332,-6.806981,0.4705165113992944,0.3714689853587962,0.4350742520549433,14.11168,35.325,359.0439,0.1145296,0.3020779,-0.04515889,10.0999997742474,8
-11.98345,0.2833333,-6.653766,0.495759029306285,0.1867798191262631,0.4607311359986257,3.560367,37.98864,359.8443,0.02893144,0.325357,-0.01139532,10.1199997738004,8
-11.94296,0.4833333,-6.606574,0.5226495939500975,-0.0376347204486393,0.4901295377395422,7.119134,37.70657,359.6703,0.05782701,0.3226902,-0.02278044,10.1399997733533,8
-11.90247,0.6833333,-6.559395,0.3669455968214592,0.6042474738514392,0.3238176324258646,10.67597,37.41103,359.4769,0.08665814,0.3197123,-0.03414034,10.1599997729063,8
-11.86199,0.8833331,-6.512229,0.3710251822114507,0.3547428621954525,0.3264978481986329,14.23075,37.09932,359.2619,0.1153969,0.3164263,-0.04546404,10.1799997724593,8
-11.67904,0.2833333,-6.313482,0.3638717516084018,0.1198740042894429,0.3177088330279347,3.589767,39.95777,-0.0001901242,0.02943596,0.3415062,-0.01070329,10.1999997720122,8
-11.6387,0.4833332,-6.265559,0.3552023087949685,-0.1547204670549768,0.307640678334979,7.178722,39.69139,359.9832,0.0588374,0.3388309,-0.02139142,10.2199997715652,8
-11.59837,0.6833333,-6.217649,0.3687070087881228,-0.2033318394704165,0.3248689934635909,10.76652,39.42158,359.9495,0.08817224,0.3358239,-0.03205549,10.2399997711182,8
-11.43647,0.2833333,-6.040329,0.3692875899320551,-0.212740421335676,0.3291727994561881,3.561219,40.84421,0.0718193,0.02933809,0.3487468,-0.01025517,10.2599997706711,8
-11.39668,0.4833333,-5.992594,0.3669762822449307,-0.2362620488836462,0.331101142636705,7.121509,40.5854,0.1277987,0.05863812,0.3460815,-0.02049565,10.2799997702241,8
-11.35689,0.6833333,-5.944873,0.2330632630459277,0.3930752100838087,0.1942287716273014,10.681,40.32787,0.1679607,0.08787286,0.3430826,-0.03071347,10.2999997697771,8
-11.18032,0.2833333,-5.750832,0.2129526690259755,0.1310256492435038,0.1740280692853573,3.635795,41.58257,0.09737286,0.02995863,0.3547607,-0.01046653,10.31999976933,8
-11.13937,0.4833333,-5.702336,0.1908936259602498,-0.1163882917465393,0.1515617393571133,7.270946,41.32706,0.1786603,0.05987826,0.3520764,-0.02091962,10.339999768883,8
-11.09842,0.6833333,-5.653856,0.0220626523515932,0.3167603614157475,-0.0274662985634366,10.90604,41.07444,0.2441074,0.08973366,0.3490378,-0.03135198,10.359999768436,8
-11.05749,0.8833332,-5.60539,-0.0217786960890737,0.09861788584787,-0.0740930981948122,14.54036,40.82272,0.2939388,0.1194898,0.3456486,-0.04174987,10.3799997679889,8
-10.90796,0.2833334,-5.444003,-0.0713267605979623,-0.1048889575861695,-0.1255197208032541,3.628457,42.12793,0.1115103,0.02989307,0.3592009,-0.01047091,10.3999997675419,8
-10.86683,0.4833333,-5.395839,-0.1163887168754289,-0.3481212970241228,-0.1709643270928165,7.256327,41.87482,0.2071554,0.05974733,0.3565243,-0.0209283,10.4199997670949,8
-10.8257,0.6833332,-5.347689,-0.1335880985148954,-0.3653706473883628,-0.1831270026130012,10.88353,41.62556,0.2874296,0.08953267,0.3534907,-0.03136183,10.4399997666478,8
-10.66289,0.2833332,-5.171144,-0.1568104007885047,-0.3434169846170126,-0.2002249288662736,3.57521,43.96098,0.1998755,0.02957954,0.3740577,-0.01005914,10.4599997662008,8
-10.622,0.4833333,-5.123922,-0.1754759442192899,-0.335576491758041,-0.2112755563742019,7.150191,43.71688,0.3848079,0.05912117,0.3713937,-0.0201056,10.4799997657537,8
-10.58111,0.6833332,-5.076713,-0.3189425250461477,0.3251230963500705,-0.3540474816900891,10.72486,43.48237,0.5560303,0.08859617,0.3683678,-0.0301295,10.4999997653067,8
-10.40541,0.2833333,-4.884777,-0.2651750331437323,0.0944356337017275,-0.2881974833453475,3.513273,44.73087,0.2563658,0.02919916,0.3802693,-0.009596366,10.5199997648597,8
-10.36535,0.4833333,-4.838174,-0.2081527240750196,-0.1216160937526825,-0.2208873953043562,7.026575,44.49252,0.4985029,0.05836198,0.3776264,-0.0191808,10.5399997644126,8
-10.3253,0.6833333,-4.791584,-0.2986358406888811,0.3428947815698773,-0.3123987963815171,10.53943,44.26725,0.7281069,0.08745815,0.3746274,-0.02874249,10.5599997639656,8
-10.28526,0.8833332,-4.745007,-0.3890660917443815,0.7964288376596609,-0.4052549312883511,14.05209,44.05369,0.9465127,0.1164628,0.3712754,-0.03827425,10.5799997635186,8
-10.1373,0.2833333,-4.584335,-0.3524108046658503,0.3340086989510522,-0.3684438013211721,3.453623,44.55958,0.2816107,0.02881549,0.378888,-0.009151643,10.5999997630715,8
-10.09842,0.4833333,-4.538039,-0.3104811355558254,-0.1393881389423105,-0.3282218710396374,6.906974,44.32424,0.5497356,0.0575936,0.3762716,-0.01828848,10.6199997626245,8
-10.05956,0.6833333,-4.491755,-0.3779236701894675,0.2812154733008494,-0.4014090422797283,10.36038,44.1034,0.8058538,0.08631063,0.373312,-0.02740598,10.6399997621775,8
-10.02071,0.8833332,-4.445486,-0.3060028896857245,0.0505280860092113,-0.3260750003901669,13.81372,43.89583,1.051528,0.1149402,0.370012,-0.03649594,10.6599997617304,8
-9.831964,0.2833333,-4.241079,-0.2322303205709994,-0.1655235527595084,-0.247269903315064,3.402459,43.06517,0.1929513,0.02823346,0.3668215,-0.009330655,10.6799997612834,8
-9.793789,0.4833333,-4.195498,-0.1469830050991305,-0.4213006768166787,-0.154778328455853,6.804314,42.82257,0.3717786,0.05643028,0.3642356,-0.01864886,10.6999997608364,8
-9.755625,0.6833333,-4.149929,-0.0668674671568592,-0.4510949067582958,-0.0660173764698646,10.20591,42.58882,0.5375264,0.08456893,0.3613282,-0.02794799,10.7199997603893,8
-9.588874,0.2833334,-3.967513,0.0065385416907899,-0.441686111280743,0.0161759356880437,3.343894,41.4222,0.1021086,0.02760629,0.353481,-0.009485436,10.7399997599423,8
-9.551514,0.4833333,-3.922672,0.0829050871478207,-0.4463904729092842,0.1019242713067296,6.686782,41.17212,0.1898073,0.05517738,0.3509246,-0.01895815,10.7599997594953,8
-9.514164,0.6833333,-3.877844,0.0259484307551804,0.2017641673212727,0.045983763899084,10.02906,40.92534,0.2634408,0.08269333,0.3480698,-0.02841198,10.7799997590482,8
-9.476825,0.8833332,-3.833029,-0.0249235377710315,0.6984545188755413,-0.0038974138260334,13.37067,40.68024,0.3231607,0.1101306,0.3449196,-0.03783903,10.7999997586012,8
-9.334833,0.2833334,-3.681236,0.0872522977300844,0.1676292150529891,0.1137368265173914,3.291458,39.65089,359.9718,0.02693377,0.3390225,-0.009971917,10.8199997581542,8
-9.29771,0.4833333,-3.637426,0.0431129496831079,0.3466030864012404,0.0632703964039465,6.581797,39.39046,359.9285,0.0538373,0.3364948,-0.01993276,10.8399997577071,8
-9.260597,0.6833334,-3.593625,-0.0038197389220959,0.5427914067221141,0.0092698092314478,9.870575,39.12556,359.8696,0.08068466,0.3336902,-0.02987497,10.8599997572601,8
-9.106937,0.2833333,-3.426933,0.0789711466628881,0.0636094498174301,0.0888522067767842,3.241078,37.71519,359.8843,0.02643587,0.3231147,-0.01009549,10.879999756813,8
-9.070657,0.4833332,-3.383518,0.1620849631618597,-0.4260613271145372,0.1673907292975198,6.480642,37.44815,359.7534,0.05284273,0.3206122,-0.02017983,10.899999756366,8
-9.034387,0.6833332,-3.340114,0.1245166847619261,-0.0212438948005346,0.1192832436326669,9.718584,37.17171,359.6061,0.07919912,0.3178539,-0.03024501,10.919999755919,8
-8.869031,0.2833333,-3.158744,0.2284890144775282,-0.2672294766675361,0.2197706586276697,3.194956,35.19468,359.7849,0.02600565,0.3022575,-0.01021707,10.9399997554719,8
-8.833746,0.4833333,-3.115432,0.3281588066324117,-0.4980913113288354,0.3149396946019602,6.387928,34.92023,359.5541,0.0519832,0.2997802,-0.02042306,10.9599997550249,8
-8.798471,0.6833333,-3.072132,0.2869481894392072,-0.0479027569230321,0.2608834913949559,9.578799,34.63086,359.3062,0.07791237,0.2970699,-0.03060998,10.9799997545779,8
-8.763204,0.8833333,-3.028844,0.2438626347528334,0.3917966450148157,0.2052919566097426,12.76721,34.32448,359.0394,0.1037719,0.2941291,-0.04076672,10.9999997541308,8
-8.553124,0.2833333,-2.800351,0.3156846169564309,-0.0839700280695179,0.2701110554829218,3.517106,37.10883,359.8096,0.02856422,0.3181031,-0.01133911,11.0199997536838,8
-8.513292,0.4833333,-2.753463,0.2276427116601747,0.1500623683433316,0.1650711556332578,7.032349,36.83557,359.6021,0.05709363,0.315549,-0.02266468,11.0399997532368,8
-8.473481,0.6833333,-2.706594,0.1334475168913638,0.4013092147742145,0.0548763865209235,10.54725,36.54694,359.3751,0.08557315,0.3126969,-0.03397545,11.0599997527897,8
-8.433685,0.8833333,-2.659743,0.1651077670581466,-0.0228142149750477,0.0784967299557994,14.06086,36.24033,359.1267,0.1139707,0.3095501,-0.04525396,11.0799997523427,8
-8.283443,0.2833333,-2.499146,0.1926588022762789,-0.4574264637061864,0.1003499529575916,3.559132,38.68501,359.8655,0.02891275,0.3310889,-0.01139287,11.0999997518957,8
-8.242682,0.4833333,-2.452227,0.096244980724407,0.0024496179020807,-0.0062522568668778,7.116912,38.41774,359.7137,0.05779085,0.3285239,-0.02277507,11.1199997514486,8
-8.201933,0.6833333,-2.405322,0.0015620965402227,0.4518365475650966,-0.1095292838751015,10.67291,38.13854,359.5437,0.08660457,0.3256424,-0.03413203,11.1399997510016,8
-8.038974,0.2833333,-2.228057,0.0855965628666277,-0.0142425977940686,-0.0236565789441055,3.591669,40.16427,0.009754206,0.02946199,0.3431957,-0.01068056,11.1599997505546,8
-7.99858,0.4833333,-2.180136,0.1691494824378994,-0.4908105626578152,0.0631387974212058,7.182579,39.91134,0.004072441,0.05888987,0.3406208,-0.02134484,11.1799997501075,8
-7.958199,0.6833332,-2.132229,0.0824768275994731,-0.0728903044238901,-0.0283114145097542,10.77241,39.65579,359.9822,0.08825126,0.337712,-0.03198525,11.1999997496605,8
-7.782136,0.2833333,-1.939708,0.1407161317390732,-0.3057729398002506,0.0348046535342742,3.561748,41.03302,0.07474276,0.02933441,0.350289,-0.01028123,11.2199997492135,8
-7.74222,0.4833333,-1.892061,0.1903443566139033,-0.5235320670215342,0.0898413909723035,7.122549,40.78695,0.1343704,0.05863041,0.3477239,-0.02054825,11.2399997487664,8
-7.702315,0.6833333,-1.844428,0.0873052652153454,-0.0602409380300188,-0.0167011184756259,10.68257,40.54247,0.1790125,0.0878612,0.3448235,-0.03079262,11.2599997483194,8
-7.662421,0.8833332,-1.796808,-0.0205741501212237,0.3925613581279262,-0.1278449686107804,14.24173,40.29773,0.2086141,0.1169985,0.3415912,-0.04100432,11.2799997478724,8
-7.622539,0.9766704,-1.749202,-0.0047620592471719,-0.0701026608323478,-0.1116408664794034,17.79996,40.05076,0.2227935,0.1460139,0.3380302,-0.05117353,11.2999997474253,8
-7.444111,0.2833333,-1.559197,0.0111722209961104,-0.5432554992972013,-0.0952366140179328,3.634303,41.95814,0.1071232,0.02994246,0.357819,-0.01048059,11.3199997469783,8
-7.402985,0.4833333,-1.510872,-0.0880332867512914,-0.1219201279933777,-0.196186474063585,7.267995,41.7165,0.1990849,0.05984612,0.3552378,-0.02094761,11.3399997465312,8
-7.361873,0.6833333,-1.462561,-0.0490808607881927,-0.3513877703478555,-0.1503826875766054,10.90146,41.47854,0.2761455,0.08968382,0.3522995,-0.03139381,11.3599997460842,8
-7.20484,0.2833333,-1.294459,-0.0104335789437168,-0.5657319050699623,-0.1026411609195242,3.61538,42.89898,0.1277861,0.02976768,0.3654659,-0.01049797,11.3799997456372,8
-7.163426,0.4833333,-1.246825,-0.1013773358369309,-0.0990255578576304,-0.1893488659202875,7.230209,42.66002,0.2406793,0.05949682,0.3628913,-0.02098246,11.3999997451901,8
-7.122023,0.6833333,-1.199206,-0.1865169025489708,0.357191862608384,-0.2683968728531424,10.84443,42.42614,0.3393376,0.08915779,0.3599558,-0.03144313,11.4199997447431,8
-6.951542,0.2833333,-1.015726,-0.078300215874334,-0.1020568991895192,-0.1422275649413349,3.558943,44.7436,0.2207602,0.02944826,0.3803758,-0.01003845,11.4399997442961,8
-6.910469,0.4833333,-0.9690064,-0.1189985843364063,0.1484934079870542,-0.1735374921546376,7.11771,44.51398,0.4275822,0.05885911,0.3778141,-0.02006431,11.459999743849,8
-6.869407,0.6833333,-0.9222996,-0.1594994720645592,0.4162581646589582,-0.2044523233382358,10.67621,44.29541,0.6218705,0.08820414,0.3748874,-0.03006784,11.479999743402,8
-6.828356,0.8833332,-0.8756036,-0.1894794184698547,0.6489667187337109,-0.2244155313820095,14.23405,44.08645,0.8046229,0.1174518,0.3715988,-0.04003971,11.499999742955,8
-6.686222,0.2833333,-0.7237319,-0.0828107388064216,-0.0594034900174318,-0.1067366302221668,3.497332,45.16683,0.2659239,0.02906607,0.3837829,-0.009576996,11.5199997425079,8
-6.64613,0.4833333,-0.6775073,-0.1655714869373543,0.155463536677138,-0.1912029946053972,6.994674,44.94206,0.5185249,0.05809615,0.3812454,-0.01914216,11.5399997420609,8
-6.606047,0.6833333,-0.6312944,-0.2470588618583447,0.3875450123443307,-0.27455412729944,10.49153,44.73109,0.7596647,0.08706045,0.3783518,-0.02868399,11.5599997416139,8
-6.450681,0.2833333,-0.4638883,-0.1928383446238948,-0.0557436824950022,-0.218273382749117,3.439617,44.99292,0.2851632,0.02867966,0.3823838,-0.009185161,11.5799997411668,8
-6.411679,0.4833333,-0.418012,-0.1333687564983963,-0.5095214369349563,-0.1572854826573309,6.878926,44.77029,0.557619,0.05732223,0.3798702,-0.01835591,11.5999997407198,8
-6.372688,0.6833333,-0.3721487,-0.1916914260597204,-0.0688107553618857,-0.2180555242385915,10.31826,44.56248,0.8189166,0.08590445,0.3770128,-0.02750744,11.6199997402728,8
-6.333708,0.8833331,-0.3262983,-0.1041502856558498,-0.2789030874471169,-0.1230488390536628,13.75749,44.36836,1.070683,0.1144004,0.3738147,-0.03663144,11.6399997398257,8
-6.137622,0.2833333,-0.1154564,-0.0171254580180075,-0.4738719113772719,-0.0258409510712183,3.388234,43.0525,0.1691238,0.02804281,0.3667261,-0.009475349,11.6599997393787,8
-6.099329,0.4833333,-0.07032809,-0.0677053892648444,0.0122096409533901,-0.0728761590557565,6.775727,42.82014,0.3247442,0.05604935,0.3642451,-0.0189382,11.6799997389317,8
-6.061047,0.6833332,-0.0252125,-0.1160628352911863,0.4878021475351285,-0.1168794859627497,10.16286,42.59531,0.4677612,0.08399864,0.3614457,-0.02838177,11.6999997384846,8
-5.88696,0.2833334,0.1636138,0.0300714067945935,0.047928579094685,0.0435125689056083,3.331089,41.344,0.06799406,0.02740321,0.3528523,-0.009705584,11.7199997380376,8
-5.849367,0.4833333,0.2079474,0.0120396898988004,0.3178540801514243,0.0284921241964868,6.661024,41.10329,0.1220717,0.05477154,0.3504005,-0.01939877,11.7399997375906,8
-5.811784,0.6833333,0.2522683,-0.0156257489908577,0.6049940312261972,0.0021681518005221,9.990206,40.86397,0.162407,0.08208554,0.3476534,-0.02907284,11.7599997371435,8
-5.774212,0.8833333,0.2965766,-0.0436695717449637,0.8570777802265273,-0.0259393809339427,13.31858,40.62442,0.1889444,0.1093221,0.3446137,-0.03871963,11.7799997366965,8
-5.625354,0.2833333,0.4549809,0.0553568649545059,0.1680828869716839,0.074057539834329,3.278917,39.59374,359.9471,0.02676272,0.3385603,-0.01012445,11.7999997362494,8
-5.588088,0.4833333,0.4983893,0.1593382313762306,-0.4300123314930676,0.177444391431246,6.556609,39.34354,359.8797,0.05349552,0.3361368,-0.02023764,11.8199997358024,8
-5.550832,0.6833333,0.5417878,0.1116780526457796,-0.0344985436557216,0.1233060856154146,9.83266,39.08758,359.7971,0.0801731,0.3334389,-0.03033159,11.8399997353554,8
-5.390339,0.2833333,0.7148908,0.1992476569751411,-0.2902757537850594,0.2075477400217042,3.228722,37.23129,359.8479,0.02627469,0.3191265,-0.01025043,11.8599997349083,8
-5.354059,0.4833333,0.7580599,0.2837382735410334,-0.5314172138233608,0.2867362644328799,6.45579,36.9735,359.6811,0.05252064,0.3167297,-0.02048961,11.8799997344613,8
-5.317789,0.6833333,0.8012168,0.2354755190923456,-0.0919961757128986,0.2270317330382805,9.681113,36.70438,359.4983,0.07871692,0.3140819,-0.03070937,11.8999997340143,8
-5.281526,0.8833332,0.8443618,0.1866939080444138,0.3364479385365794,0.1664273628634727,12.90431,36.42199,359.2982,0.1048411,0.3111856,-0.04089861,11.9199997335672,8
-5.079029,0.2833333,1.062717,0.3213076095481977,-0.1510620203962018,0.2971805358162167,3.338324,36.03582,359.7836,0.02711577,0.3092348,-0.01080517,11.9399997331202,8
-5.041597,0.4833333,1.107537,0.2965450066840964,0.0707393182524681,0.2600055646172561,6.674712,35.77283,359.5515,0.05420071,0.3068246,-0.02159806,11.9599997326732,8
-5.004176,0.6833333,1.152345,0.2596647314970681,0.3092672282844078,0.2106873979630301,10.00904,35.49413,359.3019,0.08123164,0.304154,-0.03236952,11.9799997322261,8
-4.966769,0.8833332,1.197134,0.219839230614506,0.512251057607141,0.1590785945838826,13.34211,35.1974,359.0328,0.1081935,0.3012252,-0.04311284,11.9999997317791,8
-4.820874,0.2833333,1.350715,0.2948792968586993,-0.2263316339600616,0.2268408382534481,3.527238,37.77351,359.8202,0.02861149,0.3235906,-0.01144582,12.0199997313321,8
-4.780563,0.4833333,1.397376,0.2496881913888988,-0.042165074389933,0.1718882911532957,7.052777,37.51364,359.624,0.05718829,0.3211327,-0.02287896,12.039999730885,8
-4.740272,0.6833333,1.444019,0.2026102960797957,0.158727949844436,0.1169152996141145,10.57778,37.2392,359.4093,0.08571286,0.3183703,-0.03429453,12.059999730438,8
-4.582507,0.2833334,1.611559,0.2874547903361062,-0.3162370612107907,0.2001307843014261,3.564986,39.45253,359.8895,0.02895455,0.3373916,-0.01140638,12.079999729991,8
-4.541385,0.4833333,1.658278,0.2351928033932422,-0.0818907752072702,0.1417501818397979,7.12873,39.19967,359.7627,0.05787425,0.3349205,-0.02280147,12.0999997295439,8
-4.500275,0.6833333,1.704984,0.179700501102205,0.1691819749377831,0.0815307921593557,10.69086,38.93657,359.6188,0.08672945,0.332126,-0.03417121,12.1199997290969,8
-4.329894,0.2833334,1.889175,0.2695545878747647,-0.2556033107294646,0.1741623217087293,3.589776,40.8294,0.0481919,0.02950097,0.348629,-0.01053141,12.1399997286499,8
-4.289484,0.4833333,1.937045,0.3582152231012379,-0.6913651750107407,0.2670977204632629,7.178913,40.59227,0.08218566,0.05896802,0.3461497,-0.02104523,12.1599997282028,8
-4.249084,0.6833333,1.984901,0.2675479991724465,-0.2331266948291125,0.1731152328992622,10.76714,40.35519,0.1014067,0.08836856,0.3433316,-0.03153543,12.1799997277558,8
-4.208697,0.8833332,2.032743,0.1756837571040441,0.2141348609688284,0.0791389506156261,14.35439,40.11626,0.1055835,0.1176737,0.3401777,-0.04199176,12.1999997273088,8
-3.996634,0.2833333,2.260581,0.2753813885513629,-0.2545575368901758,0.1861249796571047,3.587124,41.94548,0.09224445,0.02951292,0.3577247,-0.01045116,12.2199997268617,8
-3.955893,0.4833333,2.308124,0.2078946225822309,-0.0139388639347771,0.1168965335035761,7.173594,41.7134,0.1698783,0.05898789,0.3552474,-0.0208909,12.2399997264147,8
-3.915163,0.6833333,2.355653,0.1289699069775236,0.2434064866002139,0.0361363133051568,10.75932,41.4842,0.2334946,0.08839638,0.3524227,-0.0313072,12.2599997259676,8
-3.874445,0.8833332,2.403169,0.0487032609867288,0.4652078626223243,-0.0456657147920429,14.34425,41.25612,0.2832008,0.1177095,0.3492537,-0.04168988,12.2799997255206,8
-3.722994,0.2833333,2.56346,0.0962889785828819,-0.2545575223415401,0.0034508170746523,3.639672,42.43476,0.1046324,0.0299344,0.3616977,-0.01064224,12.2999997250736,8
-3.68138,0.4833333,2.611484,0.0141349669056078,-0.051573549971747,-0.0797018150958139,7.278699,42.20494,0.1948164,0.05982989,0.3592098,-0.02127077,12.3199997246265,8
-3.639778,0.6833333,2.659494,-0.0684473879521891,0.1681369932586089,-0.1617320623180971,10.91702,41.97883,0.2710456,0.08965617,0.3563601,-0.03187485,12.3399997241795,8
-3.474969,0.2833333,2.834468,-0.0087567694697114,-0.2880105121296185,-0.0943124198312519,3.603996,43.79235,0.1542991,0.02967903,0.3727018,-0.01047811,12.3599997237325,8
-3.433295,0.4833333,2.88163,-0.093961064540448,-0.0348468399844141,-0.1767372625404997,7.207523,43.56789,0.2947028,0.0593198,0.3702225,-0.02094289,12.3799997232854,8
-3.391634,0.6833333,2.928778,-0.181012596328814,0.2350434035440603,-0.2596365137649785,10.81051,43.35041,0.4221142,0.08889287,0.3673773,-0.03138392,12.3999997228384,8
-3.349984,0.8833332,2.975916,-0.2594047517396316,0.4693895663633268,-0.3322897225666841,14.41271,43.13826,0.536893,0.1183666,0.364169,-0.04179265,12.4199997223914,8
-3.144315,0.2833333,3.194344,-0.1373945328480443,-0.2378307917073405,-0.196840223754128,3.537929,45.57951,0.255749,0.02932347,0.3871017,-0.00990062,12.4399997219443,8
-3.103261,0.4833333,3.240646,-0.2032598316526579,-0.0223018986406778,-0.2592998369172781,7.075774,45.36525,0.4986528,0.05861003,0.3846399,-0.01978888,12.4599997214973,8
-3.062219,0.6833333,3.286935,-0.2709489830752341,0.2099535658092568,-0.3243742213880853,10.61343,45.1644,0.7303898,0.08783163,0.3818105,-0.02965528,12.4799997210503,8
-3.021187,0.8833332,3.333213,-0.3305404966037473,0.4066649495499818,-0.3819501739752455,14.15043,44.97576,0.9523752,0.116957,0.3786165,-0.03948975,12.4999997206032,8
-2.878369,0.2833333,3.484251,-0.2586998455392908,-0.3381901875992266,-0.30952465601775,3.470343,45.56342,0.2839605,0.02887662,0.3869734,-0.009441303,12.5199997201562,8
-2.83852,0.4833333,3.530099,-0.3009683821557153,-0.1602960736111046,-0.3530240984652995,6.940408,45.35231,0.5558066,0.05771627,0.3845397,-0.018868,12.5399997197092,8
-2.798681,0.6833332,3.575934,-0.3353200396547406,0.0343246117602895,-0.3885280344374076,10.41026,45.15618,0.8170989,0.08649287,0.381752,-0.02827422,12.5599997192621,8
-2.642329,0.2833333,3.741928,-0.2272008477399807,-0.4469128576832275,-0.2771333682981236,3.41689,44.86826,0.2492337,0.02838683,0.3813905,-0.009367984,12.5799997188151,8
-2.603266,0.4833333,3.787167,-0.2482701908909214,-0.2188391495933117,-0.2976795711043891,6.833314,44.65435,0.4861238,0.05673683,0.3789824,-0.01872303,12.5999997183681,8
-2.564214,0.6833332,3.832393,-0.2648145617888006,0.025961236076198,-0.3115444343211102,10.24959,44.45308,0.7121327,0.08502783,0.3762364,-0.02805868,12.619999717921,8
-2.395048,0.2833333,4.013115,-0.267583528069111,0.2352175405137956,-0.3090267938832589,3.367821,43.11769,0.14872,0.02780642,0.3672621,-0.009591394,12.639999717474,8
-2.356692,0.4833333,4.057701,-0.2337165378768315,0.2231951986888207,-0.2710942673167924,6.734825,42.89528,0.2845911,0.05557744,0.3648826,-0.01917019,12.6599997170269,8
-2.318347,0.6833333,4.102274,-0.2055244581712607,0.2566483333534274,-0.2387547361487731,10.10137,42.67926,0.4083543,0.08329231,0.3621882,-0.0287297,12.6799997165799,8
-2.280014,0.8833332,4.146834,-0.1734284461525499,0.2822608815076683,-0.2023192423576754,13.46738,42.46828,0.5205745,0.1109269,0.3591815,-0.03826165,12.6999997161329,8
-2.070207,0.2833333,4.37023,0.0205723257962663,-0.3935971739060873,0.0010249931594259,3.311214,40.90216,0.0046059,0.02708479,0.3492605,-0.01005736,12.7199997156858,8
-2.032354,0.4833333,4.413864,0.0150869552764629,-0.1467059792279215,-0.0059052073678467,6.621436,40.66794,-0.004345451,0.05413877,0.3469138,-0.02010341,12.7399997152388,8
-1.994511,0.6833333,4.457489,0.0021438089467842,0.1169117857881019,-0.0212737469462709,9.930223,40.43145,359.9728,0.08113585,0.3442783,-0.03012938,12.7599997147918,8
-1.956678,0.8833333,4.501101,-0.0090357885351988,0.3449854690495081,-0.0356343222359161,13.23794,40.19102,359.9357,0.1080572,0.3413567,-0.04012739,12.7799997143447,8
-1.80726,0.2833333,4.658523,0.1084131983570548,-0.3685073696244323,0.0785663217371519,3.255278,39.02048,359.9032,0.02649083,0.3338631,-0.01028235,12.7999997138977,8
-1.770106,0.4833333,4.701505,0.0993179827323143,-0.1592509582064513,0.0627632135562663,6.509162,38.77855,359.7924,0.05295232,0.3315456,-0.02055337,12.8199997134507,8
-1.732962,0.6833333,4.744475,0.0899743996735077,0.0667320235493889,0.0461715301484613,9.761583,38.52851,359.6669,0.07936305,0.3289613,-0.03080471,12.8399997130036,8
-1.571701,0.2833334,4.916414,0.2216038402044036,-0.3831430438360617,0.1727183131576994,3.20606,36.41469,359.799,0.026026,0.3123806,-0.01040633,12.8599997125566,8
-1.535594,0.4833333,4.959275,0.207190499802904,-0.1237069342107856,0.1477587583633379,6.410298,36.16484,359.5838,0.05202385,0.3100903,-0.02080131,12.8799997121096,8
-1.499498,0.6833333,5.002124,0.1872562196292646,0.1524557462750551,0.1173183485273821,9.612601,35.90106,359.3528,0.07797303,0.3075573,-0.0311768,12.8999997116625,8
-1.463408,0.8833332,5.044961,0.1709331536481191,0.3930744522480124,0.0910389920822956,12.81261,35.62143,359.1045,0.103852,0.3047843,-0.04152129,12.9199997112155,8
-1.257496,0.2833333,5.263139,0.3434351888366213,-0.3078734827169838,0.2602980631998175,3.462363,37.37694,359.7977,0.02805187,0.3203261,-0.01135171,12.9399997107685,8
-1.217882,0.4833333,5.308957,0.318799613433708,-0.0860721665446474,0.2249373511355719,6.922897,37.12633,359.5799,0.05607029,0.3179769,-0.02269007,12.9599997103214,8
-1.178284,0.6833333,5.354761,0.2820349491064111,0.1524556142919277,0.1784443222839353,10.38214,36.86023,359.3444,0.084034,0.315337,-0.03400937,12.9799997098744,8
-1.138703,0.8833332,5.400544,0.2424861733522392,0.3554393272255784,0.1306281847984296,13.84067,36.57626,359.0892,0.1119239,0.312409,-0.04529912,12.9999997094274,8
-0.9928839,0.2833333,5.551603,0.3193422900165854,-0.3831432550090644,0.2024140010116717,3.540548,39.17528,359.8474,0.02865823,0.3351268,-0.01161049,13.0199997089803,8
-0.9516883,0.4833333,5.597732,0.2754865587603318,-0.1989765999580736,0.1529852492496877,7.080021,38.92971,359.6789,0.05728435,0.3327546,-0.02321221,13.0399997085333,8
-0.9105045,0.6833333,5.643847,0.2304553205059252,0.0019165064281709,0.104493481860552,10.61772,38.67142,359.4934,0.08584736,0.3300651,-0.03478844,13.0599997080863,8
-0.7520376,0.2833333,5.810888,0.3197902226815666,-0.4730484219524775,0.1938776686266541,3.589465,40.77406,359.9736,0.02927686,0.3481958,-0.01112608,13.0799997076392,8
-0.7106899,0.4833333,5.857942,0.2717943664987141,-0.238702158947998,0.1436656592945766,7.178164,40.54095,359.9328,0.05852043,0.3458072,-0.02223741,13.0999997071922,8
-0.669354,0.6833333,5.904983,0.2214610578428478,0.0123706759624577,0.0927932394993451,10.76564,40.30315,359.8767,0.08769798,0.3430803,-0.03332376,13.1199997067451,8
-0.6280298,0.8833332,5.95201,0.1786285533519096,0.2278995507344284,0.0513395921477739,14.35183,40.05862,359.8045,0.1167809,0.3400178,-0.0443743,13.1399997062981,8
-0.4285379,0.2833333,6.162433,0.1669429361325634,0.2221499008599654,0.0405109985912917,3.563865,42.06018,0.07858583,0.02927034,0.3586646,-0.01051909,13.1599997058511,8
-0.3878094,0.4833333,6.209439,0.14392458385693,0.2618756100405907,0.0197146507342589,7.126811,41.83787,0.1436442,0.058503,0.3562834,-0.02102289,13.179999705404,8
-0.3470926,0.6833333,6.256432,0.1197785277392382,0.293760722518093,-0.0006660068989301,10.68897,41.61774,0.1952775,0.08767058,0.3535584,-0.03150335,13.199999704957,8
-0.1673178,0.2833333,6.446896,0.2522660299040766,-0.3758248849614818,0.1405574984683442,3.636397,42.83602,0.1008109,0.02985818,0.3649594,-0.01076759,13.21999970451,8
-0.1253595,0.4833333,6.494545,0.1801784036837455,-0.122661238690197,0.0691003925490303,7.272121,42.61662,0.1878455,0.05967766,0.3625575,-0.02152131,13.2399997040629,8
-0.08341731,0.6833333,6.542179,0.0971514575380554,0.147228981577884,-0.0127744090407411,10.90775,42.40078,0.2613625,0.08943275,0.3597908,-0.03225407,13.2599997036159,8
-0.04148701,0.8833332,6.589798,0.0133266643115876,0.3815752304693164,-0.0946411496412196,14.54259,42.18687,0.3217911,0.119089,0.3566627,-0.04295132,13.2799997031689,8
0.1106584,0.2833333,6.74807,0.0587054684137435,-0.3256451717699635,-0.0448467096591596,3.628689,43.42041,0.1139669,0.02978287,0.3696973,-0.01078824,13.2999997027218,8
0.1528294,0.4833333,6.795338,-0.0258441324484035,-0.1101161196266061,-0.125544436935888,7.25673,43.20316,0.2143418,0.05952702,0.3673015,-0.02156257,13.3199997022748,8
0.1949886,0.6833333,6.842593,-0.1101522799106196,0.1221393747046561,-0.2040930755495775,10.88407,42.99039,0.3017144,0.08920262,0.364538,-0.0323122,13.3399997018278,8
0.3609412,0.2833334,7.015874,-0.1838392328166287,0.3188507797020699,-0.2699636031510781,3.575221,45.26907,0.2015508,0.0294685,0.3846132,-0.01038268,13.3599997013807,8
0.4028716,0.4833333,7.062184,-0.218575989899755,0.2942835308576843,-0.2985762374646352,7.150123,45.06063,0.3903888,0.05889941,0.3822281,-0.02075235,13.3799997009337,8
0.4447901,0.6833333,7.108481,-0.2566048172972257,0.3151916447273257,-0.329742029180478,10.72462,44.86235,0.5678165,0.08826401,0.3794707,-0.03109874,13.3999997004867,8
0.486697,0.8833333,7.154767,-0.2873933769649559,0.3282592850780964,-0.352976123689146,14.29834,44.67287,0.7346785,0.1175304,0.376344,-0.04141263,13.4199997000396,8
0.6935859,0.2833333,7.371341,-0.1557896966481609,-0.3601437913919783,-0.2123108085065013,3.507655,46.2049,0.2722229,0.0290825,0.3921247,-0.009824703,13.4399996995926,8
0.7345537,0.4833333,7.417043,-0.2138673741458969,-0.1257976109749599,-0.2687836800935113,7.015238,46.0036,0.5325335,0.05812884,0.3897621,-0.01963722,13.4599996991456,8
0.7755127,0.6833332,7.462733,-0.2746426655977809,0.1252751465750876,-0.3287916374129036,10.52223,45.81681,0.7828348,0.0871087,0.3870332,-0.02942605,13.4799996986985,8
0.81646,0.8833331,7.50841,-0.3285625442778768,0.3408039358847189,-0.3826465378636818,14.02898,45.64352,1.024654,0.115998,0.3839407,-0.0391844,13.4999996982515,8
0.9603236,0.2833334,7.658196,-0.2534734314833029,-0.3852338027521098,-0.309936622838185,3.442394,45.92928,0.285615,0.0286275,0.3899167,-0.009425026,13.5199996978045,8
1.00009,0.4833334,7.703476,-0.2925975857546188,-0.1885224035044555,-0.351204633090223,6.884321,45.72968,0.5599,0.05721755,0.3875827,-0.01883515,13.5399996973574,8
1.039845,0.6833333,7.748743,-0.3250361235035708,0.0249156806406707,-0.3848612400000633,10.32616,45.54523,0.824445,0.08574732,0.3848974,-0.02822547,13.5599996969104,8
1.197543,0.2833333,7.91303,-0.2162762189321938,-0.4375045027592545,-0.2735221487758288,3.394682,44.48996,0.1863899,0.02803081,0.3783563,-0.00970826,13.5799996964633,8
1.236814,0.4833333,7.957482,-0.23878737496503,-0.1906133812598527,-0.2945839909292616,6.788665,44.28182,0.3606,0.05602528,0.3760501,-0.01940473,13.5999996960163,8
1.276074,0.6833333,8.001922,-0.2582617742806756,0.0730043189406945,-0.3106626171548061,10.18227,44.08253,0.5237991,0.08396225,0.3734138,-0.02908135,13.6199996955693,8
1.315322,0.8833332,8.046349,-0.2653635118059019,0.3010779457499125,-0.3124142614990823,13.57544,43.89088,0.6768739,0.1118172,0.37045,-0.03872965,13.6399996951222,8
1.51387,0.2833334,8.253624,-0.0789854817956698,-0.4124148342938991,-0.1183860284352089,3.336631,42.36374,0.0723672,0.0273746,0.3611591,-0.00993095,13.6599996946752,8
1.552246,0.4833334,8.297413,-0.0716069514866268,-0.2031583686887872,-0.1084859209321713,6.672091,42.14625,0.1322424,0.05471453,0.3588869,-0.01984845,13.6799996942282,8
1.59061,0.6833334,8.341189,-0.0644289439004621,0.0228246633338952,-0.0989585451052477,10.0068,41.93066,0.1797828,0.08200011,0.3563113,-0.02974625,13.6999996937811,8
1.767224,0.2833333,8.526263,0.1016287984649539,-0.4270506773393918,0.0708786495694138,3.280901,40.68586,359.95,0.02669037,0.3475075,-0.01036046,13.7199996933341,8
1.805285,0.4833333,8.56902,0.1023995135782547,-0.1676146987389491,0.0692268689732387,6.560613,40.4584,359.887,0.05335085,0.3452627,-0.02070946,13.7399996928871,8
1.843336,0.6833333,8.611768,0.0940633835848632,0.1085478724143341,0.057714054849022,9.838692,40.22561,359.81,0.07995578,0.3427359,-0.03103893,13.75999969244,8
1.881376,0.8833333,8.654503,0.0857453391653186,0.3491663835052757,0.0455965654729499,13.11551,39.98579,359.7185,0.1064875,0.3399292,-0.04134002,13.779999691993,8
2.031715,0.2833334,8.810817,0.2052006471956136,-0.3517812860124673,0.1584857780520163,3.229002,38.20388,359.8473,0.02618731,0.3271552,-0.01047893,13.799999691546,8
2.068726,0.4833335,8.853369,0.1964308048609688,-0.129979829929305,0.1416097062879995,6.456416,37.96869,359.6811,0.052346,0.3249405,-0.0209464,13.8199996910989,8
2.105726,0.6833334,8.895908,0.1858954530714491,0.1085482992904559,0.1227844397517419,9.682175,37.72235,359.5002,0.07845534,0.3224683,-0.03139409,13.8399996906519,8
2.142719,0.8833333,8.938437,0.1827053496280064,0.3115322238326972,0.1113768357812485,12.90589,37.46309,359.3035,0.104493,0.3197409,-0.0418104,13.8599996902049,8
2.336153,0.2833334,9.139212,0.2105097562091851,0.2932373925184598,0.1282989186927334,3.33823,37.10624,359.7855,0.02701822,0.3180998,-0.01104179,13.8799996897578,8
2.374379,0.4833333,9.183351,0.2268336482042623,0.3204179414288788,0.1346186550052355,6.674632,36.86598,359.5567,0.05400583,0.3158704,-0.02207107,13.8999996893108,8
2.412595,0.6833334,9.227478,0.2410575694708554,0.3397579270893272,0.1400691251787247,10.00907,36.61037,359.3117,0.08093958,0.3133729,-0.03307848,13.9199996888638,8
2.586308,0.2833333,9.407907,0.402941461169743,-0.3423726814095237,0.296146330516601,3.527642,38.92846,359.8226,0.02850504,0.3331049,-0.01171491,13.9399996884167,8
2.627515,0.4833333,9.453786,0.3653762776216873,-0.1017538174923994,0.2489139382853427,7.053665,38.69108,359.6302,0.05697546,0.3308226,-0.02341677,13.9599996879697,8
2.668701,0.6833333,9.499646,0.3149039595797758,0.1555916128422909,0.190396681164751,10.57924,38.43955,359.4207,0.08539372,0.3282265,-0.03510083,13.9799996875226,8
2.709876,0.8833333,9.545493,0.2610072784980248,0.3773930780727973,0.1302554818693142,14.10285,38.17157,359.1925,0.1137225,0.3253197,-0.04674824,13.9999996870756,8
2.856539,0.2833334,9.695068,0.3253180627826788,-0.342372074374256,0.1879452945142219,3.564705,40.47723,359.8883,0.02884547,0.3457915,-0.01167383,14.0199996866286,8
2.898493,0.4833333,9.741035,0.2673211659106878,-0.1393881919969192,0.1246206160216107,7.128228,40.24668,359.7617,0.05765647,0.3434974,-0.02333579,14.0399996861815,8
2.940436,0.6833334,9.786989,0.2078531668097021,0.0803222583661034,0.0615774632016812,10.69018,40.0061,359.6195,0.08640307,0.3408716,-0.03497195,14.0599996857345,8
3.09973,0.2833333,9.952644,0.1566790466536245,0.2644888508666742,0.0085962457509261,3.589757,41.95098,0.04997798,0.02940191,0.3577802,-0.01080504,14.0799996852875,8
3.141038,0.4833333,9.999742,0.1398504321889424,0.227376914277815,-0.0117806832500146,7.178861,41.73638,0.08714139,0.05876992,0.3554759,-0.02159243,14.0999996848404,8
3.182334,0.6833333,10.04683,0.1153511622341909,0.2357404523490671,-0.0375070547856175,10.76706,41.52223,0.1109819,0.08807167,0.3528237,-0.03235572,14.1199996843934,8
3.223619,0.8833332,10.0939,0.093270928689364,0.236263389796905,-0.058458806458729,14.35431,41.30682,0.1213382,0.1172785,0.3498264,-0.04308417,14.1399996839464,8
3.425847,0.2833334,10.30222,0.2190765833169239,-0.4646843961099184,0.0688321705996966,3.586928,43.14634,0.09470931,0.0294081,0.3674848,-0.01073925,14.1599996834993,8
3.467533,0.4833334,10.34894,0.1596023422416488,-0.2428830511887847,0.0085393579738592,7.173184,42.93676,0.1761881,0.05877829,0.3651809,-0.021467,14.1799996830523,8
3.509208,0.6833334,10.39563,0.0958597921011055,-0.0043552551937493,-0.0547484227407615,10.75869,42.7305,0.2451249,0.08808233,0.3625199,-0.03217062,14.1999996826053,8
3.691139,0.2833332,10.58407,0.1871284426672437,-0.4416857215167142,0.0381082540373238,3.639848,43.70298,0.1070773,0.02982414,0.3719866,-0.01095365,14.2199996821582,8
3.733768,0.4833332,10.6312,0.1098136659582724,-0.1697047587106881,-0.0399631876017831,7.279023,43.49535,0.2011202,0.05960952,0.3696685,-0.0218932,14.2399996817112,8
3.776385,0.6833332,10.67831,0.0219917142457619,0.1190027997844119,-0.1267859094336643,10.91746,43.2919,0.2826756,0.0893259,0.366978,-0.0328076,14.2599996812642,8
3.818987,0.8833331,10.72542,-0.0661059306177227,0.3721663013534018,-0.2120649391878526,14.55562,43.09103,0.3518685,0.1189468,0.363918,-0.04368887,14.2799996808171,8
3.972733,0.2833335,10.88156,-0.1442464085796349,0.4236859206670198,-0.2854793601086314,3.603914,44.95864,0.1535259,0.02956762,0.3821216,-0.01078559,14.2999996803701,8
4.015357,0.4833334,10.92787,-0.1842431207623702,0.3558034894942599,-0.3232419490339406,7.207319,44.75623,0.2945626,0.05909733,0.3798138,-0.02155736,14.3199996799231,8
4.05797,0.6833335,10.97416,-0.227603623744435,0.3338840637558932,-0.3621054924194169,10.81013,44.56102,0.4240036,0.08855949,0.3771304,-0.03230482,14.339999679476,8
4.100569,0.8833333,11.02043,-0.2636474769896999,0.3046120329406638,-0.3915955009046872,14.41214,44.37159,0.5423316,0.1179231,0.3740747,-0.04301866,14.359999679029,8
4.29604,0.2833333,11.21928,-0.146084414319068,-0.4256427272507939,-0.2702117880581873,3.537817,46.83154,0.2575236,0.02921881,0.3971465,-0.01020582,14.379999678582,8
4.338065,0.4833332,11.26471,-0.1990416378471371,-0.2326604704003025,-0.3202189290859039,7.075475,46.63947,0.5035838,0.05840097,0.3948546,-0.02039889,14.3999996781349,8
4.380078,0.6833332,11.31012,-0.2471208625704202,-0.0224635304922598,-0.3648916727843101,10.61286,46.46119,0.7398917,0.08751838,0.3921853,-0.03056947,14.4199996776879,8
4.553617,0.2833333,11.48835,-0.1363780083896042,-0.487636980539919,-0.2543689864964644,3.470513,46.88218,0.286116,0.02877489,0.3975529,-0.009756333,14.4399996772408,8
4.594478,0.4833334,11.5333,-0.1799578333529981,-0.2430111419025731,-0.3001586445948483,6.940641,46.69297,0.5614193,0.0575128,0.3952868,-0.01949786,14.4599996767938,8
4.635329,0.6833334,11.57825,-0.2271590984744813,0.0188291525025647,-0.3492777665542732,10.41047,46.51915,0.8275449,0.08618793,0.3926567,-0.02921825,14.4799996763468,8
4.676169,0.8833333,11.62318,-0.2686528486596229,0.2456131438639895,-0.3923239536793321,13.88006,46.35984,1.086265,0.1147751,0.3896652,-0.03890888,14.4999996758997,8
4.822081,0.2833333,11.77097,-0.1064521576430559,-0.4686815018027052,-0.2329605888849801,3.416784,46.11198,0.2490503,0.028282,0.3913958,-0.009676632,14.5199996754527,8
4.86211,0.4833333,11.81535,-0.0692585484141954,-0.2597390263219452,-0.1948370038922675,6.833011,45.91991,0.487069,0.05652738,0.3891576,-0.01933987,14.5399996750057,8
4.902126,0.6833333,11.85972,-0.0357116007527258,-0.0335819899224766,-0.1577488722680744,10.24901,45.74073,0.715544,0.08471399,0.3865726,-0.02898303,14.5599996745586,8
4.942132,0.8833333,11.90408,0.0038203705263137,0.1575187285361715,-0.1120325175114302,13.66469,45.57348,0.9358715,0.1128166,0.3836432,-0.03859764,14.5799996741116,8
5.130072,0.2833334,12.09429,0.0383761963399233,0.1278288035966739,-0.0761802427844724,3.362609,43.99825,0.1252029,0.02761291,0.3744012,-0.009977955,14.5999996736646,8
5.169331,0.4833335,12.13793,0.0676983902392125,0.1441021445731228,-0.0443452417303671,6.724219,43.79575,0.2387027,0.05519032,0.3721973,-0.0199428,14.6199996732175,8
5.208579,0.6833335,12.18157,0.1015649200150976,0.1530227946618966,-0.0070650350178187,10.08527,43.59846,0.3411175,0.08271234,0.3696734,-0.02988762,14.6399996727705,8
5.374666,0.2833334,12.35016,0.1497616733172551,0.1012750238264207,0.0451282893365831,3.306107,42.34688,0.006010752,0.02691872,0.3610406,-0.0103705,14.6599996723235,8
5.413523,0.4833334,12.39278,0.1976362484012517,0.0421744287262596,0.0896304646624397,6.611249,42.13449,-0.0002511857,0.05380706,0.3588654,-0.02072943,14.6799996718764,8
5.452369,0.6833333,12.4354,0.2378760578228105,0.0290369523133427,0.1272464137996696,9.914997,41.92013,359.9808,0.08063895,0.3563925,-0.03106835,14.6999996714294,8
5.630995,0.2833332,12.61765,0.2800271719694427,0.0085466511130361,0.1673561470978768,3.254194,40.54002,359.9053,0.02634985,0.3463269,-0.01061167,14.7199996709824,8
5.669229,0.4833332,12.65965,0.3097814385526822,0.0073618623644453,0.1875868692851252,6.50702,40.31968,359.798,0.05267032,0.3441782,-0.02121167,14.7399996705353,8
5.707451,0.6833332,12.70164,0.3230033461836212,0.0521402440509382,0.1914963576087149,9.758451,40.09157,359.6772,0.07894044,0.3417526,-0.03179141,14.7599996700883,8
5.745664,0.8833331,12.74361,0.3290768472821419,0.0895660661359407,0.188444271752548,13.00811,39.85405,359.5417,0.1051366,0.3390526,-0.0423412,14.7799996696413,8
5.783865,0.9766704,12.78558,0.3373982275033,0.0663232656195066,0.1877395863950717,16.25624,39.60521,359.3904,0.1312401,0.3360804,-0.0528539,14.7999996691942,8
5.965211,0.2833334,12.96795,0.3369762055740191,0.0357275453575292,0.1732465584146112,3.200842,37.35157,359.7708,0.02581824,0.32014,-0.01083697,14.8199996687472,8
6.002341,0.4833333,13.00985,0.3282891937590886,0.051095167413608,0.1519673326458779,6.399848,37.12113,359.5285,0.05160879,0.3180256,-0.02166215,14.8399996683002,8
6.03946,0.6833333,13.05174,0.3207574132674828,0.0591100549361053,0.133388359692379,9.596865,36.87539,359.2713,0.07735099,0.315663,-0.03246706,14.8599996678531,8
6.203641,0.2833333,13.2164,0.3238148585968163,0.0064563711694202,0.1270033644750761,3.531242,38.90005,359.7903,0.02844368,0.3328791,-0.01198405,14.8799996674061,8
6.245318,0.4833332,13.26202,0.3226878028397832,-0.0535500209955752,0.1104036854162,7.060718,38.66982,359.5661,0.05685273,0.3306787,-0.02395353,14.899999666959,8
6.286975,0.6833333,13.30762,0.3103643596743897,-0.0675931519489739,0.0860837426349938,10.58949,38.42347,359.3249,0.08520829,0.3281637,-0.03590439,14.919999666512,8
6.463686,0.2833333,13.48464,0.2964791266261342,-0.088988964642702,0.0636335085500299,3.56117,40.80601,359.8482,0.0286612,0.3484912,-0.01207311,14.939999666065,8
6.50639,0.4833333,13.52986,0.2698578894519787,-0.0910796009843203,0.0230784650522242,7.120908,40.5816,359.6818,0.05728649,0.3462762,-0.02413557,14.9599996656179,8
6.549081,0.6833333,13.57507,0.2266675436474408,-0.0472070966850663,-0.0304620019328751,10.67894,40.3447,359.4995,0.0858481,0.3437271,-0.0361713,14.9799996651709,8
6.591761,0.8833331,13.62026,0.17680827773495,-0.0106871956332077,-0.0873511726955538,14.23518,40.09308,359.2997,0.1143185,0.3408468,-0.04816864,14.9999996647239,8
6.81121,0.2833333,13.8406,0.2833950163490701,-0.6751500354570994,0.0069257949855376,3.589918,42.72465,0.0009469856,0.0291738,0.3640855,-0.0114021,15.0199996642768,8
6.853779,0.4833333,13.88656,0.2580488729570191,-0.41637564297151,-0.0245510482917286,7.17903,42.51546,359.989,0.05831339,0.3618581,-0.02278823,15.0399996638298,8
6.896337,0.6833333,13.9325,0.2240469328485428,-0.14038680464953,-0.0614699000124101,10.76704,42.30363,359.9637,0.0873871,0.3592765,-0.03414891,15.0599996633828,8
6.938882,0.8833332,13.97843,0.1916890320684654,0.1005458274163629,-0.0938499783137611,14.35392,42.08741,359.9243,0.1163667,0.3563435,-0.04547283,15.0799996629357,8
7.094132,0.2833332,14.13263,0.1712787988895279,0.1403224284196078,-0.1117393459621549,3.560913,43.61272,0.07350788,0.02908478,0.371273,-0.01094625,15.0999996624887,8
7.13614,0.4833332,14.17842,0.1411613966310536,0.0611847239328774,-0.1480574435931121,7.120831,43.41118,0.1347364,0.05813178,0.3690555,-0.02187693,15.1199996620417,8
7.178135,0.6833332,14.2242,0.1059330928276569,0.0284981033630221,-0.1860707621281125,10.67993,43.21175,0.183813,0.08711421,0.3664825,-0.03278348,15.1399996615946,8
7.220119,0.8833333,14.26997,0.076031175021292,-0.0110534028998615,-0.2157601182769841,14.23815,43.01289,0.2207905,0.1160039,0.3635568,-0.04365525,15.1599996611476,8
7.420243,0.2833334,14.46709,0.0232053509325496,-0.0308120168243865,-0.2785381409519676,3.634148,44.76363,0.1118252,0.02969128,0.3805566,-0.01117201,15.1799996607006,8
7.46361,0.4833333,14.51342,-0.0333788743395739,-0.0041195078904788,-0.3430785347583232,7.267648,44.56667,0.2113341,0.0593443,0.3783159,-0.02232964,15.1999996602535,8
7.50696,0.6833332,14.55973,-0.0834088053250532,0.0157082866235533,-0.3991532955770314,10.9009,44.37428,0.2988363,0.08893185,0.3756949,-0.03346549,15.2199996598065,8
7.685715,0.2833332,14.73575,-0.2843764995145452,0.695643431770155,-0.6041818614301473,3.615424,45.724,0.1304626,0.02950928,0.3882862,-0.0112072,15.2399996593595,8
7.729378,0.4833331,14.78133,-0.3250846416974244,0.4914400083107832,-0.7094523092319527,7.230216,45.52939,0.2488193,0.0589803,0.3860503,-0.02240017,15.2599996589124,8
7.773028,0.6833332,14.82691,-0.3639322626035763,0.3091205631451966,-0.8089496321088898,10.84431,45.34062,0.3558486,0.08838362,0.3834307,-0.03356755,15.2799996584654,8
7.816665,0.8833331,14.87247,-0.3906720537305403,0.0943239563747641,-0.8922679492760821,14.45763,45.15625,0.451752,0.1176887,0.38043,-0.0447008,15.2999996580184,8
7.966219,0.2833333,15.01682,-0.2603622871533808,-0.7195793400671879,-0.9129904850248654,3.558515,47.63207,0.2234606,0.029192,0.4035505,-0.01075442,15.3199996575713,8
8.009542,0.4833333,15.06146,-0.2781555728276519,-0.5106369573666465,-1.0717623014437052,7.116705,47.44685,0.4357517,0.05834697,0.4013275,-0.02149536,15.3399996571243,8
8.052851,0.6833334,15.10608,-0.2806499171546512,-0.2844800236788001,-1.208699674361016,10.67447,47.27343,0.6383515,0.08743649,0.398717,-0.03221238,15.3599996566772,8
8.096149,0.8833333,15.15069,-0.2582964428186702,-0.093379404534187,-1.3138289307080129,14.23148,47.11072,0.8323818,0.1164297,0.3957216,-0.0428958,15.3799996562302,8
8.288727,0.2833333,15.33706,-0.3539952791021221,0.6168532033130237,-1.5246078141046429,3.490223,48.3521,0.2816249,0.02878818,0.4092823,-0.01023079,15.3999996557832,8
8.331034,0.4833332,15.38113,-0.3105733712969325,0.3308979962084074,-1.742665161862357,6.980335,48.1727,0.5527561,0.05754106,0.4070832,-0.02044898,15.4199996553361,8
8.373331,0.6833332,15.42518,-0.2454553923202009,0.0668265278242436,-1.9246904102781863,10.46976,48.0086,0.8153706,0.08622842,0.4045052,-0.03064259,15.4399996548891,8
8.544082,0.2833332,15.59094,-0.3124527822776528,0.4905657729853026,-2.219119981816533,3.429994,47.98861,0.2714306,0.02830439,0.4063977,-0.01000699,15.4599996544421,8
8.585448,0.4833332,15.63444,-0.2669245553120074,0.2702623422951723,-2.544676811224665,6.8594,47.80849,0.5325513,0.05657156,0.404225,-0.01999978,15.479999653995,8
8.626802,0.6833333,15.67793,-0.2028147401232729,0.0718428642862576,-2.8231466955500064,10.28858,47.64281,0.7850279,0.08477941,0.4016889,-0.02997161,15.499999653548,8
8.811706,0.2833333,15.85715,-0.1123993800750664,-0.159053894330108,-3.045633632269542,3.381355,46.50385,0.1709937,0.02769606,0.394562,-0.01027686,15.519999653101,8
8.852522,0.4833333,15.89985,-0.0927839309927236,-0.1567197670652689,-3.509100267109321,6.76189,46.31507,0.3309876,0.05535633,0.3924179,-0.02054115,15.5399996526539,8
8.893327,0.6833333,15.94253,-0.066825332749401,-0.1079345030903023,-3.920204917968201,10.14196,46.13441,0.4810511,0.08296032,0.3899322,-0.03078457,15.5599996522069,8
8.93412,0.8833332,15.98521,-0.0271094118382411,-0.0660142726468904,-4.271048102847431,13.52151,45.9608,0.6219788,0.1104838,0.3871074,-0.04099834,15.5799996517599,8
8.974901,0.9766705,16.02787,0.0338408701613079,-0.0842748868780705,-4.553912127993081,16.90049,45.79325,0.7544677,0.1379029,0.3839463,-0.05117342,15.5999996513128,8
9.152139,0.2833334,16.19442,0.1320126712474483,-0.1093997246215842,-5.0539515835430855,3.32527,44.58542,0.04781275,0.027004,0.3791675,-0.01062037,15.6199996508658,8
9.192343,0.4833335,16.23625,0.23742485586002,-0.0880734293139112,-5.476914530695938,6.649298,44.38667,0.08408755,0.05397373,0.3770578,-0.02122776,15.6399996504188,8
9.232535,0.6833335,16.27807,0.3576792775125561,-0.0736120634322901,-5.815632342929682,9.972491,44.18855,0.1089569,0.08089022,0.3746315,-0.0318144,15.6599996499717,8
9.379149,0.2833332,16.41225,0.5004879089476759,-0.1193316899766676,-6.063115733963906,3.26863,45.07536,359.9648,0.02622442,0.3831431,-0.01121525,15.6799996495247,8
9.420043,0.4833332,16.452,0.5462270754415197,-0.1719160335544479,-6.576421941788098,6.536144,44.87003,359.9178,0.05241955,0.3810524,-0.02241827,15.6999996490777,8
9.460925,0.6833332,16.49174,0.5993800094743218,-0.1780491517364095,-6.994849565377537,9.802184,44.66045,359.8582,0.07856053,0.3786525,-0.03360129,15.7199996486306,8
9.501793,0.8833331,16.53146,0.6672649924950562,-0.1910470941935097,-7.312641160970779,13.06698,44.44506,359.7851,0.1046274,0.3759454,-0.04475836,15.7399996481836,8
9.684794,0.2833333,16.65502,0.5947353185064177,0.4560624180874637,-7.680039586233487,3.213954,47.15165,359.8883,0.02531278,0.3998299,-0.01210962,15.7599996477365,8
9.727319,0.4833333,16.69161,0.627645333020169,0.2190332401463278,-8.193129481117468,6.426533,46.94074,359.7645,0.05059785,0.3977535,-0.02420658,15.7799996472895,8
9.769832,0.6833334,16.7282,0.6639181417082085,0.0038879327345349,-8.58972597167309,9.637664,46.72132,359.6277,0.07583512,0.3953646,-0.0362814,15.7999996468425,8
9.93852,0.2833332,16.79858,0.7113265367062205,-0.2437346440465431,-8.865579915572862,3.448907,53.56328,359.9323,0.02659888,0.4504032,-0.0140864,15.8199996463954,8
9.987782,0.4833333,16.83326,0.7406050873136696,-0.2581262303182056,-9.324370932705415,6.896592,53.35612,359.852,0.05316576,0.4482331,-0.02815696,15.8399996459484,8
10.03703,0.6833333,16.86792,0.7684365932106196,-0.2260665880578176,-9.651449854259525,10.34336,53.14229,359.7578,0.07967784,0.4456572,-0.04220333,15.8599996455014,8
10.08624,0.8833331,16.90258,0.8031728865668306,-0.2008719131196267,-9.843998086905277,13.79047,52.91949,359.6464,0.1061127,0.4426758,-0.05623482,15.8799996450543,8
10.13544,0.9766703,16.93724,0.8532603168945183,-0.2358580417365319,-9.899549166553394,17.23611,52.68613,359.5191,0.1324435,0.4392943,-0.07021136,15.8999996446073,8
10.29521,0.2833334,16.93684,0.871834874729231,-0.2777090042986259,-10.228059360180929,3.532897,63.41946,0.02505026,0.02633874,0.5253606,-0.01601647,15.9199996441603,8
10.35025,0.4833333,16.96465,0.8821697085175639,-0.273108724476972,-10.416236320369944,7.065978,63.22162,0.0365962,0.05264714,0.5231336,-0.03202814,15.9399996437132,8
10.40526,0.6833333,16.99246,0.8936512709538214,-0.2753732647488132,-10.463219072832343,10.59795,63.02237,0.03309589,0.07888457,0.5204085,-0.04802439,15.9599996432662,8
10.5484,0.2833334,16.95657,0.7614740528967694,0.382469427654715,-10.514657723764422,3.574661,71.76464,0.1452987,0.02601343,0.5858048,-0.01725415,15.9799996428192,8
10.60691,0.4833334,16.97834,0.6942707831998689,0.15617343401778,-10.610553388271097,7.149447,71.57855,0.2761125,0.05198306,0.5835445,-0.03451192,15.9999996423721,8
10.66541,0.6833333,17.00012,0.6264773232904535,-0.048238698759862,-10.568023337063366,10.72362,71.39912,0.3963533,0.07789439,0.5807158,-0.05173135,16.0199996419251,8
10.82445,0.2833332,16.93247,0.3957369563163446,0.4351597773795113,-10.551336052570576,3.534248,79.90171,0.2522576,0.02505252,0.6417713,-0.01811473,16.0399996414781,8
10.88442,0.4833332,16.94746,0.1651607693829024,0.9148295599514716,-10.417126696839876,7.068392,79.72605,0.4908821,0.05005686,0.6395269,-0.03622893,16.059999641031,8
10.94439,0.683333,16.96245,0.0440731029665233,0.485793499112038,-10.38431760803739,10.60225,79.56384,0.720734,0.07500632,0.6366712,-0.05430348,16.079999640584,8
11.00433,0.8833328,16.97743,-0.0751723272810913,0.053029076623152,-10.21834896513759,14.13568,79.41422,0.9433504,0.0998767,0.6332079,-0.07232088,16.099999640137,8
11.19892,0.2833333,16.83992,-0.1820415803524575,-0.3108242532719443,-9.923287216199954,3.589871,90.24911,0.3198397,0.02407694,0.7082302,-0.02022794,16.1199996396899,8
11.26162,0.4833333,16.84501,-0.3377255578622282,-0.3423258227821869,-9.832474740266228,7.179713,90.08125,0.6294991,0.04812214,0.7059659,-0.04043134,16.1399996392429,8
11.3243,0.6833332,16.8501,-0.49316905514506,-0.3278643892102106,-9.619154558782844,10.77051,89.93145,0.9302239,0.07211225,0.7030022,-0.06060344,16.1599996387959,8
11.38696,0.8833331,16.85522,-0.6375375677170556,-0.3207556836379955,-9.289849417277726,14.36115,89.79855,1.222627,0.09600826,0.6993421,-0.08072731,16.1799996383488,8
11.50808,0.2833333,16.68971,-0.8877691758900905,0.3459728114755877,-8.962402162613825,3.591557,98.55466,0.3163689,0.02253555,0.7574447,-0.02194929,16.1999996379018,8
11.57087,0.4833333,16.68563,-1.0527878085971911,0.1280747372095946,-8.691110034732219,7.183064,98.38728,0.6226254,0.04504148,0.7552024,-0.04387142,16.2199996374547,8
11.63364,0.6833332,16.68156,-1.2006851152702789,-0.0684272394881994,-8.319590982989597,10.77437,98.23792,0.9210065,0.06749517,0.7522123,-0.06574482,16.2399996370077,8
11.69639,0.8833333,16.6775,-1.320763444424891,-0.2978943652354515,-7.856941092844872,14.36602,98.1056,1.212373,0.08986969,0.7484772,-0.08755922,16.2599996365607,8
11.84807,0.2833333,16.44864,-1.5729941396057503,0.3456956939522354,-7.413373967881647,3.516874,110.6675,0.4674871,0.02080752,0.8220141,-0.02291879,16.2799996361136,8
11.90831,0.4833333,16.4344,-1.6936063331043891,0.1046590652804437,-7.110998846570354,7.034085,110.5144,0.9261397,0.04158786,0.8198615,-0.04580981,16.2999996356666,8
11.96854,0.6833333,16.42016,-1.7895506510347907,-0.11498147862943,-6.735186980459602,10.5514,110.3885,1.37929,0.06232096,0.8169227,-0.06865138,16.3199996352196,8
12.11313,0.2833333,16.22882,-2.002200764200559,0.3527011432437081,-6.33783708839827,3.424544,119.6337,0.615236,0.01966154,0.8639436,-0.02313076,16.3399996347725,8
12.17028,0.4833334,16.20835,-2.0871552452673328,0.1758529822957288,-6.086146981295848,6.849805,119.4933,1.222723,0.03929727,0.8618931,-0.04623479,16.3599996343255,8
12.22741,0.6833334,16.1879,-2.1394433448323085,0.0204010005451161,-5.801248255477486,10.27595,119.3886,1.825794,0.05888455,0.8590472,-0.06929923,16.3799996338785,8
12.28454,0.8833333,16.16747,-2.1522700313850525,-0.1680160481030815,-5.493542766895942,13.70219,119.3192,2.42708,0.07839147,0.8554085,-0.09230666,16.3999996334314,8
12.45771,0.2833333,15.9204,-2.118883745085345,-0.3157132702720683,-5.173968414658638,3.363799,129.9027,0.561308,0.01686219,0.9054865,-0.0245167,16.4199996329844,8
12.50891,0.4833333,15.89009,-2.021413125487776,-0.3716429794561785,-5.105849039187071,6.729023,129.757,1.110523,0.0336734,0.9035651,-0.04902713,16.4399996325374,8
12.56011,0.6833333,15.85979,-1.896334850346076,-0.3820973209605589,-5.032858249257156,10.09461,129.6428,1.654538,0.05044123,0.9008426,-0.07349204,16.4599996320903,8
12.61129,0.8833332,15.82951,-1.738363121741772,-0.4003923449788745,-4.964116322878473,13.46016,129.5602,2.198225,0.06715953,0.8973222,-0.09788483,16.4799996316433,8
