pX,pY,pZ,aX,aY,aZ,reX,reY,reZ,rtX,rtY,rtZ,t,ID
-41.00041,0.23,-36.99972,5.218749122308083,0.0227073210995509,4.235786349388725,0.01568813,0.009946311,0.02319621,0.0001369223,8.677023e-05,0.0002024133,5.07999988645315,13
-41.00082,0.43,-36.99944,5.636389429519525,0.1016126439834189,4.43560196503995,0.03137813,0.009955929,0.04639595,0.000273861,8.677099e-05,0.0004048573,5.09999988600612,13
-41.00122,0.63,-36.99917,6.192642058292293,-0.2718660636970478,4.6585912391239575,0.04721949,0.009972052,0.06977203,0.0004121206,8.677164e-05,0.0006088399,5.11999988555908,13
-41.00172,0.2833333,-36.99873,6.662496833293744,-0.4038200088164644,4.827466777728404,0.02377681,7.196133,0.03547778,0.0002265124,0.06275677,0.0002959702,5.13999988511205,13
-41.00228,0.4833333,-36.99823,7.047341389403613,-0.3195836228542439,4.943633160101363,0.04756511,7.196154,0.07095081,0.0004531224,0.06275675,0.0005918926,5.15999988466501,13
-41.00285,0.6833333,-36.99774,7.472184473226278,-0.6837581094268198,5.039965501455924,0.07141928,7.196191,0.1064942,0.0006803446,0.06275673,0.000888391,5.17999988421798,13
-40.98312,0.2833333,-36.97126,7.801339694095539,-0.8024355958059908,5.080665970322663,0.9099748,13.15231,0.5473258,0.008435589,0.1144811,0.00383531,5.19999988377094,13
-40.98886,0.4833333,-36.95343,8.037572207420126,-0.7009491944239599,5.068136023656045,1.819837,13.16535,1.094878,0.01687014,0.1144663,0.007669886,5.21999988332391,13
-40.9946,0.6833332,-36.93562,8.376401835062204,-1.043901506350188,5.065828348771873,2.731587,13.18715,1.644078,0.02532216,0.1144417,0.01151123,5.23999988287687,13
-40.92611,0.2833334,-36.89484,8.606210585848395,-1.1373837635491542,5.00532441715567,1.536644,21.3808,0.120432,0.01337155,0.1854713,-0.001454826,5.25999988242984,13
-40.91816,0.4833333,-36.86893,8.73143669951591,-1.0067299946685986,4.890205161906366,3.073576,21.38563,0.2405092,0.02674234,0.185421,-0.002914388,5.2799998819828,13
-40.91024,0.6833333,-36.84305,8.756821523982595,-0.6762288975098496,4.724180946705005,4.612926,21.39356,0.3587928,0.04012568,0.1853363,-0.004395649,5.29999988153577,13
-40.82497,0.2833333,-36.79472,8.841797218179039,-1.0228758549285288,4.551455316540093,2.899557,27.66685,0.04862709,0.02466828,0.239013,-0.005637485,5.31999988108873,13
-40.80206,0.4833333,-36.74925,8.819298276657605,-1.1126659569780608,4.327769938179607,5.800999,27.67045,0.09607231,0.04933377,0.2387828,-0.01128737,5.3399998806417,13
-40.77916,0.6833332,-36.7038,8.695590178033484,-0.9709323859589432,4.057864147125926,8.704612,27.67647,0.1437766,0.07398552,0.2383991,-0.01693648,5.35999988019466,13
-40.63118,0.2833335,-36.62286,8.649763440952611,-1.2622767343804653,3.7999108351770583,4.288854,36.46983,0.1682928,0.03599866,0.3126421,-0.01031487,5.37999987974763,13
-40.58881,0.4833339,-36.56064,8.495313013466685,-1.2927910504987876,3.4972174994972747,8.581756,36.48871,0.3366258,0.07197555,0.3119826,-0.02064169,5.39999987930059,13
-40.54646,0.6833339,-36.49844,8.2402047088965,-1.0878086996484329,3.1554512864809183,12.87644,36.52075,0.5086279,0.1078661,0.310884,-0.03094606,5.41999987885356,13
-40.35847,0.2833333,-36.40476,8.08406471443724,-1.3119327220585624,2.8435410768236977,3.879151,45.21077,0.2772667,0.03217473,0.3840852,-0.01077713,5.43999987840652,13
-40.31373,0.4833333,-36.35363,7.820788178859182,-1.2712542035103611,2.49493548945091,7.75811,45.23904,0.5560663,0.06430817,0.3834212,-0.02154972,5.45999987795949,13
-40.26903,0.6833333,-36.30251,7.460145442809733,-0.9911071475617098,2.11621314710316,11.63857,45.28653,0.8377531,0.09637343,0.382314,-0.03232133,5.47999987751245,13
-40.11306,0.283333,-36.24379,7.124786945274167,-1.1360941953561567,1.7483370039027335,3.729598,50.94841,0.2633772,0.0303654,0.4298083,-0.01192221,5.49999987706542,13
-40.06538,0.4833325,-36.1993,6.698655993619255,-1.012306075144357,1.3582778075100777,7.458038,50.9743,0.5288346,0.06068938,0.4291221,-0.02382899,5.51999987661839,13
-40.01772,0.6833324,-36.15482,6.192960638554176,-0.645076579659658,0.9532975047939516,11.18495,51.01799,0.7984462,0.09093659,0.4279797,-0.0357085,5.53999987617135,13
-39.79467,0.2833333,-36.06557,5.801046726399939,-0.6990079513955811,0.6022500030645688,3.639653,57.14724,0.2819641,0.02906497,0.4779763,-0.01302894,5.55999987572432,13
-39.74395,0.4833333,-36.02706,5.330290615537486,-0.4801914238847203,0.2436115636539497,7.278143,57.17428,0.5660137,0.05809137,0.4772488,-0.02604173,5.57999987527728,13
-39.69324,0.6833332,-35.98856,4.793709152763768,-0.0139612407809949,-0.1147140975249243,10.91542,57.21992,0.8545362,0.08705023,0.4760378,-0.03902514,5.59999987483025,13
-39.45269,0.2833333,-35.88886,4.407318233551308,-0.2050152278910813,-0.3955522905669468,3.555905,63.03032,0.4011581,0.02827873,0.5223767,-0.01323505,5.61999987438321,13
-39.40052,0.4833333,-35.85457,3.959326755392596,-0.387148778873159,-0.6681894441222411,7.110604,63.06789,0.8051636,0.05652106,0.5216128,-0.02645443,5.63999987393618,13
-39.34837,0.6833327,-35.82029,3.464610497336274,0.0418187415167145,-0.9243326445082722,10.664,63.13128,1.21524,0.0847002,0.5203409,-0.03964546,5.65999987348914,13
-39.18066,0.2833333,-35.7567,2.938282006578568,0.4472641208005075,-1.1554907942704276,3.497595,65.99295,0.4489405,0.02772754,0.5442294,-0.01333505,5.67999987304211,13
-39.12806,0.483333,-35.7248,2.564045417893567,-0.0757898688359913,-1.2988564859753249,6.994005,66.03431,0.9009926,0.05542055,0.5434566,-0.02665472,5.69999987259507,13
-39.07547,0.6833333,-35.69291,2.149558096114383,0.0979229303911024,-1.4371094214019706,10.48887,66.10403,1.359561,0.08305159,0.5421699,-0.03994614,5.71999987214804,13
-38.84253,0.2833336,-35.60398,1.8800408930066796,-0.1510595534006757,-1.507266093650081,3.446484,68.44202,0.4344891,0.02699674,0.5620339,-0.01377803,5.739999871701,13
-38.78936,0.4833338,-35.57489,1.6150317805083034,-0.3969053315958465,-1.5560929596649975,6.891559,68.48141,0.871619,0.05395743,0.5612594,-0.02754119,5.75999987125397,13
-38.73622,0.6833338,-35.54579,1.283398831247105,0.0263118508649523,-1.6041277265470697,10.33548,68.5475,1.312765,0.0808516,0.559969,-0.04129231,5.77999987080693,13
-38.68309,0.8833335,-35.5167,0.9658551200035888,0.4270526658847228,-1.6296121525381295,13.77784,68.64172,1.763585,0.1076643,0.5581654,-0.05500172,5.7999998703599,13
-38.48528,0.283333,-35.44982,0.8284928833818341,-0.099660568407548,-1.5756788811163034,3.405999,69.46854,0.3270908,0.02604836,0.5694475,-0.01458799,5.81999986991286,13
-38.43163,0.4833324,-35.42365,0.627921235273952,0.0714379978985089,-1.5198732439122402,6.810739,69.49776,0.6550885,0.05205828,0.5686859,-0.02916737,5.83999986946583,13
-38.37799,0.6833323,-35.39749,0.445884888079,0.2477638509973706,-1.4559188377667134,10.2142,69.54701,0.987675,0.07801376,0.5674182,-0.04371628,5.85999986901879,13
-38.16268,0.2833331,-35.3214,0.4668334329541395,-0.263267855357165,-1.322826198679124,3.363334,68.98207,0.1976428,0.02516398,0.5659909,-0.01519722,5.87999986857176,13
-38.10914,0.4833331,-35.29715,0.3659808829355526,-0.0764881351091235,-1.2246289139597517,6.725297,68.9995,0.395808,0.0502925,0.5652571,-0.03038079,5.89999986812472,13
-38.05561,0.6833335,-35.2729,0.2694690706633977,0.1155182311819518,-1.1406619890185254,10.08617,69.02887,0.5966296,0.0753698,0.5640357,-0.04553389,5.91999986767769,13
-37.82276,0.2833335,-35.18949,0.3833207303403014,-0.3798332851865746,-1.0056341549530678,3.314548,68.19042,0.07001515,0.02429192,0.5603206,-0.01570639,5.93999986723065,13
-37.76952,0.4833335,-35.16689,0.3323195490259607,-0.1773725013374745,-0.9299060175443294,6.628145,68.19653,0.1404448,0.04855642,0.5596172,-0.03139542,5.95999986678362,13
-37.7163,0.6833333,-35.14428,0.2827043212221696,0.0303155491802661,-0.8663336132560744,9.940452,68.2067,0.2111413,0.07276778,0.5584461,-0.04705684,5.97999986633658,13
-37.55759,0.283333,-35.08955,0.3567770765941915,-0.4493540994048619,-0.7774128519181502,3.269005,67.50444,359.9661,0.0235516,0.5553834,-0.0160936,5.99999986588955,13
-37.50467,0.483333,-35.06829,0.3131221806734743,-0.2312122743439208,-0.7113364881360624,6.536999,67.50153,359.932,0.04707661,0.5547056,-0.03216939,6.01999986544251,13
-37.45176,0.683333,-35.04703,0.2803966724730742,-0.0078424890713171,-0.6505904306419588,9.803735,67.49654,359.8969,0.07055202,0.5535769,-0.04821627,6.03999986499548,13
-37.22845,0.2833333,-34.96816,0.4514125940811766,-0.4718298006577859,-0.5323495000172507,3.226516,65.59896,359.8654,0.02302879,0.5415133,-0.01623698,6.05999986454844,13
-37.17622,0.4833335,-34.94704,0.4272879340574462,-0.2380062992978796,-0.4769070385624658,6.452026,65.58754,359.7301,0.04603231,0.5408685,-0.032456,6.07999986410141,13
-37.124,0.6833333,-34.92593,0.4048490252574552,0.0010444627195584,-0.4271965128427872,9.676628,65.5683,359.593,0.06899298,0.5397946,-0.04864503,6.09999986365438,13
-36.88229,0.2833338,-34.83971,0.5975864947007921,-0.4472625732443235,-0.3118679924650607,3.283874,64.59175,359.8047,0.02331029,0.5341126,-0.01674939,6.11999986320734,13
-36.82906,0.4833335,-34.8182,0.5651410085236819,-0.1977579409414734,-0.2788843200411435,6.566886,64.57487,359.6082,0.04659562,0.5334526,-0.0334806,6.13999986276031,13
-36.77584,0.6833338,-34.79669,0.5215011142494888,0.0569736334299343,-0.2551757422703851,9.848795,64.54643,359.409,0.06983517,0.5323535,-0.05017929,6.15999986231327,13
-36.72264,0.8833335,-34.7752,0.479688694071001,0.2646623375908459,-0.2375374736103168,13.13029,64.50597,359.2059,0.09301528,0.5308163,-0.06683494,6.17999986186624,13
-36.5117,0.2833333,-34.70301,0.4722224390638914,0.2395724752888854,-0.2034040582702125,3.534452,66.44435,359.8219,0.0249474,0.547666,-0.01819568,6.1999998614192,13
-36.45388,0.4833337,-34.68122,0.4560036119102832,0.2484589301611103,-0.1767671887183546,7.067841,66.42776,359.6425,0.04986342,0.5468826,-0.03636924,6.21999986097217,13
-36.26365,0.283333,-34.61533,0.5839946544811951,-0.1888714930386542,-0.1060285972005239,3.560408,67.87093,359.8546,0.02506605,0.5580216,-0.01839457,6.23999986052513,13
-36.20514,0.4833333,-34.59428,0.495735272353766,0.0726549387822624,-0.110124255783262,7.119892,67.85725,359.7077,0.05009922,0.5572123,-0.03677012,6.2599998600781,13
-36.14665,0.6833335,-34.57325,0.3962508690133077,0.3404534701541775,-0.1216156128486289,10.67833,67.83416,359.5585,0.07507728,0.5558649,-0.05510458,6.27999985963106,13
-36.08818,0.8833334,-34.55221,0.2987739769502404,0.5622538850080743,-0.1369697370817952,14.23573,67.80122,359.4059,0.099976,0.5539813,-0.0733809,6.29999985918403,13
-35.88947,0.2833331,-34.4834,0.3668615109478352,-0.1679657135715682,-0.1023900184017883,3.594969,69.528,359.9828,0.02568279,0.5699208,-0.01800828,6.31999985873699,13
-35.8306,0.4833331,-34.46173,0.2710020263702475,0.0141104725777819,-0.1165348287208623,7.189172,69.5264,359.9658,0.05133593,0.5690796,-0.03599343,6.33999985828996,13
-35.77174,0.6833333,-34.44008,0.1782984630871276,0.2024598462895347,-0.1320702968993181,10.78232,69.52368,359.9485,0.07693113,0.567679,-0.05393784,6.35999985784292,13
-35.55448,0.2833333,-34.36423,0.272463441124728,-0.295502833150897,-0.0869965083127901,3.555587,70.59442,0.08285004,0.02573777,0.5775213,-0.01733604,6.37999985739589,13
-35.49645,0.4833333,-34.34225,0.1808260575790257,-0.0946088540207829,-0.1025620059197081,7.109861,70.6022,0.1665858,0.05144268,0.5766872,-0.0346471,6.39999985694885,13
-35.43844,0.6833334,-34.32028,0.0894463416868518,0.1125574480297926,-0.119363153083956,10.66309,70.61534,0.2515734,0.07709052,0.5752985,-0.05192002,6.41999985650182,13
-35.20009,0.2833333,-34.23761,0.2025475008732939,-0.3665892236432349,-0.0688179103134238,3.624914,71.61943,0.1055833,0.02618806,0.5847785,-0.01775858,6.43999985605478,13
-35.14063,0.4833332,-34.21592,0.1039728489514821,-0.1468787496713516,-0.0909518553283348,7.248803,71.62952,0.2119329,0.05234232,0.5839003,-0.03549481,6.45999985560775,13
-35.08119,0.6833334,-34.19423,-0.0010477456434756,0.0791040370282363,-0.1165309345651692,10.87221,71.64648,0.3196961,0.07843937,0.5824378,-0.05319534,6.47999985516071,13
-34.91981,0.2833334,-34.13889,-0.098908826215041,0.2590889507034322,-0.1412343950496186,3.642304,71.97783,0.1067891,0.02626129,0.5873077,-0.01792102,6.49999985471368,13
-34.85994,0.4833328,-34.11746,-0.1502324732356221,0.2073409337608062,-0.1473035629198946,7.283639,71.98808,0.2144798,0.05248947,0.5864171,-0.03581881,6.51999985426664,13
-34.8001,0.683333,-34.09603,-0.2007151133163383,0.1906141755974528,-0.1527850617604613,10.92378,72.0054,0.3238675,0.07865606,0.5849345,-0.05367491,6.53999985381961,13
-34.57197,0.2833333,-34.01781,-0.2364024535645867,0.1555927322160351,-0.1531466693933438,3.604295,73.32059,0.1603263,0.02606236,0.5967381,-0.01765495,6.55999985337257,13
-34.51254,0.4833333,-33.99709,-0.2759099256390591,0.1289346602499474,-0.1540418373299203,7.207505,73.3358,0.3218724,0.05209123,0.5958511,-0.03528731,6.57999985292554,13
-34.45312,0.6833335,-33.97637,-0.3170577868155355,0.1372976561885276,-0.1552125581581016,10.80957,73.36149,0.4858911,0.07806031,0.5943742,-0.0528799,6.5999998524785,13
-34.20582,0.2833333,-33.89145,-0.3457247920791886,0.127366428109486,-0.152191364194369,3.543506,74.83337,0.2423408,0.02584055,0.6072634,-0.01710709,6.61999985203147,13
-34.14726,0.4833333,-33.87119,-0.3770035125660165,0.1257982200134747,-0.1521413238590447,7.085906,74.856,0.4864716,0.05164867,0.6063886,-0.03419273,6.63999985158443,13
-34.08872,0.6833332,-33.85094,-0.4124757246728769,0.1592517555060468,-0.1552526235312825,10.62714,74.89417,0.7343433,0.07739982,0.6049321,-0.05124038,6.6599998511374,13
-34.03019,0.8833331,-33.8307,-0.4389433683342325,0.1744103723925711,-0.1573172316677293,14.16678,74.94862,0.9878621,0.1030662,0.602896,-0.06823266,6.67999985069036,13
-33.82342,0.2833333,-33.75928,-0.3331063078206355,-0.522356266018971,-0.1181294549605098,3.481662,75.11813,0.2829497,0.02558625,0.6092363,-0.01656158,6.69999985024333,13
-33.76599,0.4833334,-33.73891,-0.3935668897311686,-0.3068274406426637,-0.1352351651691066,6.9622,75.14407,0.5678938,0.05114099,0.6083874,-0.03310298,6.7199998497963,13
-33.57776,0.2833331,-33.6734,-0.4446123267739743,-0.0850266315817364,-0.1506876277216697,3.432068,74.90527,0.2908141,0.02531529,0.6077703,-0.01619647,6.73999984934926,13
-33.52127,0.4833331,-33.6529,-0.4522121330245774,-0.0693447962060757,-0.1514845183212152,6.86265,74.93156,0.5838505,0.05059871,0.6069471,-0.03237006,6.75999984890223,13
-33.4648,0.683333,-33.63241,-0.4662460862285691,-0.0196874798107211,-0.1547292559841651,10.29207,74.97591,0.8810295,0.07582907,0.6055764,-0.04851002,6.77999984845519,13
-33.40835,0.883333,-33.61192,-0.4743362163300197,0.0106293367562541,-0.1561231807528607,13.72024,75.03909,1.18469,0.1009841,0.60366,-0.06460144,6.79999984800816,13
-33.21106,0.2833335,-33.54431,-0.2632604710828516,-0.6720243497110842,-0.0815327901699021,3.391093,73.40664,0.1910898,0.02471854,0.5973696,-0.01634783,6.81999984756112,13
-33.15531,0.4833335,-33.52422,-0.2144268011852901,-0.4434278462620963,-0.0612593803705898,6.78087,73.4237,0.383382,0.0494057,0.5965827,-0.03267565,6.83999984711409,13
-33.09958,0.6833335,-33.50414,-0.1659527613515905,-0.2096043652005834,-0.0408258746026106,10.1696,73.45245,0.5783446,0.07404245,0.5952726,-0.04897014,6.85999984666705,13
-32.88417,0.2833335,-33.4296,-0.1051577176447899,-0.0228248915823963,-0.0160497319248271,3.340303,71.74036,0.1063334,0.02416145,0.5856796,-0.0163262,6.87999984622002,13
-32.82941,0.4833338,-33.40957,-0.0494937946010871,-0.0688230982671039,0.0052151107320845,6.679223,71.74971,0.2134757,0.0482931,0.5849327,-0.03263093,6.89999984577298,13
-32.77467,0.6833337,-33.38955,0.0042953930623141,-0.0808452354528922,0.0245469102152711,10.0172,71.76548,0.3220825,0.0723772,0.5836891,-0.04890332,6.91999984532595,13
-32.54118,0.2833335,-33.30908,0.0688840761407654,-0.1122078319573877,0.0461024903572955,3.290702,70.01417,359.9787,0.02341141,0.5734456,-0.01662432,6.93999984487891,13
-32.48709,0.4833335,-33.28981,0.1215822991165147,-0.1362524432997471,0.0623583511921985,6.580462,70.01232,359.9572,0.04679709,0.5727364,-0.03322981,6.95999984443188,13
-32.43303,0.6833334,-33.27055,0.1629086032229167,-0.1263210780105265,0.0736811009016449,9.868919,70.00919,359.9354,0.07013401,0.5715557,-0.04980271,6.97999984398484,13
-32.37898,0.8833334,-33.25129,0.2051781641678083,-0.1357300386630011,0.0842397946258266,13.15643,70.00472,359.913,0.09340633,0.5699048,-0.06633006,6.99999984353781,13
-32.18211,0.2833329,-33.1833,0.3392330081662997,-0.1378211342013618,0.1258262492367379,3.240701,67.97588,359.8896,0.0229074,0.5588171,-0.01660567,7.01999984309077,13
-32.12898,0.4833328,-33.16388,0.4596924749718312,-0.1059356667197397,0.161674025212104,6.480365,67.96646,359.7785,0.04578923,0.5581462,-0.0331928,7.03999984264374,13
-32.07587,0.6833327,-33.14446,0.5793408510130469,-0.0933902568576801,0.1962076848298366,9.719058,67.9506,359.666,0.06862758,0.5570291,-0.04974878,7.0599998421967,13
-31.86161,0.283333,-33.06977,0.5089024840841567,0.5667867634424637,0.1656729397270844,3.195181,65.45047,359.7913,0.02246985,0.5404426,-0.01660396,7.07999984174967,13
-31.80939,0.483333,-33.04992,0.5982641300487472,0.3303499028636878,0.1893600604389789,6.389338,65.43292,359.5813,0.0449154,0.5398098,-0.03318965,7.09999984130263,13
-31.75719,0.6833332,-33.03007,0.6816315641051602,0.1033216826931769,0.2108895750024402,9.582438,65.40337,359.3687,0.06731904,0.5387563,-0.04974452,7.1199998408556,13
-31.51922,0.2833335,-32.94786,0.5462716552649169,0.5516292794328944,0.1577320507444746,3.531449,66.83993,359.7982,0.02474847,0.5505545,-0.01844017,7.13999984040856,13
-31.46111,0.4833337,-32.92685,0.5846565389715579,0.3434181067780536,0.1649459609819246,7.061925,66.82114,359.5948,0.0494668,0.5497678,-0.03685804,7.15999983996153,13
-31.40303,0.6833339,-32.90585,0.6069945656191429,0.1446154334881259,0.1678034523093821,10.5926,66.78937,359.388,0.07413823,0.5484572,-0.05524502,7.17999983951449,13
-31.24185,0.2833333,-32.85115,0.6262883295687836,-0.099140054832023,0.1708363200283713,3.560999,68.21091,359.8376,0.02493257,0.560483,-0.01859438,7.19999983906746,13
-31.1831,0.4833333,-32.83073,0.6775138560637721,-0.1221394206160727,0.1859827908082678,7.121159,68.19563,359.6737,0.04983365,0.5596695,-0.03716908,7.21999983862042,13
-31.12436,0.6833333,-32.81031,0.7073348730045623,-0.1111633339549945,0.1950172405822456,10.68024,68.16987,359.5073,0.07467942,0.5583152,-0.05570253,7.23999983817339,13
-30.89633,0.2833337,-32.73199,0.5721740016894579,0.3606648294148595,0.148331062482601,3.585011,69.72007,359.9362,0.02534874,0.5713082,-0.01833548,7.25999983772635,13
-30.83726,0.4833337,-32.71135,0.4255179227120607,0.8152438513284191,0.0982754553339937,7.169253,69.71404,359.8719,0.0506674,0.5704693,-0.03664895,7.27999983727932,13
-30.77822,0.6833336,-32.69072,0.4404718026675063,0.3475973268840938,0.1031369732357809,10.75247,69.70388,359.8067,0.07592967,0.5690727,-0.05492092,7.29999983683228,13
-30.53102,0.2833333,-32.60463,0.4496551886487907,-0.1372984338875648,0.1065039891276846,3.574086,70.84806,0.0669444,0.0257504,0.5793262,-0.01759956,7.31999983638525,13
-30.4725,0.4833333,-32.58306,0.2977877101625203,0.2655333459070848,0.0564402626212263,7.147075,70.85441,0.1348814,0.05147035,0.5784809,-0.03517317,7.33999983593822,13
-30.414,0.6833332,-32.56149,0.3295409426600564,0.0108016424274329,0.0693717429055666,10.71905,70.86514,0.2039027,0.07713318,0.5770735,-0.05270742,7.35999983549118,13
-30.3555,0.8833329,-32.53993,0.3550088772939261,-0.2355670107522762,0.0808255435840656,14.29002,70.88042,0.274507,0.1027138,0.5751058,-0.07018597,7.37999983504415,13
-30.14704,0.2833333,-32.46867,0.1966486478610392,0.1923542657118712,0.0301833128165363,3.596666,71.72519,0.09404007,0.025913,0.5855338,-0.01771999,7.39999983459711,13
-30.08796,0.4833335,-32.44744,0.2397946551754906,-0.0372876266909578,0.0481110383335305,7.192249,71.73409,0.1887638,0.05179258,0.5846682,-0.03541747,7.41999983415008,13
-30.02889,0.6833333,-32.42621,0.2726812437731745,-0.2585662210314527,0.0622561361403768,10.7871,71.74909,0.2847239,0.07761472,0.5832269,-0.05307836,7.43999983370304,13
-29.80009,0.2833333,-32.34763,0.0952457674053732,0.1944452568833765,0.0049670957056058,3.642367,72.25887,0.1114026,0.02624144,0.5892884,-0.0179532,7.45999983325601,13
-29.74014,0.4833333,-32.32642,-0.0874186975097508,0.6302075050918076,-0.0537806327036243,7.283679,72.26956,0.2236743,0.05244883,0.5883947,-0.03588317,7.47999983280897,13
-29.68021,0.6833333,-32.3052,-0.0997520023848004,0.1437430418318978,-0.0538160198628467,10.92391,72.28761,0.3377481,0.07859565,0.5869069,-0.05377175,7.49999983236194,13
-29.43203,0.2833333,-32.22023,-0.1103616250436942,-0.3599706367600099,-0.0522078903992024,3.604411,73.5447,0.1606071,0.02603006,0.598305,-0.01770453,7.5199998319149,13
-29.37251,0.4833333,-32.19973,-0.2761175878062332,0.0240445395572539,-0.1025427355129373,7.20773,73.55994,0.3224364,0.05202661,0.5974156,-0.03538637,7.53999983146787,13
-29.31301,0.6833335,-32.17924,-0.2463032876305142,-0.2495043815786912,-0.0857586024112286,10.80991,73.58569,0.4867792,0.07796367,0.5959349,-0.0530281,7.55999983102083,13
-29.25353,0.8833334,-32.15876,-0.2114018350320918,-0.51468958343883,-0.0664974378582776,14.4108,73.6224,0.6548663,0.1038139,0.5938647,-0.07061278,7.5799998305738,13
-29.04609,0.2833336,-32.08796,-0.3501243429032996,-0.1055851285073613,-0.1062638059440708,3.543267,75.0178,0.2415699,0.02580723,0.6085406,-0.01715272,7.59999983012676,13
-28.98746,0.4833338,-32.06791,-0.475516162911358,0.2862703226135861,-0.1420504428049227,7.085434,75.04035,0.4849207,0.05158211,0.607664,-0.034284,7.61999982967973,13
-28.92885,0.683334,-32.04786,-0.3266438476573512,-0.2441012971809285,-0.0868125159940866,10.62642,75.0784,0.7319681,0.07729985,0.6062047,-0.05137733,7.63999982923269,13
-28.70243,0.2833334,-31.96991,-0.3842106450584879,-0.0714345104081629,-0.103075938634582,3.482026,75.24372,0.2816901,0.0255639,0.6101046,-0.01660025,7.65999982878566,13
-28.64495,0.4833331,-31.94967,-0.4433671117089837,0.1116863681900132,-0.1211251060519558,6.962988,75.26956,0.5654371,0.05109709,0.6092544,-0.03318011,7.67999982833862,13
-28.58747,0.6833328,-31.92945,-0.4911459097304735,0.2529904176762822,-0.1365687784411022,10.44234,75.31316,0.8535332,0.07657346,0.607839,-0.04972082,7.69999982789159,13
-28.34263,0.2833331,-31.84473,-0.4880860442748513,0.1667441236579467,-0.1353249921022268,3.427357,74.73244,0.2728381,0.02521187,0.6065776,-0.01625796,7.71999982744455,13
-28.2862,0.4833328,-31.82439,-0.4800257432314438,0.1197007423286354,-0.1329412548627218,6.853229,74.75708,0.5477563,0.05039194,0.605759,-0.03249304,7.73999982699752,13
-28.22979,0.6833325,-31.80405,-0.4540090027181414,0.0585443174074331,-0.1248497047449035,10.27796,74.79861,0.826563,0.07551938,0.6043959,-0.04869434,7.75999982655048,13
-28.17339,0.8833325,-31.78372,-0.4306226118774248,0.0099324535617492,-0.1166439086383483,13.70143,74.8578,1.111396,0.1005715,0.6024901,-0.06484714,7.77999982610345,13
-27.9669,0.2833333,-31.71284,-0.4075884635301889,0.0005234341920277,-0.1074639202424023,3.380052,73.09888,0.1728513,0.02459026,0.5952207,-0.01635184,7.79999982565641,13
-27.91136,0.4833333,-31.69281,-0.3720045754031176,-0.0229986852217775,-0.0929571189733771,6.758707,73.11426,0.3468446,0.04914916,0.5944422,-0.0326828,7.81999982520938,13
-27.85583,0.6833333,-31.67278,-0.3463150833508592,-0.033975554634273,-0.0830712517091782,10.13633,73.14017,0.5232381,0.07365822,0.5931461,-0.04898062,7.83999982476234,13
-27.6312,0.2833333,-31.59533,-0.3308457809710958,-0.0057493026240356,-0.0775359839011002,3.328547,71.38235,0.07370481,0.02396301,0.5831547,-0.01642196,7.85999982431531,13
-27.57658,0.4833331,-31.57557,-0.3126563803923439,0.0083645291205655,-0.0720814131031168,6.655754,71.38879,0.1478961,0.04789629,0.5824166,-0.03282338,7.87999982386827,13
-27.52197,0.683333,-31.55582,-0.2788475302920368,-0.0449504650338458,-0.0624387606867955,9.981956,71.39967,0.2230743,0.07178203,0.5811878,-0.04919226,7.89999982342124,13
-27.27954,0.2833336,-31.47235,-0.2458203426391101,-0.1123796441946272,-0.0539636841539099,3.278458,69.6857,359.9544,0.02325029,0.5711031,-0.01666995,7.91999982297421,13
-27.22563,0.4833336,-31.45325,-0.2092948441959343,-0.1406061450126624,-0.0450472351359749,6.555981,69.68177,359.9085,0.04647494,0.570402,-0.03332154,7.93999982252717,13
-27.17172,0.6833335,-31.43414,-0.1566679966500181,-0.1829455779992094,-0.0314105903475656,9.832206,69.67511,359.8618,0.06965139,0.5692345,-0.0499408,7.95999982208014,13
-27.11784,0.8833336,-31.41505,-0.1102986913081842,-0.2127398454884996,-0.0212330969989018,13.10746,69.66562,359.8142,0.09276433,0.5676023,-0.06651409,7.9799998216331,13
-26.9123,0.2833335,-31.34398,-0.0676532354481125,-0.2033315290704947,-0.013214420733135,3.228409,67.22626,359.853,0.02274927,0.5533925,-0.01666231,7.99999982118607,13
-26.85938,0.4833336,-31.32454,-0.0162354927342356,-0.2080363326464983,-0.0030429907677778,6.45588,67.21378,359.705,0.04547416,0.5527324,-0.0333064,8.01999982073903,13
-26.80647,0.6833338,-31.3051,0.0201014571400435,-0.2001959461580853,0.0012944800696494,9.682323,67.19274,359.5553,0.06815611,0.5516334,-0.0499188,8.039999820292,13
-26.58175,0.2833331,-31.22701,0.0410212270798737,-0.1531524186454833,0.0001530133231923,3.283751,65.81355,359.7945,0.02308103,0.5430929,-0.01707123,8.05999981984496,13
-26.52801,0.4833333,-31.2068,0.0591244945116073,-0.1202222927780078,-0.0019967522432935,6.56646,65.79578,359.5876,0.04613593,0.5424215,-0.03412336,8.07999981939793,13
-26.47428,0.6833332,-31.18659,0.0870247518569513,-0.1547212857859528,-0.0006506724471861,9.848186,65.76585,359.3781,0.06914674,0.5413036,-0.05114239,8.09999981895089,13
-26.42056,0.8833334,-31.1664,0.1073564171789875,-0.2033333362374839,-0.0009609329809627,13.12934,65.72329,359.1646,0.0920983,0.5397404,-0.0681159,8.11999981850386,13
-26.13552,0.2833332,-31.06887,0.1243487438629671,-0.2127428628928485,-0.0013241348655057,3.525928,67.90282,359.8328,0.02470529,0.5582619,-0.01839125,8.13999981805682,13
-26.07736,0.4833331,-31.04843,0.1508037293404136,-0.2362658384981852,0.002774093685641,7.050841,67.88728,359.6644,0.04938002,0.5574675,-0.03676024,8.15999981760979,13
-26.01924,0.6833333,-31.02799,0.1670480819434487,-0.2472427022480402,0.0044382136151277,10.57661,67.86096,359.4927,0.07401154,0.5561438,-0.05510331,8.17999981716275,13
-25.96114,0.8833332,-31.00757,0.1749908526656476,-0.2190163553667627,0.0047035301916871,14.10131,67.8234,359.3171,0.09856589,0.5542929,-0.07338921,8.19999981671572,13
-25.76223,0.2833333,-30.94017,0.1876529566944818,-0.2049027115347733,0.008003134503582,3.564459,69.41829,359.8958,0.02504889,0.5691583,-0.01845632,8.21999981626868,13
-25.70336,0.4833333,-30.92001,0.1833369951863872,-0.1782444687311205,0.0058007847684713,7.128179,69.40848,359.7906,0.05006738,0.5683316,-0.03689252,8.23999981582165,13
-25.64451,0.6833333,-30.89986,0.1614386683665394,-0.1123829659006686,-0.0017233250206203,10.69086,69.39191,359.6837,0.07503015,0.5669553,-0.05528804,8.25999981537461,13
-25.42667,0.2833334,-30.82411,0.135193897598981,-0.0606342218747542,-0.0101195078770608,3.589441,70.74814,0.05497027,0.02581448,0.5786158,-0.01773979,8.27999981492758,13
-25.36786,0.4833334,-30.80254,0.1178288470794655,-0.0763141743782532,-0.0149387301957837,7.178071,70.75339,0.1109802,0.05160094,0.5777644,-0.03545383,8.29999981448054,13
-25.30906,0.6833333,-30.78098,0.0929056586458436,-0.1061087016521521,-0.0217253461484894,10.76568,70.76225,0.1678598,0.07732949,0.5763466,-0.05312814,8.31999981403351,13
-25.0717,0.2833333,-30.69919,0.0644676419296956,-0.0967001677015622,-0.0288398029616985,3.568216,71.56496,0.08559317,0.02569337,0.5844072,-0.01759841,8.33999981358647,13
-25.01311,0.4833335,-30.67809,0.0459328201634861,-0.1014045426590936,-0.0317924441052213,7.135233,71.57299,0.1716177,0.0513522,0.583557,-0.03517535,8.35999981313944,13
-24.95453,0.683334,-30.65699,0.0188515028759859,-0.0935642885893948,-0.038007272562087,10.70118,71.58654,0.2590157,0.07695391,0.5821416,-0.05271267,8.3799998126924,13
-24.89598,0.8833339,-30.6359,-0.0150560165904423,-0.0465206152419714,-0.0463807612898925,14.26615,71.60587,0.3484282,0.1024741,0.5801627,-0.07019457,8.39999981224537,13
-24.69623,0.2833333,-30.56792,-0.0422130477629458,-0.0135894917040219,-0.0523128060962463,3.646385,72.21343,0.1120477,0.02628018,0.5889673,-0.0179589,8.41999981179833,13
-24.63622,0.4833333,-30.54663,-0.0838528183300724,0.031885768908208,-0.0624424022018068,7.291719,72.22419,0.2249361,0.05252606,0.5880722,-0.03589478,8.4399998113513,13
-24.57624,0.6833332,-30.52533,-0.1406167140191243,0.1165639040519616,-0.0766688155538801,10.93599,72.24236,0.3396572,0.07871138,0.5865819,-0.05378918,8.45999981090426,13
-24.35812,0.2833334,-30.45118,-0.1987757628345932,0.1871289697299023,-0.0903680194734164,3.618665,73.05714,0.1331688,0.02606261,0.5948969,-0.01785995,8.47999981045723,13
-24.2984,0.4833331,-30.43056,-0.2445555609657894,0.1902650086157044,-0.0988909845375118,7.236293,73.06984,0.2673791,0.05209193,0.5940061,-0.03569698,8.49999981001019,13
-24.2387,0.683333,-30.40995,-0.1941679922953767,0.1792878692258411,-0.0735341770830366,10.8528,73.09128,0.4037213,0.07806152,0.592523,-0.05349306,8.51999980956316,13
-24.0013,0.2833332,-30.32917,-0.1536056047859979,0.2075136263211314,-0.0508821351341772,3.559384,74.88569,0.2277014,0.02586507,0.6076263,-0.01730448,8.53999980911613,13
-23.94239,0.4833334,-30.30914,-0.1086084273954917,0.2216260686275173,-0.0262992802215933,7.117614,74.90704,0.4571249,0.05169724,0.6067436,-0.03458669,8.55999980866909,13
-23.8835,0.6833333,-30.28913,-0.2511758607549694,0.8885984062708556,-0.0655429515653729,10.67472,74.94308,0.6900219,0.07747178,0.605274,-0.05183086,8.57999980822206,13
-23.82462,0.8833331,-30.26911,-0.2175157987621503,0.6641835076844234,-0.0477350562736162,14.2303,74.99446,0.928234,0.1031611,0.6032196,-0.06901921,8.59999980777502,13
-23.62738,0.2833333,-30.20151,-0.1775981684299843,0.4544043861083592,-0.0293217722372212,3.496868,75.3503,0.2741814,0.02561089,0.6108397,-0.016755,8.61999980732799,13
-23.56957,0.4833332,-30.18145,-0.1179431453176853,0.2048993408681975,-0.0058793386600939,6.992639,75.37553,0.5503243,0.05119027,0.6099814,-0.03348951,8.63999980688095,13
-23.51178,0.6833331,-30.16139,-0.1214767648613381,0.1813779765024252,-0.0053992249890661,10.4868,75.41816,0.8306867,0.07671206,0.6085528,-0.05018464,8.65999980643392,13
-23.29565,0.2833336,-30.08689,-0.1365355518014581,0.1970595321435491,-0.0098365325682543,3.438998,75.07663,0.2910268,0.0253401,0.608955,-0.01626968,8.67999980598688,13
-23.23898,0.4833336,-30.06652,-0.1505487361753559,0.1986280397497848,-0.0148550189177107,6.876511,75.103,0.5843571,0.05064861,0.6081269,-0.03251584,8.69999980553985,13
-23.18233,0.6833336,-30.04617,0.0503782209645038,-0.507546862983452,0.0534452039290584,10.31286,75.14747,0.8818665,0.07590392,0.606748,-0.04872801,8.71999980509281,13
-22.94747,0.2833336,-29.96542,0.0844447387181048,-0.2972448555331543,0.0663200752127721,3.39345,73.54777,0.1907329,0.024713,0.5983558,-0.01639307,8.73999980464578,13
-22.89163,0.4833336,-29.94546,0.1137848666415664,-0.0764887371786985,0.0785239407938185,6.785538,73.5648,0.3826934,0.04939441,0.5975665,-0.03276563,8.75999980419874,13
-22.83581,0.6833335,-29.9255,0.1510984132502635,0.1024508405101438,0.0944163209679267,10.17658,73.59351,0.5773242,0.07402538,0.5962524,-0.04910472,8.77999980375171,13
-22.78001,0.8833337,-29.90555,0.1768084040680619,0.0538390995873594,0.1047740257333487,13.56651,73.63441,0.7760914,0.09858413,0.5944152,-0.06539581,8.79999980330467,13
-22.58318,0.2833331,-29.8381,0.1943274784611901,0.0444301756113801,0.1117639653957347,3.340801,71.88638,0.1063291,0.02414412,0.5867112,-0.01635955,8.81999980285764,13
-22.52836,0.4833332,-29.81822,0.2163798030194144,0.0209080306721285,0.1195510395867778,6.680164,71.89573,0.2134832,0.04825815,0.5859628,-0.0326972,8.8399998024106,13
-22.47356,0.6833333,-29.79833,0.2232015622019929,0.0099314273167087,0.1207168382720595,10.01855,71.9115,0.32208,0.07232428,0.5847167,-0.04900239,8.85999980196357,13
-22.25841,0.283333,-29.725,0.2152105980368048,0.0381575033494436,0.1158942967735221,3.290945,70.14489,359.9786,0.0233938,0.5743791,-0.01665276,8.87999980151653,13
-22.20428,0.4833332,-29.70586,0.204921332838758,0.052269914641973,0.1092807398848805,6.580845,70.14303,359.957,0.04676061,0.5736687,-0.03328688,8.8999998010695,13
-22.15017,0.6833335,-29.68672,0.4059198309316905,-0.6413608259271226,0.1728422457644605,9.869426,70.13986,359.9349,0.07007859,0.572486,-0.0498883,8.91999980062246,13
-21.91741,0.2833334,-29.60642,0.4361476608153616,-0.4185140280207295,0.1781218234880839,3.24097,68.10182,359.8895,0.02289078,0.5597277,-0.0166326,8.93999980017543,13
-21.86423,0.4833334,-29.58712,0.4573104800794638,-0.1852130117070891,0.1792655988502112,6.480982,68.09239,359.7784,0.04575649,0.5590555,-0.03324712,8.95999979972839,13
-21.81107,0.6833333,-29.56782,0.4820330802951993,0.0062715714440254,0.1805673967827488,9.720017,68.07653,359.6659,0.06857901,0.5579363,-0.04983,8.97999979928136,13
-21.75792,0.8833334,-29.54853,0.4824606620680782,-0.0297950693196826,0.1721465596524609,12.95776,68.05401,359.5514,0.09133883,0.5563717,-0.06636511,8.99999979883432,13
-21.46854,0.2833332,-29.44822,0.4717834100351048,-0.0266585706273179,0.1582802903580749,3.268731,65.68601,359.7849,0.02294448,0.5421624,-0.01704489,9.01999979838729,13
-21.41501,0.4833333,-29.42815,0.4625786279771375,-0.0376349677754365,0.1435554599324255,6.536445,65.6675,359.5684,0.04586333,0.5414979,-0.03407091,9.03999979794025,13
-21.3615,0.6833333,-29.40809,0.4267723199676041,-0.0360666278705358,0.0972869060668095,9.803144,65.63631,359.3491,0.06873855,0.5403917,-0.05106392,9.05999979749322,13
-21.30801,0.8833333,-29.38803,0.3728594689055668,0.0047044010925754,0.0448261307551618,13.06912,65.59203,359.1258,0.09155484,0.538845,-0.06801038,9.07999979704618,13
-21.09705,0.2833333,-29.31656,0.3134910539052207,0.0313624957963496,-0.0089915007967356,3.530147,67.28436,359.8118,0.02473319,0.5537831,-0.01843073,9.09999979659915,13
-21.03891,0.4833332,-29.29579,0.2613456180820428,-0.0094082733821484,-0.0594032184592236,7.059328,67.26685,359.6222,0.04943634,0.5529927,-0.03683912,9.11999979615211,13
-20.9808,0.6833331,-29.27504,0.2833149718612162,-0.0642919629682905,-0.1358571933727965,10.58942,67.23722,359.4292,0.07409727,0.5516757,-0.05522081,9.13999979570508,13
-20.75286,0.2833335,-29.19767,0.2931104023701643,-0.0799728557317809,-0.2115993218642771,3.563346,69.00068,359.8745,0.02500305,0.566165,-0.01851207,9.15999979525805,13
-20.69402,0.4833334,-29.17743,0.3039700089123087,-0.1097664405677477,-0.2817075567401872,7.125911,68.98886,359.7478,0.04997487,0.5653428,-0.03700471,9.17999979481101,13
-20.6352,0.6833336,-29.15721,0.1390110500021215,0.5132987099627175,-0.4066327750134064,10.6874,68.96892,359.6191,0.07489093,0.5639741,-0.05545634,9.19999979436398,13
-20.38774,0.2833333,-29.07185,0.1020757766183777,0.2449765309604882,-0.5291945544421246,3.592749,70.42693,0.01743834,0.02569892,0.576337,-0.01795146,9.21999979391694,13
-20.32878,0.4833334,-29.05055,0.0697189151509931,-0.0087100582470408,-0.642317771798723,7.18469,70.42862,0.03544159,0.05136896,0.5754875,-0.03587821,9.23999979346991,13
-20.26983,0.6833334,-29.02926,-0.1587900326952258,0.4181659161194881,-0.813655880336853,10.77562,70.43148,0.05372203,0.07698132,0.574073,-0.05376472,9.25999979302287,13
-20.2109,0.8833333,-29.00798,-0.2383600377654993,0.1937507306548783,-0.9775163737359628,14.36553,70.43554,0.07240176,0.1025107,0.5720955,-0.07159363,9.27999979257584,13
-20.00337,0.2833332,-28.93689,-0.3158545188671624,-0.0160287342515497,-1.127366923534943,3.561646,71.32126,0.08293463,0.02567066,0.5826831,-0.01752916,9.2999997921288,13
-19.94497,0.4833331,-28.91562,-0.3780396628812834,-0.2655341803196751,-1.2585202121363004,7.122036,71.32905,0.1665698,0.05130795,0.5818386,-0.03503465,9.31999979168177,13
-19.88658,0.6833328,-28.89435,-0.4209602796040901,-0.289055844021441,-1.4237414907784078,10.68143,71.34219,0.251496,0.0768887,0.5804327,-0.05250147,9.33999979123473,13
-19.65777,0.2833333,-28.81617,-0.4602967660129415,-0.2733746868561072,-1.5699341042534414,3.635719,72.12006,0.1077124,0.02619734,0.5883119,-0.01791329,9.3599997907877,13
-19.59796,0.4833333,-28.79491,-0.4825136730950525,-0.2718066779108742,-1.69256503761369,7.270391,72.13037,0.2162739,0.0523609,0.587423,-0.0358034,9.37999979034066,13
-19.53817,0.6833333,-28.77365,-0.6666145674441797,0.3826210220805949,-1.8512893313950585,10.90465,72.14777,0.3263608,0.07846776,0.5859428,-0.05365718,9.39999978989363,13
-19.29002,0.2833333,-28.6889,-0.6924035042090413,0.145661256461718,-1.987920956468944,3.628421,72.73786,0.121785,0.02612191,0.5926577,-0.01791768,9.41999978944659,13
-19.23019,0.4833333,-28.66809,-0.6996300464951002,-0.0766633078197305,-2.094968576678177,7.255776,72.7495,0.2445098,0.05221003,0.5917656,-0.03581225,9.43999978899956,13
-19.17038,0.6833334,-28.64728,-0.8891930908710588,0.381574755504299,-2.241647018737161,10.88202,72.76916,0.3691924,0.07823804,0.5902805,-0.05366561,9.45999978855252,13
-19.11058,0.8833333,-28.62648,-0.901849183787224,0.1885221621883048,-2.3614502114220493,14.50721,72.79719,0.4967194,0.1041795,0.5882041,-0.07146159,9.47999978810549,13
-18.9108,0.2833334,-28.55953,-0.8988566253705876,0.0101053134749435,-2.4483874710865443,3.572445,75.91833,0.2335023,0.02582901,0.6147494,-0.01756703,9.49999978765845,13
-18.85133,0.4833333,-28.54043,-0.8665697280282565,-0.2080372645432044,-2.4987475367382395,7.143803,75.94029,0.4686983,0.05162505,0.6138496,-0.03511232,9.51999978721142,13
-18.79189,0.6833333,-28.52134,-0.9099079602733012,-0.2001967266444438,-2.7020929997421064,10.71398,75.97737,0.7075418,0.07736316,0.6123515,-0.0526181,9.53999978676438,13
-18.57066,0.2833333,-28.46761,-0.9430958450063364,-0.1531533684012929,-2.863823947563919,3.507127,79.26505,0.3183684,0.02533839,0.6374946,-0.01738022,9.55999978631735,13
-18.51157,0.4833333,-28.45078,-0.9537116965719914,-0.1202230398983379,-2.9812497190336096,7.013098,79.29446,0.6389902,0.05064502,0.6365918,-0.03473917,9.57999978587031,13
-18.45251,0.6833333,-28.43394,-0.9292622012441498,-0.1547219113772625,-3.051773696403988,10.51751,79.34401,0.9640033,0.0758923,0.6350887,-0.05206107,9.59999978542328,13
-18.39345,0.8833332,-28.41711,-0.9139491268127228,-0.2033334678721406,-3.239045234917807,14.02061,79.41454,1.295784,0.1010577,0.6329871,-0.06933305,9.61999978497624,13
-18.12794,0.2833335,-28.37882,-0.8811887367350959,-0.212741779760033,-3.37043476896066,3.440023,82.52738,0.3693915,0.02468694,0.6591522,-0.0173738,9.63999978452921,13
-18.06927,0.4833333,-28.36464,-0.8192267618145195,-0.2362632419588446,-3.44438767668408,6.878642,82.56074,0.7401981,0.0493359,0.658251,-0.03473274,9.65999978408217,13
-18.01061,0.6833335,-28.35047,-0.9201845150174428,0.3930739587269525,-3.527420736061618,10.31595,82.61699,1.116279,0.07393247,0.6567509,-0.05205506,9.67999978363514,13
-17.95198,0.8833337,-28.3363,-0.7805748278915541,0.1310242226932032,-3.584056150750044,13.75181,82.69713,1.50058,0.09845476,0.6546537,-0.06932488,9.6999997831881,13
-17.77987,0.2833335,-28.32694,-0.6270810472152704,-0.1163900109247769,-3.579729700286034,3.3898,83.44282,0.2558531,0.02356137,0.6651672,-0.01801814,9.71999978274107,13
-17.72162,0.4833334,-28.31578,-0.6743120324977365,0.3167584712257101,-3.592270728308236,6.778274,83.46553,0.5120973,0.04708569,0.6642893,-0.03602223,9.73999978229403,13
-17.66339,0.6833335,-28.30461,-0.5022003547351872,0.0986160657874786,-3.555599246943533,10.16562,83.50382,0.7718982,0.07056174,0.6628278,-0.05398939,9.759999781847,13
-17.47245,0.2833334,-28.29692,-0.3337402798489499,-0.104890612558753,-3.464711423018546,3.338612,83.60375,0.156412,0.02262506,0.6662437,-0.01840022,9.77999978139997,13
-17.41487,0.4833333,-28.28773,-0.1568915752002588,-0.3481227042343219,-3.3202685486264443,6.675872,83.61742,0.3129936,0.04521707,0.6653938,-0.03678288,9.79999978095293,13
-17.3573,0.6833332,-28.27854,0.0652455147590185,-0.3653720294215824,-3.12702730437842,10.01214,83.64046,0.4716945,0.06776436,0.6639788,-0.05512901,9.8199997805059,13
-17.14978,0.2833333,-28.26969,0.2766687371684391,-0.3434182967819372,-2.8931904634011367,3.289983,83.35625,0.01827975,0.02154674,0.6646678,-0.0189692,9.83999978005886,13
-17.09281,0.4833333,-28.26275,0.4896080580346211,-0.3355774220866304,-2.6198643666343777,6.578995,83.35782,0.03662345,0.04306907,0.6638462,-0.03791751,9.85999977961183,13
-17.03584,0.6833333,-28.25582,0.5117095778877552,0.3251221810928202,-2.3765230068683785,9.86672,83.36033,0.05417063,0.06454164,0.662478,-0.05683383,9.87999977916479,13
-16.9789,0.8833335,-28.24888,0.6877106546610161,0.0944349932133117,-2.053667101080819,13.15347,83.3639,0.07210219,0.08595492,0.6605651,-0.07569753,9.89999977871776,13
-16.79493,0.2833333,-28.24558,0.8568965234932051,-0.1216164393481051,-1.7075705782917616,3.241267,82.54464,359.9215,0.0208042,0.6593892,-0.01917039,9.91999977827072,13
-16.73869,0.4833331,-28.23961,0.8051702451734624,0.3428947381853247,-1.415988740912386,6.481605,82.53794,359.8425,0.04158581,0.6585976,-0.03831999,9.93999977782369,13
-16.68246,0.6833331,-28.23365,0.9156771387871548,0.1561148034538094,-1.05628338997672,9.720934,82.52665,359.7625,0.06232773,0.6572796,-0.05743315,9.95999977737665,13
-16.48116,0.2833334,-28.22994,1.0066580739768778,-0.0160294954849258,-0.6920958049281225,3.196734,81.01437,359.8168,0.02016967,0.6493238,-0.019333,9.97999977692962,13
-16.42557,0.4833333,-28.22439,1.0901805686060762,-0.2278996197320157,-0.3252043255497057,6.392497,80.99895,359.6325,0.04031773,0.6485635,-0.03864516,9.99999977648258,13
-16.37,0.6833333,-28.21885,1.2016119277969537,-0.213786618392146,0.0537481117387308,9.587267,80.973,359.4459,0.06042847,0.6472976,-0.05792165,10.0199997760355,13
-16.15982,0.2833332,-28.30321,1.286151284904074,-0.1604705879741716,0.4214005282930841,3.531554,83.22957,359.819,0.02198863,0.6638394,-0.02164433,10.0399997755885,13
-16.09818,0.4833332,-28.2991,1.356355322977894,-0.121267592000746,0.775931600518863,7.062122,83.21272,359.6366,0.04395024,0.6628914,-0.04326243,10.0599997751415,13
-16.03658,0.6833332,-28.29499,1.2305126346688589,0.5707944212515876,1.0739443266542563,10.59289,83.18416,359.4506,0.06586706,0.661312,-0.06484628,10.0799997746944,13
-15.975,0.883333,-28.29088,1.2462492311942022,0.3714696387406135,1.419883593507663,14.12403,83.14337,359.2602,0.08772395,0.6591027,-0.08637156,10.0999997742474,13
-15.78945,0.2833333,-28.38464,1.2424363039913828,0.1867807135624114,1.739339770753542,3.56033,84.13214,359.8432,0.02214525,0.6696947,-0.0218283,10.1199997738004,13
-15.72737,0.4833335,-28.38102,1.2317603761455374,-0.0376337209486943,2.0306701606744184,7.119825,84.1174,359.685,0.04426269,0.6687232,-0.04363207,10.1399997733533,13
-15.66531,0.6833333,-28.3774,0.979041244951672,0.6042487625817337,2.2664556301597543,10.67829,84.09253,359.5243,0.06633127,0.6671059,-0.0653877,10.1599997729063,13
-15.60326,0.8833333,-28.37377,0.9315553884900608,0.3547440784439256,2.5604280522199545,14.23563,84.05705,359.3599,0.08832959,0.6648448,-0.08707368,10.1799997724593,13
-15.34235,0.2833333,-28.39508,0.8587682097578124,0.1198749191982208,2.812506163580636,3.587209,82.60948,359.9425,0.02318126,0.6597521,-0.02103616,10.1999997720122,13
-15.28015,0.4833333,-28.38799,0.7735813164228116,-0.1547201105698575,3.0215949137396656,7.173681,82.60418,359.8861,0.04634398,0.6587825,-0.04203726,10.2199997715652,13
-15.21796,0.6833332,-28.38091,0.7383784979949866,-0.2033317408533214,3.267853161596061,10.75913,82.59525,359.8289,0.06945474,0.6571681,-0.06299122,10.2399997711182,13
-14.96084,0.2833334,-28.37581,0.6774789654677811,-0.212740174357347,3.465077708889634,3.559867,81.31257,0.02149082,0.02368576,0.651201,-0.02009445,10.2599997706711,13
-14.8995,0.4833334,-28.36604,0.6042987732167084,-0.2362616197424675,3.612960821495953,7.11855,81.3147,0.04442469,0.04734804,0.6502589,-0.04015442,10.2799997702241,13
-14.83818,0.6833335,-28.35627,0.3728891672843257,0.3930760701956324,3.715442626990328,10.6762,81.31831,0.06771617,0.07095785,0.6486902,-0.06016982,10.2999997697771,13
-14.58642,0.2833332,-28.29424,0.2861952967026226,0.1310262317987314,3.8310865565506127,3.635634,80.20121,0.05559629,0.02457664,0.6437957,-0.02006194,10.31999976933,13
-14.52406,0.4833332,-28.28246,0.1904060288909512,-0.1163878416100249,3.892612342481751,7.270201,80.20654,0.1116436,0.04912147,0.6428237,-0.04009771,10.339999768883,13
-14.46172,0.683333,-28.27069,-0.0809239602890308,0.3167604913080538,3.9009374373964008,10.90441,80.21564,0.1693709,0.07361874,0.6412054,-0.06008616,10.359999768436,13
-14.39941,0.8833331,-28.25893,-0.1868533567211443,0.0986179473528771,3.9270989847438464,14.53754,80.22868,0.2285508,0.09803501,0.6389428,-0.08000806,10.3799997679889,13
-14.19357,0.2833333,-28.20009,-0.3032504525696815,-0.1048887387468177,3.896383845277306,3.628619,79.20338,0.0770588,0.02482258,0.6371107,-0.01966393,10.3999997675419,13
-14.13164,0.4833333,-28.18689,-0.4163049080239052,-0.3481214005198029,3.81006917136714,7.25618,79.21075,0.1547248,0.04961313,0.6361523,-0.0393024,10.4199997670949,13
-14.06972,0.6833334,-28.1737,-0.4777207689982461,-0.3653709665000415,3.7492801213494538,10.88265,79.2232,0.2336574,0.07434678,0.6345567,-0.0588955,10.4399997666478,13
-13.84746,0.2833333,-28.10781,-0.5486104659510787,-0.3434174793577245,3.6290684169288983,3.576327,79.39391,0.1656336,0.02493237,0.6383805,-0.01881937,10.4599997662008,13
-13.78667,0.4833333,-28.09347,-0.614765009045577,-0.3355768820447792,3.4513549483774995,7.151568,79.40952,0.3325076,0.04983302,0.6374461,-0.03761489,10.4799997657537,13
-13.72589,0.683333,-28.07913,-0.8361627669876999,0.3251222912965546,3.220833209928795,10.72571,79.43585,0.502003,0.07467803,0.6358904,-0.05636805,10.4999997653067,13
-13.48582,0.2833332,-28.0024,-0.790878763691266,0.0944348935508045,3.037003939468889,3.514782,78.25557,0.2175768,0.02498756,0.6307089,-0.0178805,10.5199997648597,13
-13.42657,0.4833332,-27.98617,-0.7427201591754713,-0.1216167556720211,2.792313511773724,7.028461,78.27571,0.4367921,0.04994438,0.6298158,-0.0357384,10.5399997644126,13
-13.36733,0.6833332,-27.96996,-0.863354235737912,0.3428942117338144,2.597308180178139,10.54063,78.30976,0.6596633,0.07484626,0.628329,-0.05355276,10.5599997639656,13
-13.30811,0.8833331,-27.95374,-0.9819159332761772,0.7964282675622454,2.360948510040078,14.05157,78.35847,0.8882922,0.09967367,0.6262509,-0.07130681,10.5799997635186,13
-13.10566,0.2833333,-27.87494,-0.9285909951732876,0.3340081562956747,2.1484023769279084,3.454674,76.61698,0.2499283,0.02500422,0.6195606,-0.01697491,10.5999997630715,13
-13.04804,0.4833334,-27.85673,-0.8664651956517933,-0.1393886131232761,1.893899008091239,6.907788,76.63981,0.5026689,0.04998066,0.6187121,-0.03391955,10.6199997626245,13
-12.99043,0.6833334,-27.83852,-0.931400441157832,0.2812147751405991,1.7189319036877857,10.3598,76.67831,0.7590564,0.07490447,0.6172993,-0.0508285,10.6399997621775,13
-12.93285,0.8833335,-27.82032,-0.8026000937330142,0.0505271766759565,1.5957992514977697,13.8106,76.73318,1.021068,0.09975268,0.615324,-0.06768629,10.6599997617304,13
-12.67392,0.2833332,-27.71835,-0.665742189468304,-0.1655243418705069,1.45049254536098,3.403085,73.57021,0.1619497,0.02462675,0.5985172,-0.01664932,10.6799997612834,13
-12.61778,0.4833332,-27.69883,-0.5077704347287355,-0.4213014811732558,1.2880759299484232,6.804709,73.5848,0.3257751,0.04922551,0.5977241,-0.0332714,10.6999997608364,13
-12.56166,0.6833332,-27.67932,-0.3577599239932301,-0.4510955288649019,1.2219156022469448,10.20531,73.60937,0.4918922,0.0737738,0.5964037,-0.04985938,10.7199997603893,13
-12.3315,0.2833334,-27.58912,-0.2125254548790813,-0.4416866866052129,1.1391174641237851,3.343752,71.14294,0.08496142,0.02416227,0.5814527,-0.01636915,10.7399997599423,13
-12.27678,0.4833336,-27.56885,-0.059100531934634,-0.4463908968234073,1.0450955157218118,6.686035,71.15046,0.1709896,0.04829604,0.58071,-0.03271353,10.7599997594953,13
-12.22207,0.6833338,-27.54859,-0.1185639695593749,0.2017636664823298,0.9477294372148428,10.02737,71.16313,0.2581887,0.07238203,0.5794735,-0.04902545,10.7799997590482,13
-12.16738,0.8833338,-27.52833,-0.1699756001042196,0.6984539256919706,0.8472667035001855,13.36773,71.18118,0.3471968,0.09639972,0.5777445,-0.06529094,10.7999997586012,13
-11.97414,0.2833333,-27.45178,-0.0038388263817559,0.1676283935342518,0.8258615579876825,3.29123,68.85077,359.9632,0.02350625,0.5651069,-0.01650003,10.8199997581542,13
-11.92036,0.4833332,-27.43166,-0.0564580459128265,0.3466024730935086,0.7402685834974179,6.581493,68.84757,359.9261,0.04698639,0.5644078,-0.03298139,10.8399997577071,13
-11.86659,0.6833332,-27.41155,-0.1141109198345766,0.5427909990118598,0.6493825890416112,9.870431,68.84221,359.8886,0.07041876,0.5632439,-0.04942842,10.8599997572601,13
-11.65594,0.2833333,-27.32761,0.0004806773267063,0.0636094862325766,0.6231779620528215,3.240607,66.39881,359.8784,0.0230794,0.5473604,-0.01637041,10.879999756813,13
-11.60329,0.4833334,-27.30692,0.113305068331261,-0.4260611662083763,0.5940520475360884,6.480227,66.38843,359.756,0.04613342,0.546703,-0.03272278,10.899999756366,13
-11.55065,0.6833333,-27.28622,0.0644348360583606,-0.0212435950289568,0.5113440325448515,9.7189,66.37096,359.6321,0.06914411,0.5456085,-0.0490442,10.919999755919,13
-11.32276,0.2833332,-27.19486,0.2050382202276388,-0.267228929743397,0.502899429740026,3.194648,63.55752,359.7829,0.02269884,0.52648,-0.01628983,10.9399997554719,13
-11.27118,0.4833331,-27.17342,0.3376595009605072,-0.4980908881116527,0.4914920017471047,6.388318,63.53927,359.5646,0.04537343,0.5258635,-0.03256206,10.9599997550249,13
-11.21961,0.6833332,-27.15199,0.2824610750008087,-0.0479024819799645,0.4198415679886444,9.580925,63.50855,359.3435,0.06800572,0.5248372,-0.04880401,10.9799997545779,13
-11.16805,0.883333,-27.13057,0.2237035754842757,0.3917968799709163,0.3485815516453918,12.77229,63.46499,359.1189,0.09057966,0.5234025,-0.06499837,10.9999997541308,13
-10.87948,0.2833333,-27.01609,0.3045845667776978,-0.0839695914362297,0.3432144468933913,3.51746,65.19677,359.8104,0.02496506,0.5385353,-0.01792773,11.0199997536838,13
-10.82231,0.4833333,-26.99333,0.1731944176846509,0.150062915877294,0.2686555057552446,7.033957,65.17921,359.6194,0.04989999,0.5377722,-0.03583382,11.0399997532368,13
-10.76517,0.6833333,-26.97058,0.0345061792542269,0.4013098896740725,0.1948061982528734,10.55111,65.14949,359.4251,0.07479122,0.5365007,-0.05371254,11.0599997527897,13
-10.70805,0.8833332,-26.94784,0.0448919524313797,-0.0228133957213673,0.2088040760687164,14.06804,65.10707,359.2263,0.09961091,0.5347223,-0.07154032,11.0799997523427,13
-10.50342,0.2833332,-26.8673,0.0524301526170463,-0.4574256960261096,0.2269257340206181,3.559493,66.69286,359.87,0.02532081,0.5494639,-0.0180196,11.0999997518957,13
-10.44548,0.4833331,-26.84481,-0.1018886855132779,0.0024500441683771,0.1795955828019728,7.118263,66.68064,359.7388,0.05061106,0.5486676,-0.03601988,11.1199997514486,13
-10.38755,0.683333,-26.82233,-0.2511270217766963,0.4518366739726996,0.1365202104179061,10.67597,66.66003,359.6055,0.07584523,0.547342,-0.05398022,11.1399997510016,13
-10.16396,0.2833332,-26.73282,-0.203827730216898,-0.014242424952799,0.228981456164373,3.59165,67.97957,0.01341256,0.02604884,0.5587674,-0.01742231,11.1599997505546,13
-10.10595,0.4833333,-26.7091,-0.1497456863689272,-0.4908105978533134,0.3215914029005695,7.182506,67.98087,0.02743659,0.05206881,0.5579442,-0.03482001,11.1799997501075,13
-10.04795,0.6833333,-26.68538,-0.3172008269157356,-0.0728900033455495,0.3194554977402362,10.77235,67.9831,0.0416902,0.07803042,0.5565738,-0.05217858,11.1999997496605,13
-9.805713,0.2833334,-26.58834,-0.352648652199746,-0.3057726241732744,0.3905306418762571,3.561624,68.76455,0.07979959,0.02603974,0.564421,-0.01697455,11.2199997492135,13
-9.748296,0.4833334,-26.56453,-0.3849569865639921,-0.5235315922307462,0.4572468929630631,7.122026,68.77204,0.1603264,0.05204611,0.563603,-0.03392596,11.2399997487664,13
-9.690895,0.6833333,-26.54073,-0.6097465558025084,-0.060240292837253,0.4401718829880856,10.68142,68.78471,0.2421191,0.07799509,0.5622412,-0.05083969,11.2599997483194,13
-9.633512,0.8833332,-26.51693,-0.8272285729925875,0.3925617047687608,0.4189273387262773,14.23976,68.80278,0.325835,0.1038613,0.5603373,-0.06769943,11.2799997478724,13
-9.576144,0.9766704,-26.49314,-0.948150588823653,-0.0701027769600752,0.4652280651125551,17.79705,68.82661,0.4121932,0.12962,0.5578936,-0.08448917,11.2999997474253,13
-9.333739,0.2833333,-26.39735,-1.04784653803065,-0.5432562716816275,0.5110971239116537,3.634183,69.61788,0.1130374,0.02659773,0.5705287,-0.01729124,11.3199997469783,13
-9.274969,0.4833334,-26.37341,-1.2795143735248686,-0.1219208062037042,0.4942033010705557,7.267305,69.62871,0.2269887,0.05316119,0.5696674,-0.03455989,11.3399997465312,13
-9.216219,0.6833334,-26.34948,-1.36789790603802,-0.3513884571828217,0.5895376234786802,10.89983,69.64697,0.3425612,0.07966591,0.5682331,-0.0517926,11.3599997460842,13
-9.002246,0.2833334,-26.265,-1.4307903898821204,-0.5657323565132397,0.6818571724884563,3.615273,70.40948,0.1324154,0.02644032,0.5761829,-0.01724137,11.3799997456372,13
-8.943592,0.4833333,-26.24168,-1.6431970285899071,-0.0990259957105654,0.6999079254454834,7.229475,70.4221,0.2658096,0.05284638,0.5753217,-0.03446085,11.3999997451901,13
-8.884954,0.6833333,-26.21837,-1.8238757703333808,0.3571914033245242,0.7161813230484064,10.84258,70.44338,0.4013091,0.07919207,0.573888,-0.05164105,11.4199997447431,13
-8.65211,0.2833335,-26.12605,-1.808093705402932,-0.1020574282545559,0.8853078822351961,3.55898,71.8,0.219332,0.02627594,0.5860403,-0.01665887,11.4399997442961,13
-8.594323,0.4833334,-26.10302,-1.963949183443253,0.1484928007775532,0.9637205651603508,7.116874,71.82056,0.4402975,0.05251881,0.5851894,-0.03329682,11.459999743849,13
-8.536552,0.6833333,-26.08,-2.090804186692777,0.416257617647701,1.0310490262980707,10.67363,71.85526,0.6646655,0.07870333,0.5837728,-0.04989767,11.479999743402,13
-8.478796,0.8833332,-26.05698,-2.1761911638349307,0.6489663574571258,1.0923921440966566,14.22884,71.9048,0.8942901,0.1048018,0.5817925,-0.06644365,11.499999742955,13
-8.298061,0.2833333,-25.97789,-2.150424246908539,-0.0594033255394496,1.209913204770519,3.498277,70.87643,0.2466131,0.02611594,0.5794997,-0.01594564,11.5199997425079,13
-8.241817,0.4833333,-25.95382,-2.346601912749948,0.1554636624749165,1.2151442841399138,6.995448,70.89916,0.4950092,0.05219971,0.5786858,-0.03187156,11.5399997420609,13
-8.185585,0.6833333,-25.92975,-2.5074846019650288,0.3875450952802629,1.2106765638151522,10.49104,70.93759,0.7477964,0.07822756,0.5773312,-0.04775589,11.5599997416139,13
-7.994084,0.2833333,-25.82909,-2.5144638052574164,-0.0557436466025619,1.2724035913461125,3.441455,68.0301,0.2373663,0.026048,0.5591056,-0.01508166,11.5799997411668,13
-7.939963,0.4833331,-25.80276,-2.476856111381636,-0.5095211187815698,1.3243564537681998,6.881414,68.05173,0.4777187,0.05206814,0.5583462,-0.03013358,11.5999997407198,13
-7.885858,0.6833329,-25.77645,-2.5612315524144007,-0.0688103843281312,1.3025831232458458,10.32025,68.0882,0.7215234,0.07803366,0.5570817,-0.04515378,11.6199997402728,13
-7.831768,0.8833328,-25.75013,-2.4380060938710715,-0.2789027456848676,1.3571709351485524,13.75791,68.14018,0.9706542,0.1039211,0.5553136,-0.06012875,11.6399997398257,13
-7.609883,0.2833333,-25.60555,-2.278943496408335,-0.4738714276133742,1.3989826409628563,3.388384,65.20417,0.1450719,0.02558826,0.538534,-0.01486356,11.6599997393787,13
-7.557285,0.4833333,-25.57845,-2.272785904198779,0.0122100916997272,1.3535427581882935,6.775328,65.21717,0.2917213,0.0511463,0.5378269,-0.02970339,11.6799997389317,13
-7.504702,0.6833333,-25.55136,-2.2336006660977743,0.4878024831120294,1.2966013343037552,10.16125,65.23908,0.4404291,0.07665233,0.5366494,-0.04451276,11.6999997384846,13
-7.335363,0.2833332,-25.45413,-1.8994864148820807,0.0479289164139378,1.3181473837830353,3.33069,61.65991,0.03443333,0.02510895,0.5122679,-0.01463595,11.7199997380376,13
-7.284512,0.4833332,-25.42601,-1.7630516955662312,0.3178541887870415,1.2372800063530534,6.659958,61.663,0.06985803,0.05018942,0.5116192,-0.02924755,11.7399997375906,13
-7.233675,0.6833333,-25.39789,-1.617854998890491,0.6049938125610843,1.138367312102627,9.988261,61.66819,0.1057799,0.07522041,0.5105389,-0.04383007,11.7599997371435,13
-7.182853,0.8833332,-25.36978,-1.4546800789951426,0.8570774803678308,1.0276628445391616,13.31563,61.67558,0.142408,0.1001808,0.5090284,-0.05837173,11.7799997366965,13
-7.060177,0.2833333,-25.27921,-1.1003532661219717,0.1680828443711897,0.9569609208087116,3.276305,56.99096,359.8931,0.02467898,0.4769177,-0.01445852,11.7999997362494,13
-7.011242,0.4833333,-25.24961,-0.7268011428053285,-0.430012244723962,0.8791558394147927,6.551637,56.98174,359.7855,0.04933076,0.4763324,-0.02890056,11.8199997358024,13
-6.962317,0.6833333,-25.22003,-0.5464886572887129,-0.0344983353575992,0.714671270550955,9.825675,56.96633,359.6774,0.07393605,0.4753585,-0.04330714,11.8399997353554,13
-6.806646,0.2833332,-25.08763,-0.1742145749416783,-0.2902755518465195,0.6032220871039833,3.222781,51.72666,359.7892,0.02450158,0.4360993,-0.01392143,11.8599997349083,13
-6.76025,0.4833333,-25.05566,0.1967593324732002,-0.5314170399366789,0.4853587501872276,6.444554,51.70879,359.5772,0.04897663,0.4355798,-0.0278271,11.8799997344613,13
-6.713867,0.6833333,-25.02369,0.3894035521349108,-0.0919960520930589,0.2955537018978944,9.665306,51.6787,359.3626,0.07340592,0.4347149,-0.04170629,11.8999997340143,13
-6.66749,0.8833334,-24.99175,0.5779803567318931,0.3364481091999102,0.1059777466971247,12.88479,51.63622,359.1455,0.09777412,0.4335066,-0.05553568,11.9199997335672,13
-6.47857,0.2833334,-24.81967,1.011455697230896,-0.1510618120980786,0.0033203557291869,3.333027,48.22813,359.7344,0.0255976,0.4084422,-0.0139961,11.9399997331202,13
-6.432107,0.4833332,-24.78434,1.21966480728998,0.0707392079616165,-0.1796933286995958,6.66511,48.20484,359.4672,0.05116703,0.4079207,-0.02797594,11.9599997326732,13
-6.385657,0.6833332,-24.74903,1.3983368645018106,0.3092670018658291,-0.3618512049125613,9.996066,48.16558,359.1964,0.07668539,0.4070525,-0.04192792,11.9799997322261,13
-6.339221,0.8833333,-24.71374,1.556397771883586,0.512250810280344,-0.5358599027312607,13.32695,48.10992,358.9211,0.102144,0.4058389,-0.05583531,11.9999997317791,13
-6.239161,0.2833335,-24.62507,1.851660331188844,-0.2263318069755679,-0.6475521267908171,3.526477,50.14283,359.8147,0.02718536,0.4235915,-0.01450264,12.0199997313321,13
-6.18982,0.4833333,-24.5881,1.9777818227462425,-0.0421651973999502,-0.8103221433605974,7.052085,50.1256,359.6279,0.05433804,0.4229881,-0.02898906,12.039999730885,13
-6.140502,0.6833333,-24.55115,2.076919513816812,0.1587278530568098,-0.95827201416526,10.57803,50.0965,359.4381,0.08144212,0.4219832,-0.04345012,12.059999730438,13
-5.989708,0.2833334,-24.4476,2.3282201565702536,-0.3162372617554501,-1.028625511151862,3.565224,53.73721,359.9278,0.02746444,0.4517446,-0.01462099,12.079999729991,13
-5.93879,0.4833335,-24.41183,2.3876575024810176,-0.0818911961593962,-1.16921977498221,7.129699,53.73033,359.8541,0.05489321,0.4510883,-0.0292314,12.0999997295439,13
-5.887887,0.6833333,-24.37608,2.411646886333198,0.1691816832681401,-1.2939112742234329,10.69319,53.71874,359.7793,0.08226142,0.4499958,-0.04380948,12.1199997290969,13
-5.683853,0.2833332,-24.26267,2.6000979602315266,-0.2556032157713069,-1.3319947833891383,3.586769,59.06587,0.1362836,0.02781515,0.4926496,-0.01439194,12.1399997286499,13
-5.631382,0.4833331,-24.22847,2.7492062499915337,-0.6913647674747202,-1.3489206916334346,7.172753,59.07866,0.2726183,0.05559285,0.4919245,-0.02877419,12.1599997282028,13
-5.578926,0.6833331,-24.19428,2.668397153348458,-0.2331264073411104,-1.4794826348432863,10.75766,59.10023,0.4110678,0.08330797,0.4907174,-0.04312417,12.1799997277558,13
-5.526484,0.883333,-24.1601,2.5485195866468566,0.214135035465333,-1.5918909218155015,14.34148,59.13105,0.5528077,0.1109336,0.4890299,-0.05742783,12.1999997273088,13
-5.237276,0.2833333,-24.04685,2.6503420575800303,-0.2545575888993679,-1.5951821976873006,3.57961,63.93197,0.1908243,0.02737798,0.5291126,-0.01512312,12.2199997268617,13
-5.182611,0.4833331,-24.01645,2.5625689082622043,-0.0139387901461909,-1.6629349649771117,7.158298,63.94994,0.3827298,0.05472073,0.528336,-0.03023044,12.2399997264147,13
-5.127967,0.683333,-23.98605,2.4228169163187903,0.2434064920886209,-1.7150106370457046,10.73593,63.97999,0.5759272,0.08199489,0.5270424,-0.0453164,12.2599997259676,13
-5.073339,0.883333,-23.95566,2.242286762312305,0.4652076051898883,-1.7450982163444628,14.31239,64.02289,0.7736756,0.1091808,0.5252342,-0.06035381,12.2799997255206,13
-4.865085,0.2833334,-23.88263,2.1937468615914346,-0.25455757191144,-1.693649390079642,3.633992,66.5171,0.1762435,0.02735676,0.5481008,-0.01610336,12.2999997250736,13
-4.808128,0.4833333,-23.85456,2.0204216813015785,-0.0515735072841361,-1.6895561795008298,7.266923,66.53397,0.3538272,0.05467806,0.5472722,-0.03218621,12.3199997246265,13
-4.751186,0.6833333,-23.82651,1.8130151497484213,0.1681371193177402,-1.6617489637262215,10.89874,66.56245,0.5341885,0.08193614,0.5458928,-0.04823253,12.3399997241795,13
-4.524923,0.2833333,-23.74549,1.764481028407525,-0.2880104183039892,-1.542865811045722,3.599462,69.29363,0.2063556,0.02686012,0.5681883,-0.01637409,12.3599997237325,13
-4.467442,0.4833333,-23.71995,1.5551741210291652,-0.0348466544239796,-1.5188756082882833,7.197825,69.31319,0.414229,0.05368552,0.5673448,-0.03272763,12.3799997232854,13
-4.409977,0.6833333,-23.6944,1.314572428683068,0.235043578040563,-1.4773261786471217,10.79504,69.34622,0.6253574,0.08044999,0.5659406,-0.04904412,12.3999997228384,13
-4.35253,0.8833332,-23.66887,1.0555873850284117,0.4693898399125149,-1.4130161411343138,14.39097,69.39314,0.8404964,0.1071214,0.5639769,-0.06531416,12.4199997223914,13
-4.069796,0.2833333,-23.56862,1.0382376332263363,-0.2378306691329121,-1.2382538675746453,3.533285,72.42751,0.3003695,0.02642107,0.5904513,-0.01609975,12.4399997219443,13
-4.012609,0.4833332,-23.54503,0.8325448324485141,-0.0223018446277804,-1.2077435589519467,7.065433,72.45545,0.6029188,0.05280893,0.5896034,-0.03217957,12.4599997214973,13
-3.955437,0.6833333,-23.52145,0.6033898912266855,0.2099536598091202,-1.1713974443087525,10.59633,72.50262,0.9099988,0.07913819,0.5881918,-0.04822408,12.4799997210503,13
-3.898282,0.8833332,-23.49787,0.3636923521239188,0.4066652054143014,-1.1251283764493891,14.1256,72.56973,1.223343,0.105378,0.5862181,-0.06422187,12.4999997206032,13
-3.701631,0.2833334,-23.43036,0.2783383838311981,-0.3381899008952851,-1.0162142796060714,3.46717,73.19367,0.3158194,0.0259302,0.5958385,-0.015824,12.5199997201562,13
-3.64532,0.4833334,-23.40759,0.1276195078917827,-0.1602960204693829,-0.9599765218033413,6.932934,73.22249,0.6336563,0.05182578,0.5950138,-0.03162878,12.5399997197092,13
-3.589024,0.6833333,-23.38483,-0.0213851790338265,0.0343246327556259,-0.897587139344985,10.39736,73.27109,0.9560974,0.07766517,0.5936408,-0.04739933,12.5599997192621,13
-3.373607,0.2833333,-23.30998,0.0145959679387176,-0.4469128808565024,-0.7676336427068762,3.415061,72.94868,0.2712146,0.02536723,0.5941404,-0.01581118,12.5799997188151,13
-3.318033,0.4833332,-23.28798,-0.0631949323692142,-0.2188393356764537,-0.7105203794044819,6.828685,72.97305,0.5440291,0.05070053,0.5933442,-0.03160353,12.5999997183681,13
-3.262474,0.6833332,-23.266,-0.1350567435088129,0.0259606477712092,-0.6505208411276264,10.24116,73.01411,0.8206924,0.07598125,0.5920185,-0.04736307,12.619999717921,13
-3.028821,0.2833333,-23.18418,-0.1878122807890768,0.2352167626409615,-0.5842839719242079,3.366866,71.58695,0.1666362,0.02467886,0.5845776,-0.01600268,12.639999717474,13
-2.974007,0.4833333,-23.16287,-0.1621751863867779,0.2231946834754787,-0.5240630853112584,6.732339,71.60171,0.3341778,0.04932545,0.5838191,-0.03198633,12.6599997170269,13
-2.919208,0.6833332,-23.14156,-0.1421918922273533,0.2566479743418983,-0.4691122109121721,10.0968,71.62656,0.5040082,0.07392243,0.5825562,-0.04793786,12.6799997165799,13
-2.864424,0.8833331,-23.12026,-0.1143776943276338,0.282260693333705,-0.4161770368425195,13.46022,71.66196,0.677382,0.09844856,0.5807905,-0.06384344,12.6999997161329,13
-2.57488,0.2833332,-23.01973,0.1370161134857278,-0.3935970688422914,-0.2944404263783973,3.310982,69.75031,0.02085173,0.02380515,0.5715472,-0.01636965,12.7199997156858,13
-2.520813,0.4833332,-22.99941,0.1163456505515957,-0.146705817102114,-0.2714979692794017,6.620968,69.75211,0.04183173,0.04758325,0.5708316,-0.03272076,12.7399997152388,13
-2.466759,0.6833331,-22.97908,0.0867493628840997,0.1169122228569777,-0.2554495353921382,9.929591,69.75513,0.06277838,0.07131039,0.5696402,-0.04904002,12.7599997147918,13
-2.41272,0.883333,-22.95877,0.0611238217096656,0.3449864138396156,-0.2428705763774559,13.23727,69.75942,0.08414683,0.09497136,0.5679746,-0.06531379,12.7799997143447,13
-2.207321,0.2833333,-22.88857,0.2106728978364469,-0.3685061352555024,-0.1783459247171208,3.25559,68.13518,359.917,0.02312554,0.5599613,-0.01651261,12.7999997138977,13
-2.154071,0.4833333,-22.86876,0.1867330048429185,-0.1592498909290318,-0.1685128419919443,6.510214,68.12807,359.8334,0.04622567,0.5592831,-0.03300695,12.8199997134507,13
-2.100836,0.6833333,-22.84896,0.1633808415653606,0.066732920076359,-0.1616920498144836,9.763866,68.11607,359.7488,0.06928159,0.5581539,-0.04946994,12.8399997130036,13
-1.878097,0.2833333,-22.77165,0.3321329244507233,-0.383142308912192,-0.0946932851416946,3.206645,65.60402,359.8087,0.02261437,0.5415641,-0.01655988,12.8599997125566,13
-1.825772,0.4833332,-22.75158,0.3013644996497056,-0.1237062455463505,-0.0948658476356136,6.412319,65.58788,359.6164,0.04520441,0.5409259,-0.03310187,12.8799997121096,13
-1.773462,0.6833332,-22.73151,0.2638668185539958,0.1524563839757086,-0.0989899501067057,9.616977,65.56071,359.4216,0.06775228,0.5398632,-0.04961307,12.8999997116625,13
-1.721165,0.8833332,-22.71145,0.2323410655270485,0.3930750342805363,-0.103071966077163,12.82032,65.52213,359.2234,0.09023989,0.5383777,-0.06607707,12.9199997112155,13
-1.437356,0.2833333,-22.61408,0.4592376442717045,-0.3078729610569397,-0.0221249631831241,3.463179,66.66432,359.8072,0.02432222,0.5492827,-0.01800955,12.9399997107685,13
-1.380485,0.4833333,-22.59323,0.4171503509711721,-0.0860717099614333,-0.0326637156942837,6.92538,66.64674,359.613,0.04861569,0.548528,-0.03599758,12.9599997103214,13
-1.323635,0.6833332,-22.57238,0.3596723474184777,0.152456334580042,-0.0487009985319772,10.38725,66.617,359.4155,0.07286108,0.547271,-0.05395413,12.9799997098744,13
-1.266811,0.8833332,-22.55154,0.2997150864385682,0.3554401747053558,-0.0660780887003404,13.84941,66.57459,359.2136,0.09704246,0.5455127,-0.07186363,12.9999997094274,13
-1.067671,0.2833334,-22.48507,0.3981872792663041,-0.3831425225244886,-0.0306027316490435,3.540967,68.56957,359.8572,0.02482593,0.5630692,-0.01843304,13.0199997089803,13
-1.009233,0.4833333,-22.46482,0.3335285664894225,-0.1989761046075382,-0.0467126095625474,7.081532,68.55619,359.7128,0.04962314,0.5622613,-0.03684987,13.0399997085333,13
-0.9508128,0.6833333,-22.44458,0.2686859239955175,0.0019167487021473,-0.0624633365586433,10.62102,68.53363,359.5663,0.07436564,0.5609163,-0.0552262,13.0599997080863,13
-0.7328869,0.2833333,-22.37017,0.3865438591434034,-0.4730484492202775,-0.0173639702519174,3.589575,70.12434,359.981,0.02554088,0.5741874,-0.01812795,13.0799997076392,13
-0.673867,0.4833332,-22.34918,0.3183608793999375,-0.2387023526974871,-0.0332729550359651,7.178518,70.12257,359.962,0.05105335,0.5733424,-0.0362333,13.0999997071922,13
-0.6148641,0.6833332,-22.3282,0.2481134708602761,0.0123704321203628,-0.0494719455175705,10.76642,70.11956,359.9428,0.0765084,0.5719355,-0.05429784,13.1199997067451,13
-0.555878,0.8833331,-22.30722,0.1892171477707591,0.2278992536634957,-0.0616420791733354,14.3533,70.11526,359.9231,0.1018812,0.5699686,-0.07230406,13.1399997062981,13
-0.2814725,0.2833334,-22.21341,0.1717527656956821,0.2221493211796172,-0.0599723750072485,3.563671,71.40218,0.08560974,0.02568623,0.5832555,-0.01753864,13.1599997058511,13
-0.2230193,0.4833333,-22.19216,0.1398839506079126,0.261874651224553,-0.0625419514590284,7.126153,71.41024,0.1720563,0.05134012,0.5824092,-0.03505311,13.179999705404,13
-0.164583,0.6833333,-22.17092,0.1074780572868228,0.2937596338097507,-0.0649074462781911,10.6876,71.42383,0.2598513,0.07693713,0.5810002,-0.05252856,13.199999704957,13
0.08333371,0.2833334,-22.08632,0.2885803441841221,-0.375825974366764,0.0039705054831351,3.636257,72.22035,0.1088468,0.02619128,0.5890186,-0.01793098,13.21999970451,13
0.1431874,0.4833334,-22.06514,0.1902462555384572,-0.1226623191223696,-0.021968264800062,7.271478,72.23078,0.2185161,0.05234866,0.5881283,-0.03583906,13.2399997040629,13
0.2030192,0.6833334,-22.04396,0.07757860054318,0.1472279203115767,-0.0525682348315967,10.90628,72.24835,0.3297362,0.07844934,0.5866458,-0.0537107,13.2599997036159,13
0.2628338,0.8833334,-22.02279,-0.0356036546085709,0.3815742124133278,-0.0833032632406975,14.54,72.27346,0.4436789,0.1044636,0.5845733,-0.07152319,13.2799997031689,13
0.470947,0.2833334,-21.95288,0.026131063583453,-0.3256458819524395,-0.0554160735317701,3.628272,72.88795,0.1229724,0.02610353,0.5937111,-0.01794277,13.2999997027218,13
0.5308222,0.4833333,-21.93221,-0.0871205461141833,-0.1101169493343968,-0.0846261087794992,7.255493,72.8997,0.2468879,0.05217337,0.5928175,-0.03586254,13.3199997022748,13
0.5906804,0.6833332,-21.91154,-0.1989477077800523,0.1221385444741604,-0.1126074551643121,10.88162,72.91956,0.3727914,0.07818334,0.5913298,-0.05374105,13.3399997018278,13
0.8181272,0.2833333,-21.83511,-0.2952896394816653,0.3188499479034571,-0.1347890970517298,3.574776,74.67476,0.2080987,0.02589992,0.6061661,-0.01747422,13.3599997013807,13
0.8773161,0.4833333,-21.81513,-0.3402352386066956,0.2942827097745346,-0.1408327307607422,7.148428,74.69435,0.4177295,0.05176657,0.6052785,-0.03492636,13.3799997009337,13
0.936488,0.6833333,-21.79516,-0.3890405602622673,0.3151909666912339,-0.1482949783593135,10.72095,74.72742,0.6306131,0.07757527,0.6038008,-0.05233934,13.3999997004867,13
0.9956449,0.8833333,-21.77518,-0.4275395069498358,0.3282586561763172,-0.1527304826045856,14.29198,74.77458,0.8482851,0.1032975,0.6017349,-0.06969625,13.4199997000396,13
1.279427,0.2833333,-21.6793,-0.2466055787225638,-0.3601443583531603,-0.0860533821563223,3.507104,75.57091,0.2783245,0.02567128,0.612359,-0.01683042,13.4399996995926,13
1.337467,0.4833333,-21.65935,-0.324616490381906,-0.1257981165182522,-0.1077111773498522,7.013083,75.59662,0.5586364,0.0513106,0.6114933,-0.03364016,13.4599996991456,13
1.395494,0.6833334,-21.6394,-0.4065128834965348,0.1252745952079503,-0.1317850565387317,10.51744,75.64,0.8432809,0.076892,0.6100526,-0.05040994,13.4799996986985,13
1.453504,0.8833333,-21.61946,-0.4793737127252258,0.3408034710253351,-0.1540317839670102,14.02055,75.70188,1.134384,0.1023939,0.6080384,-0.06712762,13.4999996982515,13
1.650166,0.2833334,-21.55262,-0.3801402756319949,-0.3852341688201612,-0.1215131190263925,3.441804,75.32474,0.2926947,0.02533308,0.610669,-0.01632794,13.5199996978045,13
1.706957,0.4833334,-21.53246,-0.4340428927921165,-0.1885227918746075,-0.1395717648360488,6.88204,75.35129,0.5876676,0.05063377,0.6098371,-0.03263213,13.5399996973574,13
1.763731,0.6833333,-21.5123,-0.4783211540908754,0.0249151616812746,-0.1545324486741215,10.32112,75.39606,0.8868806,0.07588143,0.6084521,-0.04890199,13.5599996969104,13
1.979489,0.2833333,-21.43939,-0.3309456709368454,-0.4375049148253879,-0.104395081680952,3.394371,73.78622,0.1912628,0.02468803,0.6000203,-0.01644558,13.5799996964633,13
2.035421,0.4833333,-21.41965,-0.3604981460256207,-0.1906136890462472,-0.1129013637293141,6.787325,73.80331,0.3837476,0.04934406,0.5992285,-0.03287037,13.5999996960163,13
2.091337,0.6833333,-21.39991,-0.3848565749385946,0.0730042328685295,-0.1189728663506883,10.17923,73.83211,0.5789133,0.07394966,0.59791,-0.04926154,13.6199996955693,13
2.147237,0.8833333,-21.38018,-0.3914609804482971,0.3010781993491737,-0.1185257702408755,13.57004,73.87313,0.7782013,0.09848314,0.5960668,-0.06560485,13.6399996951222,13
2.419086,0.2833333,-21.28797,-0.13669881771097,-0.4124144555066815,-0.0318631313101711,3.336405,71.6003,0.07723095,0.02400532,0.5846959,-0.01648267,13.6599996946752,13
2.473891,0.4833332,-21.26832,-0.1251959145613694,-0.2031581859161143,-0.0274919721062474,6.671383,71.6071,0.1550918,0.04798076,0.5839524,-0.03294338,13.6799996942282,13
2.528681,0.6833333,-21.24867,-0.1138881821709221,0.0228247808555034,-0.0238764446180894,10.00538,71.61855,0.2339863,0.07190853,0.5827145,-0.04937148,13.6999996937811,13
2.771027,0.2833333,-21.16662,0.1120064186040243,-0.4270503886317468,0.0495368394183159,3.280913,69.93603,359.9561,0.02324009,0.5728931,-0.01672052,13.7199996933341,13
2.825054,0.4833333,-21.14771,0.1123647097143285,-0.1676143625522241,0.0462807154882547,6.560859,69.93224,359.912,0.04645435,0.5721887,-0.03342235,13.7399996928871,13
2.879068,0.6833333,-21.1288,0.1001779791149397,0.1085481318504737,0.0381329571106761,9.83945,69.92583,359.8671,0.06961991,0.571016,-0.05009149,13.75999969244,13
2.933067,0.8833332,-21.1099,0.0877638535227109,0.3491666676828074,0.0291996247064929,13.11712,69.91671,359.8213,0.0927221,0.5693764,-0.06671493,13.779999691993,13
3.138483,0.2833334,-21.04022,0.2455624631261646,-0.3517813296583733,0.0744905799855821,3.229284,67.50995,359.8543,0.02272073,0.5554512,-0.01671321,13.799999691546,13
3.191506,0.4833334,-21.02101,0.2304208378257728,-0.1299799824721812,0.0617948311489939,6.457597,67.49757,359.7077,0.04541666,0.5547884,-0.03340826,13.8199996910989,13
3.244514,0.6833334,-21.00181,0.2128805618024101,0.1085480422936072,0.0479073313014772,9.684919,67.47671,359.5592,0.06806996,0.5536847,-0.05007168,13.8399996906519,13
3.29751,0.8833333,-20.98261,0.2053066752956498,0.311531999156469,0.0370721002568821,12.91095,67.44712,359.4083,0.09066202,0.5521418,-0.06668685,13.8599996902049,13
3.561658,0.2833333,-20.8933,0.2378276586091061,0.2932376565718307,0.0385311454134758,3.338951,66.30281,359.7903,0.02339144,0.546665,-0.017463,13.8799996897578,13
3.616498,0.4833333,-20.87322,0.2553579680332696,0.3204185519488499,0.0355998916346962,6.67692,66.28438,359.5793,0.04675631,0.5459662,-0.03490632,13.8999996893108,13
3.671324,0.6833333,-20.85316,0.2706725472466118,0.3397588495773342,0.032741128390608,10.01386,66.25331,359.3654,0.07007477,0.5448028,-0.05231513,13.9199996888638,13
3.908808,0.2833333,-20.7735,0.4858678104026284,-0.3423716938446854,0.0973356047878333,3.527888,68.1033,359.8287,0.02466697,0.5597122,-0.01847399,13.9399996884167,13
3.967078,0.4833333,-20.75332,0.430716934086881,-0.1017529850839658,0.0724305193864793,7.05486,68.08736,359.656,0.04930367,0.5589147,-0.0369268,13.9599996879697,13
4.025321,0.6833332,-20.73314,0.3589477869504947,0.1555923089117196,0.0433808414601237,10.58218,68.06039,359.4802,0.07389463,0.5575862,-0.05534943,13.9799996875226,13
4.083548,0.8833332,-20.71297,0.2833907876630599,0.3773935221981989,0.0145099636460344,14.10839,68.02193,359.3004,0.09840846,0.5557287,-0.07371407,13.9999996870756,13
4.282427,0.2833334,-20.64719,0.3660506518989859,-0.3423717992569528,0.038753260384059,3.564929,69.68241,359.8955,0.02500827,0.5710505,-0.01851832,14.0199996866286,13
4.3414,0.4833333,-20.6273,0.2852244288117305,-0.1393878839491719,0.0096266663503143,7.129133,69.67257,359.79,0.04998631,0.5702209,-0.03701646,14.0399996861815,13
4.400355,0.6833332,-20.60742,0.2032889393764279,0.0803225878447728,-0.0187451061613366,10.69228,69.65597,359.6829,0.07490862,0.5688397,-0.05547368,14.0599996857345,13
4.618025,0.2833333,-20.53354,0.1333692417440746,0.2644891902767486,-0.0420565584636278,3.589668,71.06004,0.0553686,0.02576973,0.5808319,-0.01780831,14.0799996852875,13
4.676954,0.4833333,-20.51228,0.1085016064460706,0.2273772521197734,-0.0507846592830496,7.178518,71.06532,0.1117784,0.05151144,0.579977,-0.03559077,14.0999996848404,13
4.735867,0.6833333,-20.49103,0.07449736207775,0.2357405636853277,-0.0610698909374107,10.76633,71.07426,0.1690716,0.0771953,0.5785537,-0.05333325,14.1199996843934,13
4.794763,0.8833333,-20.46979,0.0449311727572867,0.2362633954595468,-0.0684845026457239,14.35312,71.08702,0.2277114,0.1027961,0.5765638,-0.07101849,14.1399996839464,13
5.070144,0.2833333,-20.3777,0.2142314731386383,-0.4646846159075626,-0.010363071199368,3.586935,72.19894,0.1001018,0.02580209,0.5888779,-0.01773424,14.1599996834993,13
5.129201,0.4833332,-20.35691,0.1332892974294077,-0.2428832704637213,-0.0351731287492889,7.172853,72.20837,0.2007277,0.05157045,0.5880119,-0.03544778,14.1799996830523,13
5.188242,0.6833332,-20.33612,0.047297471671464,-0.0043552346340016,-0.0610426754069024,10.75772,72.2243,0.3029242,0.07728091,0.5865703,-0.05312151,14.1999996826053,13
5.436694,0.2833332,-20.25307,0.1703649851790132,-0.4416854608609275,-0.0183128635983145,3.639622,72.76945,0.113807,0.02615435,0.5928794,-0.01803886,14.2199996821582,13
5.496774,0.4833332,-20.23236,0.0654610375331357,-0.1697043900291095,-0.0507866455638854,7.278186,72.78036,0.2285316,0.05227494,0.5919816,-0.03605416,14.2399996817112,13
5.556837,0.6833331,-20.21166,-0.0526708523781822,0.119003251663277,-0.0865451521596334,10.91568,72.79879,0.3450598,0.07833514,0.5904869,-0.05402823,14.2599996812642,13
5.616879,0.8833331,-20.19096,-0.170239101158125,0.3721669188427788,-0.1210525632517409,14.55258,72.82507,0.4642704,0.1043115,0.588397,-0.0719464,14.2799996808171,13
5.825066,0.2833333,-20.12257,-0.2734502593514856,0.4236866805065145,-0.1497510876542698,3.603509,74.08442,0.1615016,0.0259448,0.6020694,-0.01781597,14.2999996803701,13
5.884755,0.4833333,-20.10262,-0.3266671455254819,0.3558040493118005,-0.1633810853718316,7.205926,74.09975,0.3242163,0.05185614,0.6011748,-0.03560921,14.3199996799231,13
5.944427,0.6833333,-20.08268,-0.3832129728550022,0.3338847609578508,-0.1769100354133819,10.80723,74.12563,0.4894985,0.07770858,0.5996854,-0.05336195,14.339999679476,13
6.004082,0.8833331,-20.06275,-0.428831703656499,0.3046126323967023,-0.1858410504899588,14.40724,74.16251,0.6584552,0.1034741,0.5976032,-0.07105793,14.359999679029,13
6.268901,0.2833335,-19.97542,-0.2838306347239037,-0.4256422339039627,-0.1344626500732637,3.53733,75.83522,0.2623439,0.02575472,0.6141776,-0.01716159,14.379999678582,13
6.327615,0.4833334,-19.95588,-0.3665735376906465,-0.2326597580398852,-0.1585029105896431,7.07356,75.85966,0.5266498,0.05147744,0.6132952,-0.03430159,14.3999996781349,13
6.386311,0.6833334,-19.93634,-0.4407344847981278,-0.0224629527284973,-0.1799747881650439,10.60859,75.90092,0.7949417,0.07714318,0.611826,-0.0514038,14.4199996776879,13
6.622391,0.2833333,-19.85782,-0.3295014592222021,-0.4876363174009337,-0.1419329908946913,3.469976,75.8513,0.2915245,0.02544533,0.6142939,-0.01660328,14.4399996772408,13
6.679845,0.4833332,-19.83808,-0.422593140887642,-0.2430106259051735,-0.1695824890103026,6.938523,75.87796,0.5853412,0.05085874,0.6134434,-0.0331831,14.4599996767938,13
6.737284,0.6833332,-19.81835,-0.5163401340245741,0.0188294088895891,-0.1955827381666282,10.40572,75.92293,0.8834421,0.07621679,0.6120275,-0.04972661,14.4799996763468,13
6.794706,0.8833332,-19.79863,-0.5982956561464068,0.2456135879022718,-0.2160508731709285,13.87164,75.98702,1.188146,0.1014973,0.6100479,-0.06621966,14.4999996758997,13
6.991888,0.2833333,-19.73338,-0.4533122050010938,-0.4686811015845629,-0.105863082524948,3.416245,75.10121,0.2553948,0.02498987,0.6091369,-0.01640057,14.5199996754527,13
7.048337,0.4833333,-19.71375,-0.4673104007961495,-0.2597387808246162,-0.0449102601768487,6.831017,75.12419,0.5126203,0.04994773,0.6083207,-0.03277899,14.5399996750057,13
7.104772,0.6833333,-19.69412,-0.4780992835481275,-0.0335819033276065,0.0192488809832269,10.24468,75.16293,0.7734536,0.07485383,0.6069617,-0.04912366,14.5599996745586,13
7.16119,0.8833333,-19.67449,-0.4727851027234546,0.1575187854239473,0.0901594687305653,13.65716,75.21813,1.039896,0.09968603,0.6050617,-0.06541982,14.5799996741116,13
7.415106,0.2833334,-19.59063,-0.5218248666697143,0.1278288404474091,0.2289566537875131,3.362375,72.85564,0.1290565,0.02427402,0.5935271,-0.01651542,14.5999996736646,13
7.470495,0.4833333,-19.57118,-0.5673873160326828,0.1441022516406229,0.3631790335957028,6.723339,72.86707,0.2590583,0.0485176,0.5927598,-0.03300903,14.6199996732175,13
7.525869,0.6833334,-19.55174,-0.5964863190591725,0.1530228364783329,0.4959756732966092,10.08329,72.88633,0.3908225,0.0727123,0.5914823,-0.0494695,14.6399996727705,13
7.750694,0.2833333,-19.47775,-0.5961829948267834,0.1012748654466679,0.6305476385122617,3.306055,71.17053,0.01074394,0.02351418,0.5816695,-0.01671011,14.6599996723235,13
7.805223,0.4833333,-19.45896,-0.6613447730359212,0.0421740685822026,0.8659079742285556,6.611131,71.17146,0.02156887,0.04700191,0.5809435,-0.0334013,14.6799996718764,13
7.859738,0.6833333,-19.44017,-0.7214430460171588,0.0290366422618921,1.083837999649436,9.914824,71.17302,0.03238189,0.07043997,0.5797347,-0.0500588,14.6999996714294,13
8.102139,0.2833333,-19.36026,-0.7638390215336823,0.0085465240084939,1.2876802767634707,3.254361,69.39261,359.9114,0.0229066,0.5690148,-0.01679905,14.7199996709824,13
8.155826,0.4833333,-19.34172,-0.8694874934043231,0.007361692485173,1.5559791667112783,6.507749,69.38503,359.8223,0.04578793,0.5683262,-0.03357956,14.7399996705353,13
8.209496,0.6833333,-19.32319,-0.9778923392323956,0.0521400196360637,1.7928937148236983,9.760158,69.37224,359.732,0.06862549,0.5671794,-0.05032812,14.7599996700883,13
8.263153,0.8833333,-19.30467,-1.0767529737620176,0.0895657892762866,2.0022036390836284,13.01127,69.35406,359.64,0.09139901,0.5655763,-0.06702939,14.7799996696413,13
8.316795,0.9766705,-19.28615,-1.1538287007146923,0.0663228322095682,2.1877449180045545,16.26143,69.33019,359.5455,0.1140925,0.5635182,-0.08367196,14.7999996691942,13
8.561234,0.2833333,-19.20609,-1.2756806844690196,0.0357271981068718,2.416360375798586,3.201249,66.20665,359.7767,0.02233497,0.545982,-0.01688685,14.8199996687472,13
8.613906,0.4833334,-19.18711,-1.385537783767422,0.0510948165911305,2.610258503990355,6.401501,66.18784,359.5522,0.0446459,0.54534,-0.03375536,14.8399996683002,13
8.666562,0.6833333,-19.16814,-1.4713286658677802,0.0591097313814302,2.773926894423493,9.600726,66.15618,359.3248,0.06691542,0.5442709,-0.05059247,14.8599996678531,13
8.874224,0.2833333,-19.10118,-1.5210099026586512,0.0064562262928898,2.911930760701484,3.531834,67.57719,359.7939,0.02461124,0.5559113,-0.01863206,14.8799996674061,13
8.932628,0.4833334,-19.08099,-1.6235769753513036,-0.0535504349782949,3.113620397368866,7.062675,67.55801,359.5862,0.04919249,0.5551167,-0.03724129,14.899999666959,13
8.991008,0.6833333,-19.0608,-1.713580011398843,-0.0675937502724824,3.271653639693355,10.59372,67.5256,359.375,0.07372728,0.5537931,-0.05581911,14.919999666512,13
9.202869,0.2833334,-18.99112,-1.7790911058221734,-0.0889897831123243,3.3912990624488017,3.558883,66.6147,359.8025,0.02500515,0.5489091,-0.01849171,14.939999666065,13
9.261235,0.4833333,-18.96963,-1.8942354378656,-0.0910804358320479,3.5471752126185585,7.116972,66.59621,359.6039,0.04998343,0.5481128,-0.03695767,14.9599996656179,13
9.319585,0.6833332,-18.94815,-2.001645324316602,-0.0472077169622064,3.650915440204479,10.67396,66.56502,359.4024,0.07490616,0.5467868,-0.05538275,14.9799996651709,13
9.377917,0.8833333,-18.92667,-2.0895120927947186,-0.0106876889800391,3.708422988942353,14.22976,66.52052,359.1961,0.09974935,0.544933,-0.07374875,14.9999996647239,13
9.626176,0.2833333,-18.7916,-2.0024326720569423,-0.6751504884684938,3.880134736050504,3.579209,61.5133,359.8661,0.02623963,0.5111744,-0.01697411,15.0199996642768,13
9.682163,0.4833333,-18.76381,-2.0587485281526963,-0.4163761550486196,3.94457589422637,7.157822,61.50096,359.7343,0.05246305,0.5104261,-0.03390597,15.0399996638298,13
9.738134,0.6833333,-18.73604,-2.0964317207330865,-0.1403873684744796,3.9572185797476,10.73538,61.48013,359.6003,0.07862773,0.5091799,-0.05080004,15.0599996633828,13
9.79409,0.8833331,-18.70827,-2.1037150236043747,0.1005452191614487,3.9249810519353137,14.31188,61.45039,359.4633,0.1047086,0.5074372,-0.06763954,15.0799996629357,13
9.950497,0.2833333,-18.56582,-2.068881054022377,0.1403217830526071,3.8549115495334494,3.552327,57.31632,359.9472,0.02697713,0.4793649,-0.01526868,15.0999996624887,13
10.00313,0.4833334,-18.53308,-2.0740252231559424,0.0611839420526351,3.832580413886097,7.10361,57.31158,359.8963,0.0539297,0.4786745,-0.03050126,15.1199996620417,13
10.05576,0.6833333,-18.50035,-2.058562761248176,0.0284973384707076,3.759322765398496,10.65387,57.30368,359.8451,0.080825,0.4775249,-0.04569614,15.1399996615946,13
10.10837,0.8833334,-18.46764,-2.011040300594852,-0.0110542107411391,3.643017317239544,14.2031,57.29239,359.7927,0.1076349,0.4759174,-0.06084282,15.1599996611476,13
10.30351,0.2833333,-18.26552,-2.0006791355193005,-0.0308123944790773,3.5574722661276663,3.629064,53.57816,359.9923,0.02823566,0.4504833,-0.01433101,15.1799996607006,13
10.35453,0.4833333,-18.22798,-1.973591453421804,-0.0041194608469871,3.4217789147667457,7.257081,53.57743,359.9847,0.05643523,0.4498058,-0.02864281,15.1999996602535,13
10.40553,0.6833333,-18.19045,-1.918638961249368,0.0157087411159474,3.244679677393986,10.88452,53.57629,359.9775,0.08457576,0.4486779,-0.04291955,15.2199996598065,13
10.58193,0.2833333,-18.01251,-2.05035270596356,0.6956443580913363,2.961674826687352,3.613946,51.92677,0.05274014,0.02855136,0.4375659,-0.01339119,15.2399996593595,13
10.63098,0.4833332,-17.97288,-1.9913279419215328,0.491440805959305,2.8258041997718277,7.226849,51.93179,0.1059248,0.05706624,0.4369131,-0.02676492,15.2599996589124,13
10.68002,0.6833332,-17.93325,-1.9189301996606325,0.3091212313370024,2.645851757256328,10.83869,51.94029,0.1600001,0.08551627,0.4358264,-0.04010777,15.2799996584654,13
10.72904,0.8833331,-17.89365,-1.8222165812670197,0.09432426703604,2.4316247602165117,14.44944,51.95265,0.2164728,0.1138769,0.4343079,-0.05339855,15.2999996580184,13
10.87092,0.2833333,-17.74149,-1.5422264856642496,-0.7195789496062142,2.350750787986096,3.559669,51.92339,0.1708253,0.02857697,0.4375168,-0.01225703,15.3199996575713,13
10.91796,0.4833333,-17.70083,-1.4599548582905246,-0.5106365961771779,2.166108510175066,7.118265,51.93941,0.3429561,0.05711807,0.4368822,-0.02449839,15.3399996571243,13
10.96497,0.6833333,-17.66017,-1.360559334043126,-0.2844798942220826,1.95301984364896,10.67573,51.96645,0.5177744,0.08559561,0.4358258,-0.03671206,15.3599996566772,13
11.01198,0.8833333,-17.61954,-1.2339249734774589,-0.0933792701117689,1.7217714662137524,14.23173,52.00525,0.6976473,0.1139832,0.4343497,-0.04887819,15.3799996562302,13
11.19518,0.2833333,-17.42377,-1.2560730106314022,0.6168534593515786,1.4251756987340285,3.491802,50.69054,0.2357606,0.02841464,0.4278158,-0.01118355,15.3999996557832,13
11.23969,0.4833333,-17.38198,-1.111936622839739,0.3308978107350875,1.2773925186985853,6.982508,50.71222,0.4732549,0.0567945,0.4272173,-0.02235301,15.4199996553361,13
11.28419,0.6833333,-17.3402,-0.956169019426877,0.0668261492983771,1.1166243768989546,10.47159,50.74898,0.7154002,0.08511362,0.4262218,-0.03348771,15.4399996548891,13
11.44767,0.2833333,-17.16721,-0.9643001505440728,0.4905650086156923,0.8945437739756095,3.431003,49.26327,0.2436933,0.02809851,0.4165371,-0.01054481,15.4599996544421,13
11.49024,0.4833333,-17.12491,-0.842521477100874,0.2702616641719631,0.8046172576506194,6.860467,49.28535,0.4898579,0.05616258,0.4159746,-0.02106914,15.479999653995,13
11.53279,0.6833333,-17.08263,-0.719834492292458,0.0718423976845234,0.7118624779447753,10.28883,49.32259,0.7395034,0.08416802,0.415038,-0.03157168,15.499999653548,13
11.70994,0.2833333,-16.89568,-0.5879466187105287,-0.1590544904756773,0.6278280194589456,3.381727,46.95379,0.1528768,0.02759552,0.3981693,-0.01053177,15.519999653101,13
11.75123,0.4833333,-16.85345,-0.5303892578852345,-0.1567200611742054,0.5740679464892029,6.762043,46.96744,0.3071539,0.05515701,0.3976485,-0.02104693,15.5399996526539,13
11.79251,0.6833333,-16.81124,-0.4882315576498914,-0.1079345160708202,0.5118098589290163,10.14135,46.99043,0.4635394,0.0826625,0.3967811,-0.03154091,15.5599996522069,13
11.83377,0.8833332,-16.76904,-0.453298867302351,-0.0660138109237404,0.4522494019450533,13.51961,47.02317,0.6232163,0.1100881,0.3955684,-0.04200444,15.5799996517599,13
11.87503,0.9766705,-16.72684,-0.4174899640603975,-0.0842737681141634,0.4066700265082659,16.8968,47.06628,0.7874694,0.1374101,0.3940117,-0.05242819,15.5999996513128,13
12.05064,0.2833333,-16.53892,-0.3105416883785974,-0.1093988705208739,0.4424975912061804,3.325139,44.14718,0.03145282,0.02698973,0.3756315,-0.01064884,15.6199996508658,13
12.09064,0.4833333,-16.49691,-0.2171950928463903,-0.0880729489476006,0.4706645154504585,6.648884,44.14996,0.06346394,0.05394661,0.3751574,-0.02128138,15.6399996504188,13
12.13064,0.6833333,-16.45491,-0.1289479681620235,-0.0736117339536184,0.5023359358327788,9.971666,44.15464,0.09591433,0.08085038,0.3743678,-0.03189284,15.6599996499717,13
12.28575,0.2833334,-16.28988,-0.037292769072236,-0.1193314091096043,0.5487762158634766,3.268581,42.17395,359.9225,0.02636676,0.3596563,-0.01089194,15.6799996495247,13
12.32503,0.4833334,-16.24852,0.0098345114480444,-0.1719157924129983,0.5386068418729018,6.5362,42.16728,359.8445,0.05270447,0.3592172,-0.02177155,15.6999996490777,13
12.36431,0.6833335,-16.20718,0.0459488759166237,-0.1780489281055929,0.5218908347152702,9.802532,42.15606,359.7656,0.07898919,0.3584863,-0.03262887,15.7199996486306,13
12.40357,0.8833336,-16.16585,0.0794000386748319,-0.1910468925163213,0.5091746916542359,13.06784,42.14009,359.6851,0.1052016,0.3574643,-0.04345658,15.7399996481836,13
12.5983,0.2833333,-15.95695,-0.032086378823994,0.4560623666009757,0.342471368815648,3.21091,38.44258,359.7838,0.02583415,0.3291376,-0.01100412,15.7599996477365,13
12.63608,0.4833333,-15.91541,0.0132575003822452,0.2190330500557775,0.3464544540671284,6.420825,38.42431,359.5664,0.05164046,0.3287483,-0.02199591,15.7799996472895,13
12.67384,0.6833333,-15.87388,0.0459335519349011,0.0038878247958596,0.3423127538456025,9.629699,38.39357,359.3463,0.07739838,0.3281001,-0.03296733,15.7999996468425,13
12.85035,0.2833334,-15.68458,0.0745540799718931,-0.2437346753217528,0.3407023941719611,3.452204,38.85127,359.79,0.02779757,0.3324837,-0.01174561,15.8199996463954,13
12.89102,0.4833332,-15.63993,0.1323767765396155,-0.2581262966146809,0.3626538104423602,6.903458,38.83218,359.5785,0.05556256,0.3320295,-0.02347743,15.8399996459484,13
12.93169,0.6833332,-15.5953,0.1753735601587323,-0.2260667877313016,0.373557995047971,10.354,38.79996,359.3639,0.08327203,0.3312732,-0.03518588,15.8599996455014,13
12.97233,0.8833331,-15.55069,0.2126713559098281,-0.2008719982334992,0.3841830375177242,13.80507,38.75402,359.1445,0.110911,0.3302151,-0.0468647,15.8799996450543,13
13.01296,0.9766704,-15.50609,0.2533387549448278,-0.2358581106465335,0.4053560669617422,17.25495,38.69349,358.9185,0.1384411,0.3288569,-0.05849736,15.8999996446073,13
13.19166,0.2833332,-15.3171,0.3230236158267399,-0.277708941922443,0.4544194136356108,3.546943,40.95583,359.8537,0.0285459,0.3497155,-0.01202228,15.9199996441603,13
13.23417,0.4833331,-15.27203,0.3753588198647826,-0.2731087620246482,0.4893560878698491,7.093605,40.94211,359.7058,0.05706086,0.3492119,-0.02403606,15.9399996437132,13
13.27667,0.683333,-15.22698,0.4200184689203148,-0.2753734071860496,0.5210320732131617,10.63918,40.91896,359.5557,0.08551277,0.3483736,-0.03602327,15.9599996432662,13
13.43363,0.2833334,-15.05896,0.323813075296945,0.3824692815585394,0.4028376459501555,3.591176,42.3689,359.9773,0.02914462,0.3611999,-0.01150812,15.9799996428192,13
13.47615,0.4833334,-15.01292,0.3404844085617036,0.1561731587262409,0.4062384373262198,7.181672,42.36677,359.9546,0.05825603,0.3606679,-0.0230004,15.9999996423721,13
13.51866,0.6833333,-14.9669,0.3493096629014403,-0.0482390959288879,0.4041939620614343,10.77116,42.36318,359.9316,0.08730214,0.3597821,-0.03446685,16.0199996419251,13
13.68886,0.2833334,-14.78387,0.1985844962019385,0.4351594918952166,0.2338902266340348,3.555043,43.24524,0.07769661,0.0290856,0.3682946,-0.01080008,16.0399996414781,13
13.73036,0.4833334,-14.73775,0.0426408124874573,0.9148292734217652,0.0599016616869345,7.108808,43.25254,0.156339,0.058134,0.3677629,-0.02158292,16.059999641031,13
13.77185,0.6833334,-14.69165,0.0502015290817592,0.4857933255738268,0.0614454548210439,10.66154,43.26488,0.2361865,0.08711819,0.3668777,-0.03234191,16.079999640584,13
13.81333,0.8833333,-14.64556,0.0512798007387225,0.0530289038690015,0.0586617520801109,14.21326,43.28248,0.3178797,0.1160104,0.3656401,-0.04306694,16.099999640137,13
14.02613,0.2833332,-14.41796,0.0560954076780859,-0.3108244174014561,0.0626220212385018,3.624958,44.2786,0.1095153,0.02965646,0.376643,-0.01103469,16.1199996396899,13
14.06894,0.4833332,-14.37133,0.0463086192327004,-0.3423258503984588,0.0508720382263678,7.248859,44.28907,0.2198714,0.05927468,0.3760773,-0.02205523,16.1399996392429,13
14.11172,0.6833332,-14.32472,0.0272205398789964,-0.3278640318539156,0.0300975281320639,10.87233,44.30669,0.3317234,0.08882935,0.3751352,-0.03305473,16.1599996387959,13
14.1545,0.8833332,-14.27812,0.0091762597576128,-0.3207549180487405,0.0114654308809534,14.49473,44.33186,0.4462955,0.1182867,0.3738181,-0.04401803,16.1799996383488,13
14.30479,0.2833332,-14.11845,-0.1356727045015837,0.3459735299342336,-0.141538897120288,3.625138,44.87843,0.121831,0.02964075,0.3814808,-0.01109108,16.1999996379018,13
14.34791,0.4833333,-14.07213,-0.1799422149182525,0.1280751660894201,-0.1866589886982659,7.249177,44.89007,0.2446166,0.059243,0.3809076,-0.02216767,16.2199996374547,13
14.39103,0.6833333,-14.02582,-0.2202322467510615,-0.0684272241555067,-0.2248999454583877,10.87215,44.90971,0.3693354,0.08877744,0.3799534,-0.03321911,16.2399996370077,13
14.43413,0.8833332,-13.97953,-0.2461032221368597,-0.2978950228860307,-0.2451346227836417,14.49413,44.93772,0.4968624,0.1182147,0.3786191,-0.04423624,16.2599996365607,13
14.62529,0.2833333,-13.77634,-0.4337721561836893,0.345694914424169,-0.4374062832620815,3.56746,47.03428,0.2345932,0.02935798,0.3987707,-0.01054409,16.2799996361136,13
14.66805,0.4833334,-13.73093,-0.4797399976018397,0.1046585010199061,-0.4795745526017807,7.133795,47.05632,0.470941,0.05867862,0.3981887,-0.02107481,16.2999996356666,13
14.71079,0.6833334,-13.68553,-0.5136584764593195,-0.1149819429661091,-0.5076607624123124,10.69897,47.09354,0.7109284,0.08793364,0.3972196,-0.03158201,16.3199996352196,13
14.88111,0.2833333,-13.5038,-0.6919030660223182,0.3527003305238458,-0.6885534562097675,3.499759,47.45891,0.2753334,0.02892111,0.4021624,-0.01008981,16.3399996347725,13
14.92284,0.4833333,-13.45898,-0.7437444615065179,0.1758521716666866,-0.7189465394227454,6.998393,47.48429,0.5526745,0.05780655,0.4015964,-0.02016695,16.3599996343255,13
14.96456,0.6833334,-13.41417,-0.7717524571576195,0.020400222323814,-0.7207256022816306,10.49538,47.52712,0.8342496,0.08662611,0.4006543,-0.03021966,16.3799996338785,13
15.00627,0.8833333,-13.36937,-0.7685201076141173,-0.1680168836477499,-0.6868371441407461,13.99113,47.5882,1.122173,0.1153564,0.3993371,-0.04024139,16.3999996334314,13
15.21673,0.2833334,-13.14395,-0.7265968825911973,-0.3157141600038691,-0.6101333944260876,3.435629,46.89384,0.275396,0.02845755,0.3976533,-0.009723954,16.4199996329844,13
15.2572,0.4833333,-13.09947,-0.6038727072896926,-0.3716435739465137,-0.4688188947511325,6.86972,46.91878,0.5529973,0.05687845,0.397114,-0.01943236,16.4399996325374,13
15.29766,0.6833333,-13.05502,-0.4430480436071811,-0.3820974831734856,-0.2989370871660046,10.30266,46.96083,0.8345373,0.08523967,0.396216,-0.02912058,16.4599996320903,13
15.33811,0.8833333,-13.01057,-0.2399616072910397,-0.4003921497483889,-0.0945276310759002,13.73437,47.02076,1.122212,0.1135159,0.3949606,-0.03877965,16.4799996316433,13
15.48673,0.2833333,-12.85196,-0.1276588197028374,0.2404440383698275,0.002917123313491,3.38269,45.24034,0.1733793,0.02782645,0.3844111,-0.009956133,16.4999996311963,13
15.52651,0.4833332,-12.80825,0.1556875841707423,-0.0038336406263044,0.2006971235574042,6.763948,45.25578,0.3479173,0.05561712,0.3839076,-0.01989932,16.5199996307492,13
15.56627,0.6833333,-12.76456,0.4828493893862742,-0.2272030010264891,0.4148747859140052,10.14417,45.2818,0.5248557,0.08335119,0.3830692,-0.02982236,16.5399996303022,13
15.60602,0.8833331,-12.72088,0.7031547800475408,0.2362622650218796,0.488379011987595,13.52334,45.31887,0.7055321,0.1110049,0.3818969,-0.03971655,16.5599996298552,13
15.7951,0.2833333,-12.5188,0.8894580851140983,0.6950231874750485,0.4816009858278995,3.325908,42.9527,0.04625596,0.02715278,0.365952,-0.01024922,16.5799996294081,13
15.83404,0.4833333,-12.47578,1.166983693325415,0.244102602637334,0.5025704737681718,6.650409,42.95675,0.09287693,0.05427145,0.3654898,-0.02048491,16.5999996289611,13
15.87298,0.6833333,-12.43277,1.4176836569102136,-0.2115222344963634,0.4827447437664158,9.973946,42.96358,0.1401023,0.08133659,0.36472,-0.03070055,16.6199996285141,13
16.0363,0.2833333,-12.25727,1.4472819926160394,0.2331259582495349,0.2203643169947984,3.269061,41.33542,359.9328,0.02648143,0.3528196,-0.01061601,16.639999628067,13
16.07485,0.4833333,-12.21522,1.5804273029898024,0.0327557445326966,0.0717439544811249,6.537158,41.32963,359.8651,0.05293346,0.3523888,-0.02122046,16.65999962762,13
16.11339,0.6833333,-12.17319,1.681565633503391,-0.1467062471144727,-0.0957909143285942,9.803963,41.31987,359.7965,0.07933167,0.3516716,-0.03180458,16.6799996271729,13
16.15192,0.8833333,-12.13116,1.7612695469990758,-0.3596213833576511,-0.2693513747972691,13.06976,41.30598,359.7265,0.1056573,0.3506688,-0.04235987,16.6999996267259,13
16.27847,0.2833332,-11.99575,1.701048965297577,0.3000331227989538,-0.5719509981009381,3.216953,38.42566,359.8172,0.02598135,0.3289903,-0.01074282,16.7199996262789,13
16.31585,0.4833332,-11.95376,1.7959612204754052,0.0745730527912684,-0.6667410011849437,6.432918,38.41018,359.6333,0.05193448,0.3286002,-0.02147389,16.7399996258318,13
16.35321,0.6833332,-11.91178,1.8840547917209527,-0.1299788197139034,-0.763688135626527,9.647866,38.38413,359.4471,0.07783891,0.3279508,-0.03218491,16.7599996253848,13
16.39056,0.8833331,-11.86981,1.9739958044104693,-0.3679837413342241,-0.8507944678546622,12.8615,38.34717,359.2578,0.1036733,0.327043,-0.0428632,16.7799996249378,13
16.54616,0.2833334,-11.70293,1.8967755868604,0.2665807419627301,-1.1045693760763395,3.398645,37.47171,359.7841,0.02747819,0.3211167,-0.01130822,16.7999996244907,13
16.58525,0.4833333,-11.65812,1.846970547282874,0.0160306378572236,-1.199505044102679,6.796314,37.45238,359.5668,0.05492466,0.3206914,-0.02260325,16.8199996240437,13
16.62433,0.6833333,-11.61333,1.7364237625311816,-0.2136113872256704,-1.3247004819294812,10.19296,37.41982,359.3465,0.08231524,0.3199833,-0.03387515,16.8399996235967,13
16.77273,0.2833333,-11.43775,1.4281515654084591,0.2435816543450995,-1.6279783887381312,5.070091,37.61149,359.805,0.04132113,0.322116,-0.01586767,16.8599996231496,13
16.82962,0.4833334,-11.36948,1.2608679175516322,0.0557561597350623,-1.707077859586021,10.13913,37.58525,359.6069,0.08255322,0.3211688,-0.03170099,16.8799996227026,13
16.88651,0.6833334,-11.30122,1.051181113947667,-0.1111612430460811,-1.8125310931290968,15.20706,37.54037,359.4025,0.1236157,0.3195927,-0.04746892,16.8999996222556,13
16.94338,0.8833334,-11.23299,0.8138272406131151,-0.3115316949423705,-1.929430981095897,20.27508,37.47512,359.1886,0.1644399,0.3173911,-0.06314025,16.9199996218085,13
17.18795,0.2833333,-10.98875,0.360781819251514,0.3606673637522332,-2.259975351819607,6.618114,36.99176,358.9473,0.05182864,0.317197,-0.0270079,16.9399996213615,13
17.2726,0.4833333,-10.90727,0.1785557125533508,0.1477519535242779,-2.230851923638494,13.23283,36.80505,357.866,0.103471,0.3155698,-0.05391993,16.9599996209145,13
17.35724,0.683333,-10.8258,-0.0057854956280962,-0.0442552458721733,-2.195071003432955,19.84163,36.47948,356.7241,0.1547508,0.3128646,-0.08064425,16.9799996204674,13
17.44186,0.8833327,-10.74434,-0.1822592375196059,-0.2697157083445385,-2.1432249698091197,26.44145,35.99077,355.4827,0.2054933,0.3090911,-0.1070901,16.9999996200204,13
17.65363,0.2833333,-10.59582,-0.2438517990726012,-0.2629206020001127,-1.9248179643364176,7.013368,41.01911,358.2554,0.05195728,0.3505392,-0.03566006,17.0199996195734,13
17.75747,0.4833333,-10.52331,-0.3290174705662032,-0.210650115692382,-1.7286641774225382,14.02404,40.689,356.4507,0.103721,0.348443,-0.0712416,17.0399996191263,13
17.86128,0.6833331,-10.45082,-0.4257978924592187,-0.1662203124212908,-1.543573727599676,21.02147,40.10982,354.5307,0.1550772,0.3449582,-0.1065495,17.0599996186793,13
17.90237,0.8833331,-10.46506,-0.5222569811745501,-0.1829468021753931,-1.3584653542068263,21.7904,41.26817,352.0642,0.1525185,0.357457,-0.1300393,17.0799996182323,13
18.05067,0.2833333,-10.39504,-0.5031473053740037,-0.2075139749661352,-1.0219046620054577,1.708053,47.42154,358.358,0.007884339,0.4022295,-0.01911044,17.0999996177852,13
18.09109,0.4833333,-10.3958,-0.4664765819322092,-0.1866058878415911,-0.6907399366087743,3.372456,50.17966,356.8076,0.01483268,0.4244329,-0.03768862,17.1199996173382,13
18.13146,0.6833332,-10.39659,-0.4052781664267577,-0.1735385909954195,-0.3572776132178843,5.119163,52.89477,355.3369,0.02185069,0.4461898,-0.05626129,17.1399996168911,13
18.29633,0.2833333,-10.25844,-0.4616701484735586,0.4986599929083971,-0.1728061215733909,2.118924,58.22268,359.521,0.01412072,0.4864885,-0.01264716,17.1599996164441,13
18.33938,0.4833333,-10.2417,-0.1974223303333069,0.2857447157089805,0.4254345320174746,4.611167,61.77132,359.128,0.03062017,0.5131589,-0.02717564,17.1799996159971,13
18.38235,0.6833333,-10.22498,0.0546514077250286,0.0937379637483966,0.9896417856010676,7.13776,65.31478,358.8869,0.04717383,0.5390515,-0.04175069,17.19999961555,13
18.42523,0.8833333,-10.20828,0.3039734151927327,-0.1317219887376801,1.5283980846373204,9.692945,68.86702,358.8026,0.06379166,0.5641252,-0.05635727,17.219999615103,13
18.62798,0.2833334,-10.00057,0.72689423228584,-0.1249267346418468,2.2671967698588444,3.617475,68.28909,359.8013,0.02514956,0.5610474,-0.01915033,17.239999614656,13
18.68872,0.4833334,-9.977833,1.1406727306227538,-0.0726561021508227,2.9252281243454457,7.241617,71.84966,359.8279,0.05026111,0.5856283,-0.0382669,17.2599996142089,13
18.74948,0.6833334,-9.955079,1.5542038847389603,-0.0282260470228208,3.5150278271002904,10.85832,75.44447,0.08408112,0.07528605,0.6090343,-0.05731089,17.2799996137619,13
18.81026,0.8833333,-9.932313,1.9766748092480384,-0.0449524049680304,4.049158114919306,14.45306,79.10362,0.5777553,0.1001761,0.6312205,-0.07624403,17.2999996133149,13
18.8974,0.2833334,-9.772626,2.670145512478509,-0.0695197922422445,4.846536746197583,359.7072,69.43745,359.3986,-0.005089451,0.5695274,-0.002858212,17.3199996128678,13
18.89742,0.4833333,-9.783915,3.3379043170162674,-0.0486115866377964,5.541046451966686,359.4544,72.98466,358.7811,-0.01015313,0.5946341,-0.005719508,17.3399996124208,13
18.89743,0.6833333,-9.795212,3.989615959583265,-0.0355443980787718,6.146138591870503,359.2447,76.53095,358.1515,-0.01516429,0.6191286,-0.008583415,17.3599996119738,13
19.07178,0.2833333,-9.580462,4.504061752414113,0.6366541970632096,6.518256599596088,0.2613416,65.23761,359.4332,-0.0007455329,0.5390488,-0.005395723,17.3799996115267,13
19.08094,0.4833333,-9.587059,4.9313520473419175,0.4237384903741462,6.734297459481353,0.5658538,68.76575,358.8875,-0.001407451,0.5647264,-0.01080056,17.3999996110797,13
19.09009,0.6833333,-9.593671,5.362663550172346,0.2317313329683664,6.845943721179025,0.9075283,72.28754,358.3627,-0.002031916,0.5898261,-0.0162079,17.4199996106327,13
19.09923,0.8833333,-9.600295,5.802998761179765,0.0062703566765405,6.863796274682232,1.284834,75.80295,357.861,-0.002619933,0.614325,-0.02161369,17.4399996101856,13
19.38144,0.2833333,-9.263271,5.986187630341352,0.0130655374193746,6.578263286741005,3.273045,60.74413,0.3484222,0.02617602,0.5053297,-0.01181745,17.4599996097386,13
19.42799,0.4833333,-9.228206,6.137618963397024,0.0653360855805846,6.18669877182032,6.520356,64.31004,0.8990848,0.05231434,0.5309564,-0.02363434,17.4799996092916,13
19.47452,0.6833332,-9.193138,6.258080460042017,0.1097660843435166,5.695647545814651,9.730083,67.9325,1.65635,0.07837678,0.5556167,-0.03543384,17.4999996088445,13
19.73361,0.2833333,-8.897397,6.348580009644156,0.0930398703165396,5.111464421185944,2.588593,59.32771,0.1634225,0.02033315,0.4947558,-0.009940025,17.5199996083975,13
19.77065,0.4833332,-8.870455,6.179616883029155,0.0684728000631862,4.394206350178113,5.162258,62.85754,0.4863045,0.04063727,0.5207413,-0.0198647,17.5399996079504,13
19.80768,0.6833332,-8.843513,5.93961300629703,0.089381108989077,3.610314919585481,7.71112,66.41624,0.9699296,0.06088315,0.5459465,-0.02975979,17.5599996075034,13
19.8447,0.8833332,-8.816582,5.62803477558526,0.1024489731448996,2.764594888467032,10.22755,70.01814,1.617092,0.08106226,0.5703354,-0.03961946,17.5799996070564,13
20.14652,0.2833333,-8.479871,5.319666540047081,0.0543603423369862,1.9658734556268032,5.665399,55.71118,359.9689,0.04356682,0.4666856,-0.0233307,17.5999996066093,13
20.22761,0.4833332,-8.421548,4.702467195868202,-0.0015689610534539,1.1422684327757775,11.32185,59.25478,0.2892406,0.08698605,0.4917286,-0.0465804,17.6199996061623,13
20.3087,0.683333,-8.363227,4.098732831294988,-0.0120231018389428,0.3911389507942839,16.94707,62.91683,0.9816784,0.1301119,0.515087,-0.06966972,17.6399996057153,13
20.3898,0.8833327,-8.304908,3.5178971036802515,-0.0303181051232734,-0.2748793029514056,22.51606,66.77916,2.085446,0.1728002,0.5366837,-0.09251972,17.6599996052682,13
20.75039,0.2833333,-7.859533,2.82024418184384,0.6105179042296753,-1.009502856581907,5.649086,46.15718,359.5258,0.04371327,0.3917014,-0.02311872,17.6799996048212,13
20.82606,0.4833336,-7.794245,1.9054916567408424,0.3662408682483723,-1.6088721366597296,11.31625,49.61978,359.3926,0.0872784,0.4180329,-0.04615737,17.6999996043742,13
20.90173,0.6833336,-7.728959,1.0132725368721545,0.1428720127816543,-2.096164923150276,16.98074,53.15261,359.6135,0.1305498,0.4429291,-0.06903717,17.7199996039271,13
21.23266,0.2833333,-7.355492,0.156229708129608,-0.1139500293588626,-2.4652443918027984,5.588978,47.90305,358.264,0.03840791,0.4061093,-0.0336176,17.7399996034801,13
21.32492,0.4833333,-7.309413,-1.050269158470826,-0.138516772572839,-2.869702124097522,11.27477,51.16597,356.8398,0.07671846,0.4320092,-0.06715294,17.7599996030331,13
21.41715,0.6833333,-7.263347,-2.2506257219961263,-0.1176081927984042,-3.1598502806025577,17.03292,54.36002,355.7187,0.1147744,0.4563564,-0.1004616,17.779999602586,13
21.50936,0.8833333,-7.217292,-3.4312729881595274,-0.1045404602772381,-3.331279832103889,22.84465,57.54712,354.9046,0.1524428,0.4790654,-0.1334229,17.799999602139,13
21.97126,0.2833332,-6.743681,-4.783010556917155,-0.7929432468200205,-3.283369240000619,6.320115,52.27954,358.4146,0.04339669,0.4405351,-0.03668495,17.819999601692,13
22.07462,0.4833333,-6.694747,-6.119289016051244,-0.5585966064222037,-3.28743576298142,12.74078,55.53339,357.1782,0.08674932,0.4652728,-0.07332787,17.8399996012449,13
22.17793,0.6833329,-6.645833,-7.32423069083444,-0.3075235523239298,-3.149868888916865,19.22103,58.74334,356.2881,0.129751,0.4880477,-0.1096691,17.8599996007979,13
22.28121,0.8833327,-6.596939,-8.374909057972346,-0.0919947104824004,-2.8587698675957625,25.74013,61.9924,355.7582,0.1722232,0.5087658,-0.1455552,17.8799996003509,13
22.33296,0.283333,-6.592376,-9.45764427107071,0.6421776882303594,-2.672870989321712,7.38919,69.30273,359.3556,0.04981703,0.5676888,-0.04125408,17.8999995999038,13
22.45676,0.4833333,-6.553697,-10.665251787226758,0.379674957529948,-2.370035887211225,14.80205,72.70883,359.148,0.09936839,0.5885949,-0.08229362,17.9199995994568,13
22.58051,0.6833327,-6.515015,-11.67207779774708,0.1385679436068133,-1.9219273404543995,22.21455,76.23252,359.4026,0.148407,0.6064788,-0.1229358,17.9399995990098,13
22.66094,0.2833332,-6.484491,-12.383849899911642,-0.1355042549097526,-1.4327754117584282,7.610899,75.47919,0.4395777,0.05482686,0.6105184,-0.03759545,17.9599995985627,13
22.78646,0.4833332,-6.439871,-13.239803793805963,-0.1768330462230857,-1.4172460757860508,15.17829,79.09862,1.365512,0.1093488,0.6299063,-0.07497993,17.9799995981157,13
22.91195,0.6833329,-6.395261,-13.871180382177204,-0.1721985257966275,-1.3696480667711874,22.668,83.01305,2.847869,0.1632774,0.6459235,-0.1119533,17.9999995976686,13
23.0374,0.8833328,-6.350661,-14.26916679009314,-0.1749166493885905,-1.2693099016067388,30.03501,87.40543,5.013062,0.2163274,0.6584889,-0.1483185,18.0199995972216,13
23.08966,0.2833331,-6.273829,-14.67916650260516,0.4819845162445799,-1.4098201840942282,7.290004,72.61237,1.12899,0.0570515,0.590369,-0.02971715,18.0399995967746,13
23.20342,0.4833331,-6.213265,-15.02989701832379,0.2542590529097518,-1.669245531301379,14.49277,76.3397,2.741433,0.1138029,0.6105112,-0.05927309,18.0599995963275,13
23.31715,0.683333,-6.152711,-15.141032639480835,0.0479295346873654,-1.842737826623046,21.56917,80.43364,4.918778,0.1699698,0.627562,-0.08851822,18.0799995958805,13
23.43085,0.883333,-6.092179,-15.000982494604362,-0.1913652850402385,-1.9093133871811143,28.46675,85.06631,7.791901,0.2252828,0.6414401,-0.1172989,18.0999995954335,13
23.36501,0.2833331,-6.019856,-15.040405192565949,-0.1979169201500138,-2.3618276648806167,7.289944,57.5947,0.6081741,0.05826225,0.4804363,-0.0259824,18.1199995949864,13
23.46409,0.4833329,-5.939575,-14.897031224691482,-0.1585052260093673,-2.747146266922346,14.51643,61.18915,1.695108,0.1162096,0.5032176,-0.05166472,18.1399995945394,13
23.56306,0.6833325,-5.859382,-14.565382115120212,-0.1264460249995005,-3.0499634776963966,21.65068,65.06686,3.309069,0.1735286,0.5234292,-0.07705455,18.1599995940924,13
23.66196,0.883332,-5.77924,-14.04048921746767,-0.1550551251272153,-3.255343000187587,28.65294,69.39446,5.561833,0.229963,0.5410173,-0.1020418,18.1799995936453,13
23.53652,0.2833333,-5.639322,-13.653403971177667,0.5489053414396785,-3.813375675376691,7.676204,31.18081,0.04689649,0.06458437,0.2681293,-0.01759669,18.1999995931983,13
23.59979,0.4833333,-5.524121,-13.270990945009224,0.256676899293587,-4.43883378663287,15.18561,34.41645,0.5721527,0.1276798,0.2926174,-0.03436248,18.2199995927513,13
23.66252,0.6833333,-5.40974,-12.70824369226204,-0.0136676466234767,-4.987554474617809,22.59769,37.79234,1.574605,0.1897135,0.3150004,-0.05069748,18.2399995923042,13
23.53221,0.2833333,-5.231545,-12.268588738843777,0.4037988103221522,-5.818029745422852,7.876174,8.593112,359.3263,0.06804486,0.07514325,-0.01099402,18.2599995918572,13
23.56039,0.4833333,-5.096322,-11.836730904273065,0.1772224538579375,-6.665305055256532,15.77454,11.55713,359.058,0.1357027,0.1008506,-0.02191744,18.2799995914102,13
23.58855,0.6833331,-4.961129,-11.27106024704076,-0.0274699679583967,-7.418577770728823,23.67374,14.62856,359.2215,0.2026055,0.125984,-0.0327097,18.2999995909631,13
23.42535,0.2833332,-4.736369,-10.57312655396981,-0.2646398223152364,-8.066029364719146,7.058608,345.7349,357.6217,0.06364143,-0.1226354,-0.01291167,18.3199995905161,13
23.43121,0.4833334,-4.606356,-10.189006345654324,0.3717356905894956,-9.10954708530523,14.22116,348.362,355.5547,0.126956,-0.09575459,-0.02574595,18.3399995900691,13
23.43706,0.6833332,-4.476374,-9.95045137359293,0.1239724717170387,-10.25551512535148,21.46505,350.8167,353.7574,0.1896339,-0.06842914,-0.03843957,18.359999589622,13
23.44288,0.883333,-4.346423,-9.658458323833027,-0.1019063451217448,-11.324926960622632,28.77247,353.1602,352.2059,0.2513683,-0.0407925,-0.05092883,18.379999589175,13
23.44869,0.9766697,-4.216503,-9.318572500127685,-0.3602624180008271,-12.309088369453235,36.12897,355.4555,350.8942,0.3118578,-0.01297963,-0.0631518,18.399999588728,13
23.18277,0.2833334,-4.110649,-9.15241190236172,-0.3853876983887458,-13.171506143529545,5.880551,325.5797,356.6012,0.05773954,-0.2939045,-0.01312001,18.4199995882809,13
23.16983,0.4833331,-3.992685,-8.97312777361591,-0.3640620805944592,-13.910338997135437,11.91151,328.0851,353.4478,0.1152255,-0.2672915,-0.02616927,18.4399995878339,13
23.22476,0.6833332,-3.985928,-8.788364846674362,-0.3496008139397544,-14.517039190710712,10.86051,327.3567,350.4774,0.1137287,-0.2712644,-0.05279849,18.4599995873868,13
23.16308,0.2833333,-4.102347,-8.55496178152962,0.3249669420160436,-14.973741055201067,359.9174,312.3549,357.9839,0.006446863,-0.4038542,-0.01638489,18.4799995869398,13
23.19087,0.4833334,-4.082311,-8.526120018409216,0.1153964670335973,-15.230382115108366,359.5641,312.0395,356.0512,0.01052902,-0.4062976,-0.03302361,18.4999995864928,13
23.21775,0.6833334,-4.061224,-8.5199093454608,-0.072289691987342,-15.31815211425463,359.2404,311.7308,354.1152,0.01494693,-0.408644,-0.04955077,18.5199995860457,13
23.24462,0.8833334,-4.040133,-8.547166500862819,-0.2924534204104996,-15.233040654286022,358.9035,311.4336,352.1823,0.01933182,-0.4108661,-0.06606099,18.5399995855987,13
23.10702,0.2833334,-4.191376,-8.531480493513573,0.360927749125539,-15.011384269526031,359.9801,299.8459,359.7762,0.0008281422,-0.5011635,-0.001776958,18.5599995851517,13
23.10948,0.4833333,-4.189111,-8.827109412715568,0.1301710233002267,-14.561568194765211,359.922,300.0295,359.5934,0.001183783,-0.499776,-0.003413664,18.5799995847046,13
23.11155,0.6833333,-4.186345,-9.13166980871721,-0.0787014356978876,-13.906970957611996,359.899,300.2212,359.3968,0.001859054,-0.4983244,-0.005003067,18.5999995842576,13
22.99683,0.2833333,-4.315903,-9.476207920042867,-0.3200516578477094,-13.1044398487969,0.2769583,301.8488,1.032801,-0.002267614,-0.4859612,0.009051435,18.6199995838106,13
22.98268,0.4833333,-4.328536,-9.926290498792769,-0.3281710082293716,-12.08532499734109,0.5716645,302.7087,2.064072,-0.004257052,-0.4793864,0.01819783,18.6399995833635,13
22.96853,0.6833333,-4.34117,-10.34342645622364,-0.2898385541446885,-10.895518806940377,0.8508393,303.573,3.099772,-0.006246124,-0.4727496,0.02734212,18.6599995829165,13
22.95438,0.8833333,-4.353804,-10.746131709587743,-0.2583706745690547,-9.54811318837944,1.11433,304.4414,4.139695,-0.008234646,-0.4660518,0.03648286,18.6799995824695,13
22.94022,0.9766707,-4.366439,-11.164136403482662,-0.2870834406914709,-8.069080263162865,1.362033,305.3137,5.183647,-0.0102222,-0.4592941,0.04561892,18.6999995820224,13
22.76285,0.2833333,-4.502424,-11.779000351964772,-0.3226620648261761,-6.4568291937946,0.3565368,304.9857,2.044202,-0.005479452,-0.461833,0.01725825,18.7199995815754,13
22.73665,0.4833333,-4.528278,-12.316704368259176,-0.3117896702079512,-4.763672263678565,0.7065557,306.5772,4.097384,-0.01056437,-0.4493977,0.0347029,18.7399995811284,13
22.71046,0.6833333,-4.554133,-12.795252519014433,-0.307782413749489,-3.009855690605177,0.9991934,308.1788,6.159749,-0.0156449,-0.4367417,0.05212996,18.7599995806813,13
22.55465,0.2833333,-4.670298,-13.002385209536186,0.3563320081295749,-1.2933409137219805,0.8342699,300.9341,2.714297,-0.005341715,-0.4929223,0.02419432,18.7799995802343,13
22.51754,0.4833333,-4.704331,-13.42568860346259,0.1363083272203443,0.446059080528296,1.606063,303.1715,5.477388,-0.01042143,-0.4758419,0.04868209,18.7999995797873,13
22.48045,0.6833333,-4.738333,-13.741806774969188,-0.0618309367581091,2.151440418549744,2.266034,305.4422,8.272239,-0.01552185,-0.4583065,0.07313132,18.8199995793402,13
22.44336,0.8833332,-4.772303,-13.73785759587808,0.4278401793225814,3.688153853125336,2.811625,307.7414,11.09483,-0.02063706,-0.4403329,0.09751789,18.8399995788932,13
22.21135,0.2833334,-4.963607,-13.607991809214962,0.9137821472563477,5.130232297275172,1.680533,295.244,4.36597,-0.008019662,-0.5355282,0.04001311,18.8599995784461,13
22.14902,0.4833334,-5.013458,-13.80646463811432,0.4910186165029702,6.54939630830774,3.569033,298.6615,8.534194,-0.01122409,-0.5104136,0.0798078,18.8799995779991,13
22.08672,0.6833333,-5.063297,-13.859591697355995,0.0645266424709735,7.809465921348927,5.200697,302.2124,12.81633,-0.01440014,-0.4841077,0.1194011,18.8999995775521,13
21.76486,0.2833332,-5.136438,-13.785462568200618,-0.2930536803693445,8.883498099967841,4.128098,292.8347,4.622262,0.007689277,-0.5535411,0.05347929,18.919999577105,13
21.66818,0.4833333,-5.185173,-13.66874478384446,-0.318282615862264,9.906345611105856,7.967193,297.3441,9.507567,0.01615315,-0.5218136,0.1066165,18.939999576658,13
21.57153,0.6833331,-5.233854,-13.356180059841613,-0.2975480675581825,10.6822324680257,11.39279,302.2154,14.74251,0.02450137,-0.4879548,0.1593352,18.959999576211,13
21.47492,0.8833328,-5.282495,-12.946901654720405,-0.2841665248104584,11.32024112315684,14.34835,307.4469,20.32746,0.03271531,-0.4521057,0.2114087,18.9799995757639,13
21.19556,0.2833333,-5.276519,-12.328596692677465,0.3888340769106438,11.959066421926588,6.150577,289.3991,3.375652,0.0267692,-0.5780712,0.05499153,18.9999995753169,13
21.07522,0.4833333,-5.299159,-12.156394560736054,0.1912484250011108,12.673404046090912,12.10258,293.9888,7.074974,0.05481467,-0.5461084,0.1087701,19.0199995748699,13
20.95432,0.683333,-5.320677,-11.86067372378003,0.013373847652028,13.183984502656696,17.74765,298.9927,11.36361,0.08260406,-0.5122119,0.1621964,19.0399995744228,13
20.83346,0.8833328,-5.342148,-11.46900253861511,-0.1990821239093131,13.483637960266169,22.98144,304.6168,16.32776,0.1099359,-0.4758313,0.2148565,19.0599995739758,13
20.45231,0.2833336,-5.293721,-10.81228403118296,0.4599718611970745,13.77230296966614,6.99296,282.5333,359.2639,0.05158472,-0.6242138,0.03315736,19.0799995735288,13
20.33455,0.4833338,-5.258103,-10.42485430457518,0.2497044355040059,14.078604108118622,14.01779,286.3701,358.9939,0.1029071,-0.5938742,0.06614099,19.0999995730817,13
20.20177,0.6833335,-5.268148,-9.934548643849364,0.0574093089483026,14.181874617773849,21.03274,290.6818,1.923868,0.1407208,-0.5615819,0.1173582,19.1199995726347,13
19.81902,0.2833333,-5.198332,-9.227312962929645,0.5491641045094942,14.238326944422942,6.584627,285.7549,358.7422,0.05240246,-0.6019869,0.02592071,19.1399995721877,13
19.7129,0.4833337,-5.148838,-8.435011743457704,1.0335802873832312,14.123894619969183,13.23413,289.0004,357.8438,0.10465,-0.5749646,0.05168785,19.1599995717406,13
19.6068,0.6833335,-5.099375,-8.080655943082318,0.6268541889612718,14.156755893941735,19.92089,292.2453,357.3117,0.1564429,-0.5454956,0.07720719,19.1799995712936,13
19.49125,0.883333,-5.061835,-7.636424929922228,0.2105693237234455,13.99190791236883,26.83999,295.2097,357.9593,0.2052172,-0.5175545,0.1096968,19.1999995708466,13
18.97156,0.2833333,-4.944378,-7.131480476088337,-0.1423812562182609,13.632340565255795,7.231335,291.7348,358.4581,0.0597305,-0.5592399,0.02426674,19.2199995703995,13
18.8627,0.4833332,-4.875002,-6.823353469117112,-0.1495071980899297,13.547013042374347,14.52467,294.2002,357.2106,0.1192218,-0.5360726,0.04837129,19.2399995699525,13
18.75387,0.6833329,-4.805646,-6.413090574409113,-0.1179936351901688,13.279647587629272,21.86124,296.5976,356.248,0.1781331,-0.510398,0.07224295,19.2599995695055,13
18.64507,0.8833327,-4.73631,-5.932795149998322,-0.1008108696601559,12.837322310638909,29.22753,299.0031,355.576,0.2361871,-0.4823398,0.09577042,19.2799995690584,13
18.25174,0.2833333,-4.630425,-5.2593713160233655,0.5693591639846599,12.336090556108337,7.750241,300.9516,359.1173,0.06259174,-0.4911971,0.02661574,19.2999995686114,13
18.14178,0.4833335,-4.550063,-5.1173328954301045,0.3410576497940744,12.151272879255265,15.53067,303.5335,358.5784,0.1248468,-0.4672114,0.05308418,19.3199995681643,13
