pX,pY,pZ,aX,aY,aZ,reX,reY,reZ,rtX,rtY,rtZ,t,ID
-44.00041,0.23,-39.99972,5.480644077679003,0.4610857120205062,3.4115417894470355,0.0156873,0.009941253,0.02322751,0.0001369151,8.672605e-05,0.0002026864,5.67999987304211,16
-44.00082,0.43,-39.99944,6.015931922860595,0.0258228493718091,3.5451051857779845,0.03140901,0.009950863,0.04645914,0.0002741305,8.672652e-05,0.0004054086,5.69999987259507,16
-44.00122,0.63,-39.99917,6.473631478735172,-0.1650577783800229,3.647607681696442,0.04718509,0.009966957,0.06983514,0.0004118204,8.672714e-05,0.0006093906,5.71999987214804,16
-44.00171,0.2833333,-39.99872,7.004848180219916,-0.5637658695119843,3.718019016041488,0.02367958,8.013347,0.03553018,0.0002278029,0.0698726,0.0002948628,5.739999871701,16
-44.00227,0.4833333,-39.99822,7.442891658859516,-0.7164890017547272,3.754228068603069,0.04736622,8.013369,0.0710877,0.000455684,0.06987258,0.0005899591,5.75999987125397,16
-44.00282,0.6833333,-39.99772,7.789623408162903,-0.6485609396155056,3.7571946224234263,0.07109295,8.013405,0.1066783,0.0006839343,0.06987256,0.0008853185,5.77999987080693,16
-44.00338,0.8833333,-39.99723,8.047208047243629,-0.3842698243014552,3.7280308117613217,0.09484915,8.013458,0.1422313,0.0009124185,0.06987252,0.001180332,5.7999998703599,16
-43.97104,0.2833334,-39.97438,8.38304619672681,-0.8006109740269557,3.648672972834717,1.086327,15.95371,0.5233294,0.01002176,0.1387225,0.003206969,5.81999986991286,16
-43.97464,0.4833333,-39.95341,8.616875083869445,-0.9635794254423612,3.53605435789958,2.172628,15.96859,1.047011,0.02004294,0.1386994,0.006413293,5.83999986946583,16
-43.97825,0.6833333,-39.93246,8.752311464517511,-0.8985088517557043,3.3923447695649074,3.260802,15.99349,1.572291,0.03008067,0.1386609,0.009623693,5.85999986901879,16
-43.89333,0.2833333,-39.90782,8.976243812493053,-1.270001495983213,3.214147057969328,1.875073,24.28479,0.09454197,0.01616982,0.2103006,-0.002635224,5.87999986857176,16
-43.88123,0.4833333,-39.8771,9.088734835026784,-1.3841489123372788,3.005419087826297,3.750831,24.28939,0.1883303,0.03233943,0.2102157,-0.00527915,5.89999986812472,16
-43.86914,0.6833332,-39.8464,9.095131957010544,-1.26628445282343,2.769198683844621,5.62902,24.29699,0.2811382,0.04851862,0.2100738,-0.007937884,5.91999986767769,16
-43.73346,0.2833331,-39.79356,9.203541948002544,-1.581011038145519,2.511653474178736,3.426941,32.90288,0.09248327,0.02890555,0.2830528,-0.007694429,5.93999986723065,16
-43.7021,0.4833333,-39.74216,9.193368819244398,-1.6344199680454945,2.2283546365015,6.857154,32.91112,0.1841621,0.05780902,0.282672,-0.01540229,5.95999986678362,16
-43.67075,0.6833338,-39.69079,9.071835149172747,-1.4518447941152557,1.9231280785343048,10.28941,32.92495,0.2768826,0.08667713,0.282037,-0.02310381,5.97999986633658,16
-43.53508,0.2833334,-39.65232,8.963964677326416,-1.6978878645219404,1.596313367163532,4.754962,39.44536,0.1904127,0.03960967,0.337112,-0.01243631,5.99999986588955,16
-43.48464,0.4833329,-39.58582,8.745520013539206,-1.6786408258225742,1.2537703354369256,9.513025,39.46915,0.3818828,0.07917222,0.3362385,-0.02487338,6.01999986544251,16
-43.43422,0.6833329,-39.51933,8.42525528065044,-1.419437323521798,0.8997592593085386,14.27269,39.50974,0.5786095,0.1186115,0.3347836,-0.03727378,6.03999986499548,16
-43.23912,0.2833338,-39.48674,8.20404371910265,-1.5848793605398028,0.5425460721467772,3.587131,48.28985,0.2611366,0.02949194,0.4087795,-0.01072404,6.05999986454844,16
-43.19536,0.4833338,-39.44175,7.876025025413227,-1.4810580642128537,0.1797668646727359,7.173227,48.31452,0.5241561,0.05894658,0.4081756,-0.0214355,6.07999986410141,16
-43.15163,0.683334,-39.39676,7.451834948802023,-1.1333072646477422,-0.1838391757115189,10.75855,48.35576,0.7886313,0.08832869,0.4071688,-0.03214492,6.09999986365438,16
-42.90245,0.2833335,-39.34712,7.1545467446960345,-1.2062303073336116,-0.5348763627197357,3.616384,57.03519,0.3073719,0.02900515,0.4771148,-0.01270886,6.11999986320734,16
-42.85236,0.4833335,-39.30836,6.75723014026029,-1.0059175849442197,-0.8795606747610947,7.231675,57.06446,0.6169568,0.05797261,0.476397,-0.02540278,6.13999986276031,16
-42.80227,0.6833336,-39.2696,6.272543528314998,-0.5577035540488363,-1.2128208322347689,10.84571,57.11387,0.9312794,0.08687292,0.475202,-0.0380689,6.15999986231327,16
-42.75222,0.8833335,-39.23085,5.713452818010424,0.1141237780451095,-1.5295255053957746,14.45933,57.18394,1.251024,0.1156763,0.4735294,-0.0507133,6.17999986186624,16
-42.53175,0.2833333,-39.21576,5.264791562506808,0.1325696400473845,-1.8199717129064648,3.568084,66.67175,0.3678025,0.02777284,0.5491933,-0.01442831,6.1999998614192,16
-42.47707,0.4833333,-39.1853,4.747743541556801,0.1915424787910102,-2.084681332603388,7.135003,66.70631,0.7382122,0.05550981,0.5483863,-0.02883953,6.21999986097217,16
-42.28143,0.2833335,-39.15599,4.331104764129897,-0.1888710998770366,-2.3124804638668124,3.493481,72.45776,0.5179679,0.02725835,0.5906205,-0.01437034,6.23999986052513,16
-42.22597,0.4833333,-39.12913,3.862236804754559,0.0726557629145293,-2.505166751734756,6.98575,72.50541,1.039425,0.05448236,0.5897793,-0.02872497,6.2599998600781,16
-42.17053,0.6833331,-39.10228,3.356839888368185,0.3404548002653225,-2.6574465402829475,10.47646,72.58574,1.568367,0.08164586,0.5883785,-0.04304982,6.27999985963106,16
-42.1151,0.8833331,-39.07543,2.8308578642087525,0.5622560377704866,-2.7639512873195926,13.96581,72.69992,2.107527,0.1087195,0.586419,-0.057344,6.29999985918403,16
-41.90512,0.283333,-39.06668,2.4622014001716157,-0.1679632325501338,-2.8169404917095875,3.449059,77.88814,0.5049791,0.02617448,0.6281676,-0.01549001,6.31999985873699,16
-41.84809,0.4833329,-39.04554,2.0492722285028293,0.0141126274310173,-2.8420051503743124,6.896828,77.934,1.013338,0.05231618,0.6272959,-0.03096211,6.33999985828996,16
-41.79109,0.6833329,-39.0244,1.648081017621024,0.2024607373280983,-2.83431441079842,10.3433,78.01114,1.527772,0.07839698,0.6258442,-0.04641073,6.35999985784292,16
-41.56267,0.2833332,-39.00858,1.4563449908444357,-0.2955030570430667,-2.785018155285961,3.411359,81.23678,0.4419743,0.0251034,0.6506375,-0.01645125,6.37999985739589,16
-41.50501,0.4833331,-38.99193,1.1852379965227513,-0.0946096634301757,-2.7036551398331383,6.821631,81.27625,0.8842415,0.0501622,0.6497579,-0.03290146,6.39999985694885,16
-41.44736,0.6833334,-38.97529,0.929444015650148,0.1125561919685875,-2.5953073420782644,10.23046,81.34278,1.332766,0.0751685,0.6482939,-0.04931678,6.41999985650182,16
-41.20001,0.2833334,-38.95581,0.9078138018809838,-0.3665900969969307,-2.448511125768924,3.380929,82.36591,0.2799307,0.02380971,0.6581228,-0.01758689,6.43999985605478,16
-41.14219,0.4833332,-38.94316,0.7639853067673243,-0.1468787439215921,-2.298959206307352,6.760689,82.39067,0.5598726,0.04758029,0.6572576,-0.03516483,6.45999985560775,16
-41.08438,0.6833332,-38.93052,0.6248018162448474,0.0791050340888898,-2.147079322278273,10.13929,82.4324,0.8437445,0.07130259,0.6558173,-0.05270636,6.47999985516071,16
-40.91648,0.2833334,-38.92122,0.5059424989329813,0.2590900673765164,-1.9950185037563344,3.338219,82.60186,0.1835386,0.02293866,0.6596979,-0.01802167,6.49999985471368,16
-40.85913,0.4833331,-38.91055,0.4548304953506559,0.2073421649063849,-1.8253151303895407,6.675198,82.61792,0.3674946,0.04584513,0.6588559,-0.0360265,6.51999985426664,16
-40.8018,0.6833329,-38.89989,0.3993900201763978,0.1906159028776238,-1.6781349520773006,10.01114,82.64497,0.5538581,0.06870563,0.6574539,-0.05399593,6.53999985381961,16
-40.56475,0.2833332,-38.88554,0.353433704413483,0.1555952459936805,-1.5583035768567155,3.298424,82.40754,0.05139545,0.02194873,0.6584563,-0.01862133,6.55999985337257,16
-40.50782,0.4833335,-38.87707,0.3379864863390054,0.1289366405195602,-1.423390406944371,6.595784,82.412,0.1031589,0.04387247,0.6576381,-0.03722098,6.57999985292554,16
-40.45092,0.6833338,-38.8686,0.3276029599240857,0.1372992615040934,-1.2971850481679894,9.89195,82.41938,0.1545886,0.06574629,0.6562755,-0.05578963,6.5999998524785,16
-40.19527,0.2833334,-38.85206,0.3371518825409936,0.1273665887542969,-1.1822576693791549,3.252442,81.69954,359.9408,0.02112878,0.6538255,-0.01895297,6.61999985203147,16
-40.13897,0.4833336,-38.8449,0.3355478824502995,0.125798088117467,-1.0787776532797722,6.503893,81.69447,359.8812,0.0422342,0.6530355,-0.03788482,6.63999985158443,16
-40.08269,0.6833332,-38.83775,0.3232745493144406,0.159251055342093,-0.9872719740850044,9.754489,81.68594,359.8209,0.06330012,0.6517199,-0.05678122,6.6599998511374,16
-40.02642,0.8833331,-38.83059,0.3145762514176695,0.1744091729577908,-0.9099788042772304,13.00377,81.67369,359.7588,0.08430355,0.6498803,-0.07562803,6.67999985069036,16
-39.80939,0.2833334,-38.81917,0.4370434472943714,-0.5223571507850673,-0.8450610955391582,3.206277,79.83223,359.8264,0.02048573,0.641446,-0.01911296,6.69999985024333,16
-39.7538,0.4833333,-38.81228,0.37277639359327,-0.3068278487885044,-0.7720007073780124,6.411596,79.81759,359.6518,0.04094978,0.6406908,-0.03820498,6.7199998497963,16
-39.55394,0.2833331,-38.79985,0.3122936838185808,-0.085026158446183,-0.7086774942030942,3.443915,80.48949,359.8103,0.02186759,0.6457994,-0.02067615,6.73999984934926,16
-39.49408,0.4833331,-38.79319,0.2894236040013496,-0.0693457136412648,-0.6464630699718015,6.886799,80.47228,359.6193,0.04370884,0.644922,-0.0413279,6.75999984890223,16
-39.43425,0.6833328,-38.78653,0.2535790078174145,-0.0196893976170314,-0.5937399749283117,10.3287,80.44327,359.4255,0.06550471,0.6434612,-0.06193697,6.77999984845519,16
-39.37444,0.883333,-38.77988,0.2187115659202945,0.0106270980087962,-0.5518703097909068,13.77113,80.40181,359.2271,0.08724326,0.6414174,-0.08249621,6.79999984800816,16
-39.1632,0.2833333,-38.77106,0.4103447068399148,-0.6720263649148444,-0.5120318606231109,3.558005,82.70808,359.8429,0.02239759,0.6604229,-0.02154028,6.81999984756112,16
-39.10125,0.4833333,-38.76591,0.4189802713706001,-0.4434298265317088,-0.4650999586896418,7.115093,82.69334,359.6844,0.0447671,0.6594662,-0.04305535,6.83999984711409,16
-39.03932,0.683333,-38.76077,0.4219998362357486,-0.2096062729012526,-0.4252068519549183,10.67195,82.66837,359.5228,0.06708875,0.6578727,-0.06453179,6.85999984666705,16
-38.80902,0.2833333,-38.74994,0.4336246661385416,-0.0228262227389508,-0.3933648902064206,3.573811,84.6067,359.9059,0.02250961,0.6727471,-0.02159463,6.87999984622002,16
-38.74678,0.4833333,-38.74572,0.4307001988189469,-0.0688240542953777,-0.3573430446032901,7.1467,84.59779,359.8106,0.04498886,0.6717651,-0.04316574,6.89999984577298,16
-38.68456,0.6833333,-38.74151,0.4191281360315244,-0.0808453769318345,-0.3264181085911843,10.71856,84.58276,359.7138,0.06741821,0.6701302,-0.06468859,6.91999984532595,16
-38.43345,0.2833333,-38.72778,0.4131153506560068,-0.1122074238115451,-0.301162610165278,3.592054,86.20045,0.06288863,0.02325906,0.6829283,-0.02101436,6.93999984487891,16
-38.37099,0.4833336,-38.72252,0.3894600452827674,-0.1362514420574507,-0.2771855186030407,7.183202,86.20644,0.1266648,0.04649184,0.6819217,-0.04200023,6.95999984443188,16
-38.30854,0.6833338,-38.71727,0.3494755347876435,-0.1263194514382713,-0.2567608814042472,10.77331,86.21655,0.1914391,0.06967227,0.6802459,-0.06293882,6.97999984398484,16
-38.24611,0.8833338,-38.71201,0.3074264945619234,-0.1357276185367506,-0.2401096374522779,14.3624,86.23099,0.2577569,0.09277789,0.6779029,-0.08380985,6.99999984353781,16
-38.03675,0.2833333,-38.70262,0.3570997339592594,-0.1378184156102974,-0.2142576101391142,3.568519,87.21902,0.09148948,0.02309478,0.6893871,-0.02089804,7.01999984309077,16
-37.97464,0.4833331,-38.69801,0.3922376585050031,-0.1059330497948858,-0.1914982306253989,7.135906,87.2276,0.1834113,0.0461584,0.6883839,-0.04177083,7.03999984264374,16
-37.91254,0.6833333,-38.6934,0.4277680564405841,-0.0933873413808947,-0.1717893775631296,10.70218,87.24207,0.2766891,0.06916986,0.6867138,-0.06259713,7.0599998421967,16
-37.68098,0.2833331,-38.68233,0.262850678749146,0.5667901663420853,-0.1595894758318579,3.646734,88.00334,0.1162669,0.02359205,0.694304,-0.0213741,7.07999984174967,16
-37.61744,0.4833331,-38.67809,0.2743790346488595,0.330352317762883,-0.1412014210453023,7.292375,88.01452,0.2334109,0.04715301,0.6932486,-0.04272044,7.09999984130263,16
-37.55392,0.6833328,-38.67385,0.2844687047694449,0.1033222840658003,-0.1244686960249268,10.93699,88.03339,0.3524382,0.07065973,0.6914914,-0.06401778,7.1199998408556,16
-37.30244,0.2833331,-38.66193,0.0695024366946626,0.5516283143443927,-0.1188813057713105,3.618639,88.96078,0.1365477,0.02336175,0.7002884,-0.02127255,7.13999984040856,16
-37.23936,0.4833333,-38.65841,0.0476778549024743,0.3434165486802137,-0.1049787607185095,7.236119,88.97379,0.2741083,0.04669259,0.6992398,-0.04251741,7.15999983996153,16
-37.17629,0.6833333,-38.65489,0.0178497727261301,0.1446141593935824,-0.0919386012585334,10.85253,88.99577,0.4138093,0.06996994,0.6974939,-0.06371409,7.17999983951449,16
-37.00713,0.2833336,-38.64739,-0.0048946486999312,-0.0991409805433818,-0.0795631576122772,3.564569,90.44582,0.201646,0.02315499,0.7094693,-0.02083875,7.19999983906746,16
-36.94491,0.4833338,-38.64436,0.0185655655744625,-0.1221397452161594,-0.0632634505015659,7.128047,90.46476,0.4047957,0.04628068,0.7084366,-0.04165122,7.21999983862042,16
-36.88272,0.6833338,-38.64133,0.0364704488629463,-0.1111626147994078,-0.0487461428527069,10.69041,90.49671,0.611065,0.06935477,0.7067173,-0.06241735,7.23999983817339,16
-36.64307,0.2833331,-38.62999,-0.1095578869997702,0.3606661336520848,-0.0424130348634648,3.50958,91.28272,0.2638624,0.02305484,0.7145911,-0.02028491,7.25999983772635,16
-36.58176,0.4833329,-38.62676,-0.2566044182392346,0.8152459531270495,-0.037880978209408,7.018036,91.30711,0.52961,0.0460809,0.7135803,-0.04054481,7.27999983727932,16
-36.52046,0.6833329,-38.62352,-0.2196748510568973,0.3475989370782446,-0.02926967592348,10.52494,91.34826,0.7993752,0.06905487,0.7118977,-0.06075791,7.29999983683228,16
-36.26094,0.2833331,-38.6106,-0.1753390615885912,-0.1372978175307169,-0.023694212065962,3.452128,91.2182,0.2912883,0.02288665,0.7142037,-0.01974644,7.31999983638525,16
-36.20062,0.4833331,-38.6068,-0.2912309974632521,0.2655332772584363,-0.0234125260969477,6.902703,91.24471,0.5848415,0.04574434,0.7132251,-0.03946489,7.33999983593822,16
-36.14032,0.6833329,-38.60299,-0.2040392325135691,0.0108015161940653,-0.0154529503942839,10.35215,91.28939,0.8825947,0.06855378,0.7115957,-0.05914211,7.35999983549118,16
-36.08003,0.8833328,-38.59918,-0.1138551269410435,-0.2355668062002074,-0.0087728705249645,13.8003,91.35309,1.186922,0.09129417,0.7093176,-0.07875938,7.37999983504415,16
-35.86193,0.2833333,-38.58886,-0.2088307078845552,0.1923545117319054,-0.0096730999926393,3.403992,90.12335,0.2236098,0.02235986,0.707513,-0.01964665,7.39999983459711,16
-35.80254,0.4833338,-38.58509,-0.0844653071524703,-0.0372872673309563,0.0001960406969558,6.806503,90.14339,0.4486961,0.04469044,0.7065729,-0.03926776,7.41999983415008,16
-35.74316,0.6833336,-38.58131,0.0345858169255457,-0.2585654353180368,0.0105892371627902,10.20804,90.17716,0.6769339,0.06697571,0.7050077,-0.05884913,7.43999983370304,16
-35.50545,0.2833338,-38.5696,-0.0643225127343107,0.1944463972524398,0.0106026619811956,3.353881,88.42077,0.1309056,0.02177215,0.696972,-0.01958712,7.45999983325601,16
-35.44702,0.4833338,-38.5657,-0.166768138299556,0.6302085565138296,0.0096108632297458,6.706429,88.43233,0.2627757,0.04351779,0.6960755,-0.03914905,7.47999983280897,16
-35.38861,0.6833338,-38.5618,-0.0910144580176464,0.1437437469615542,0.0139431592832508,10.05799,88.45184,0.3964701,0.06522015,0.6945828,-0.05867167,7.49999983236194,16
-35.13186,0.2833336,-38.54924,-0.0122228397739299,-0.3599702300080491,0.0166966148017877,3.303446,86.70014,0.01032134,0.02102185,0.686167,-0.01972089,7.5199998319149,16
-35.07433,0.4833336,-38.54575,-0.0929296856473378,0.0240441478766358,0.013324328296477,6.605944,86.70103,0.02069971,0.04202016,0.6853119,-0.0394198,7.53999983146787,16
-35.01682,0.6833338,-38.54225,0.0281657307485332,-0.2495047276097017,0.0172932308066933,9.907087,86.70252,0.03105378,0.06297404,0.6838883,-0.05907891,7.55999983102083,16
-34.95933,0.8833339,-38.53876,0.1512327485571809,-0.5146903458918517,0.0199453511612901,13.20732,86.70463,0.04157933,0.08386971,0.6818977,-0.07868383,7.5799998305738,16
-34.74196,0.2833331,-38.52852,0.0868227871848787,-0.1055857428605039,0.0140577537421151,3.253181,84.86598,359.9102,0.0204221,0.6744719,-0.01973042,7.59999983012676,16
-34.68529,0.4833326,-38.525,0.0271394421487762,0.2862697698525682,0.007450852636289,6.505406,84.85831,359.8199,0.04082197,0.6736561,-0.03943899,7.61999982967973,16
-34.62864,0.6833327,-38.52148,0.2387329794185255,-0.2441018055990996,0.0113470729531215,9.756601,84.84535,359.7284,0.06118206,0.6722978,-0.05911023,7.63999982923269,16
-34.39263,0.2833331,-38.50939,0.2241609183733892,-0.0714346023172042,0.0044794637904459,3.205619,82.17459,359.8041,0.01995879,0.6569861,-0.01967031,7.65999982878566,16
-34.33676,0.4833333,-38.50515,0.1977951238697102,0.111686282117851,-0.0034726198005969,6.410177,82.15806,359.6071,0.03989529,0.6562123,-0.03931919,7.67999982833862,16
-34.2809,0.6833331,-38.50092,0.1729725301007434,0.2529908625857413,-0.0117864765479751,9.61379,82.13025,359.4076,0.05979531,0.6549238,-0.05893163,7.69999982789159,16
-34.02168,0.2833338,-38.48779,0.1909577009470453,0.1667433478759362,-0.0177555376121958,3.452164,82.72796,359.798,0.02144244,0.6605791,-0.02122765,7.71999982744455,16
-33.96143,0.4833338,-38.48366,0.2036852302751057,0.1196984439927568,-0.0235565837200013,6.903429,82.70959,359.5946,0.04286017,0.659677,-0.04243058,7.73999982699752,16
-33.9012,0.6833333,-38.47953,0.2249772449037941,0.0585404156725744,-0.0283944753353111,10.35409,82.67858,359.388,0.06423445,0.6581746,-0.06359315,7.75999982655048,16
-33.841,0.8833336,-38.47541,0.2338486715586256,0.0099291556388061,-0.0328066582055228,13.80519,82.63436,359.1768,0.08555385,0.656073,-0.08470136,7.77999982610345,16
-33.62018,0.2833331,-38.46599,0.2328448244464098,0.0005210567533873,-0.0364560831424043,3.549134,84.49664,359.8419,0.02199581,0.6720536,-0.02184135,7.79999982565641,16
-33.55826,0.4833328,-38.46281,0.2359520121690153,-0.0230002610044841,-0.0386570912670336,7.098002,84.4818,359.6821,0.04396625,0.6710846,-0.04366327,7.81999982520938,16
-33.49636,0.6833328,-38.45963,0.2198387628053417,-0.0339768174035322,-0.0412309451917565,10.64576,84.45677,359.5199,0.06588793,0.6694713,-0.06543674,7.83999982476234,16
-33.2556,0.2833333,-38.44845,0.1844653768761759,-0.0057504198198242,-0.0438666264600087,3.581743,86.00912,359.9374,0.02248159,0.6817358,-0.02171482,7.85999982431531,16
-33.19318,0.4833331,-38.44519,0.1440257380308409,0.0083630031691102,-0.0460091438441878,7.16275,86.00321,359.8743,0.04493694,0.6807367,-0.04340366,7.87999982386827,16
-33.13077,0.683333,-38.44193,0.1127035545855754,-0.0449524636852676,-0.0470708370267161,10.74268,85.99323,359.8102,0.06734157,0.6790731,-0.06504386,7.89999982342124,16
-32.86963,0.2833333,-38.42866,0.073636923578924,-0.1123811298106449,-0.0479953810096063,3.573161,87.13902,0.06729143,0.02299323,0.6888856,-0.02106275,7.91999982297421,16
-32.80742,0.4833336,-38.42437,0.0312926767365269,-0.1406075724341395,-0.0482242650160742,7.145206,87.14539,0.1355396,0.04595967,0.687881,-0.04209564,7.93999982252717,16
-32.74523,0.6833336,-38.42008,4.253952623756163e-05,-0.1829468572336911,-0.047202332295285,10.71626,87.15616,0.2048762,0.0688753,0.6862083,-0.06308165,7.95999982208014,16
-32.68306,0.8833336,-38.41579,-0.0398321766884208,-0.212741461693762,-0.0466587883173872,14.28627,87.17153,0.2758499,0.09171751,0.6838698,-0.08400042,7.9799998216331,16
-32.4629,0.2833336,-38.40589,-0.0859948304290512,-0.2033330906530385,-0.0460880200971871,3.596327,88.0181,0.09418171,0.02313926,0.6944112,-0.02121021,7.99999982118607,16
-32.40023,0.4833338,-38.40208,-0.1238595002448406,-0.2080378230539812,-0.0449177435685399,7.191603,88.02704,0.1890748,0.04624897,0.6933848,-0.04239344,8.01999982073903,16
-32.33759,0.6833336,-38.39827,-0.1757910275728313,-0.2001971231165317,-0.0444896042432532,10.78614,88.04206,0.2851915,0.0693069,0.6916758,-0.06353237,8.039999820292,16
-32.09598,0.2833336,-38.38706,-0.2417247101896684,-0.1531539064394387,-0.0444008227219043,3.642267,88.55284,0.1114606,0.02343213,0.6977457,-0.0214898,8.05999981984496,16
-32.03249,0.4833338,-38.38351,-0.306915210192205,-0.1202240108237163,-0.0440015802962747,7.28347,88.56355,0.2237906,0.04683378,0.6966876,-0.0429517,8.07999981939793,16
-31.96901,0.6833338,-38.37996,-0.3566044792235381,-0.1547234084928,-0.0426209496696685,10.92363,88.58162,0.3379248,0.07018157,0.6949261,-0.06436429,8.09999981895089,16
-31.90556,0.883334,-38.37642,-0.4070475243661668,-0.2033346395164148,-0.0402651161896443,14.56313,88.6074,0.4547328,0.09345369,0.6924632,-0.08570911,8.11999981850386,16
-31.60448,0.2833333,-38.36287,-0.4538396374379019,-0.2127423591790269,-0.0366431245773171,3.597655,90.40754,0.1957264,0.02332864,0.7092286,-0.0210722,8.13999981805682,16
-31.54169,0.4833335,-38.35991,-0.4820799843750336,-0.2362630659813414,-0.031202161544833,7.194205,90.4261,0.3929715,0.04662748,0.7081773,-0.04211721,8.15999981760979,16
-31.47892,0.6833333,-38.35695,-0.5068354888990534,-0.2472395907567094,-0.0260553858534393,10.78964,90.45743,0.5933027,0.06987355,0.7064269,-0.06311467,8.17999981716275,16
-31.41616,0.8833334,-38.35398,-0.5263785049443719,-0.2190134073951194,-0.020622446349698,14.38365,90.5021,0.7981573,0.09304073,0.7039798,-0.0840438,8.19999981671572,16
-31.20789,0.2833328,-38.34466,-0.526092863837551,-0.2048998052053328,-0.0144769373477444,3.529879,91.50471,0.2573257,0.0230982,0.7159408,-0.02049617,8.21999981626868,16
-31.14622,0.4833327,-38.34179,-0.5305093938748158,-0.1782425247024182,-0.0102673986700665,7.058596,91.52864,0.5164753,0.04616686,0.7149167,-0.04096683,8.23999981582165,16
-31.08456,0.6833326,-38.33892,-0.5406985087080436,-0.1123823641795727,-0.0075539911010338,10.58613,91.56901,0.779567,0.06918496,0.7132117,-0.06139226,8.25999981537461,16
-30.85587,0.2833335,-38.32795,-0.5430348801216809,-0.0606348967746127,-0.0057832131236708,3.467606,91.50246,0.2897898,0.02292244,0.7159333,-0.01990899,8.27999981492758,16
-30.79526,0.4833335,-38.32448,-0.5238454307571949,-0.076316841221478,-0.0044163644974375,6.93378,91.52895,0.581908,0.04581678,0.7149435,-0.03979007,8.29999981448054,16
-30.73467,0.6833333,-38.321,-0.5043248736228101,-0.1061104579424774,-0.0033571803012009,10.3987,91.57364,0.8783336,0.06866223,0.7132958,-0.05962797,8.31999981403351,16
-30.48608,0.2833333,-38.30898,-0.4786738526919194,-0.0967009090721315,-0.0024415920050202,3.415763,90.72472,0.2542034,0.02251846,0.7112003,-0.01964927,8.33999981358647,16
-30.42643,0.4833333,-38.30529,-0.4335718641462875,-0.101404241145163,-0.0009622048945274,6.830067,90.7476,0.510244,0.04500842,0.7102477,-0.03927225,8.35999981313944,16
-30.3668,0.6833331,-38.30161,-0.3911360915789359,-0.0935635128073842,0.0015221095859558,10.24329,90.78616,0.7698961,0.06745201,0.7086616,-0.05885479,8.3799998126924,16
-30.30719,0.883333,-38.29792,-0.3492054354267928,-0.046519612605794,0.0051426114875781,13.65532,90.84111,1.035162,0.08982918,0.706444,-0.07837899,8.39999981224537,16
-30.09916,0.2833333,-38.28833,-0.29463118773063,-0.013588482969614,0.0104203510304969,3.366897,88.96576,0.1546895,0.02190512,0.7003648,-0.01962198,8.41999981179833,16
-30.04048,0.4833332,-38.28457,-0.2519997229532151,0.0318872688986244,0.0140939598064662,6.732417,88.97948,0.3104849,0.04378307,0.6994564,-0.03921853,8.4399998113513,16
-29.98182,0.6833332,-38.28081,-0.2221735399401758,0.1165659013094999,0.016480632908113,10.09691,89.0026,0.4684135,0.06561685,0.6979439,-0.05877548,8.45999981090426,16
-29.75451,0.2833332,-38.27028,-0.1919716972292526,0.1871314179951303,0.0180343487340692,3.315857,87.21265,0.041317,0.02119831,0.6894031,-0.0196936,8.47999981045723,16
-29.69677,0.4833333,-38.26675,-0.1482308075497975,0.1902676492365395,0.019194728706168,6.630704,87.21625,0.08293067,0.04237261,0.6885374,-0.03936454,8.49999981001019,16
-29.63904,0.6833333,-38.26322,-0.0005113017504108,0.1792905769272081,0.0250192530005648,9.944223,87.22232,0.1250437,0.06350275,0.6870962,-0.05899499,8.51999980956316,16
-29.39281,0.2833336,-38.25174,0.1339956650420752,0.2075166888523857,0.029428360620507,3.265889,85.55877,359.9305,0.02050372,0.678914,-0.01979924,8.53999980911613,16
-29.33591,0.4833333,-38.24854,0.268725304357801,0.2216300949405105,0.0329870961610936,6.530872,85.5528,359.8606,0.04098545,0.6780867,-0.03957658,8.55999980866909,16
-29.27903,0.6833333,-38.24534,0.2022269430394025,0.8886028223478806,0.0273754872215405,9.794564,85.54272,359.7896,0.06142513,0.6767093,-0.05931486,8.57999980822206,16
-29.22216,0.8833332,-38.24214,0.3034499518364484,0.6641870612974504,0.0274626483558506,13.05728,85.52837,359.7173,0.08180858,0.6747833,-0.07899964,8.59999980777502,16
-29.01449,0.2833335,-38.23197,0.3977830842185419,0.454406795606265,0.0262615322055452,3.215878,82.68938,359.8169,0.02001073,0.6603601,-0.01973556,8.61999980732799,16
-28.95843,0.4833335,-38.22799,0.498515011241885,0.2049007606233284,0.0244420903503481,6.430799,82.67387,359.6326,0.03999981,0.6595777,-0.03945001,8.63999980688095,16
-28.9024,0.6833336,-38.22401,0.5225137689451032,0.1813785977378554,0.0187767211547651,9.644691,82.64778,359.446,0.05995122,0.658275,-0.05912753,8.65999980643392,16
-28.6727,0.2833333,-38.21289,0.523673181912109,0.1970589036773571,0.0119791458111606,3.372747,82.41004,359.7978,0.02097902,0.6585081,-0.02071294,8.67999980598688,16
-28.61387,0.4833333,-38.20861,0.5151617425031247,0.1986264131775287,0.0048000216214916,6.744524,82.39211,359.5943,0.04193422,0.6576497,-0.04140195,8.69999980553985,16
-28.55506,0.6833335,-38.20433,0.72132290653337,-0.5075490257643838,0.0078269130747656,10.11524,82.36185,359.388,0.0628468,0.6562203,-0.06204922,8.71999980509281,16
-28.3042,0.2833331,-38.19291,0.7430447679919716,-0.2972469736227715,0.0036849427888512,3.537507,84.15298,359.8303,0.02191809,0.669836,-0.02178246,8.73999980464578,16
-28.24246,0.4833331,-38.18958,0.7504643192667082,-0.0764908284361021,-4.337582458191491e-05,7.074069,84.13715,359.6591,0.04380863,0.6688765,-0.04353958,8.75999980419874,16
-28.18075,0.6833329,-38.18624,0.7572894586111616,0.1024492261343501,-0.0026451247969845,10.61082,84.11037,359.485,0.06565702,0.6672782,-0.06525873,8.77999980375171,16
-28.11905,0.8833328,-38.18291,0.7445779066464162,0.053837747871055,-0.0056805102138426,14.1464,84.07216,359.3069,0.08743601,0.6650436,-0.08690926,8.79999980330467,16
-27.90933,0.2833335,-38.17403,0.7156326217108138,0.0444292208027518,-0.0084674363050041,3.567631,85.68016,359.8954,0.02220445,0.6796455,-0.02183514,8.81999980285764,16
-27.84712,0.4833334,-38.17116,0.6843700092638514,0.0209077030229256,-0.0104398479111793,7.134482,85.6703,359.7897,0.04438144,0.6786566,-0.04364565,8.8399998024106,16
-27.78492,0.6833335,-38.1683,0.628985541978988,0.0099307606930189,-0.01328985583892,10.70027,85.65366,359.6824,0.06650858,0.6770103,-0.0654079,8.85999980196357,16
-27.55472,0.2833332,-38.1567,0.5504406145740255,0.0381567320975474,-0.0166054897848226,3.590386,87.01855,0.05504571,0.02305079,0.6881232,-0.02121948,8.87999980151653,16
-27.49221,0.4833332,-38.15247,0.4628279323458599,0.0522701144896917,-0.0198148141531291,7.179926,87.02383,0.1110996,0.04607704,0.6871099,-0.04240946,8.8999998010695,16
-27.42971,0.6833333,-38.14825,0.5913867550040344,-0.6413597740695135,-0.0131072138416854,10.76842,87.03271,0.1680647,0.06905163,0.6854231,-0.06355149,8.91999980062246,16
-27.17902,0.2833333,-38.13633,0.5345857298043484,-0.4185130788747432,-0.0134054434382449,3.568462,87.84201,0.08568867,0.02294537,0.6933127,-0.02105939,8.93999980017543,16
-27.11686,0.4833336,-38.1325,0.4664020092913716,-0.1852124663510655,-0.0139362769617576,7.13572,87.85005,0.1718488,0.0458598,0.692304,-0.04209235,8.95999979972839,16
-27.05471,0.6833336,-38.12866,0.4014494535230568,0.0062717705076845,-0.0141491487577525,10.70199,87.86362,0.259371,0.06872369,0.6906245,-0.06307858,8.97999979928136,16
-26.99259,0.8833334,-38.12482,0.3220527253107157,-0.0297948271328221,-0.0153679497760421,14.26721,87.883,0.3489509,0.09151451,0.6882766,-0.08399775,8.99999979883432,16
-26.68035,0.2833332,-38.11034,0.2315100089497512,-0.0266586028608216,-0.0170307977889336,3.638633,88.65189,0.1167338,0.02342301,0.6983636,-0.02145499,9.01999979838729,16
-26.61691,0.4833337,-38.10681,0.1446030487781335,-0.0376353000418701,-0.0185197329857089,7.276132,88.66308,0.2343142,0.04681478,0.6973066,-0.04288214,9.03999979794025,16
-26.55349,0.6833339,-38.10328,0.040805489115538,-0.0360674207275897,-0.0199889621867797,10.91262,88.68198,0.3538418,0.07015339,0.695547,-0.06425993,9.05999979749322,16
-26.4901,0.8833342,-38.09975,-0.0787286496488448,0.0047035852364789,-0.0211464411435002,14.54864,88.70893,0.4760764,0.09341718,0.6930864,-0.085572,9.07999979704618,16
-26.27072,0.2833332,-38.09047,-0.199050827867051,0.0313615609376466,-0.0213979321608874,3.603148,89.93086,0.1618941,0.02324146,0.7062986,-0.02121763,9.09999979659915,16
-26.20786,0.483333,-38.08757,-0.3052118525092133,-0.0094092236606636,-0.0201569945667401,7.205223,89.94623,0.3249874,0.04645291,0.7052493,-0.04240837,9.11999979615211,16
-26.14502,0.6833331,-38.08468,-0.3054957948234644,-0.0642935053849663,-0.0138988338277314,10.80614,89.97218,0.4907033,0.06961166,0.7035025,-0.06355032,9.13999979570508,16
-25.90521,0.2833332,-38.07418,-0.3104026051528095,-0.0799745691602586,-0.0077940958512741,3.543314,91.38055,0.2414969,0.02310346,0.715185,-0.02065144,9.15999979525805,16
-25.84331,0.483333,-38.07146,-0.3046623845363427,-0.1097690648975965,-0.0013737047630471,7.085537,91.40309,0.4848096,0.04617821,0.7141548,-0.04127689,9.17999979481101,16
-25.78143,0.683333,-38.06874,-0.4814877503866164,0.5132958717592212,-0.0027392814727562,10.62655,91.44113,0.7318181,0.06920161,0.7124398,-0.06185646,9.19999979436398,16
-25.52168,0.2833333,-38.05679,-0.4805154746839797,0.2449736684511891,0.0004762805139506,3.482051,91.61391,0.2818706,0.02294136,0.71661,-0.02006978,9.21999979391694,16
-25.46082,0.4833332,-38.05357,-0.4678068585816035,-0.0087130089193274,0.0025764151978222,6.96299,91.63977,0.5656632,0.0458541,0.7156113,-0.04011554,9.23999979346991,16
-25.39998,0.683333,-38.05036,-0.6595687941250716,0.4181633864864461,-0.0045040744726563,10.44233,91.6834,0.8539013,0.0687168,0.7139489,-0.06011392,9.25999979302287,16
-25.33915,0.8833331,-38.04715,-0.6610220720980884,0.193749026112395,-0.0046137555003795,13.92037,91.7456,1.148519,0.09150862,0.7116247,-0.08005102,9.27999979257584,16
-25.12102,0.2833336,-38.03696,-0.6599778024310261,-0.0160295533309956,-0.005387742889205,3.427005,91.11116,0.2730482,0.02263808,0.7135589,-0.01968001,9.2999997921288,16
-25.06115,0.4833337,-38.03335,-0.6426187107536521,-0.2655333567972332,-0.0061216561934216,6.852551,91.13582,0.5481279,0.04524778,0.712596,-0.03933331,9.31999979168177,16
-25.0013,0.6833336,-38.02974,-0.5713226625812027,-0.2890552822873125,-0.0026699445943449,10.27699,91.17738,0.8271139,0.06781051,0.7109929,-0.0589458,9.33999979123473,16
-24.76344,0.2833333,-38.01865,-0.5009889151490547,-0.273374292997549,0.0022226829937466,3.380303,89.44595,0.1723529,0.0220142,0.7033412,-0.01968641,9.3599997907877,16
-24.70449,0.4833333,-38.01508,-0.4177139128404583,-0.2718062400579401,0.009153992527743,6.759216,89.46129,0.3458866,0.04400063,0.7024212,-0.03934747,9.37999979034066,16
-24.64557,0.6833335,-38.0115,-0.5092586381326107,0.3826212612183418,0.0082486144111655,10.13706,89.48714,0.5218151,0.06594216,0.7008895,-0.05896836,9.39999978989363,16
-24.38883,0.2833333,-37.99923,-0.4274583360089572,0.1456618524330521,0.0126964719286988,3.32862,87.73831,0.07380733,0.02138441,0.6927078,-0.01966347,9.41999978944659,16
-24.33086,0.4833333,-37.99565,-0.3345663199863367,-0.0766618122723104,0.0169215872288361,6.655857,87.74477,0.1480803,0.04274191,0.6918311,-0.03930224,9.43999978899956,16
-24.2729,0.683333,-37.99207,-0.4426910096300354,0.3815772163144583,0.0121418901540764,9.982194,87.75567,0.2233444,0.06405765,0.6903713,-0.05890266,9.45999978855252,16
-24.21495,0.883333,-37.98849,-0.3572594117369405,0.1885244170525155,0.0143135309438306,13.30751,87.77117,0.3001104,0.08531281,0.6883303,-0.07844771,9.47999978810549,16
-23.99753,0.2833332,-37.97905,-0.2659943251507926,0.0101073367806362,0.0159979841156356,3.278294,86.04364,359.9545,0.02064195,0.6820059,-0.01980633,9.49999978765845,16
-23.94042,0.4833332,-37.97589,-0.1553092238244104,-0.2080349397235814,0.0177253252697511,6.555597,86.03973,359.9087,0.04126057,0.6811688,-0.03959072,9.51999978721142,16
-23.88332,0.6833333,-37.97274,-0.1114945629818962,-0.200194019727135,0.0150630992763609,9.831592,86.03308,359.8622,0.06183641,0.679775,-0.05933576,9.53999978676438,16
-23.64726,0.2833333,-37.96138,-0.0818015478948446,-0.1531510109125782,0.0108207434079261,3.228684,83.58799,359.8531,0.02014951,0.6662162,-0.01973046,9.55999978631735,16
-23.591,0.4833332,-37.95763,-0.053067017798412,-0.1202215514945581,0.0056269939197477,6.456411,83.57552,359.7054,0.04027722,0.6654215,-0.03943945,9.57999978587031,16
-23.53476,0.6833332,-37.95388,-0.0121015285549255,-0.1547212951075325,0.0001184886309104,9.683126,83.5545,359.5558,0.06036695,0.6640983,-0.0591111,9.59999978542328,16
-23.47853,0.8833333,-37.95014,0.0218384683436632,-0.2033326894766018,-0.0059773372176721,12.90854,83.52469,359.4036,0.08040281,0.6622484,-0.07872637,9.61999978497624,16
-23.18073,0.2833332,-37.93582,0.0538099739270094,-0.2127410701873783,-0.0122921592276696,3.339462,82.34609,359.7893,0.0207233,0.6580951,-0.02056579,9.63999978452921,16
-23.12246,0.4833335,-37.9317,0.0971144829583785,-0.2362624976262786,-0.0180647527353556,6.677899,82.32758,359.5774,0.04142327,0.6572537,-0.04110756,9.65999978408217,16
-23.06422,0.6833333,-37.92758,-0.0474071544338201,0.3930751631274352,-0.0316921456373151,10.01536,82.29638,359.3625,0.06208231,0.6558527,-0.0616091,9.67999978363514,16
-23.00599,0.8833333,-37.92346,0.0426619123800087,0.1310257825333948,-0.0340971308534889,13.35271,82.25198,359.1434,0.08268944,0.6538932,-0.08205743,9.6999997831881,16
-22.79409,0.2833332,-37.91496,0.1321781571943141,-0.1163878236638049,-0.0352509857190952,3.527609,84.11117,359.8279,0.02184812,0.6695675,-0.02173194,9.71999978274107,16
-22.73251,0.4833332,-37.91164,-0.0026820190968983,0.3167608417820595,-0.0455188983993863,7.054297,84.09516,359.6544,0.04366904,0.6686136,-0.04343885,9.73999978229403,16
-22.67097,0.6833333,-37.90833,0.0524041663206276,0.0986182843236592,-0.0465829089092153,10.58131,84.06808,359.4779,0.06544916,0.6670246,-0.06510878,9.759999781847,16
-22.44082,0.2833335,-37.89854,0.0971897176964091,-0.1048883606565405,-0.0467871996241129,3.565147,85.67947,359.8953,0.02218815,0.6796415,-0.02182085,9.77999978139997,16
-22.37865,0.4833333,-37.89568,0.1455578138462812,-0.3481207794586061,-0.0455518375547114,7.129591,85.66961,359.7896,0.04434958,0.678654,-0.04361737,9.79999978095293,16
-22.31649,0.6833335,-37.89282,0.2336975051363978,-0.365370526469167,-0.0416446491351081,10.69294,85.65298,359.6823,0.06646144,0.6770099,-0.06536511,9.8199997805059,16
-22.06552,0.2833332,-37.88048,0.3062228258597841,-0.3434175119396986,-0.0376696309711519,3.589703,87.03012,0.05513154,0.02304485,0.6881964,-0.02121716,9.83999978005886,16
-22.00301,0.4833331,-37.87626,0.3774836349728758,-0.3355774674748866,-0.0330839098902231,7.178582,87.0354,0.1113318,0.04606566,0.6871836,-0.04240459,9.85999977961183,16
-21.94053,0.6833333,-37.87205,0.2481195497160868,0.3251216975902763,-0.0363126701896803,10.76639,87.0443,0.1684146,0.06903449,0.6854971,-0.06354411,9.87999977916479,16
-21.87806,0.8833333,-37.86783,0.2918730975792591,0.0944344097869077,-0.0322685939234901,14.35319,87.05702,0.2268558,0.0919293,0.6831393,-0.08461554,9.89999977871776,16
-21.66923,0.2833334,-37.85898,0.3317090900313566,-0.1216175971406851,-0.027781350550093,3.567916,87.86916,0.08598994,0.02293878,0.6934832,-0.02105963,9.91999977827072,16
-21.60708,0.4833335,-37.85517,0.1446263701509167,0.3428933308880082,-0.0327208561055414,7.134659,87.87721,0.1724461,0.04584678,0.6924745,-0.04209306,9.93999977782369,16
-21.54494,0.6833337,-37.85136,0.1468746656954813,0.156113351987883,-0.0300091299057214,10.70035,87.89083,0.2602693,0.06870388,0.6907952,-0.06307939,9.95999977737665,16
-21.31367,0.2833333,-37.84113,0.1377132333430886,-0.0160306508382128,-0.0277763935601029,3.646562,88.52441,0.1123153,0.02346949,0.6975671,-0.02150479,9.97999977692962,16
-21.25009,0.4833333,-37.83753,0.1317763709348121,-0.2279003489932408,-0.0254279389387832,7.292069,88.53521,0.2254777,0.04690827,0.6965068,-0.04298188,9.99999977648258,16
-21.18654,0.6833335,-37.83393,0.1634076823854044,-0.2137871480670059,-0.0197697046725906,10.93647,88.55343,0.3404625,0.07029264,0.6947416,-0.06440914,10.0199997760355,16
-20.93523,0.2833335,-37.82301,0.1801698444344879,-0.1604709285167747,-0.0136376204891064,3.618758,89.38527,0.1335761,0.0232653,0.7029261,-0.0213781,10.0399997755885,16
-20.87212,0.4833333,-37.82001,0.1971005702806181,-0.1212679913477128,-0.0064347480484272,7.23647,89.39801,0.2681755,0.04650071,0.7018734,-0.04272886,10.0599997751415,16
-20.80903,0.6833331,-37.81701,0.0143858559478076,0.5707939434988034,-0.0074386125840533,10.8531,89.41952,0.4049036,0.06968299,0.7001209,-0.06403092,10.0799997746944,16
-20.74595,0.8833333,-37.814,0.0114261931276331,0.371469077877661,-0.0011421985177122,14.46842,89.45016,0.5446711,0.09278624,0.6976709,-0.08526339,10.0999997742474,16
-20.53778,0.2833336,-37.80536,0.0094328820150337,0.186780079782048,0.0057341311142451,3.559037,91.22741,0.2279396,0.02314246,0.7142507,-0.02080128,10.1199997738004,16
-20.47562,0.4833335,-37.80271,0.0233253649878619,-0.0376346559816332,0.0136392321967306,7.117019,91.24879,0.4576398,0.04625636,0.7132133,-0.04157625,10.1399997733533,16
-20.41348,0.6833336,-37.80006,-0.2219796423562172,0.6042478853948652,0.0103126127245971,10.6738,91.28486,0.6908266,0.06931825,0.7114862,-0.06230488,10.1599997729063,16
-20.35135,0.8833337,-37.79742,-0.2177878321053548,0.3547427132243982,0.0148205029633601,14.22903,91.33628,0.9292312,0.09230292,0.7090717,-0.08296657,10.1799997724593,16
-20.08302,0.2833335,-37.78537,-0.2144437804063024,0.1198736400508592,0.0176160449827307,3.490124,91.6801,0.2826345,0.0229836,0.7170106,-0.02012891,10.1999997720122,16
-20.02202,0.4833335,-37.78222,-0.1979556554030814,-0.1547210342775111,0.0192181110632176,6.979143,91.70609,0.5672719,0.04593889,0.7160066,-0.04023329,10.2199997715652,16
-19.96103,0.6833336,-37.77907,-0.1371199365001381,-0.2033329036987201,0.0226610412106751,10.46649,91.74995,0.8563925,0.0688435,0.7143356,-0.06028955,10.2399997711182,16
-19.72271,0.2833333,-37.76805,-0.0838402211307336,-0.2127416907258686,0.0248053880640952,3.429702,91.15123,0.2728259,0.02264628,0.7138031,-0.01970609,10.2599997706711,16
-19.66279,0.4833332,-37.76448,-0.0243613061976404,-0.2362634850168798,0.0263334390521947,6.857877,91.17588,0.5476875,0.04526374,0.7128384,-0.03938496,10.2799997702241,16
-19.60289,0.6833331,-37.76092,-0.1474004115350382,0.3930737256874371,0.0201570817167748,10.28492,91.21746,0.8264913,0.06783424,0.7112322,-0.05902261,10.2999997697771,16
-19.34515,0.2833333,-37.74891,-0.1036388662783647,0.1310242355866046,0.0223457191457114,3.381093,89.50398,0.1726801,0.02201113,0.7037006,-0.01970038,10.31999976933,16
-19.28619,0.4833333,-37.74538,-0.0560462123808616,-0.1163895279449366,0.0261338352629252,6.760777,89.51936,0.346508,0.04399414,0.7027797,-0.03937549,10.339999768883,16
-19.22725,0.6833333,-37.74186,-0.2178142548663899,0.3167593042439688,0.0207045634089695,10.13943,89.54526,0.5227036,0.06593235,0.7012464,-0.05901086,10.359999768436,16
-19.16832,0.883333,-37.73834,-0.1970938186513642,0.0986173843119867,0.0213483710046347,13.51706,89.58215,0.7026072,0.08780701,0.6991027,-0.07858939,10.3799997679889,16
-18.95077,0.2833335,-37.72869,-0.1813932278200152,-0.1048887904946593,0.0209699845267081,3.328549,87.8056,0.07398574,0.02137349,0.6931309,-0.01967447,10.3999997675419,16
-18.89279,0.4833333,-37.72518,-0.1573287921764006,-0.3481205046897729,0.0199756942125759,6.655767,87.8121,0.1485292,0.04272097,0.6922536,-0.03932399,10.4199997670949,16
-18.83482,0.6833335,-37.72166,-0.0845706758675479,-0.3653702433370468,0.0212039997583488,9.981987,87.82302,0.2240378,0.0640259,0.690793,-0.0589347,10.4399997666478,16
-18.5983,0.2833336,-37.7113,-0.019364642801241,-0.3434170363648525,0.0213107013649533,3.278505,86.10498,359.9544,0.02063229,0.6823969,-0.01981905,10.4599997662008,16
-18.54119,0.4833335,-37.70821,0.0517487023916114,-0.335577308485311,0.0208028755930413,6.556076,86.10105,359.9087,0.04124217,0.6815592,-0.03961591,10.4799997657537,16
-18.48408,0.6833334,-37.70512,-0.0608090434934052,0.3251218158959433,0.0124787389718079,9.832362,86.09441,359.8621,0.06180906,0.6801644,-0.05937394,10.4999997653067,16
-18.2291,0.2833335,-37.693,0.0990072778101183,0.0944344287785404,0.0142848082790507,3.228757,83.64999,359.8531,0.02013954,0.6666194,-0.01974152,10.5199997648597,16
-18.17284,0.4833336,-37.68931,0.2466259363039906,-0.1216172974562254,0.0144281689615937,6.456537,83.63753,359.7054,0.04025716,0.6658241,-0.03946143,10.5399997644126,16
-18.11659,0.6833335,-37.68562,0.1704081110024926,0.3428933708749738,0.004749388886367,9.683364,83.61652,359.5559,0.06033736,0.6645,-0.05914417,10.5599997639656,16
-18.06035,0.8833334,-37.68194,0.0840392064014246,0.7964273703383336,-0.0056335625525179,12.90889,83.58672,359.4038,0.0803637,0.6626489,-0.07877047,10.5799997635186,16
-17.84171,0.2833335,-37.67178,0.1664187184384129,0.3340078979049441,-0.0095351667354464,3.283069,82.22017,359.7943,0.02040359,0.6572757,-0.0201871,10.5999997630715,16
-17.78445,0.4833336,-37.66758,0.2434018367946073,-0.1393887092139621,-0.0138624012578674,6.565161,82.20238,359.5872,0.04078443,0.6564635,-0.04035199,10.6199997626245,16
-17.72721,0.6833336,-37.66338,0.1546099136392165,0.2812147916929368,-0.024660041068472,9.846225,82.17245,359.3776,0.06112606,0.6551112,-0.06047762,10.6399997621775,16
-17.66999,0.8833336,-37.65918,0.2579573019413619,0.0505275096393298,-0.0263838626725672,13.12677,82.12988,359.1639,0.08141617,0.6532201,-0.08054984,10.6599997617304,16
-17.3882,0.2833333,-37.64763,0.3539197420697473,-0.1655241546548375,-0.0271982290577526,3.525797,84.32491,359.833,0.02182539,0.6709498,-0.02172941,10.6799997612834,16
-17.32664,0.4833334,-37.64446,0.4567385096347767,-0.4213017961904106,-0.0263697496253598,7.050601,84.30939,359.6647,0.04362419,0.6699952,-0.04343221,10.6999997608364,16
-17.26512,0.6833334,-37.64128,0.5440607854246036,-0.4510962250214506,-0.0252387805468501,10.57629,84.28311,359.4933,0.06538397,0.6684045,-0.06510355,10.7199997603893,16
-17.01466,0.2833331,-37.6308,0.6131032064568203,-0.4416875248505238,-0.0235986702212116,3.564751,85.84833,359.8959,0.02215721,0.6807207,-0.02184713,10.7399997599423,16
-16.95249,0.4833332,-37.62811,0.6783167229228493,-0.4463921193443445,-0.0208577509216709,7.128713,85.83852,359.7908,0.04428676,0.6797318,-0.04366983,10.7599997594953,16
-16.89033,0.6833333,-37.62543,0.5412559392479608,0.2017626290862396,-0.0258477846709865,10.69164,85.82198,359.684,0.06636696,0.6780856,-0.06544428,10.7799997590482,16
-16.8282,0.8833334,-37.62274,0.4059331512067334,0.6984533365158052,-0.0301202570851444,14.2535,85.79836,359.5747,0.08837646,0.675784,-0.08714938,10.7999997586012,16
-16.61869,0.2833335,-37.61258,0.4972624347342993,0.1676283171321378,-0.0250751040458112,3.589228,87.16815,0.05470046,0.02301368,0.6890692,-0.02124476,10.8199997581542,16
-16.55618,0.4833337,-37.60852,0.3537818785059308,0.3466024020055668,-0.0292340796825101,7.177624,87.17338,0.1104418,0.04600318,0.6880553,-0.04245988,10.8399997577071,16
-16.49369,0.6833335,-37.60446,0.2015311872279461,0.5427908516089233,-0.0330467281090278,10.76504,87.18221,0.1670859,0.0689415,0.6863671,-0.06362741,10.8599997572601,16
-16.26416,0.2833336,-37.59451,0.233854726222578,0.0636092727073996,-0.0295019836511229,3.568061,87.98381,0.08547831,0.02291551,0.6942032,-0.02108666,10.879999756813,16
-16.202,0.4833338,-37.59083,0.2626377546733938,-0.4260607702589947,-0.0256879239197402,7.134948,87.99183,0.1713975,0.04580012,0.6931934,-0.04214722,10.899999756366,16
-16.13985,0.6833339,-37.58715,0.112379337808786,-0.0212428328372886,-0.0284053476090804,10.70083,88.00538,0.2587083,0.06863438,0.6915122,-0.0631607,10.919999755919,16
-15.88781,0.2833331,-37.57599,0.1684603798046531,-0.2672282441280768,-0.0228273050714449,3.646624,88.63123,0.112006,0.02344793,0.698234,-0.02152897,10.9399997554719,16
-15.82423,0.4833332,-37.57252,0.219215680473475,-0.4980901232193384,-0.0174910399412695,7.292145,88.642,0.2248901,0.0468651,0.6971728,-0.0430297,10.9599997550249,16
-15.76067,0.683333,-37.56905,0.0656062686390175,-0.0479018564757713,-0.0199907480974417,10.93665,88.66017,0.3395588,0.07022823,0.6954058,-0.06448128,10.9799997545779,16
-15.69713,0.8833328,-37.56558,-0.0864193456705795,0.3917975855361625,-0.0219439241427963,14.58077,88.6861,0.4569421,0.09351736,0.692935,-0.08586643,10.9999997541308,16
-15.38558,0.2833332,-37.55239,-0.0619142954648062,-0.0839688408311981,-0.0159075560396928,3.610049,90.06207,0.1670649,0.02329159,0.7071055,-0.02125494,11.0199997536838,16
-15.32259,0.4833333,-37.54955,-0.2645159660315102,0.1500636621264474,-0.0189039389179228,7.219001,90.07796,0.3353429,0.04655272,0.7060509,-0.04248293,11.0399997532368,16
-15.25962,0.6833332,-37.54671,-0.4676991638389687,0.4013103676882109,-0.0215180585861247,10.82686,90.10479,0.5063029,0.06976108,0.7042951,-0.06366251,11.0599997527897,16
-15.19667,0.8833331,-37.54387,-0.4718302705632879,-0.0228132118161648,-0.0163820506270511,14.43337,90.14303,0.6810923,0.09289045,0.7018406,-0.08477324,11.0799997523427,16
-14.97816,0.2833335,-37.53492,-0.4668531476386608,-0.4574257141465657,-0.010511920281722,3.544999,91.52993,0.2433122,0.02309811,0.716094,-0.02068102,11.0999997518957,16
-14.91623,0.4833334,-37.53232,-0.6327194622342276,0.0024501279754838,-0.0112670554273037,7.088905,91.55267,0.4884244,0.0461673,0.7150615,-0.04133619,11.1199997514486,16
-14.85431,0.6833333,-37.52973,-0.7831804100386837,0.4518368168455227,-0.0119457449000961,10.63165,91.59101,0.7372962,0.0691856,0.7133425,-0.06194546,11.1399997510016,16
-14.61536,0.2833334,-37.51926,-0.6566301702040338,-0.0142424793141651,-0.004151405103272,3.482588,91.75024,0.2820144,0.02292164,0.7174383,-0.02009955,11.1599997505546,16
-14.55449,0.4833334,-37.51619,-0.5131510688393011,-0.4908108533691624,0.0021378914571243,6.964056,91.77611,0.5661139,0.04581562,0.7164381,-0.04017401,11.1799997501075,16
-14.49362,0.6833332,-37.51312,-0.6074307458770836,-0.0728903449335626,-0.0013821028976366,10.44396,91.81979,0.8545957,0.0686594,0.7147732,-0.06020166,11.1999997496605,16
-14.23507,0.2833332,-37.5014,-0.4785732057637997,-0.3057730706508488,0.0034658682210775,3.427548,91.23502,0.2729413,0.02261944,0.7143149,-0.0197085,11.2199997492135,16
-14.17519,0.4833334,-37.49792,-0.3507526871354791,-0.5235322829860032,0.0076540108221294,6.853568,91.25967,0.5479476,0.0452103,0.7133508,-0.03938962,11.2399997487664,16
-14.11532,0.6833333,-37.49445,-0.4366544498725524,-0.06024075473464,0.003074875830002,10.27847,91.30123,0.8268602,0.06775416,0.7117454,-0.0590298,11.2599997483194,16
-14.05546,0.8833332,-37.49097,-0.5222710506493939,0.3925616524110977,-0.0012988969011757,13.70216,91.36046,1.111811,0.09023082,0.709501,-0.07861144,11.2799997478724,16
-13.99563,0.9766705,-37.4875,-0.4269613041093247,-0.0701022241990583,0.0028261987103803,17.12453,91.43844,1.40511,0.11262,0.70662,-0.09811683,11.2999997474253,16
-13.73787,0.2833332,-37.47646,-0.3253562324725809,-0.5432551428991996,0.0087009027284636,3.37635,89.14824,0.1575852,0.02195031,0.7014972,-0.01969672,11.3199997469783,16
-13.67902,0.4833333,-37.47284,-0.3804818037461253,-0.121919849217137,0.0079472747169688,6.751244,89.16225,0.3162702,0.04387263,0.7005822,-0.03936755,11.3399997465312,16
-13.62018,0.6833332,-37.46921,-0.2320649478891905,-0.3513878082439997,0.0140437626589928,10.12514,89.18587,0.477107,0.06575051,0.6990587,-0.05899889,11.3599997460842,16
-13.39323,0.2833334,-37.45948,-0.0795580263978443,-0.5657318343304902,0.0194417070327048,3.318681,87.40059,0.04233161,0.0211899,0.6905887,-0.01973896,11.3799997456372,16
-13.33543,0.4833335,-37.45612,-0.1095153039387533,-0.0990256339983912,0.017525843444794,6.636362,87.40429,0.08496527,0.04235584,0.68972,-0.03945525,11.3999997451901,16
-13.27764,0.6833336,-37.45276,-0.1301847850839887,0.3571912357974274,0.01545990240961,9.952646,87.41051,0.1280322,0.06347665,0.6882738,-0.059131,11.4199997447431,16
-13.03163,0.2833332,-37.44214,0.1265388274379066,-0.1020582834877963,0.023405426047141,3.266788,85.75039,359.9309,0.02047904,0.6801397,-0.01983591,11.4399997442961,16
-12.97471,0.4833333,-37.43913,0.1611734563256917,0.1484924563146591,0.0216588841792741,6.532574,85.74445,359.8614,0.04093517,0.6793105,-0.03964967,11.459999743849,16
-12.9178,0.6833332,-37.43611,0.1879553505056783,0.4162575172011359,0.0189737723986809,9.797127,85.73444,359.7909,0.06134976,0.6779299,-0.05942447,11.479999743402,16
-12.8609,0.8833332,-37.43309,0.2200238092389117,0.6489664887433118,0.015905996667314,13.06067,85.72018,359.719,0.08170818,0.6759995,-0.07914524,11.499999742955,16
-12.65365,0.2833335,-37.42368,0.4252427052152221,-0.059403147209773,0.0179603772003744,3.216208,82.88859,359.8173,0.01998098,0.6616636,-0.01976948,11.5199997425079,16
-12.59758,0.4833334,-37.41988,0.3449884543131176,0.1554640366449042,0.0077681871166959,6.43146,82.87312,359.6335,0.0399407,0.6608795,-0.03951738,11.5399997420609,16
-12.54152,0.6833333,-37.41609,0.2572731266725512,0.387545561185057,-0.0029463686620374,9.645714,82.84709,359.4474,0.059863,0.6595739,-0.05922849,11.5599997416139,16
-12.31196,0.2833332,-37.4058,0.3522853292312984,-0.0557428595823844,-0.0063985855430033,3.372254,82.605,359.7979,0.02094105,0.6597867,-0.02074517,11.5799997411668,16
-12.25313,0.4833331,-37.40172,0.4430854318558044,-0.5095203271441601,-0.0098625284496165,6.743509,82.58706,359.5945,0.04185779,0.6589267,-0.0414666,11.5999997407198,16
-12.19431,0.6833331,-37.39765,0.3566755340794927,-0.0688099184233358,-0.0199655188475205,10.11374,82.55681,359.3882,0.06273221,0.657495,-0.06214649,11.6199997402728,16
-12.13551,0.883333,-37.39357,0.4730920597608179,-0.2789024176871948,-0.0205591641430729,13.48423,82.51373,359.1776,0.08355516,0.6554922,-0.08277407,11.6399997398257,16
-11.84477,0.2833333,-37.38193,0.5805073170102641,-0.4738711841197495,-0.0199586975414121,3.532807,84.83545,359.8477,0.02186009,0.6742399,-0.02177292,11.6599997393787,16
-11.78311,0.4833332,-37.37904,0.4805775146103155,0.0122103035696706,-0.0269657993661809,7.065163,84.82122,359.6937,0.04369329,0.6732768,-0.04352625,11.6799997389317,16
-11.72147,0.6833333,-37.37615,0.3767316203744535,0.4878027295676507,-0.0331152896412092,10.59716,84.79719,359.5372,0.06548291,0.671673,-0.06523639,11.6999997384846,16
-11.46055,0.2833333,-37.36518,0.5465286634296973,0.0479291841262481,-0.0270280361621573,3.577018,86.32224,359.9381,0.02239666,0.6837313,-0.02174312,11.7199997380376,16
-11.39819,0.4833332,-37.36226,0.469112318081633,0.3178551452509049,-0.0303923078505548,7.153375,86.31641,359.8758,0.04476739,0.6827317,-0.04346107,11.7399997375906,16
-11.33585,0.6833332,-37.35933,0.3704087608967157,0.6049952885941673,-0.0339093314959697,10.72869,86.30656,359.8125,0.06708803,0.6810677,-0.06513039,11.7599997371435,16
-11.27353,0.8833331,-37.35641,0.2643367643186822,0.8570792965950487,-0.0370850720389057,14.30298,86.2925,359.7477,0.08933713,0.6787412,-0.08673026,11.7799997366965,16
-11.05422,0.2833332,-37.34636,0.3333369063202918,0.1680845172028764,-0.0333429278662933,3.571683,87.43848,0.06723786,0.02292847,0.6907762,-0.02111419,11.7999997362494,16
-10.99201,0.4833332,-37.3424,0.4015490907585421,-0.4300106247726424,-0.0289065960041341,7.142318,87.44485,0.1353989,0.04583048,0.6897696,-0.0421991,11.8199997358024,16
-10.92983,0.6833331,-37.33843,0.2462301393753403,-0.0344966767260764,-0.0323513294852446,10.71193,87.4556,0.2046482,0.06868169,0.6880937,-0.06323685,11.8399997353554,16
-10.68935,0.2833332,-37.32827,0.2837733958651389,-0.2902741749532377,-0.0285930772729443,3.596003,88.30309,0.09385843,0.02308244,0.6961969,-0.02126774,11.8599997349083,16
-10.62668,0.4833333,-37.32478,0.3142324662857181,-0.5314158917270324,-0.0251260504041965,7.190916,88.31197,0.1884255,0.04613518,0.6951681,-0.0425082,11.8799997344613,16
-10.56402,0.6833333,-37.32129,0.1508016611624123,-0.091995199560464,-0.0287403321109991,10.78506,88.32695,0.2842518,0.06913632,0.6934551,-0.06370381,11.8999997340143,16
-10.50138,0.8833332,-37.3178,-0.0117416075238754,0.3364484518333325,-0.0321037936059767,14.37817,88.34833,0.382335,0.09206279,0.6910602,-0.08483102,11.9199997335672,16
-10.19986,0.2833333,-37.30523,0.0949690384180286,-0.1510621017640181,-0.0246628026957793,3.636661,88.98212,0.1174507,0.02335319,0.7004216,-0.02150588,11.9399997331202,16
-10.13644,0.4833335,-37.30206,-0.026266105857446,0.0707390952314735,-0.0256755619358912,7.272233,88.99338,0.235751,0.04667555,0.6993626,-0.04298418,11.9599997326732,16
-10.07304,0.6833335,-37.29889,-0.1589010631786065,0.3092668764165196,-0.026461676091273,10.90676,89.01238,0.3559763,0.06994455,0.6975996,-0.06441306,11.9799997322261,16
-10.00966,0.8833333,-37.29571,-0.2881689924112951,0.5122508031367017,-0.0264609704389542,14.54063,89.03948,0.4789571,0.09313804,0.6951346,-0.0857747,11.9999997317791,16
-9.801321,0.2833333,-37.28788,-0.2385249809605927,-0.2263319105583638,-0.0188051301636775,3.58935,90.68887,0.1890475,0.02318449,0.7109585,-0.02111882,12.0199997313321,16
-9.738665,0.4833333,-37.28534,-0.3566458705356421,-0.0421656254957166,-0.0167691837097834,7.177603,90.70674,0.3795224,0.04633928,0.7099097,-0.04221071,12.039999730885,16
-9.676026,0.6833333,-37.2828,-0.46622085089066,0.1587273115339597,-0.0140144214274329,10.76473,90.73692,0.5729612,0.06944172,0.7081634,-0.06325503,12.059999730438,16
-9.447161,0.2833335,-37.2736,-0.3636760001492689,-0.316238025776588,-0.004667829379862,3.527835,91.76953,0.2548919,0.02302312,0.7175516,-0.02055147,12.079999729991,16
-9.385508,0.4833333,-37.27105,-0.4471579720382435,-0.0818920388477065,-0.0029074706646596,7.054594,91.79322,0.5116546,0.04601776,0.7165264,-0.04107751,12.0999997295439,16
-9.323872,0.6833332,-37.2685,-0.5206198267366089,0.1691804655386672,-0.0017018766708432,10.58017,91.83319,0.7722871,0.06896185,0.7148197,-0.06155843,12.1199997290969,16
-9.074968,0.2833333,-37.25783,-0.3687129109950344,-0.2556044661698704,0.0059026339287555,3.467122,91.78299,0.28937,0.02286807,0.7176389,-0.01996457,12.1399997286499,16
-9.014354,0.4833333,-37.25465,-0.2026060273127123,-0.6913662016913692,0.0119288005637727,6.932824,91.80944,0.5810692,0.04570821,0.7166471,-0.03990122,12.1599997282028,16
-8.953755,0.6833333,-37.25148,-0.2859064287505326,-0.2331278169034858,0.0078377592125065,10.39725,91.85403,0.8769718,0.06849885,0.7149959,-0.05979497,12.1799997277558,16
-8.893174,0.8833332,-37.24831,-0.3608838365497115,0.2141337661622555,0.003615240016245,13.86039,91.91763,1.1795,0.0912203,0.7126872,-0.0796276,12.1999997273088,16
-8.585069,0.2833333,-37.23501,-0.148548548007648,-0.254558614621702,0.0108992886138352,3.411705,90.55499,0.2274802,0.02235703,0.7101653,-0.01975479,12.2199997268617,16
-8.525513,0.4833336,-37.23162,-0.1719290270498277,-0.0139399342613115,0.0090914508197528,6.821895,90.57542,0.4566163,0.04468539,0.7092173,-0.03948272,12.2399997264147,16
-8.465973,0.6833336,-37.22822,-0.2057474409175856,0.243405441189307,0.0073403352792951,10.23103,90.6099,0.6890085,0.06696803,0.707639,-0.0591699,12.2599997259676,16
-8.40645,0.8833335,-37.22483,-0.2365999186286167,0.4652067534413516,0.0062041130109804,13.63904,90.65901,0.9263846,0.08918494,0.7054323,-0.07879902,12.2799997255206,16
-8.189034,0.2833335,-37.21573,-0.084227777609696,-0.2545583304441707,0.0124004202711134,3.356013,88.85047,0.1321493,0.02171943,0.6996532,-0.01967389,12.2999997250736,16
-8.130542,0.4833336,-37.21225,-0.111048065376516,-0.0515741574426021,0.0113671099949286,6.710596,88.86215,0.2652218,0.04341148,0.6987521,-0.03932219,12.3199997246265,16
-8.072067,0.6833335,-37.20877,-0.1359417566702134,0.1681365937374067,0.0099934487742956,10.0642,88.88183,0.4001037,0.06506019,0.6972518,-0.05893125,12.3399997241795,16
-7.835422,0.2833332,-37.199,0.0457759492800695,-0.2880106820088894,0.0150893478015348,3.304211,87.10497,0.01055022,0.02095826,0.6887304,-0.01979818,12.3599997237325,16
-7.777861,0.4833331,-37.19591,0.0209074149286783,-0.0348466507650392,0.0120037042553136,6.60746,87.10589,0.02116153,0.04189297,0.6878718,-0.03957419,12.3799997232854,16
-7.720315,0.6833332,-37.19282,-0.0075652048885244,0.2350436160238281,0.0083440430033334,9.909327,87.10741,0.03172353,0.06278303,0.6864421,-0.05931024,12.3999997228384,16
-7.662784,0.8833331,-37.18973,-0.0263938542002737,0.4693899197993294,0.0045757461344564,13.21027,87.10957,0.04252828,0.08361533,0.6844433,-0.07899137,12.4199997223914,16
-7.367174,0.2833332,-37.17725,0.2314423238122716,-0.2378304058635982,0.0101925995521128,3.249208,84.60357,359.8787,0.02025645,0.6727868,-0.01986373,12.4399997219443,16
-7.310542,0.4833332,-37.17402,0.2080910831708049,-0.0223015756087067,0.0041674434809735,6.497423,84.59319,359.7566,0.04049033,0.6719746,-0.03970569,12.4599997214973,16
-7.253927,0.6833333,-37.1708,0.1708147523191137,0.2099536102392193,-0.0028952742040289,9.74464,84.57573,359.633,0.06068583,0.6706222,-0.05950957,12.4799997210503,16
-7.197326,0.8833333,-37.16758,0.1328050395805791,0.4066648181766776,-0.0104248375533657,12.99053,84.5509,359.5071,0.08082492,0.6687315,-0.07925749,12.4999997206032,16
-6.990085,0.2833334,-37.15846,0.261711767148185,-0.3381902863034376,-0.0127635088709112,3.197254,82.07454,359.7881,0.01982881,0.6563321,-0.01971078,12.5199997201562,16
-6.93433,0.4833334,-37.15442,0.2227102251670332,-0.1602960378928979,-0.0211006782814848,6.39352,82.05669,359.5748,0.03963599,0.6555625,-0.03940065,12.5399997197092,16
-6.878591,0.6833334,-37.15039,0.1846620055888919,0.0343246707388879,-0.0290870077915954,9.588764,82.02668,359.3589,0.0594067,0.6542812,-0.0590537,12.5599997192621,16
-6.646153,0.2833332,-37.14121,0.338452205558541,-0.4469128732772736,-0.028880190667067,3.531244,83.47476,359.7975,0.02181575,0.6654409,-0.02182906,12.5799997188151,16
-6.584467,0.4833331,-37.13773,0.2980837975276387,-0.2188394448347762,-0.0354071178383748,7.061491,83.45592,359.5936,0.04360477,0.6644901,-0.04363155,12.5999997183681,16
-6.522808,0.6833329,-37.13424,0.2556583449082126,0.0259606946404649,-0.0409150829983602,10.59195,83.42406,359.3861,0.06535202,0.6629064,-0.0653967,12.619999717921,16
-6.272388,0.2833335,-37.12461,0.2248456633769056,0.2352168114268035,-0.0447475680968736,3.561134,85.29404,359.8535,0.02198899,0.6771814,-0.0219902,12.639999717474,16
-6.210246,0.4833334,-37.12207,0.2368402159148663,0.2231947791305789,-0.0462412076427867,7.121455,85.28025,359.7055,0.04394923,0.6761988,-0.0439571,12.6599997170269,16
-6.148122,0.6833333,-37.11953,0.2328337805394946,0.2566481207865417,-0.0471236738367508,10.68073,85.25699,359.5552,0.06586081,0.6745631,-0.06587534,12.6799997165799,16
-6.086016,0.8833332,-37.11699,0.2269810998445298,0.2822606666757268,-0.0468765038511875,14.23891,85.22379,359.4014,0.08770271,0.6722761,-0.08772348,12.6999997161329,16
-5.774954,0.2833335,-37.10415,0.4440825308377674,-0.3935972544898448,-0.0371166434484067,3.589816,87.11254,0.005774195,0.02273365,0.6887274,-0.0215464,12.7199997156858,16
-5.712397,0.4833333,-37.10089,0.3641702303587579,-0.1467059096209788,-0.0384153312835096,7.178877,87.11312,0.0119126,0.04544211,0.6877139,-0.04306512,12.7399997152388,16
-5.649858,0.6833333,-37.09763,0.2666310300632082,0.1169117675805273,-0.0397440833939057,10.76689,87.11409,0.01814842,0.06809942,0.6860263,-0.06453534,12.7599997147918,16
-5.587337,0.8833332,-37.09436,0.165618911137201,0.344985323563157,-0.040640436129415,14.3539,87.11549,0.02453232,0.09068366,0.6836669,-0.08593633,12.7799997143447,16
-5.36849,0.2833334,-37.08533,0.244120108132662,-0.3685075767029098,-0.0350400130865793,3.560807,87.97231,0.07889214,0.0228322,0.6941337,-0.02108175,12.7999997138977,16
-5.30645,0.4833334,-37.08176,0.1366457991056768,-0.1592512689548447,-0.0356105112422895,7.120389,87.97972,0.158497,0.04563531,0.6931283,-0.04213515,12.8199997134507,16
-5.244428,0.6833334,-37.07818,0.0271965172157773,0.0667313525698197,-0.0359181059782756,10.67895,87.99224,0.2393586,0.06838811,0.6914544,-0.06314171,12.8399997130036,16
-5.003277,0.2833334,-37.06856,0.1205739758915256,-0.3831439868838177,-0.0292515293330737,3.635478,88.74979,0.1061043,0.02332016,0.698977,-0.02152202,12.8599997125566,16
-4.939882,0.4833335,-37.06533,0.003180156534964,-0.1237075958687728,-0.0301913276037666,7.269919,88.75995,0.2130294,0.04661022,0.6979211,-0.04301635,12.8799997121096,16
-4.87651,0.6833333,-37.06209,-0.1192389730907874,0.1524553735860656,-0.0310596720386371,10.90397,88.7771,0.3215643,0.06985029,0.6961628,-0.06446602,12.8999997116625,16
-4.813157,0.8833333,-37.05886,-0.232040966166735,0.3930742704336311,-0.0313091332164603,14.53692,88.80158,0.4327227,0.0930131,0.6937045,-0.08584476,12.9199997112155,16
-4.512046,0.2833333,-37.04718,-0.0664332365727595,-0.3078733577903791,-0.0204049486109525,3.622476,89.71584,0.140562,0.0232695,0.7049707,-0.0214248,12.9399997107685,16
-4.448853,0.4833332,-37.04442,-0.1791421279668346,-0.0860718447323241,-0.0195799016109532,7.24387,89.72925,0.2822053,0.04650886,0.7039127,-0.04282195,12.9599997103214,16
-4.385679,0.6833332,-37.04166,-0.3002751869959958,0.1524563571434965,-0.0185205344677754,10.86417,89.75191,0.4261275,0.06969511,0.7021513,-0.06416992,12.9799997098744,16
-4.322522,0.8833332,-37.0389,-0.4149524738759726,0.35544035669397,-0.0167718495076627,14.48333,89.78423,0.5733292,0.09280364,0.6996887,-0.0854488,12.9999997094274,16
-4.114652,0.2833334,-37.03136,-0.3434980267851346,-0.3831424057869383,-0.0087445660252711,3.56021,91.54695,0.229772,0.02310295,0.7161971,-0.02086191,13.0199997089803,16
-4.052457,0.4833334,-37.02903,-0.4335714860672977,-0.1989759320276215,-0.0063985681195788,7.119311,91.56851,0.4612551,0.04617666,0.7151561,-0.0416975,13.0399997085333,16
-3.990279,0.6833333,-37.0267,-0.5088612382527082,0.0019169909761251,-0.0040323589363993,10.67728,91.60489,0.6963528,0.06919943,0.713423,-0.06248641,13.0599997080863,16
-3.761817,0.2833332,-37.01768,-0.3711834879073372,-0.4730482439712696,0.0032447812375622,3.497574,91.98946,0.2743245,0.02292219,0.7188881,-0.02028798,13.0799997076392,16
-3.700672,0.4833331,-37.01501,-0.4203651419913452,-0.2387019454228198,0.0033538001717516,6.994037,92.01473,0.5506309,0.04581619,0.7178777,-0.04055095,13.0999997071922,16
-3.639541,0.683333,-37.01234,-0.4606823062446205,0.0123709603142248,0.0028480129511052,10.48889,92.05739,0.8311407,0.06865874,0.7161957,-0.06076669,13.1199997067451,16
-3.578428,0.8833328,-37.00967,-0.4785909060561462,0.2279001812914408,0.0021932808114968,13.9825,92.1182,1.117984,0.09143057,0.7138441,-0.08091984,13.1399997062981,16
-3.290237,0.2833333,-36.99786,-0.4433680977166071,0.2221504337581759,0.0026333813800718,3.434928,91.43902,0.2752521,0.02264369,0.7155566,-0.01978076,13.1599997058511,16
-3.23021,0.4833333,-36.99456,-0.4139806515335419,0.26187602724666,0.0028035742757737,6.868308,91.46394,0.5526633,0.04525902,0.7145865,-0.03953344,13.179999705404,16
-3.170199,0.6833331,-36.99125,-0.376827198802709,0.2937610316112528,0.0033406715529764,10.30056,91.50596,0.8340648,0.06782732,0.7129713,-0.05924467,13.199999704957,16
-2.912825,0.2833332,-36.98055,-0.1066695463077938,-0.3758243439613368,0.0136432221813649,3.382668,89.7965,0.1734904,0.02197548,0.70551,-0.01976119,13.21999970451,16
-2.853822,0.4833332,-36.97731,-0.125886302110306,-0.1226606187615289,0.0133441823912932,6.763883,89.81195,0.3480866,0.04392233,0.7045859,-0.03949706,13.2399997040629,16
-2.794835,0.6833333,-36.97408,-0.1559957895279684,0.1472298609426923,0.0130672704654557,10.14406,89.83798,0.5251281,0.06582475,0.7030472,-0.0591926,13.2599997036159,16
-2.735866,0.8833332,-36.97084,-0.1836968076885455,0.3815762306662013,0.0131919879866444,13.52319,89.87507,0.7058662,0.08766337,0.700896,-0.07883115,13.2799997031689,16
-2.518715,0.2833334,-36.96236,-0.0276207755282701,-0.3256441621643781,0.0185180952075469,3.329098,88.10326,0.07454489,0.02132915,0.6949991,-0.01972975,13.2999997027218,16
-2.46071,0.4833333,-36.95913,-0.0498129384660577,-0.1101154254737633,0.0170858735524745,6.656827,88.10978,0.1496148,0.04263187,0.6941192,-0.03943446,13.3199997022748,16
-2.40272,0.6833332,-36.95591,-0.0696447432809225,0.1221398671803092,0.0151183056834511,9.9836,88.12079,0.2256549,0.06389239,0.6926541,-0.05910053,13.3399997018278,16
-2.166348,0.2833333,-36.94682,-0.0738006867033333,0.3188511699016919,0.0130202008393283,3.278774,86.4066,359.9548,0.02058363,0.6843171,-0.01987293,13.3599997013807,16
-2.109211,0.4833334,-36.94403,-0.0315709048457851,0.2942838109406895,0.0111776989618874,6.556559,86.40269,359.9093,0.04114436,0.6834768,-0.03972343,13.3799997009337,16
-2.052087,0.6833333,-36.94124,-0.000534282847256,0.3151915795633796,0.0083794127389325,9.833057,86.3961,359.863,0.06166236,0.6820778,-0.05953483,13.3999997004867,16
-1.99498,0.8833333,-36.93845,0.0325564186234096,0.3282588780647821,0.0050935120215811,13.10861,86.3867,359.8158,0.0821239,0.6801218,-0.0792921,13.4199997000396,16
-1.699743,0.2833334,-36.9263,0.2805301986549767,-0.3601443116581381,0.0079892740999341,3.223297,83.07363,359.8062,0.01993131,0.6628735,-0.01991498,13.4399996995926,16
-1.643513,0.4833333,-36.92287,0.2469123980078273,-0.1257982565161962,-0.0001698879683473,6.445624,83.0572,359.6113,0.03984127,0.6620842,-0.03980811,13.4599996991456,16
-1.587299,0.6833334,-36.91944,0.1986845799894091,0.1252746033098868,-0.0092487851295786,9.6669,83.02953,359.4139,0.05971349,0.66077,-0.05966377,13.4799996986985,16
-1.531099,0.8833333,-36.91601,0.1489513187951938,0.3408034962023141,-0.0186342838862714,12.88687,82.99025,359.2131,0.07953303,0.6589327,-0.07946254,13.4999996982515,16
-1.320491,0.2833333,-36.90776,0.2658600644066007,-0.3852342570702671,-0.0223906892059773,3.373715,82.7886,359.7947,0.0208986,0.6609892,-0.02080837,13.5199996978045,16
-1.26161,0.4833333,-36.90392,0.2141113109545069,-0.1885230040059041,-0.0316235841057874,6.746444,82.77036,359.588,0.04177302,0.6601269,-0.04159302,13.5399996973574,16
-1.202744,0.6833332,-36.90008,0.1625024604186045,0.0249148018856869,-0.0401082348601136,10.11816,82.73961,359.3784,0.06260563,0.658691,-0.0623356,13.5599996969104,16
-0.971947,0.2833332,-36.89193,0.3019863752210527,-0.4375055527873932,-0.0403718177969238,3.537969,84.56169,359.8298,0.0218404,0.6724778,-0.02186634,13.5799996964633,16
-0.9101782,0.4833332,-36.88905,0.2463216220686537,-0.1906145894935103,-0.0467353036847768,7.075001,84.54581,359.6582,0.04365361,0.6715142,-0.04370702,13.5999996960163,16
-0.8484356,0.6833331,-36.88617,0.1876670380811651,0.0730028849853985,-0.0518865485076887,10.6122,84.51894,359.4836,0.06542429,0.6699091,-0.06550984,13.6199996955693,16
-0.7867109,0.8833331,-36.88328,0.1396364153646874,0.3010764709364728,-0.0552890735236388,14.14827,84.48061,359.3049,0.0871262,0.667665,-0.0872438,13.6399996951222,16
-0.4965456,0.2833334,-36.87275,0.3584435212839321,-0.4124159388576407,-0.0480279629836175,3.575186,86.56582,359.9328,0.02230673,0.6852808,-0.02181374,13.6599996946752,16
-0.4341999,0.4833333,-36.87019,0.3123279213312746,-0.2031596245757587,-0.0496530803745045,7.149649,86.55946,359.8648,0.04458592,0.68428,-0.04360329,13.6799996942282,16
-0.371872,0.6833332,-36.86763,0.2586564197029943,0.022823493344853,-0.0506872531147593,10.72309,86.54874,359.7958,0.06681584,0.6826138,-0.06534386,13.6999996937811,16
-0.1112552,0.2833334,-36.85686,0.4219316307975527,-0.4270513112939893,-0.0434032654994425,3.571552,87.69138,0.06573004,0.02287188,0.6923691,-0.02117344,13.7199996933341,16
-0.04903467,0.4833335,-36.8532,0.3421395800846172,-0.1676148118175624,-0.0443495714528054,7.142042,87.69761,0.132433,0.04571766,0.6913603,-0.04231706,13.7399996928871,16
0.01316847,0.6833335,-36.84953,0.2451182924693697,0.1085481465733445,-0.0451671873235639,10.71153,87.70813,0.2002334,0.06851308,0.6896807,-0.06341331,13.75999969244,16
0.07535382,0.8833334,-36.84587,0.14502608149495,0.3491669123089613,-0.0454240012248661,14.27997,87.72314,0.2695664,0.09123506,0.6873325,-0.08444235,13.779999691993,16
0.2950045,0.2833333,-36.83807,0.2251600041554007,-0.351780741353384,-0.0403366397199249,3.595478,88.57082,0.09368876,0.02302838,0.6978709,-0.02131948,13.799999691546,16
0.3576863,0.4833333,-36.83487,0.1194036461056016,-0.1299791752407256,-0.041138025586271,7.189909,88.5797,0.188085,0.04602739,0.6968399,-0.04261187,13.8199996910989,16
0.4203482,0.6833333,-36.83168,0.0119823831272092,0.1085491448536439,-0.0417701071563385,10.78354,88.59465,0.2837071,0.06897457,0.6951233,-0.06385932,13.8399996906519,16
0.4829924,0.8833333,-36.82848,-0.0827020638591817,0.3115333549672979,-0.0417572573138826,14.37614,88.616,0.3816828,0.09184787,0.6927234,-0.0850376,13.8599996902049,16
0.7634327,0.2833333,-36.8185,-0.1309518220905348,0.2932385848095999,-0.0402999632205691,3.636526,89.25501,0.1174475,0.02330106,0.7021176,-0.02156063,13.8799996897578,16
0.8268625,0.4833332,-36.81562,-0.1903146929805945,0.3204190771807146,-0.0383655523009878,7.271992,89.26627,0.2358081,0.04657191,0.7010562,-0.04309338,13.8999996893108,16
0.8902745,0.6833331,-36.81275,-0.2459515504580354,0.339758994802334,-0.0354568009919376,10.90639,89.28528,0.356062,0.0697892,0.699289,-0.06457666,13.9199996888638,16
1.140684,0.2833333,-36.8041,-0.0822550656696798,-0.3423715737095475,-0.0238403605116062,3.589659,90.9625,0.1890069,0.02313563,0.712634,-0.0211763,13.9399996884167,16
1.203357,0.4833332,-36.80186,-0.1959907834401448,-0.1017529085947331,-0.0215044159741637,7.178221,90.98037,0.3794086,0.04624142,0.7115825,-0.04232577,13.9599996879697,16
1.266011,0.6833333,-36.79962,-0.3173043608711645,0.155592323199002,-0.0188453610604071,10.76563,91.01054,0.5727742,0.06929481,0.7098318,-0.06342739,13.9799996875226,16
1.32865,0.8833333,-36.79738,-0.4313864756852208,0.3773932556184187,-0.0155747494776647,14.35163,91.05354,0.7704799,0.09227035,0.7073844,-0.08446064,13.9999996870756,16
1.536556,0.2833334,-36.79015,-0.3547699799200461,-0.3423721128802252,-0.0085307010889863,3.527644,92.06959,0.2552872,0.02297056,0.7193711,-0.02060809,14.0199996866286,16
1.598218,0.4833333,-36.78792,-0.4405578387094806,-0.1393882375594122,-0.0070292819437156,7.054178,92.09331,0.512414,0.04591227,0.7183434,-0.04119068,14.0399996861815,16
1.659863,0.6833333,-36.78569,-0.5131525308969893,0.0803223213521087,-0.0060392603908283,10.57952,92.13333,0.7734465,0.06880371,0.7166325,-0.06172778,14.0599996857345,16
1.887908,0.2833332,-36.77708,-0.5588442067952686,0.2644889117618592,-0.0052622064633283,3.467159,92.07513,0.2892679,0.02281668,0.7194103,-0.02002365,14.0799996852875,16
1.948539,0.4833331,-36.77422,-0.5485061103317701,0.2273769824908764,-0.0046565476540649,6.932896,92.10156,0.5808925,0.04560567,0.718416,-0.04001912,14.0999996848404,16
2.009154,0.6833329,-36.77136,-0.537097076186952,0.2357404305696729,-0.0048087769057403,10.39735,92.14615,0.8767236,0.0683453,0.7167606,-0.05997157,14.1199996843934,16
2.069751,0.8833328,-36.7685,-0.5111184290706836,0.2362633135690253,-0.0051511054191166,13.86054,92.20972,1.17918,0.09101591,0.7144463,-0.0798627,14.1399996839464,16
2.35765,0.2833332,-36.75779,-0.2669565816031491,-0.4646842783269566,0.001601883149263,3.411766,90.84161,0.2275384,0.02230828,0.7119224,-0.01981066,14.1599996834993,16
2.417224,0.4833331,-36.75468,-0.2777764869935035,-0.2428829706050275,0.0003080303396245,6.822055,90.86206,0.4567396,0.04458825,0.7109721,-0.03959462,14.1799996830523,16
2.47678,0.6833333,-36.75159,-0.2873726553535078,-0.0043553101649401,-5.844716574188169e-05,10.23123,90.89654,0.6891331,0.06682181,0.7093898,-0.05933771,14.1999996826053,16
2.733669,0.2833333,-36.74164,-0.0716354076591052,-0.4416852244238276,0.0075153370649658,3.356344,89.14117,0.1323028,0.02167244,0.7014619,-0.01973,14.2199996821582,16
2.792183,0.4833334,-36.73845,-0.0923634377565401,-0.169703980228032,0.0064905991581909,6.711243,89.15285,0.2654969,0.04331728,0.7005582,-0.03943445,14.2399996817112,16
2.85068,0.6833333,-36.73527,-0.1246644265759213,0.1190036700889908,0.0047420187391367,10.06516,89.17256,0.4005025,0.06491886,0.6990538,-0.05909953,14.2599996812642,16
2.909161,0.8833332,-36.73208,-0.1553491004251848,0.3721671811537983,0.0025538865922243,13.41808,89.20061,0.5383384,0.08645885,0.6969503,-0.07870819,14.2799996808171,16
3.126112,0.2833334,-36.72478,-0.1712249996964105,0.4236865280507579,0.0002411240415156,3.304023,87.42432,0.01112652,0.02090529,0.6907467,-0.01985175,14.2999996803701,16
3.183686,0.4833335,-36.722,-0.136852728785195,0.3558038221091646,-0.002373082744171,6.607072,87.42529,0.02231795,0.04178702,0.6898855,-0.03968119,14.3199996799231,16
3.241246,0.6833336,-36.71922,-0.1075819265891828,0.333884478871142,-0.0055878432492662,9.9088,87.4269,0.03348808,0.06262471,0.6884519,-0.0594708,14.339999679476,16
3.29879,0.8833334,-36.71643,-0.0702510518590644,0.3046125287267889,-0.0089943756735024,13.2096,87.42918,0.04491311,0.08340474,0.6864474,-0.07920529,14.359999679029,16
3.575076,0.2833332,-36.70671,0.166000521832764,-0.4256422849548615,-0.0083232828532331,3.24918,84.94159,359.8792,0.02020078,0.6749645,-0.01991974,14.379999678582,16
3.631725,0.4833332,-36.70381,0.1535851535083132,-0.2326599884658726,-0.0163107448917614,6.497383,84.93127,359.7578,0.04037933,0.6741498,-0.03981754,14.3999996781349,16
3.688357,0.6833331,-36.70091,0.1369190525250641,-0.0224631281832949,-0.0248732874704984,9.744589,84.91387,359.6347,0.06051924,0.672793,-0.05967759,14.4199996776879,16
3.933094,0.2833333,-36.69123,0.3281412620184065,-0.4876365231726487,-0.02841689068822,3.197631,82.43214,359.7885,0.01977245,0.6586815,-0.01977157,14.4399996772408,16
3.988878,0.4833333,-36.68753,0.291480569294233,-0.2430108405628802,-0.0394439110754731,6.394277,82.41434,359.5758,0.03952352,0.6579091,-0.03952197,14.4599996767938,16
4.044647,0.6833332,-36.68383,0.2403207825928541,0.0188293001668553,-0.0505057087989726,9.589906,82.38438,359.3605,0.05923823,0.6566229,-0.05923547,14.4799996763468,16
4.100403,0.883333,-36.68014,0.1877220984166756,0.2456132469240796,-0.0609744274911889,12.7842,82.3419,359.1416,0.07890172,0.6548248,-0.07889258,14.4999996758997,16
4.314186,0.2833333,-36.67377,0.4105533908755516,-0.4686815738489402,-0.062489132066652,3.530599,83.83285,359.7978,0.02174466,0.6677682,-0.0218918,14.5199996754527,16
4.375881,0.4833332,-36.67067,0.4508479005516612,-0.2597394973666752,-0.0685950896891611,7.060247,83.81404,359.5941,0.04346295,0.6668145,-0.04375724,14.5399996750057,16
4.43755,0.6833333,-36.66756,0.4785176639577075,-0.0335828448072453,-0.0733969233399349,10.59004,83.78222,359.3868,0.06513879,0.6652258,-0.06558523,14.5599996745586,16
4.499191,0.8833332,-36.66446,0.5074192463612937,0.1575177306914609,-0.0763246924156604,14.12016,83.73679,359.1746,0.08675547,0.6630035,-0.08735379,14.5799996741116,16
4.768653,0.2833333,-36.65676,0.5171813596245478,0.1278277836240995,-0.0799440705006802,3.563675,86.14291,359.8783,0.02198905,0.6826035,-0.02200999,14.5999996736646,16
4.830841,0.4833333,-36.65471,0.5130723372056565,0.144101330546496,-0.0823632733051695,7.126534,86.13143,359.7551,0.04394899,0.6816122,-0.04399684,14.6199996732175,16
4.893011,0.6833332,-36.65266,0.5091578230690388,0.1530224295521374,-0.0831704612021582,10.68836,86.11207,359.6301,0.06586044,0.6799618,-0.06593475,14.6399996727705,16
5.13331,0.2833334,-36.6443,0.5195090419309949,0.1012750330608835,-0.0819552581398284,3.592808,87.546,0.01770439,0.02274281,0.6914595,-0.02157515,14.6599996723235,16
5.195933,0.4833333,-36.6413,0.5124853868956389,0.0421747264941338,-0.0822258191943561,7.184862,87.54772,0.03596976,0.04546105,0.6904402,-0.04312193,14.6799996718764,16
5.258538,0.683333,-36.6383,0.4892649498092911,0.029037561090963,-0.0815991911848001,10.7759,87.55061,0.05448819,0.068128,0.6887431,-0.06462044,14.6999996714294,16
5.518846,0.2833334,-36.62917,0.4641096888659568,0.0085474748968318,-0.0796962035745281,3.561906,88.42507,0.08280088,0.02277937,0.6969689,-0.02115404,14.7199996709824,16
5.580929,0.4833335,-36.62601,0.408186503045874,0.0073626594902621,-0.0806945971265165,7.122568,88.43284,0.1662669,0.04552914,0.6959586,-0.04228,14.7399996705353,16
5.642994,0.6833335,-36.62286,0.3283808144423679,0.0521409729636934,-0.0816740687410089,10.68221,88.44596,0.2510484,0.0682287,0.6942766,-0.06335896,14.7599996700883,16
5.705042,0.8833334,-36.61971,0.2391472496085471,0.0895666852805507,-0.0822526862548116,14.2408,88.46469,0.3377857,0.09085571,0.6919252,-0.08437093,14.7799996696413,16
5.767072,0.9766704,-36.61655,0.1549332940698073,0.0663236400508487,-0.0820877988193728,17.79836,88.48941,0.4273274,0.113389,0.6889071,-0.1052953,14.7999996691942,16
6.027079,0.2833332,-36.60917,0.032740081225862,0.0357277930327947,-0.0855832870000057,3.634146,89.3871,0.115853,0.02325165,0.7029379,-0.02158276,14.8199996687472,16
6.09048,0.4833333,-36.60647,-0.0932492311900166,0.0510950728039207,-0.0883070702724779,7.267216,89.39819,0.2325395,0.04647269,0.7018766,-0.04313795,14.8399996683002,16
6.15386,0.6833334,-36.60378,-0.2085316533025984,0.0591095081862014,-0.089805039561817,10.89967,89.41689,0.3509071,0.06964201,0.7001094,-0.06464752,14.8599996678531,16
6.383724,0.2833334,-36.59746,-0.2986078628866302,0.0064553809039379,-0.0896523224517977,3.615208,90.24417,0.1343995,0.02308765,0.7082327,-0.02152486,14.8799996674061,16
6.446811,0.4833333,-36.59539,-0.4483426255871165,-0.0535509941860123,-0.0919921437213346,7.229352,90.25697,0.2698271,0.04614557,0.7071742,-0.04302213,14.899999666959,16
6.50988,0.6833333,-36.59332,-0.593915997751699,-0.067594113814126,-0.0891734458502924,10.84239,90.27859,0.4073906,0.06915073,0.7054119,-0.06447032,14.919999666512,16
6.759676,0.2833332,-36.58649,-0.7209024683922589,-0.0889899204096239,-0.0813235947343073,3.558506,92.08652,0.2280251,0.02298318,0.7194728,-0.02097035,14.939999666065,16
6.821861,0.4833333,-36.58477,-0.9019647348083152,-0.0910805553573617,-0.0262364858704344,7.115878,92.10791,0.457809,0.04593752,0.7184281,-0.0419137,14.9599996656179,16
6.884027,0.6833332,-36.58306,-1.0734995173715929,-0.0472079471268392,0.0310778535083002,10.67211,92.14399,0.6910813,0.06884056,0.7166889,-0.06281068,14.9799996651709,16
6.946178,0.8833332,-36.58134,-1.221735534565175,-0.0106880386699882,0.0900084852675604,14.22678,92.19544,0.9296315,0.09166723,0.7142576,-0.08363977,14.9999996647239,16
7.255516,0.2833333,-36.57236,-1.184402842998031,-0.6751503935103361,0.241451274284465,3.490054,92.58424,0.2833931,0.02282843,0.7224827,-0.02030461,15.0199996642768,16
7.316561,0.4833331,-36.57016,-1.303582766927022,-0.4163757561372405,0.3862521496418623,6.979023,92.6103,0.5688607,0.04562928,0.7214711,-0.04058421,15.0399996638298,16
7.377592,0.6833331,-36.56796,-1.404048880803673,-0.1403866980176177,0.5270377323800588,10.46632,92.65427,0.8587082,0.06837913,0.7197872,-0.06081603,15.0599996633828,16
7.438605,0.8833331,-36.56575,-1.4728640016270962,0.1005459168861117,0.6630536278528893,13.95234,92.71697,1.155069,0.09105864,0.7174332,-0.08098528,15.0799996629357,16
7.654728,0.2833332,-36.55929,-1.4971014458065373,0.1403226111051635,0.7936087846035136,3.429435,92.11266,0.2742386,0.0224874,0.7196482,-0.01988516,15.0999996624887,16
7.714694,0.4833333,-36.55671,-1.6021477026257198,0.0611847911005272,1.0574589981287374,6.857331,92.13744,0.550468,0.0449458,0.7186757,-0.03974315,15.1199996620417,16
7.774642,0.6833333,-36.55413,-1.6834156675766376,0.0284980997040847,1.308891150089586,10.28409,92.1792,0.8306242,0.06735732,0.7170566,-0.05955968,15.1399996615946,16
7.834574,0.8833333,-36.55155,-1.7281660034149215,-0.0110532993170647,1.5469464505843575,13.70963,92.23872,1.116852,0.08970192,0.7147927,-0.07931706,15.1599996611476,16
8.107367,0.2833335,-36.54381,-1.8556123241784164,-0.0308117741148205,1.920530519915907,3.377146,90.08878,0.1590917,0.02180211,0.7073175,-0.01987184,15.1799996607006,16
8.166289,0.4833333,-36.54113,-1.9619254630769536,-0.0041189068663249,2.266862713170568,6.752891,90.10292,0.3192991,0.0435768,0.7063944,-0.03971788,15.1999996602535,16
8.225196,0.6833333,-36.53844,-2.0343718822833345,0.0157095867662536,2.5849733681729035,10.12762,90.12677,0.4816805,0.0653072,0.7048575,-0.05952393,15.2199996598065,16
8.465705,0.2833333,-36.53227,-2.29763830438192,0.6956449479644411,2.8667059538050523,3.318922,88.51802,0.04602762,0.02102042,0.697602,-0.01992303,15.2399996593595,16
8.523563,0.4833333,-36.52998,-2.4079203222689696,0.4914408050010128,3.3343282102548315,6.636856,88.52205,0.09234662,0.04201693,0.6967244,-0.03982347,15.2599996589124,16
8.581409,0.6833333,-36.52768,-2.4923386469283635,0.3091206486946571,3.751854985841668,9.953391,88.5288,0.1391469,0.06296866,0.6952632,-0.05968297,15.2799996584654,16
8.639237,0.8833331,-36.52538,-2.538353028297779,0.094323122572449,4.1191623558142965,13.26898,88.53841,0.1868615,0.08386154,0.6932203,-0.07948709,15.2999996580184,16
8.821497,0.2833332,-36.52291,-2.4231804361840723,-0.7195800650596518,4.617699582025608,3.26676,87.08096,359.9357,0.020276,0.6885985,-0.02004186,15.3199996575713,16
8.87847,0.4833332,-36.52114,-2.498892367981492,-0.5106373452140922,5.043233534358308,6.532534,87.07544,359.8711,0.04052938,0.687759,-0.04006144,15.3399996571243,16
8.935431,0.6833332,-36.51936,-2.543656703614195,-0.2844802980120437,5.401744790820331,9.797038,87.06609,359.8053,0.06074069,0.6863613,-0.06004219,15.3599996566772,16
8.992374,0.8833331,-36.51758,-2.545532729205888,-0.0933793749142108,5.694434511120534,13.06057,87.0528,359.7383,0.08089675,0.684407,-0.0799683,15.3799996562302,16
9.20227,0.2833333,-36.51229,-2.6925634285684144,0.6168531553112387,5.918394388249979,3.202264,79.19228,359.7191,0.01996883,0.6371741,-0.01969681,15.3999996557832,16
9.25806,0.4833333,-36.50658,-2.6963111508794477,0.3308974222778182,6.263804921113234,6.403503,79.16862,359.4366,0.03991624,0.6364223,-0.03937207,15.4199996553361,16
9.313834,0.6833332,-36.50088,-2.660920874594796,0.0668256845261114,6.528635320616999,9.603681,79.1288,359.1508,0.05982716,0.6351703,-0.05901018,15.4399996548891,16
9.499605,0.2833333,-36.44791,-2.798975080892744,0.4905647023974137,6.71001159536489,3.434395,74.07787,359.6539,0.02210112,0.6021566,-0.02046031,15.4599996544421,16
9.558927,0.4833333,-36.43721,-2.81131908554835,0.2702610854499075,6.969115887299388,6.867728,74.04658,359.3055,0.04417689,0.6013373,-0.04089556,15.479999653995,16
9.618231,0.6833332,-36.42651,-2.7891820208531115,0.0718414611705853,7.139249734742599,10.3003,73.99387,358.9525,0.06621157,0.5999731,-0.06128774,15.499999653548,16
9.816647,0.2833335,-36.33011,-2.721375568228547,-0.159055524822654,7.224598274739073,3.528635,68.53651,359.6732,0.02383883,0.5628716,-0.01969122,15.519999653101,16
9.876031,0.4833336,-36.31282,-2.790387811732698,-0.1567210672950852,7.389951919825606,7.057072,68.50621,359.345,0.04765917,0.5620643,-0.039356,15.5399996526539,16
9.935402,0.6833335,-36.29556,-2.8397907340046835,-0.1079354746255057,7.458633299489207,10.58456,68.45539,359.0138,0.07143874,0.560721,-0.058965,15.5599996522069,16
9.994757,0.8833333,-36.27829,-2.859076700060241,-0.0660149960712377,7.436217685928746,14.1107,68.3829,358.6749,0.09514335,0.5588423,-0.07851213,15.5799996517599,16
10.05409,0.9766706,-36.26104,-2.837864362294969,-0.0842753355335836,7.328512789746767,17.63531,68.28728,358.3255,0.1187502,0.5564306,-0.0979785,15.5999996513128,16
10.21761,0.2833333,-36.10803,-2.8132788485539653,-0.1093998979855592,7.357409027487158,3.551228,59.36124,359.7227,0.02572222,0.4949908,-0.01744433,15.6199996508658,16
10.27336,0.4833333,-36.08053,-2.766691878207059,-0.0880733529989157,7.285937315435085,7.102337,59.3357,359.4477,0.05143859,0.4942744,-0.0348378,15.6399996504188,16
10.3291,0.6833333,-36.05305,-2.6878617853572138,-0.0736116691381426,7.12163533629797,10.65228,59.29268,359.1691,0.07710017,0.4930813,-0.0521889,15.6599996499717,16
10.46161,0.2833333,-35.87819,-2.566695822890967,-0.1193308016387489,6.872295443592016,3.52818,52.91764,359.8733,0.02706733,0.4453735,-0.01470558,15.6799996495247,16
10.51201,0.4833334,-35.84276,-2.5619960265718724,-0.1719152467085064,6.680605902753861,7.055588,52.90617,359.7491,0.05411676,0.4447403,-0.02936677,15.6999996490777,16
10.5624,0.6833335,-35.80735,-2.5352947797451986,-0.1780483554817684,6.402102242944409,10.58194,52.88699,359.6241,0.08111048,0.4436861,-0.04398897,15.7199996486306,16
10.61278,0.8833335,-35.77196,-2.4772903384911853,-0.1910462976775132,6.045994473276359,14.10725,52.8596,359.4961,0.1080197,0.4422117,-0.05856542,15.7399996481836,16
10.77619,0.283333,-35.53365,-2.596834373812193,0.4560630856694466,5.617543136282837,3.609252,47.18586,359.9301,0.0286151,0.400055,-0.0131628,15.7599996477365,16
10.82318,0.483333,-35.49167,-2.568388080055243,0.2190336490762268,5.324640247986665,7.217446,47.17923,359.8598,0.05719399,0.3994597,-0.02630755,15.7799996472895,16
10.87015,0.6833329,-35.44971,-2.521865320588656,0.0038883924539819,4.959345468246038,10.8256,47.16821,359.7896,0.08572019,0.3984688,-0.03941637,15.7999996468425,16
11.02047,0.2833333,-35.23781,-2.448594375345568,-0.2437340503402644,4.532887860529534,3.618831,44.17107,0.004218904,0.02927198,0.3758018,-0.0118378,15.8199996463954,16
11.06438,0.4833334,-35.19243,-2.3840437818135296,-0.258125618491473,4.2244539122040905,7.236607,44.17148,0.008553147,0.05850653,0.3752398,-0.02365969,15.8399996459484,16
11.10828,0.6833334,-35.14706,-2.3063029435333693,-0.2260660467963205,3.8584091895254566,10.85334,44.17219,0.01302769,0.08767462,0.3743042,-0.03545404,15.8599996455014,16
11.15217,0.8833335,-35.10172,-2.2069563924311506,-0.2008712910130198,3.447593176618007,14.46925,44.17349,0.01898476,0.1167531,0.3729971,-0.04719968,15.8799996450543,16
11.19605,0.9766704,-35.05638,-2.077709773028703,-0.2358571868517621,3.005086612308684,18.08414,44.17544,0.02595445,0.1457097,0.3713199,-0.05888879,15.8999996446073,16
11.33322,0.2833331,-34.83871,-1.950797857609432,-0.2777079103632307,2.7648026699943955,3.567282,43.01823,0.1402095,0.02940616,0.3664359,-0.01027429,15.9199996441603,16
11.37386,0.4833331,-34.79151,-1.8131778731860744,-0.2731074241600397,2.490620660470689,7.133451,43.03141,0.2815279,0.05877499,0.3659026,-0.020535,15.9399996437132,16
11.41448,0.683333,-34.74432,-1.6571308296952694,-0.2753716829549941,2.1965500656143924,10.69853,43.05367,0.4251201,0.08807854,0.3650147,-0.03077205,15.9599996432662,16
11.53785,0.2833332,-34.55412,-1.6311398637878654,0.3824714609789305,1.840034533421797,3.501404,41.67335,0.2025201,0.02918099,0.3554882,-0.009216083,15.9799996428192,16
11.57579,0.4833331,-34.50611,-1.5004769661179846,0.1561753045192452,1.6232801422604766,7.001719,41.69203,0.4065708,0.05832616,0.3549889,-0.01842022,15.9999996423721,16
11.61372,0.6833331,-34.45813,-1.3615702237403688,-0.0482367650981543,1.4009142031416315,10.50045,41.72372,0.6147325,0.08740775,0.3541582,-0.02759431,16.0199996419251,16
11.74835,0.2833334,-34.25176,-1.3752055539247134,0.4351614276477472,1.0845278837371666,3.441386,40.0953,0.2473454,0.02894736,0.3425852,-0.008266566,16.0399996414781,16
11.7837,0.4833332,-34.20304,-1.387655800206133,0.9148308865779132,0.7718990237750667,6.881264,40.11782,0.4975617,0.05785987,0.3421199,-0.01651257,16.059999641031,16
11.81904,0.6833329,-34.15433,-1.268549409609264,0.4857944613256586,0.6728455649460159,10.32004,40.15578,0.7513509,0.08671178,0.3413449,-0.02474138,16.079999640584,16
11.85437,0.8833328,-34.10563,-1.152737120978296,0.0530297665072349,0.582202428155675,13.75761,40.20989,1.010646,0.1154768,0.3402612,-0.03294567,16.099999640137,16
12.0198,0.2833334,-33.84992,-1.034665991220189,-0.310824063791218,0.5147620557802988,3.388695,36.89611,0.1415062,0.02843875,0.3162716,-0.008185611,16.1199996396899,16
12.0533,0.4833335,-33.80115,-0.9271356786597984,-0.3423257759129327,0.4913882185820135,6.775934,36.90879,0.2846199,0.05684242,0.3158563,-0.01635506,16.1399996392429,16
12.0868,0.6833335,-33.7524,-0.830786784965909,-0.3278639131997772,0.4700617489520624,10.16218,36.93018,0.4297459,0.08518846,0.3151649,-0.02450771,16.1599996387959,16
12.12029,0.8833335,-33.70366,-0.7398671718376697,-0.3207547905086104,0.4648115908336727,13.5474,36.96062,0.5779331,0.1134519,0.314198,-0.03263665,16.1799996383488,16
12.2351,0.2833333,-33.52295,-0.7409170083180125,0.3459734325367837,0.3128644694597007,3.330671,34.55452,0.05435094,0.02789101,0.2968572,-0.008178433,16.1999996379018,16
12.26727,0.4833333,-33.47456,-0.6540031658579739,0.1280746371115005,0.3075942046047437,6.659937,34.55931,0.1094593,0.05574778,0.2964813,-0.01634312,16.2199996374547,16
12.29943,0.6833333,-33.42617,-0.5690335698918858,-0.0684281651124416,0.314498455419681,9.988235,34.5674,0.1653195,0.08354951,0.2958551,-0.02449153,16.2399996370077,16
12.33159,0.8833333,-33.3778,-0.4800953501918066,-0.2978960232571535,0.3467745937414861,13.31557,34.57892,0.2223188,0.1112728,0.2949797,-0.03261697,16.2599996365607,16
12.47845,0.2833333,-33.14763,-0.5170634843250355,0.3456942082491008,0.1741058862004081,3.274692,31.78869,359.9175,0.02728381,0.2737722,-0.008516922,16.2799996361136,16
12.50976,0.4833335,-33.09983,-0.4307624007566897,0.1046576849024596,0.2023681432076287,6.548385,31.78157,359.8346,0.05453701,0.2734367,-0.01702446,16.2999996356666,16
12.54107,0.6833335,-33.05204,-0.3488969433981381,-0.1149825656825395,0.2359562460829884,9.820765,31.76963,359.7507,0.08173539,0.2728783,-0.02551304,16.3199996352196,16
12.67114,0.2833333,-32.84691,-0.3895592809021266,0.3526994057707794,0.083339364787637,3.218294,28.62674,359.8086,0.02679661,0.2471727,-0.008560584,16.3399996347725,16
12.70096,0.4833333,-32.79922,-0.3054117438031323,0.1758509686600854,0.132112122076176,6.435601,28.61052,359.616,0.05356414,0.2468793,-0.01711169,16.3599996343255,16
12.73077,0.6833333,-32.75154,-0.2078190376350104,0.0203989372524545,0.2108651646575978,9.651885,28.58323,359.421,0.08028148,0.2463908,-0.02564652,16.3799996338785,16
12.76058,0.8833333,-32.70388,-0.093590951625627,-0.168018854944249,0.3271092646196436,12.86682,28.54453,359.2229,0.1069263,0.2457082,-0.03415325,16.3999996334314,16
12.92462,0.2833335,-32.44559,0.0405185586516054,-0.3157169041203824,0.488551931672017,3.399799,28.36757,359.793,0.02831772,0.2449767,-0.009019161,16.4199996329844,16
12.956,0.4833336,-32.39508,0.2014605958438178,-0.3716459267308796,0.7577668890627045,6.798635,28.34904,359.5847,0.05660288,0.2446521,-0.01802759,16.4399996325374,16
12.98737,0.6833336,-32.34457,0.3618450282815182,-0.3820995855819388,1.0407581232922247,10.19646,28.3178,359.3734,0.08483037,0.2441117,-0.02701781,16.4599996320903,16
13.01873,0.8833338,-32.2941,0.5262128944410218,-0.4003943546071109,1.3448982292619966,13.59468,28.2733,359.1576,0.1129875,0.2433558,-0.03598503,16.4799996316433,16
13.13768,0.2833334,-32.10913,0.5998173057265532,0.2404417650366916,1.5061477392255185,3.5339,30.01444,359.8378,0.02941609,0.2588596,-0.00935106,16.4999996311963,16
13.17099,0.4833334,-32.05714,0.7529621979359522,-0.0038355883139405,1.854043109274869,7.067611,29.9993,359.6739,0.05880196,0.2584894,-0.01869603,16.5199996307492,16
13.20429,0.6833333,-32.00516,0.9267732695343688,-0.2272046942436892,2.203856337904444,10.6005,29.97374,359.5076,0.08812551,0.2578731,-0.02802092,16.5399996303022,16
13.23759,0.8833333,-31.9532,1.0078936625391195,0.2362608362065219,2.3739817262309444,14.13227,29.93727,359.3374,0.1173566,0.2570114,-0.03731674,16.5599996298552,16
13.38815,0.2833333,-31.71737,1.1050065686594888,0.6950219273193161,2.540567936912659,3.582107,31.83669,359.9649,0.02997218,0.2741424,-0.008866675,16.5799996294081,16
13.42164,0.4833334,-31.66459,1.321630361863237,0.2441022429288649,3.0195023844216955,7.163563,31.83338,359.9296,0.0599099,0.2737406,-0.01772216,16.5999996289611,16
13.45512,0.6833332,-31.61182,1.555797430722656,-0.2115216386121466,3.4812903768319146,10.74404,31.8278,359.8938,0.08978093,0.2730716,-0.02655793,16.6199996285141,16
13.58874,0.2833333,-31.40081,1.6542765843580067,0.2331260878804882,3.686822856877626,3.552464,32.69522,0.07367192,0.02992387,0.2813097,-0.008107677,16.639999628067,16
13.62113,0.4833336,-31.34795,1.8766806025690013,0.0327555436395675,4.167911617490599,7.103653,32.70216,0.1483346,0.0598094,0.2809043,-0.01620095,16.65999962762,16
13.65351,0.6833336,-31.29511,2.099456569269197,-0.1467066720740062,4.599014255933518,10.65385,32.71386,0.2241287,0.08962919,0.2802292,-0.02427652,16.6799996271729,16
13.68588,0.8833333,-31.24228,2.326001399102365,-0.3596224749408733,4.990326455704565,14.20306,32.73056,0.3017033,0.1193549,0.2792853,-0.0323265,16.6999996267259,16
13.79929,0.2833331,-31.06566,2.462341337109464,0.300031211265111,5.1939269554108805,3.623186,33.56857,0.1001197,0.0305184,0.2885983,-0.008292785,16.7199996262789,16
13.8328,0.4833331,-31.01201,2.770676973250696,0.0745714033070916,5.79866218767507,7.245296,33.57813,0.2009609,0.06099719,0.2881653,-0.0165753,16.7399996258318,16
13.8663,0.6833333,-30.95838,3.054594014668117,-0.129980192774013,6.317397841588207,10.86695,33.59422,0.3031982,0.0914108,0.2874442,-0.02484212,16.7599996253848,16
13.89979,0.8833333,-30.90476,3.320289770474032,-0.3679851576046509,6.76406319858733,14.48756,33.61721,0.4079216,0.1217246,0.2864361,-0.0330818,16.7799996249378,16
14.0451,0.2833332,-30.67788,3.436487680697647,0.2665790007437476,6.934602125333448,3.629531,34.27139,0.1257405,0.03058569,0.2944546,-0.00828256,16.7999996244907,16
14.07896,0.4833332,-30.62431,3.613291859553426,0.0160291800317138,7.2919870473719826,7.257977,34.28341,0.2524731,0.06113172,0.2940111,-0.01655426,16.8199996240437,16
14.1128,0.683333,-30.57075,3.72907463710566,-0.213612674649203,7.501149690658604,10.88537,34.30373,0.3812457,0.09160787,0.2932727,-0.02480691,16.8399996235967,16
14.26656,0.2833333,-30.33102,3.67680955400416,0.2435804494219109,7.396296884514307,6.161465,31.45274,359.8643,0.05141076,0.2707129,-0.01570474,16.8599996231496,16
14.32496,0.4833336,-30.24012,3.766745993020933,0.0557554008538609,7.583497091157064,12.32181,31.4304,359.7255,0.1026639,0.2695383,-0.03136136,16.8799996227026,16
14.38336,0.6833333,-30.14923,3.798946957586709,-0.1111615396814261,7.617091283550984,18.48108,31.39169,359.5799,0.1536119,0.2675848,-0.04692493,16.8999996222556,16
14.44174,0.8833328,-30.05836,3.7852471438441055,-0.3115317270887568,7.521576366408439,24.63919,31.33414,359.4235,0.2041075,0.2648588,-0.06235007,16.9199996218085,16
14.60845,0.2833336,-29.72247,3.576417089325883,0.3606672900507641,7.068554623603902,6.456558,22.13058,359.2775,0.05405814,0.1919675,-0.01698569,16.9399996213615,16
14.66282,0.4833336,-29.62234,3.5964171154610813,0.1477523828396895,7.117545636554663,12.91104,22.00573,358.5365,0.1079341,0.1910419,-0.03391344,16.9599996209145,16
14.71718,0.683333,-29.52223,3.556916717333712,-0.0442541829506344,7.037954183137352,19.36233,21.78852,357.7563,0.1614552,0.189503,-0.0507291,16.9799996204674,16
14.77153,0.8833325,-29.42214,3.4698939256335137,-0.269713827301845,6.851429642987327,25.80897,21.46362,356.9117,0.2144494,0.187356,-0.06737841,16.9999996200204,16
14.89572,0.2833333,-29.16209,3.490249504730132,-0.2629183698735897,6.911009100314477,6.735308,19.77277,358.0035,0.05487569,0.1723807,-0.02721747,17.0199996195734,16
14.96872,0.4833333,-29.06287,3.430993297167273,-0.2106477055846526,6.81510055982999,13.46714,19.41142,355.9471,0.1095818,0.1714068,-0.05436912,17.0399996191263,16
15.0417,0.6833333,-28.96369,3.306282553653574,-0.166217337181849,6.588686719983432,20.18245,18.78029,353.7706,0.1638848,0.1697877,-0.08132285,17.0599996186793,16
15.11464,0.883333,-28.86453,3.130272477634735,-0.1829437796311065,6.256824520822118,26.86971,17.83121,351.3973,0.2175802,0.1675293,-0.107975,17.0799996182323,16
15.28178,0.2833335,-28.47706,3.0440312612642586,-0.2075107293137389,6.160694954336492,7.302437,22.00549,358.027,0.05922356,0.1915167,-0.02901825,17.0999996177852,16
15.36169,0.4833335,-28.37168,2.9065976753480065,-0.1866020421233308,5.964916863709728,14.60967,21.61629,355.9836,0.1182982,0.1902613,-0.05797007,17.1199996173382,16
15.44158,0.6833328,-28.26633,2.7303824984209246,-0.173534125261377,5.690653982940589,21.8959,20.93081,353.7997,0.1768398,0.1881751,-0.08666055,17.1399996168911,16
15.63021,0.2833331,-27.87769,2.4076784472793307,0.4986645686719384,5.169379435385615,7.75975,28.04297,358.744,0.06299543,0.2424354,-0.02700247,17.1599996164441,16
15.71329,0.4833332,-27.7685,2.3449876031622754,0.2857488930838485,5.235695799376611,15.51385,27.77947,357.4408,0.1256796,0.2407243,-0.05387261,17.1799996159971,16
15.79634,0.6833328,-27.65935,2.228750089288713,0.0937411404036742,5.191010563889062,23.25944,27.31183,356.0352,0.1877709,0.2378816,-0.0804885,17.19999961555,16
15.87936,0.8833324,-27.55024,2.073490661860257,-0.131719991480141,5.059577793393245,30.98878,26.59008,354.4558,0.2489623,0.2339221,-0.1067185,17.219999615103,16
16.12197,0.2833333,-27.03126,2.03536178186118,-0.1249246323205124,5.254191644739244,7.216121,33.92544,359.7366,0.05952356,0.2913087,-0.02055456,17.239999614656,16
16.19596,0.4833333,-26.92944,1.9716161007149555,-0.0726539159352624,5.317558085655172,14.4298,33.87428,359.4646,0.1187921,0.2895738,-0.04102097,17.2599996142089,16
16.26993,0.6833331,-26.82765,1.8945667642894757,-0.0282242500485873,5.278017561172376,21.64088,33.78431,359.1746,0.1775714,0.2866914,-0.0613175,17.2799996137619,16
16.34388,0.8833326,-26.72589,1.8167370983156204,-0.0449517777214869,5.164139957881453,28.84915,33.64733,358.8541,0.2356286,0.2826738,-0.08136449,17.2999996133149,16
16.49337,0.2833333,-26.38545,1.9237908603138705,-0.0695190651589597,5.483634344895908,3.271649,32.31686,359.4185,0.02600709,0.2783164,-0.01281584,17.3199996128678,16
16.53196,0.4833331,-26.34339,2.012888479042012,-0.0486111960025881,5.687840050400094,6.539666,32.26677,358.833,0.05196405,0.2779657,-0.02561537,17.3399996124208,16
16.57054,0.6833329,-26.30133,2.0968650827458437,-0.0355440737400385,5.80755925303033,9.801441,32.18225,358.2384,0.07782766,0.2773817,-0.03839152,17.3599996119738,16
16.78903,0.2833332,-25.86965,2.044849478245677,0.6366541521976582,5.650364569641599,3.210591,28.91185,358.988,0.02492237,0.2497671,-0.0155411,17.3799996115267,16
16.83115,0.4833331,-25.82965,2.133807438788324,0.4237385994453502,5.864894727132693,6.41013,28.82621,357.967,0.04973263,0.2494436,-0.03106971,17.3999996110797,16
16.87326,0.683333,-25.78967,2.188491280394586,0.2317314270553473,5.962986756397182,9.604052,28.68259,356.9364,0.07447724,0.2489078,-0.04653589,17.4199996106327,16
16.91537,0.8833328,-25.74969,2.219306335008554,0.0062716684929943,5.971625474583892,12.7906,28.47868,355.8868,0.09912341,0.2481594,-0.06194853,17.4399996101856,16
17.21172,0.2833335,-25.13358,2.072750659037059,0.0130663318445458,5.584795151743524,4.934982,28.44887,359.6479,0.0409782,0.2456201,-0.013554,17.4599996097386,16
17.25797,0.4833337,-25.06067,1.915556681300835,0.0653363072076966,5.125985752802396,9.869977,28.40308,359.2928,0.08188622,0.244934,-0.02706527,17.4799996092916,16
17.30421,0.6833341,-24.98778,1.7585740682264903,0.1097663570215283,4.619340249898638,14.80341,28.32547,358.9298,0.122638,0.2437939,-0.04049851,17.4999996088445,16
17.58283,0.2833335,-24.45316,1.6127723251779784,0.0930402730610931,4.089073147411774,4.043056,28.23153,359.8852,0.03396571,0.2437642,-0.009573745,17.5199996083975,16
17.61778,0.4833334,-24.39206,1.3717519779970182,0.0684731877363958,3.349008575864591,8.084674,28.2193,359.7695,0.06787753,0.2433089,-0.01913088,17.5399996079504,16
17.65273,0.6833336,-24.33098,1.1196599016889015,0.0893811117768413,2.62038998183759,12.12481,28.19861,359.6516,0.101693,0.2425512,-0.02865947,17.5599996075034,16
17.68768,0.8833334,-24.26991,0.8667919301171132,0.1024480216467393,1.926202632006493,16.16087,28.16959,359.5329,0.1353541,0.2414953,-0.03812134,17.5799996070564,16
17.97345,0.2833335,-23.70582,0.6234433483040611,0.054358265192632,1.2895138403793318,6.7104,24.7042,359.6918,0.05659639,0.2137051,-0.01514285,17.5999996066093,16
18.02748,0.4833339,-23.60124,0.1804076057050672,-0.0015714579302891,0.3243955259998721,13.41936,24.64874,359.375,0.1129881,0.2126035,-0.03023051,17.6199996061623,16
18.0815,0.6833336,-23.49668,-0.26094855359473,-0.0120258593715625,-0.5706267673878287,20.12672,24.55193,359.04,0.168982,0.2107724,-0.04521111,17.6399996057153,16
18.13551,0.883333,-23.39213,-0.6900958990351107,-0.030320376278471,-1.3755622481114465,26.8322,24.40628,358.6751,0.2243862,0.2082183,-0.06003335,17.6599996052682,16
18.45772,0.2833335,-22.68324,-1.2272488531050598,0.6105160841692854,-2.410450850867589,6.656251,17.14755,359.1266,0.05626931,0.1492646,-0.01617838,17.6799996048212,16
18.5067,0.4833333,-22.57628,-1.879936256077901,0.3662385749653112,-3.3479896051212865,13.30976,16.99176,358.2294,0.1123359,0.1484963,-0.03229742,17.6999996043742,16
18.55567,0.6833328,-22.46935,-2.528188285481868,0.142869749728391,-4.167662661571789,19.95876,16.71997,357.2816,0.1680074,0.147219,-0.04830203,17.7199996039271,16
18.82843,0.2833335,-21.85938,-3.159700306836178,-0.1139522363955228,-4.852809341433924,6.562733,19.29852,357.908,0.05336528,0.1683439,-0.02756009,17.7399996034801,16
18.90115,0.4833335,-21.76309,-4.06540759700917,-0.1385191491403026,-5.817606775647194,13.11997,18.92979,355.7544,0.1065595,0.1674287,-0.05507154,17.7599996030331,16
18.97384,0.6833333,-21.66684,-4.957535382811546,-0.1176109238472822,-6.663658110549866,19.65932,18.28738,353.4817,0.1593757,0.1659074,-0.08239149,17.779999602586,16
19.0465,0.8833327,-21.57062,-5.821574920252104,-0.1045433578078052,-7.375381914730623,26.16865,17.32527,351.0149,0.2116233,0.1637855,-0.1094182,17.799999602139,16
19.40697,0.2833333,-20.83076,-6.753201178883327,-0.7929453091543882,-7.810549903551701,7.268193,22.78518,357.9732,0.05863925,0.1982015,-0.02982145,17.819999601692,16
19.48891,0.4833331,-20.72746,-7.716775830805101,-0.5585986684952193,-8.388454778128667,14.53693,22.38755,355.8752,0.1171014,0.1969095,-0.05956399,17.8399996012449,16
19.57082,0.6833327,-20.62419,-8.575785783117034,-0.3075257687692879,-8.766290777550333,21.7837,21.68776,353.6347,0.1750386,0.1947628,-0.08903944,17.8599996007979,16
19.65272,0.8833325,-20.52094,-9.312381585443829,-0.0919970636152356,-8.91919079096645,28.99497,20.62258,351.1556,0.2321992,0.1917712,-0.1181202,17.8799996003509,16
19.88993,0.2833335,-19.98252,-10.125004416869553,0.6421755346838885,-9.289550708518489,7.739449,27.32791,358.671,0.06284013,0.236433,-0.02718541,17.8999995999038,16
19.97259,0.4833334,-19.87318,-10.952935513836714,0.3796732860050238,-9.360647745301335,15.47295,27.04999,357.2927,0.1253728,0.2347681,-0.05423342,17.9199995994568,16
20.05522,0.6833334,-19.7639,-11.628561122570822,0.1385672504993834,-9.20208625684536,23.19729,26.55726,355.8079,0.1873193,0.232003,-0.0810187,17.9399995990098,16
20.10599,0.2833333,-19.69117,-12.136438650940695,-0.1355036973572678,-8.787148528488464,7.939385,37.20963,0.2063047,0.0661839,0.3181549,-0.02038448,17.9599995985627,16
20.18686,0.4833333,-19.57862,-12.90520737468562,-0.176832229321579,-8.649708574277565,15.87638,37.25401,0.4207889,0.1320313,0.3158626,-0.0406648,17.9799995981157,16
20.26772,0.6833333,-19.4661,-13.500419767335073,-0.1721981217453103,-8.338635817163157,23.81085,37.33303,0.6529744,0.1972265,0.3120559,-0.06074378,17.9999995976686,16
20.34855,0.8833331,-19.35361,-13.910227551116236,-0.1749176680544019,-7.832473581586774,31.74267,37.4557,0.9155645,0.2614578,0.3067544,-0.08052547,18.0199995972216,16
20.39781,0.2833335,-19.2584,-14.402193350498424,0.4819826967940144,-7.663799049364746,7.639754,36.42091,0.9726622,0.06592777,0.3112657,-0.01277362,18.0399995967746,16
20.46305,0.4833332,-19.14093,-15.023810165584436,0.2542575018684344,-7.151084561537735,15.27499,36.62167,1.981012,0.1315395,0.3091573,-0.02548296,18.0599995963275,16
20.52827,0.6833328,-19.0235,-15.42661688478887,0.0479279991529782,-6.444271766753687,22.90311,36.97731,3.065985,0.1965394,0.3056554,-0.03807093,18.0799995958805,16
20.59348,0.8833323,-18.90611,-15.59916861084935,-0.1913667137684789,-5.521101366518188,30.5208,37.52526,4.282248,0.2606387,0.300779,-0.05047253,18.0999995954335,16
20.55904,0.2833333,-18.84776,-16.151612685721762,-0.1979176059395698,-4.842922106425217,7.525291,24.86833,0.5128092,0.06504495,0.2145646,-0.009769026,18.1199995949864,16
20.60589,0.4833333,-18.72478,-16.484368362738554,-0.1585059589295322,-4.039487138824343,15.04674,24.97521,1.05769,0.1298063,0.213178,-0.01937567,18.1399995945394,16
20.65273,0.683333,-18.60183,-16.59128515848445,-0.1264467168001684,-3.0955122426250146,22.56466,25.16415,1.642511,0.1939877,0.2108694,-0.02889567,18.1599995940924,16
20.69955,0.8833327,-18.47892,-16.466797854128693,-0.1550561955408664,-1.9956506898762212,30.07807,25.45411,2.295001,0.2573119,0.2076498,-0.03828787,18.1799995936453,16
20.62516,0.2833333,-18.34581,-16.4279298076358,0.5489032432128715,-1.4499356288155756,7.858444,7.506755,0.1504684,0.06846283,0.06521824,-0.00317853,18.1999995931983,16
20.64018,0.4833333,-18.20941,-16.529225969061198,0.2566756260702202,-0.7075895437923716,15.71923,7.54125,0.3188542,0.1366311,0.06476463,-0.006242306,18.2199995927513,16
20.65522,0.6833328,-18.07306,-16.388063114950015,-0.0136676000155729,0.1257555620293171,23.5773,7.603588,0.5037816,0.2041359,0.0640098,-0.009252037,18.2399995923042,16
20.56602,0.2833333,-17.87951,-16.270874207456618,0.403798955547149,0.4601571426905462,8.13402,351.9387,359.517,0.0710426,-0.06981456,0.0007908647,18.2599995918572,16
20.55419,0.4833331,-17.73774,-16.23201156225348,0.1772226626787653,1.0738682991414858,16.26524,351.8322,359.0143,0.1417069,-0.0692847,0.00158116,18.2799995914102,16
20.54235,0.6833328,-17.596,-15.98762950464086,-0.0274693847933458,1.7222778981043465,24.39297,351.6422,358.4687,0.2116361,-0.06840456,0.002367257,18.2999995909631,16
20.42767,0.2833333,-17.33582,-15.54205427600078,-0.26463838017089,2.421180042416264,7.548599,335.6576,357.9123,0.06816859,-0.2091693,-0.003893563,18.3199995905161,16
20.40627,0.4833333,-17.20083,-15.245969609913717,0.3717370249694026,2.413698228210121,15.08498,335.2325,355.7512,0.1360003,-0.2077038,-0.007762819,18.3399995900691,16
20.38487,0.6833328,-17.06587,-15.21560222638552,0.1239746103664031,2.725459667183335,22.59746,334.4818,353.4319,0.2031793,-0.2052695,-0.01158984,18.359999589622,16
20.36346,0.8833323,-16.93094,-15.030085131303627,-0.101903515194418,2.9782665257758154,30.07087,333.3318,350.8454,0.269393,-0.2018783,-0.01535657,18.379999589175,16
20.34205,0.9766695,-16.79606,-14.69904390203978,-0.3602587814518676,3.1870379327419744,37.48346,331.6557,347.8373,0.3343334,-0.1975463,-0.01904566,18.399999588728,16
20.18635,0.2833333,-16.59127,-14.795230208202252,-0.3853843116058774,3.18306462208235,6.653458,321.7648,356.8687,0.06374208,-0.3253365,-0.006773865,18.4199995882809,16
20.15708,0.4833333,-16.4664,-14.75880297838438,-0.3640584285385697,3.055127209090992,13.28509,321.207,353.6528,0.1272043,-0.3233282,-0.01351144,18.4399995878339,16
20.1278,0.6833334,-16.34157,-14.603393438661325,-0.3495979689410879,2.816653509015861,19.8725,320.2364,350.2578,0.1901259,-0.3199911,-0.02018524,18.4599995873868,16
19.96873,0.2833333,-16.09441,-14.304982585205233,0.3249696236692591,2.5244130366294257,6.533328,321.2534,356.9229,0.06262933,-0.3296202,-0.00639235,18.4799995869398,16
19.93906,0.483333,-15.97202,-14.195497171300865,0.115399200608886,2.4546461632617174,13.05216,320.7181,353.7817,0.1249979,-0.3276494,-0.01260563,18.4999995864928,16
19.90942,0.6833326,-15.84967,-13.968156705361194,-0.0722876121423412,2.2823026046481054,19.53009,319.7885,350.4738,0.1868526,-0.3243784,-0.01874368,18.5199995860457,16
19.87978,0.8833324,-15.72734,-13.6423370248039,-0.2924514763817996,2.0209863626214557,25.94105,318.4013,346.8912,0.2479497,-0.3198239,-0.02480479,18.5399995855987,16
19.55138,0.2833333,-15.45974,-13.200520815010764,0.3609290470902967,1.70493246646204,7.318185,322.2683,357.8132,0.06653811,-0.321483,0.002612066,18.5599995851517,16
19.50338,0.4833332,-15.33536,-13.067056863392336,0.1301716686672276,1.7600929196127044,14.62935,321.8385,355.5599,0.1327934,-0.3193359,0.005278428,18.5799995847046,16
19.45541,0.6833331,-15.21103,-12.809723819870117,-0.0787013726247646,1.7196538034727595,21.91529,321.0818,353.1516,0.1984404,-0.3157718,0.007920552,18.5999995842576,16
19.10757,0.2833337,-14.97437,-12.453488884676815,-0.3200516831118072,1.5971328734751218,7.849711,328.48,359.2133,0.06773364,-0.2705131,0.01199923,18.6199995838106,16
19.04757,0.4833336,-14.85043,-12.222179734020852,-0.3281711496211972,1.878542287748772,15.69574,328.313,358.3966,0.1351274,-0.2685898,0.02393989,18.6399995833635,16
18.98758,0.6833337,-14.72651,-11.851014196688284,-0.2898396151496434,2.0601967550508604,23.5363,328.0161,357.5146,0.2018624,-0.2653956,0.03576548,18.6599995829165,16
18.92761,0.8833331,-14.60264,-11.368288209341202,-0.2583729842302198,2.156518468061096,31.36912,327.5568,356.5205,0.267624,-0.2609467,0.04742001,18.6799995824695,16
18.86765,0.9766698,-14.4788,-10.802918595602964,-0.2870869084936862,2.1818475198559124,39.19069,326.8763,355.3452,0.3321015,-0.2552649,0.05884873,18.6999995820224,16
18.47997,0.2833335,-14.26474,-10.440102877153029,-0.3226652731051345,2.717636308520825,7.702447,332.6014,0.593334,0.06403086,-0.2366257,0.02092555,18.7199995815754,16
18.40864,0.4833334,-14.15031,-9.932997193079592,-0.3117927753397006,3.140047141068587,15.40187,332.725,1.208999,0.127752,-0.2350123,0.04175342,18.7399995811284,16
18.33732,0.6833333,-14.03591,-9.311590941173831,-0.3077847456256358,3.4620402631358864,23.09726,332.9443,1.87254,0.1908744,-0.2323323,0.06238933,18.7599995806813,16
18.01761,0.2833333,-13.71794,-8.481081495015038,0.3563298683476824,3.6277565778184417,7.382775,325.1265,0.4407426,0.06027324,-0.2992652,0.02295404,18.7799995802343,16
17.93732,0.4833334,-13.61689,-7.845714494804119,0.1363067855006078,4.0997486440207975,14.76472,325.2162,0.9065071,0.1202672,-0.2973893,0.04589181,18.7999995797873,16
17.85707,0.6833332,-13.51586,-7.097824926785309,-0.0618319125620753,4.456366177826654,22.14268,325.3753,1.408103,0.1797291,-0.2942733,0.0686532,18.8199995793402,16
17.77685,0.8833329,-13.41484,-6.142964044841696,0.4278392725157355,4.567586281252601,29.51642,325.62,1.968519,0.238416,-0.2899299,0.09114434,18.8399995788932,16
17.31739,0.2833336,-13.00013,-5.108081923633167,0.913781479500134,4.57939977036374,7.655941,314.0836,0.4516232,0.05993849,-0.3894285,0.02966142,18.8599995784461,16
17.21575,0.4833335,-12.91299,-4.449279102069102,0.4910185056022962,5.037158111435886,15.31192,314.1795,0.9321368,0.1195727,-0.3868041,0.05928694,18.8799995779991,16
17.11415,0.6833335,-12.82588,-3.7237188837871855,0.0645276622693111,5.35395381113805,22.96462,314.3494,1.449244,0.1786545,-0.3824487,0.08863882,18.8999995775521,16
16.66054,0.2833332,-12.42125,-2.960277391079746,-0.2930520045756591,5.545002143097726,8.162994,310.4913,0.4935896,0.06283547,-0.4179415,0.03370453,18.919999577105,16
16.54646,0.4833334,-12.33535,-2.40779735407212,-0.3182809957367103,5.994699539327577,16.32311,310.6006,1.00792,0.1253333,-0.4147482,0.06722939,18.939999576658,16
16.43243,0.6833329,-12.24947,-1.8156503065738256,-0.2975468679491658,6.283144372122759,24.48093,310.7967,1.568969,0.1871808,-0.4094437,0.1004206,18.959999576211,16
16.31889,0.8833326,-12.16394,-1.2117656728943746,-0.2841658986964425,6.430250524017393,32.60516,311.1031,2.208547,0.2478368,-0.4020845,0.1329956,18.9799995757639,16
15.93889,0.2833333,-11.79187,-0.4685144798191061,0.3888345480424935,6.308975101801979,8.084862,306.0442,359.5221,0.06471062,-0.4522524,0.02827239,18.9999995753169,16
15.82979,0.483333,-11.70203,-0.2798356788356777,0.1772093374357523,6.66456908424248,16.16683,305.9394,359.0246,0.1290801,-0.4488637,0.05639493,19.0199995748699,16
15.72071,0.6833331,-11.61223,-0.1004891129233218,-0.0130191960095591,6.835414765911265,24.24517,305.7524,358.4844,0.1927873,-0.4432372,0.08422713,19.0399995744228,16
15.61167,0.8833326,-11.52244,0.0409526655297831,-0.2362131490044013,6.845817805791886,32.31907,305.4608,357.8706,0.2555159,-0.4354028,0.1116309,19.0599995739758,16
15.13895,0.2833331,-11.02326,0.4742560246093266,0.4136492409443279,6.545522214115364,7.629354,305.9384,358.5401,0.06503419,-0.4526711,0.01891016,19.0799995735288,16
15.0464,0.483333,-10.92429,0.798251846450519,0.1110058066475295,6.5123168666642455,15.25129,305.6376,357.0269,0.1297515,-0.4495518,0.0377246,19.0999995730817,16
14.95388,0.6833325,-10.82534,1.1887959131339103,-0.1750260456289447,6.293227553725612,22.86003,305.105,355.3993,0.1938558,-0.4443714,0.05635723,19.1199995726347,16
14.56374,0.2833331,-10.34995,1.9325821736468445,0.2345716747654612,5.784753414577883,7.093003,313.7912,358.785,0.06104651,-0.3910313,0.01453866,19.1399995721877,16
14.48949,0.483333,-10.24879,2.687895004149245,0.6490487440256805,5.133948616315914,14.17724,313.5581,357.5247,0.1218322,-0.3887232,0.02894621,19.1599995717406,16
14.41525,0.6833326,-10.14767,2.7849942937925984,0.2551746163775182,4.896764278139362,21.25113,313.1483,356.1802,0.1821203,-0.3848895,0.04320933,19.1799995712936,16
14.34102,0.8833324,-10.04658,2.8252128195193382,-0.1456791890053057,4.511846342895497,28.31038,312.5253,354.6968,0.2416779,-0.3795478,0.05727366,19.1999995708466,16
13.89092,0.2833333,-9.402496,2.783703551080647,-0.4808227820303272,4.006744409233658,7.292013,322.6714,358.5686,0.0642321,-0.3185972,0.008539375,19.2199995703995,16
13.83388,0.4833331,-9.286006,2.591577442291694,-0.4701463020333966,3.726315755043297,14.57794,322.3878,357.0762,0.1282193,-0.3165936,0.0169314,19.2399995699525,16
13.77685,0.6833329,-9.169549,2.3875984158481103,-0.4186017042813759,3.3310297863741805,21.85169,321.8883,355.4816,0.1916494,-0.3132601,0.02524985,19.2599995695055,16
13.71984,0.8833327,-9.053124,2.1464993230905813,-0.3793732785133908,2.850272360907556,29.10637,321.1271,353.7158,0.2542565,-0.3086118,0.03345972,19.2799995690584,16
13.38634,0.2833335,-8.566032,2.1411417786215017,0.314642694058521,2.0688504740104143,7.736158,328.9154,358.9059,0.06754221,-0.2667067,0.008897121,19.2999995686114,16
13.3331,0.4833336,-8.440456,1.533499384073048,0.1356401087573443,1.80183555512551,15.46762,328.6865,357.7703,0.1347562,-0.2648472,0.01774625,19.3199995681643,16
13.27986,0.6833334,-8.31494,0.9466412114861846,-0.028491390780063,1.466251800288218,23.19281,328.2794,356.5432,0.2013507,-0.2617604,0.02648989,19.3399995677173,16
13.22663,0.8833331,-8.189462,0.3525385625892943,-0.2319013761094654,1.093453648226102,30.90534,327.6512,355.165,0.2669934,-0.2574592,0.03510816,19.3599995672703,16
12.77186,0.2833333,-7.564607,0.1785459405768712,0.4316433220020073,0.3381473219219018,7.893845,336.3715,0.4181681,0.0666284,-0.2044986,0.01765604,19.3799995668232,16
12.70985,0.4833334,-7.441379,-0.4010139806339783,0.2197774223475107,-0.0412159845037845,15.78498,336.4609,0.8527545,0.1329206,-0.2030386,0.0352243,19.3999995663762,16
12.64785,0.6833333,-7.318186,-0.9422678891639532,0.0218163094553275,-0.4314884821822196,23.67292,336.6199,1.322799,0.1985618,-0.2006141,0.05262135,19.4199995659292,16
12.22888,0.2833332,-6.770346,-1.0466837370705084,0.5039725000302566,-1.1812532734399062,7.597031,332.0217,0.7937355,0.06261095,-0.2416464,0.02272068,19.4399995654821,16
12.15418,0.4833331,-6.659973,-1.0970942124362129,0.9749917676502268,-1.9190967911083012,15.19032,332.1846,1.616416,0.1249245,-0.2400356,0.04533742,19.4599995650351,16
12.07951,0.6833328,-6.549635,-1.6626019528327474,0.5413106840121217,-2.102240506359384,22.77888,332.4735,2.502442,0.186668,-0.2373582,0.06776211,19.4799995645881,16
12.00487,0.8833327,-6.439321,-2.153600166922347,0.0957294216087506,-2.2587039100083097,30.35916,332.9191,3.49649,0.247555,-0.2336239,0.08990281,19.499999564141,16
11.43536,0.2833333,-5.773673,-2.271582671099635,0.5435643338029521,-2.701058164482361,7.526762,318.0423,0.2871439,0.06038995,-0.3574035,0.02583385,19.519999563694,16
11.34361,0.4833334,-5.679559,-2.7895328424598187,0.3016604397344347,-2.680431502932477,15.05144,318.1038,0.6006159,0.1204552,-0.3550785,0.05167719,19.539999563247,16
11.25188,0.683333,-5.585469,-3.222299428339352,0.0790735147757694,-2.632241271513437,22.57347,318.2127,0.9375888,0.1799818,-0.3512211,0.07729383,19.5599995627999,16
11.16018,0.8833328,-5.491405,-3.5916344328781094,-0.178404318331351,-2.523710595237227,30.09256,318.3799,1.313568,0.2387151,-0.3458501,0.1025696,19.5799995623529,16
10.99662,0.2197272,-5.020691,-3.482535351445743,0.4354015109669929,-2.8134559195499094,6.771631,309.2057,0.6974328,0.0507448,-0.4284585,0.03081789,19.5999995619059,16
11.01312,0.4076111,-4.950683,-3.719932093596852,0.1317247846886686,-2.715673852790069,11.04814,302.657,359.3265,0.08726582,-0.4770538,0.04105268,19.6199995614588,16
10.99836,0.6066204,-4.877282,-3.8894646807970537,-0.1482738806700755,-2.5812876152762967,14.09054,297.208,356.2041,0.1217611,-0.5132658,0.03580479,19.6399995610118,16
10.98162,0.8066204,-4.803613,-3.65639860560058,0.2613307998087957,-2.8295284288151525,16.71421,291.6292,352.6311,0.1557055,-0.5470307,0.02890084,19.6599995605648,16
10.36724,0.2929668,-4.233546,-3.381287271952398,0.669000191135724,-3.03063092333989,6.842308,297.7441,358.7164,0.05685959,-0.5154249,0.02127574,19.6799995601177,16
10.27435,0.4929669,-4.154263,-3.607491579219468,0.169758290630959,-2.691240688000585,13.55176,292.787,356.835,0.1134067,-0.5466965,0.04243871,19.6999995596707,16
10.18148,0.6929668,-4.075001,-3.7811408961305375,-0.3314185357454631,-2.3141428619326394,20.0672,287.4279,354.2797,0.1693424,-0.5750317,0.06337494,19.7199995592237,16
9.678863,0.3085407,-3.596696,-3.47648165739864,0.0704457050161584,-2.5170636511482822,6.329664,291.8618,357.68,0.05704677,-0.5582972,0.01417712,19.7399995587766,16
9.594046,0.5085407,-3.514395,-3.586253538284472,-0.169938783699505,-2.3097155484820244,12.43732,286.7811,354.7928,0.1137937,-0.5882862,0.02828328,19.7599995583296,16
9.509235,0.7085406,-3.432115,-3.6519948644229703,-0.3866456924717266,-2.118088455264566,18.25494,281.2419,351.2669,0.1699541,-0.6152606,0.04224509,19.7799995578825,16
9.424432,0.9085404,-3.349856,-3.699491925075893,-0.6340363464110972,-1.9108147797567288,23.69697,275.1166,347.0125,0.2252449,-0.6390879,0.0559901,19.7999995574355,16
8.815254,0.3238218,-2.74865,-3.423500874664345,-0.0060893303622906,-2.101387285101473,5.793347,296.5154,357.3542,0.05509521,-0.5242949,0.00697061,19.8199995569885,16
8.748528,0.5238217,-2.65926,-3.720592863854709,-0.260487225775901,-1.738136856918682,11.33949,291.4536,354.1929,0.1099212,-0.5555295,0.01390907,19.8399995565414,16
8.681828,0.7238216,-2.569893,-3.989006792561106,-0.4912076073683099,-1.3892510488945544,16.57698,285.9668,350.462,0.164236,-0.5841257,0.0207995,19.8599995560944,16
8.615167,0.9238214,-2.48055,-4.25770273305624,-0.7526118962536776,-1.0246874652608873,21.42902,279.9632,346.0992,0.2177918,-0.6099499,0.02761276,19.8799995556474,16
8.154236,0.3379765,-2.03756,-4.073583208613551,-0.138677826747784,-1.214416319647425,6.291699,299.6588,357.6022,0.05793316,-0.5007169,0.009512436,19.8999995552003,16
8.083396,0.5379765,-1.944155,-4.231382942730638,-0.4070885138963783,-1.0215195069311358,12.34528,294.6749,354.6576,0.1154287,-0.5317596,0.01895991,19.9199995547533,16
8.012716,0.7379763,-1.850961,-4.360007810965234,-0.6518217719891675,-0.8337799013647555,18.09864,289.2682,351.0986,0.1722307,-0.5599145,0.02826706,19.9399995543063,16
