pX,pY,pZ,aX,aY,aZ,reX,reY,reZ,rtX,rtY,rtZ,t,ID
-43.00042,0.23,-35.99971,5.483191735348257,0.2337064697866026,4.699307955418178,0.01615835,0.01360198,0.02373007,0.0001410328,0.0001186705,0.0002070672,5.37999987974763,14
-43.00084,0.43,-35.99943,5.959749955152894,0.0573580094155109,4.528546844006968,0.03235168,0.01361202,0.04743259,0.0002823707,0.0001186704,0.0004138938,5.39999987930059,14
-43.00126,0.63,-35.99914,6.364411546930505,0.0966432137149341,4.3213593391066,0.04869983,0.01362894,0.07134701,0.0004250601,0.0001186703,0.0006225695,5.41999987885356,14
-43.00187,0.2833333,-35.90046,6.900226314056418,-0.3130421144656926,4.075209744290412,5.352787,8.041795,0.7946065,0.04706454,0.06971915,0.003635399,5.43999987840652,14
-43.00266,0.4833333,-35.79112,7.342966492856597,-0.4777877296638823,3.792674073999024,11.36731,8.178729,1.7097,0.09983141,0.06948002,0.00774656,5.45999987795949,14
-43.0036,0.6833333,-35.67906,7.69450743724591,-0.4229273050876684,3.477503297415474,17.55814,8.35169,2.699093,0.1538723,0.06835961,0.01210342,5.47999987751245,14
-42.97681,0.2833333,-35.45213,8.07511252107917,-0.8130629770342486,3.116110243822497,0.9627857,14.25243,0.5584152,0.008941301,0.1240091,0.003792983,5.49999987706542,14
-42.98219,0.4833334,-35.43328,8.355690833681429,-0.9542863125222938,2.728565826926598,1.924579,14.34871,1.118529,0.0178809,0.1247029,0.007585738,5.51999987661839,14
-42.98756,0.6833333,-35.41444,8.539477747576157,-0.87193120943607,2.319419579167601,2.887248,14.45444,1.681998,0.02683641,0.1253842,0.01138734,5.53999987617135,14
-42.91568,0.2833333,-35.39073,8.819720422294814,-1.2306002160517855,1.8874297266228128,1.577839,22.67785,0.1511066,0.01375928,0.1965756,-0.00141432,5.55999987572432,14
-42.90738,0.4833333,-35.36417,8.98860111825958,-1.3363838733173088,1.4392604153569977,3.155662,22.76608,0.3041616,0.02751682,0.19722,-0.002833349,5.57999987527728,14
-42.8991,0.6833335,-35.33762,9.051588571586272,-1.214616238106477,0.980525118625728,4.735635,22.85845,0.4572617,0.04128491,0.197825,-0.004278813,5.59999987483025,14
-42.77488,0.2833333,-35.28482,9.223443086977426,-1.5298998960689425,0.5202989178405986,3.107811,31.41492,0.09498026,0.02632909,0.2706045,-0.006543774,5.61999987438321,14
-42.74786,0.4833337,-35.2374,9.27584892594578,-1.5883264911481962,0.054662837573943,6.21787,31.50458,0.1930143,0.05265424,0.270991,-0.01310478,5.63999987393618,14
-42.72086,0.6833337,-35.18999,9.215517391300018,-1.4152296662353572,-0.4100199760449818,9.329932,31.60017,0.2964184,0.078958,0.2711764,-0.01966359,5.65999987348914,14
-42.58896,0.2833333,-35.14502,9.049490126983493,-1.034897347531387,-0.8672658584327984,4.477199,38.20679,0.1799891,0.0374235,0.3269658,-0.01130056,5.67999987304211,14
-42.5429,0.4833333,-35.08136,8.949537065933164,-1.324325304171233,-1.3097502687427287,8.958031,38.31014,0.3669336,0.07481731,0.326886,-0.02260896,5.69999987259507,14
-42.49686,0.6833333,-35.01774,8.73859409658283,-1.3495084378601254,-1.734447805231973,13.44024,38.43001,0.5649481,0.1121104,0.3263041,-0.03388882,5.71999987214804,14
-42.29906,0.2833332,-34.971,8.569010501170801,-1.5626562078244275,-2.1290311567147384,3.902285,47.19133,0.3024513,0.03225646,0.3999639,-0.01121108,5.739999871701,14
-42.25264,0.4833331,-34.92084,8.288235721011993,-1.5099560861211754,-2.4936056222049,7.803853,47.30416,0.6122478,0.06447022,0.3999131,-0.02241687,5.75999987125397,14
-42.20625,0.6833328,-34.87069,7.907049772031414,-1.2167417443902873,-2.82078734249826,11.70546,47.43932,0.9309675,0.09660566,0.3993934,-0.03361896,5.77999987080693,14
-42.15987,0.883333,-34.82055,7.436041638734594,-0.7073015634122327,-3.1031887036232533,15.60507,47.59914,1.264422,0.1286186,0.3984075,-0.04477862,5.7999998703599,14
-41.95346,0.283333,-34.81554,7.039242364598067,-0.8586306474406202,-3.3384180754881747,3.716786,56.27987,0.3429053,0.03000661,0.4712909,-0.01265718,5.81999986991286,14
-41.90282,0.483333,-34.77462,6.555435979925228,-0.7367236313395502,-3.515870504935957,7.431794,56.39484,0.6937275,0.05997139,0.4711633,-0.02529828,5.83999986946583,14
-41.8522,0.6833331,-34.73373,5.997072779782961,-0.3669144770247008,-3.627754692573252,11.14489,56.53408,1.055575,0.08986271,0.4705358,-0.03791014,5.85999986901879,14
-41.62558,0.2833337,-34.71516,5.550131408168802,-0.4138071815375668,-3.665446233630938,3.595593,65.6567,0.4275949,0.02838384,0.5417551,-0.01387357,5.87999986857176,14
-41.57146,0.4833339,-34.6826,5.031697006832182,-0.1834917512725717,-3.622207777145292,7.189349,65.77831,0.8633615,0.05673036,0.5415351,-0.02773071,5.89999986812472,14
-41.51735,0.6833342,-34.65004,4.456491426777205,0.0586019841896867,-3.490387699331933,10.78102,65.92879,1.310848,0.08501089,0.5407743,-0.04155792,5.91999986767769,14
-41.27348,0.283333,-34.6224,4.036595035709865,-0.3798319252812179,-3.259759285411942,3.492429,74.13813,0.6096441,0.02751929,0.6023595,-0.01412485,5.93999986723065,14
-41.21772,0.4833329,-34.59564,3.5687444005355573,-0.1773708214492637,-3.0449226134426404,6.982582,74.27503,1.228332,0.05500286,0.6020547,-0.02823392,5.95999986678362,14
-41.16197,0.6833329,-34.5689,3.0693766127818023,0.0303170298305828,-2.86404892870036,10.47006,74.45135,1.860808,0.08242444,0.6011734,-0.04231412,5.97999986633658,14
-40.99557,0.2833333,-34.55856,2.6678978616296263,-0.4493526323448873,-2.72996567566042,3.437593,78.21909,0.6604781,0.02690747,0.6303767,-0.01444985,5.99999986588955,14
-40.93917,0.4833333,-34.53518,2.224207099402996,-0.231210796829838,-2.788218933422094,6.872836,78.35946,1.330108,0.05378078,0.6300373,-0.02888409,6.01999986544251,14
-40.88279,0.6833332,-34.51179,1.7900270238895075,-0.0078417389018742,-2.8135359629914944,10.30555,78.54158,2.01316,0.08059305,0.6291096,-0.04329587,6.03999986499548,14
-40.64866,0.2833331,-34.49393,1.5629990138464365,-0.4718300934599582,-2.800820499447667,3.393184,81.97178,0.6244321,0.02592137,0.6554542,-0.01530639,6.05999986454844,14
-40.59154,0.4833335,-34.47497,1.2655793406070543,-0.2380069560772821,-2.755469276229743,6.784374,82.10772,1.255794,0.05180185,0.6550891,-0.03060945,6.07999986410141,14
-40.53396,0.6833337,-34.45585,0.9824870151428656,0.0010438381736586,-2.6778719266949587,10.19829,82.20193,1.896057,0.07779985,0.6535885,-0.04600172,6.09999986365438,14
-40.28003,0.2833339,-34.4334,0.9340179497224526,-0.4472632772414513,-2.5625026614271427,3.410297,83.03752,0.3699517,0.02441847,0.6624963,-0.01730797,6.11999986320734,14
-40.22165,0.4833336,-34.41949,0.7716323220316923,-0.1977583974375696,-2.442721317830266,6.829303,83.03572,0.7590953,0.04897889,0.6613667,-0.03452863,6.13999986276031,14
-40.1633,0.6833334,-34.40562,0.6148645931695143,0.0569732711950541,-2.313813833210837,10.24441,83.05843,1.147803,0.07344776,0.6596516,-0.05172158,6.15999986231327,14
-40.10496,0.8833336,-34.39175,0.4794884804601409,0.2646614757366703,-2.177278290111172,13.65822,83.10529,1.542744,0.09784315,0.6573442,-0.06886257,6.17999986186624,14
-39.89256,0.2833333,-34.37716,0.4110447488310811,0.2395719045816476,-2.032927734213928,3.356879,82.86335,0.2043641,0.02313971,0.6614023,-0.01804548,6.1999998614192,14
-39.83477,0.4833331,-34.36586,0.3396078576738404,0.2484583624158691,-1.9042403695728645,6.719437,82.86909,0.429895,0.0464146,0.6604571,-0.03597437,6.21999986097217,14
-39.64251,0.2833333,-34.3496,0.4194461935888114,-0.1888719986690618,-1.7960584959525685,3.315628,82.81641,0.09778966,0.02226237,0.6611236,-0.01849525,6.23999986052513,14
-39.58563,0.4833332,-34.33949,0.3258495706143876,0.0726549555959553,-1.692703606827152,6.616907,82.97955,0.2611347,0.04473711,0.661282,-0.0365287,6.2599998600781,14
-39.52827,0.6833332,-34.32933,0.2344888463538552,0.3404545128644393,-1.601023971257451,9.94698,83.07114,0.439097,0.06742568,0.6603348,-0.05462809,6.27999985963106,14
-39.47083,0.8833332,-34.31916,0.1592993133561862,0.5622560620762891,-1.5243645382533906,13.28358,83.1574,0.6259,0.0901193,0.6587119,-0.0726991,6.29999985918403,14
-39.2698,0.2833333,-34.31371,0.2581134079345304,-0.1679630621481548,-1.470260037236745,3.257156,82.89685,0.04317059,0.02155171,0.6616701,-0.01853037,6.31999985873699,14
-39.213,0.4833338,-34.3059,0.1917370896275798,0.0141131133728531,-1.3849528258180932,6.541147,82.9936,0.08706367,0.04323357,0.6614664,-0.03723279,6.33999985828996,14
-39.15599,0.6833342,-34.29811,0.14023879800326,0.20246212389143,-1.3094097696986822,9.844886,83.05108,0.1406997,0.06505138,0.6604293,-0.05597031,6.35999985784292,14
-38.93642,0.2833333,-34.2896,0.281850203087707,-0.2955014472845048,-1.2496564692492669,3.226276,81.17435,359.8928,0.02076963,0.6503661,-0.01902544,6.37999985739589,14
-38.88073,0.4833333,-34.28209,0.2340435100186439,-0.0946088398206166,-1.1811238341343824,6.44675,81.39103,359.8318,0.04167653,0.6510693,-0.03777417,6.39999985694885,14
-38.82494,0.6833333,-34.27457,0.1947214851273315,0.1125561907489422,-1.1205758558718557,9.670548,81.59064,359.7825,0.06257679,0.6511535,-0.05650417,6.41999985650182,14
-38.58396,0.2833333,-34.26493,0.3627813418712193,-0.3665911515551854,-1.070321193774916,3.377085,82.05464,359.8538,0.02139209,0.6561616,-0.02030443,6.43999985605478,14
-38.52525,0.4833333,-34.25925,0.3132825554188514,-0.1468800168836075,-1.0264504117900977,6.757886,82.24954,359.722,0.04280479,0.6566634,-0.04058891,6.45999985560775,14
-38.46601,0.683333,-34.25361,0.2601020234093809,0.0791033909642957,-0.9891121412134004,10.17086,82.34244,359.5933,0.0643962,0.6559528,-0.06101434,6.47999985516071,14
-38.3006,0.2833331,-34.2501,0.2165256901182886,0.2590884619738339,-0.9591547678431098,3.57095,83.88065,359.8517,0.02231168,0.6680612,-0.02178628,6.49999985471368,14
-38.23777,0.4833328,-34.24632,0.2054493873185165,0.2073402986736795,-0.9182072422435964,7.18123,83.83533,359.6904,0.04479953,0.6668741,-0.04384508,6.51999985426664,14
-38.17468,0.683333,-34.24261,0.1959469854869127,0.1906129288578262,-0.881554360481303,10.81535,83.72327,359.5234,0.06742337,0.6646501,-0.06597405,6.53999985381961,14
-37.94272,0.2833331,-34.23715,0.2015385835192518,0.1555911118291291,-0.8503351848575704,3.595908,85.71031,359.8888,0.02234069,0.6798345,-0.02205058,6.55999985337257,14
-37.88034,0.4833328,-34.234,0.1870615503256232,0.1289341155037476,-0.8206534689201028,7.186602,85.74406,359.8202,0.04486653,0.6790969,-0.04378865,6.57999985292554,14
-37.81799,0.6833333,-34.23032,0.1683872271857112,0.137297572991242,-0.7930801202772706,10.77275,85.84067,359.7731,0.06739946,0.6781086,-0.06536849,6.5999998524785,14
-37.56534,0.2833333,-34.22325,0.1584304897737496,0.1273660738894237,-0.7686683033007995,3.601014,87.64295,0.05181186,0.02298219,0.6920615,-0.0214293,6.61999985203147,14
-37.5024,0.4833333,-34.21917,0.1209828169455704,0.1257978877470427,-0.7556934123284549,7.209207,87.8,0.1371412,0.04612973,0.6919753,-0.04273398,6.63999985158443,14
-37.43924,0.6833335,-34.21484,0.0676145552722289,0.1592508844174096,-0.7421240658671877,10.83101,87.96848,0.2497128,0.06941409,0.6912112,-0.06398047,6.6599998511374,14
-37.37606,0.8833336,-34.21047,0.0117145610219111,0.1744097062915889,-0.7283909732106437,14.45634,88.14799,0.3799333,0.09268249,0.6897555,-0.08515582,6.67999985069036,14
-37.16712,0.2833336,-34.207,0.0716133216871881,-0.5223567030878474,-0.7176542982794238,3.571054,89.26384,0.1560063,0.02312929,0.7021777,-0.02092186,6.69999985024333,14
-37.10425,0.4833338,-34.20305,-0.0427836330309361,-0.3068277841472651,-0.7091947373868734,7.167716,89.47505,0.3365422,0.04646572,0.7023501,-0.04191554,6.7199998497963,14
-36.90988,0.2833333,-34.19954,-0.1532227665944816,-0.0850263767628262,-0.6998033059230515,3.646945,90.38846,0.1676589,0.02346141,0.7091069,-0.02154589,6.73999984934926,14
-36.8464,0.4833333,-34.19595,-0.231926918792368,-0.0693453437400384,-0.70168022795459,7.276406,90.84789,0.4082028,0.04706896,0.7107207,-0.04270549,6.75999984890223,14
-36.78267,0.6833333,-34.19244,-0.3195917757367006,-0.0196885276609211,-0.7027959427455457,10.9221,91.28048,0.6796511,0.0707586,0.7113116,-0.06391332,6.77999984845519,14
-36.71895,0.883333,-34.18894,-0.403161122198032,0.010628460440561,-0.703530291637577,14.56642,91.734,0.9835187,0.0943831,0.7111506,-0.08505737,6.79999984800816,14
-36.52047,0.2833333,-34.18915,-0.2573337578706223,-0.6720245437219242,-0.7149551257221383,3.648985,91.97833,0.1914951,0.02332211,0.7188059,-0.02173765,6.81999984756112,14
-36.45685,0.4833333,-34.18661,-0.2788965513479127,-0.4434276064274106,-0.7196689357744965,7.286241,92.63113,0.4834333,0.04693154,0.7215019,-0.04304207,6.83999984711409,14
-36.39292,0.6833336,-34.1842,-0.2998956157052994,-0.2096042467206804,-0.720479608374454,10.93941,93.24747,0.8144376,0.07060486,0.7230661,-0.06442308,6.85999984666705,14
-36.17468,0.2833334,-34.18495,-0.3065395592043174,-0.0228247447021637,-0.717710994397617,3.595505,94.77255,0.2621619,0.02292296,0.7355222,-0.02153916,6.87999984622002,14
-36.11113,0.4833331,-34.18546,-0.3065578800306063,-0.0688229338762375,-0.7212219546597716,7.235178,95.27287,0.5644506,0.04614853,0.7371933,-0.0433082,6.89999984577298,14
-36.04695,0.6833333,-34.18628,-0.3047765782501024,-0.0808452779662703,-0.7208374002575013,10.90722,95.66751,0.8780835,0.06945068,0.7373346,-0.06532092,6.91999984532595,14
-35.80869,0.2833336,-34.18773,-0.2872655448091166,-0.1122077332531732,-0.7170866575801789,3.55031,96.44621,0.2928553,0.02254296,0.7453316,-0.02139928,6.93999984487891,14
-35.7466,0.4833336,-34.18943,-0.2656658396151172,-0.1362520014394045,-0.724456421160383,7.09965,96.83044,0.6109268,0.04507514,0.7463096,-0.04277955,6.95999984443188,14
-35.68456,0.6833333,-34.19114,-0.2483777923208094,-0.1263202495223817,-0.7280873771712706,10.65127,97.2386,0.9595436,0.06761054,0.7465549,-0.06412908,6.97999984398484,14
-35.62247,0.883333,-34.19252,-0.2229572670715249,-0.1357283111214769,-0.7282200833742607,14.20031,97.73229,1.361667,0.09018455,0.7463803,-0.08533233,6.99999984353781,14
-35.42687,0.2833329,-34.19381,-0.0908754967727638,-0.1378188575577587,-0.7345905038210958,3.47259,97.07183,0.325746,0.02219193,0.7489668,-0.02082401,7.01999984309077,14
-35.36605,0.4833324,-34.19541,0.0313051781096795,-0.1059329876800548,-0.7352950236552154,6.941339,97.50954,0.6783476,0.0443535,0.7502663,-0.0416215,7.03999984264374,14
-35.30524,0.6833324,-34.19701,0.1562755929808936,-0.0933871327343008,-0.7303779857223844,10.40589,97.97256,1.060972,0.06646506,0.7508603,-0.06237191,7.0599998421967,14
-35.09011,0.2833336,-34.2,0.0942755651032101,0.5667906052404322,-0.7221101357667479,3.415959,96.68397,0.2798204,0.02163471,0.7467429,-0.02064598,7.07999984174967,14
-35.03034,0.4833333,-34.20187,0.2073140954645325,0.3303539125372228,-0.7139763771834886,6.828438,97.11576,0.5856286,0.04324035,0.748083,-0.04126616,7.09999984130263,14
-34.97059,0.6833333,-34.20375,0.3191160615340713,0.1033251657409694,-0.6995789084718673,10.23744,97.5695,0.9202086,0.06480065,0.7487434,-0.06184251,7.1199998408556,14
-34.73649,0.2833336,-34.20872,0.2141579302408232,0.5516321000386409,-0.683419260287387,3.366503,95.41028,0.178891,0.02092138,0.7393405,-0.02067761,7.13999984040856,14
-34.67772,0.4833333,-34.21094,0.2962977295565885,0.3434209802641685,-0.6715660690835392,6.730315,95.83148,0.3826233,0.04181521,0.7407448,-0.04133002,7.15999983996153,14
-34.61896,0.6833336,-34.21317,0.3643492230131251,0.1446186355817362,-0.6549863922200316,10.09149,96.26807,0.6131408,0.06266604,0.7414976,-0.06193979,7.17999983951449,14
-34.46186,0.2833335,-34.21785,0.4311134671723273,-0.0991366731019731,-0.6344792372535615,3.318074,94.60074,0.08872116,0.02020244,0.7345955,-0.02075225,7.19999983906746,14
-34.40402,0.4833333,-34.22075,0.5480025159703601,-0.1221363262869047,-0.6212436730713371,6.634522,95.01257,0.2014709,0.04038236,0.7360461,-0.04148095,7.21999983862042,14
-34.3462,0.6833331,-34.22365,0.6451736689017018,-0.1111604066302168,-0.6044446777112249,9.948752,95.43405,0.3389595,0.0605179,0.7368688,-0.06216802,7.23999983817339,14
-34.12353,0.2833331,-34.23205,0.5777205599367932,0.3606680185279514,-0.5843929908535657,3.275715,93.41574,359.9754,0.01944337,0.7275738,-0.02095086,7.25999983772635,14
-34.06649,0.4833329,-34.23569,0.4975202330715156,0.8152469481839988,-0.5619907324176125,6.550556,93.81644,359.9738,0.03886485,0.7290764,-0.04187821,7.27999983727932,14
-34.00948,0.6833331,-34.23933,0.5836735478081607,0.3475991401493131,-0.545276328223423,9.82403,94.21991,-0.005089266,0.058244,0.7299729,-0.06276485,7.29999983683228,14
-33.75401,0.2833333,-34.25296,0.6609628234603235,-0.1372974436220839,-0.5276336601257299,3.228829,91.43259,359.8748,0.01888913,0.7156282,-0.02093124,7.31999983638525,14
-33.69774,0.4833335,-34.25635,0.5805946732974263,0.2655338803734132,-0.5055338216417162,6.457453,91.8235,359.7715,0.0377571,0.7172056,-0.04183932,7.33999983593822,14
-33.64149,0.6833335,-34.25974,0.687718242609062,0.0108016496581898,-0.4914593849003736,9.685775,92.21126,359.6898,0.05658955,0.7182024,-0.06270735,7.35999983549118,14
-33.58525,0.8833337,-34.26313,0.7817717624203908,-0.2355678412441235,-0.4766523764655836,12.91332,92.5983,359.6296,0.07536958,0.7186187,-0.0835163,7.37999983504415,14
-33.36653,0.2833333,-34.27457,0.6908008109046655,0.192352846740799,-0.4582308772418777,3.284854,90.4582,359.8162,0.01904741,0.7096683,-0.0214771,7.39999983459711,14
-33.30922,0.4833333,-34.27804,0.8036682162122588,-0.0372893044012265,-0.4472809733325071,6.569948,90.84232,359.6541,0.03807336,0.7112331,-0.04293031,7.41999983415008,14
-33.25192,0.6833333,-34.28151,0.8945486525667263,-0.2585683464389456,-0.4321527536847398,9.855096,91.21982,359.5131,0.05706214,0.7122015,-0.06434138,7.43999983370304,14
-33.01038,0.2833336,-34.29563,0.7680477561267622,0.1944424281756952,-0.4127453797045781,3.535253,92.15012,359.8315,0.02033997,0.7199371,-0.02323616,7.45999983325601,14
-32.94878,0.4833338,-34.30069,0.6251236111421967,0.630203902692938,-0.3893779892071336,7.070609,92.53358,359.6865,0.04065473,0.7213054,-0.04644368,7.47999983280897,14
-32.88721,0.6833338,-34.30574,0.6466312591940948,0.1437389534040729,-0.3680469981749752,10.60788,92.91113,359.5634,0.06093266,0.7219742,-0.06961648,7.49999983236194,14
-32.62612,0.2833336,-34.32198,0.6565218220955771,-0.3599748846129977,-0.3429938303186262,3.565029,94.00107,359.8916,0.02052247,0.7310259,-0.02339418,7.5199998319149,14
-32.56417,0.4833338,-34.328,0.5083843523035689,0.024039885300778,-0.3151285419681642,7.12994,94.38884,359.8068,0.04101771,0.7323142,-0.0467628,7.53999983146787,14
-32.50224,0.6833341,-34.33402,0.549407870564206,-0.2495080500126837,-0.2932075384432977,10.69429,94.77467,359.7457,0.06146706,0.732883,-0.07007845,7.55999983102083,14
-32.44033,0.8833341,-34.34004,0.579209538691476,-0.5146926965853944,-0.2685035988123303,14.25799,95.16151,359.7085,0.08185061,0.7327324,-0.0933191,7.5799998305738,14
-32.22021,0.2833335,-34.35149,0.4268876984893914,-0.1055886211380844,-0.240245610566177,3.59265,95.62082,0.03487657,0.02127736,0.7405561,-0.02302126,7.59999983012676,14
-32.15774,0.4833333,-34.35681,0.2719467032233815,0.2862662878501872,-0.2105146819103538,7.184247,96.0206,0.09530455,0.04253182,0.7417697,-0.0460127,7.61999982967973,14
-32.09529,0.6833335,-34.36212,0.3821274809044581,-0.2441055319662781,-0.1919632381107234,10.77423,96.42782,0.1818122,0.06373774,0.7422442,-0.0689511,7.63999982923269,14
-31.85525,0.2833335,-34.37558,0.2763239432339226,-0.0714387236754718,-0.1681933034314084,3.561659,96.45438,0.09546075,0.02132336,0.7454146,-0.02262178,7.65999982878566,14
-31.7933,0.4833338,-34.3807,0.1559252148020782,0.1116826519284716,-0.1431377921122631,7.121328,96.85857,0.2163341,0.04261919,0.746614,-0.04521295,7.67999982833862,14
-31.73136,0.6833337,-34.38581,0.0352326213639884,0.2529870362075836,-0.1177637092425669,10.67906,97.27393,0.3639408,0.06386806,0.7470818,-0.06775319,7.69999982789159,14
-31.4693,0.2833335,-34.40166,-0.0301348667053282,0.1667407563022951,-0.096655486563101,3.635411,97.30479,0.12124,0.02174866,0.7503152,-0.0231138,7.71999982744455,14
-31.40608,0.4833335,-34.40741,-0.0999616682532078,0.1196976020013875,-0.0757762524310194,7.268871,97.71054,0.268498,0.04346931,0.7514356,-0.04619739,7.73999982699752,14
-31.34288,0.6833335,-34.41317,-0.1594006310662941,0.0585414312892711,-0.0560449230342783,10.90082,98.12949,0.4431333,0.06514187,0.7517886,-0.06923302,7.75999982655048,14
-31.2797,0.8833333,-34.41892,-0.2106075753825536,0.009930250009791,-0.0386844723227497,14.53035,98.56549,0.6476272,0.08674219,0.7513746,-0.0921915,7.77999982610345,14
-31.05986,0.2833332,-34.43147,-0.2662578471022669,0.0005220640067969,-0.0211765489792981,3.627511,98.08923,0.1376173,0.02165263,0.7548164,-0.02311645,7.79999982565641,14
-30.99683,0.4833333,-34.43779,-0.3112737809070118,-0.022999295393277,-0.0044744457867835,7.252892,98.49493,0.3011765,0.04327681,0.7559081,-0.0462026,7.81999982520938,14
-30.93383,0.6833334,-34.44411,-0.3671280035830087,-0.033975449831831,0.0137916531056845,10.87595,98.91486,0.4924023,0.06485061,0.7562314,-0.06923527,7.83999982476234,14
-30.69382,0.2833333,-34.4586,-0.4337336153487854,-0.0057493538491706,0.0323743024207701,3.573892,99.75359,0.2188777,0.02155519,0.7642489,-0.02261408,7.85999982431531,14
-30.6317,0.4833331,-34.46519,-0.4959050557682154,0.0083635143750434,0.0501834260702906,7.145132,100.1655,0.4638427,0.04308299,0.7653134,-0.04519933,7.87999982386827,14
-30.5696,0.683333,-34.47178,-0.538466207950492,-0.044952911295371,0.0661265957910615,10.71341,100.5966,0.7371864,0.06456163,0.7656209,-0.06773333,7.89999982342124,14
-30.30957,0.2833332,-34.488,-0.572156142560079,-0.1123813320105386,0.080256718086666,3.51159,100.5456,0.276477,0.02143746,0.7686858,-0.02202342,7.91999982297421,14
-30.24844,0.4833332,-34.49426,-0.5937084296578767,-0.1406064984486669,0.091014588724029,7.020093,100.9612,0.5788627,0.04284793,0.7697556,-0.04401937,7.93999982252717,14
-30.18733,0.6833333,-34.50051,-0.5888697104256728,-0.182944725466614,0.0974978612782919,10.52483,101.3992,0.909933,0.06420951,0.7700886,-0.06596369,7.95999982208014,14
-30.12623,0.8833333,-34.50677,-0.5848021298375912,-0.212738713656957,0.1031062991382185,14.02587,101.8635,1.272944,0.08550403,0.7696849,-0.08783834,7.9799998216331,14
-29.90786,0.2833332,-34.5181,-0.5776197910094396,-0.2033301529612706,0.1060472229679092,3.451572,100.5416,0.3042364,0.02128986,0.7686712,-0.02146524,7.99999982118607,14
-29.84767,0.4833332,-34.52369,-0.5536981846311946,-0.2080345625915978,0.1057167337329616,6.899442,100.9577,0.6342167,0.04255262,0.7697681,-0.04290021,8.01999982073903,14
-29.7875,0.6833335,-34.52928,-0.5370587102637963,-0.200193846972982,0.1064341208329509,10.34377,101.3973,0.9925292,0.06376997,0.7701514,-0.06428922,8.039999820292,14
-29.54929,0.2833336,-34.54264,-0.5280781427103136,-0.1531504830671861,0.1070776235170924,3.403864,99.24828,0.2319989,0.02078122,0.7614347,-0.02131478,8.05999981984496,14
-29.49,0.4833335,-34.54799,-0.5133321340019776,-0.1202205764746513,0.1071329083305272,6.804697,99.65625,0.4886582,0.04153625,0.7625958,-0.04260161,8.07999981939793,14
-29.43074,0.6833335,-34.55333,-0.4793761771636582,-0.1547194473437537,0.106065212747147,10.20259,100.0829,0.772091,0.06224807,0.7630712,-0.06384395,8.09999981895089,14
-29.37149,0.8833333,-34.55867,-0.446611666424662,-0.2033311020201398,0.1054330701949552,13.59728,100.5318,1.085032,0.08289865,0.7628613,-0.08502275,8.11999981850386,14
-29.07423,0.2833332,-34.57503,-0.4096802610614141,-0.2127397320614167,0.1038946347917857,3.350502,96.99177,0.1146097,0.02012162,0.7485683,-0.02123143,8.13999981805682,14
-29.01595,0.4833333,-34.57996,-0.3551775107595496,-0.2362617344763161,0.1007447507453562,6.698699,97.38744,0.2526432,0.04021792,0.7498218,-0.04243463,8.15999981760979,14
-28.95769,0.6833334,-34.5849,-0.3025175411114773,-0.247238586291061,0.0967499394681254,10.0449,97.79434,0.4152759,0.06027377,0.7504242,-0.06359494,8.17999981716275,14
-28.89944,0.8833332,-34.58982,-0.2498702296469765,-0.2190129106507033,0.0909429867886757,13.38894,98.21556,0.6043083,0.08027261,0.7503754,-0.08469391,8.19999981671572,14
-28.69185,0.2833335,-34.60084,-0.1839883732760796,-0.2049004396826353,0.0826824024387562,3.293499,95.32497,359.9898,0.01928866,0.7388868,-0.02130222,8.21999981626868,14
-28.63465,0.4833335,-34.60616,-0.1306377703353582,-0.1782426114715241,0.0746973012865908,6.58604,95.70805,0.001691818,0.03855603,0.7402129,-0.04258007,8.23999981582165,14
-28.57745,0.6833333,-34.61148,-0.0906812594291324,-0.1123819024564233,0.0660240758280821,9.877102,96.0946,0.03576882,0.05778208,0.7409181,-0.06381495,8.25999981537461,14
-28.35072,0.2833333,-34.62326,-0.0511152182085368,-0.060633843087536,0.0561760785740048,3.241934,93.13058,359.8978,0.01880112,0.7258848,-0.02115397,8.27999981492758,14
-28.29433,0.4833331,-34.62793,0.0010920885166711,-0.0763146286964092,0.0446318759873349,6.483549,93.50461,359.8168,0.03758219,0.727294,-0.04228428,8.29999981448054,14
-28.23795,0.6833331,-34.63261,0.0460334409646421,-0.106108821177467,0.0335371129733061,9.72462,93.87663,359.7565,0.0563269,0.7281111,-0.06337383,8.31999981403351,14
-27.99255,0.2833335,-34.64542,0.0886604104752279,-0.0967002103020567,0.0214775489444534,3.196011,90.57118,359.8006,0.01838419,0.7103793,-0.02104094,8.33999981358647,14
-27.93681,0.4833331,-34.64926,0.142076029262558,-0.1014047656800858,0.0081041821811496,6.392375,90.93595,359.6213,0.03674902,0.7118751,-0.04205938,8.35999981313944,14
-27.88109,0.6833329,-34.6531,0.1846476442655671,-0.0935640694886917,-0.0035709668334291,9.588843,91.29308,359.4613,0.05507945,0.7128057,-0.06303809,8.3799998126924,14
-27.82539,0.8833328,-34.65694,0.2183685665967978,-0.0465205694181266,-0.0147756460927226,12.78502,91.64471,359.3203,0.07336176,0.7131712,-0.08395678,8.39999981224537,14
-27.61121,0.2833333,-34.66876,0.2565064109942199,-0.0135899544725829,-0.0258547889253435,3.53187,92.02137,359.8105,0.02021392,0.719162,-0.02331913,8.41999981179833,14
-27.54966,0.4833336,-34.67405,0.2751363738646866,0.0318855144377695,-0.0336896471067333,7.063914,92.38417,359.6432,0.04040277,0.7204232,-0.04660949,8.4399998113513,14
-27.48813,0.6833336,-34.67934,0.2734537675855293,0.1165640160851629,-0.0393162315575637,10.59726,92.73951,359.4964,0.06055166,0.7209879,-0.06985984,8.45999981090426,14
-27.25819,0.2833333,-34.69257,0.2649315865795145,0.1871293551380574,-0.0432198830036298,3.56145,93.69779,359.8632,0.02038194,0.7292251,-0.02348669,8.47999981045723,14
-27.19631,0.4833332,-34.69876,0.2630433741102074,0.1902656825572692,-0.0458578293287104,7.122919,94.06425,359.7486,0.04073717,0.730414,-0.04694732,8.49999981001019,14
-27.13445,0.6833333,-34.70496,0.3569107933566009,0.1792891819134697,-0.0536973134533269,10.684,94.42667,359.656,0.06104651,0.7308871,-0.07035533,8.51999980956316,14
-26.88342,0.2833333,-34.71915,0.4308796435961106,0.207515477569614,-0.0594573271830469,3.595407,95.14861,359.9899,0.0210988,0.7377915,-0.02321571,8.53999980911613,14
-26.82092,0.4833333,-34.72475,0.4991312025650991,0.2216283741941567,-0.0637502635157361,7.190069,95.52592,0.003827039,0.04217428,0.7389119,-0.04640178,8.55999980866909,14
-26.75845,0.6833333,-34.73034,0.3621133852785121,0.8886002303386547,-0.0578795407709193,10.78352,95.90751,0.04199986,0.06320226,0.7392957,-0.06953455,8.57999980822206,14
-26.696,0.8833336,-34.73594,0.3929628774701506,0.6641851262418611,-0.0572964279902024,14.37558,96.29656,0.1053313,0.08416115,0.7389433,-0.09259145,8.59999980777502,14
-26.4873,0.2833333,-34.7457,0.4149375802684147,0.4544058478541598,-0.0553942244382525,3.555231,96.14294,0.09184455,0.02132384,0.7436041,-0.02254311,8.61999980732799,14
-26.42544,0.4833332,-34.75054,0.442355371768123,0.2049012547542171,-0.0528270698551125,7.108481,96.52825,0.2080986,0.04262134,0.74471,-0.04505416,8.63999980688095,14
-26.36359,0.6833331,-34.75537,0.3943114314053488,0.1813794205633573,-0.0454472180595502,10.65985,96.92426,0.3497626,0.06387166,0.7450898,-0.0675147,8.65999980643392,14
-26.13271,0.2833333,-34.76799,0.3247183314657036,0.1970606104848991,-0.0368679837532965,3.624605,96.91718,0.112092,0.02170449,0.7480814,-0.02302247,8.67999980598688,14
-26.06966,0.4833333,-34.77347,0.2478519419490616,0.1986286158583124,-0.0277361800885032,7.247347,97.30353,0.2489064,0.04338123,0.7491149,-0.0460147,8.69999980553985,14
-26.00663,0.6833331,-34.77894,0.3894088114312168,-0.5075465665223416,-0.0284017845015256,10.86868,97.70217,0.4116894,0.06501032,0.7493887,-0.06895915,8.71999980509281,14
-25.75506,0.2833333,-34.79333,0.3467149530459501,-0.2972452964352038,-0.021180512828792,3.637618,97.32388,0.1215939,0.02175984,0.7504246,-0.02312984,8.73999980464578,14
-25.69181,0.4833333,-34.79912,0.2950116911896323,-0.0764901351544346,-0.0128108050038164,7.273293,97.71005,0.2679454,0.04349123,0.7514312,-0.04622938,8.75999980419874,14
-25.62859,0.6833337,-34.8049,0.2490556454912607,0.1024489562441,-0.0039223033040798,10.90679,98.10924,0.4406514,0.06517182,0.7516709,-0.06927487,8.77999980375171,14
-25.56538,0.8833337,-34.81068,0.1913680595714311,0.0538372921590184,0.006988214749235,14.53816,98.52509,0.6418236,0.08678072,0.7511438,-0.09224498,8.79999980330467,14
-25.3568,0.2833333,-34.82162,0.1251660199747313,0.0444284494637364,0.018764324322376,3.588925,99.11527,0.2002112,0.02164197,0.760649,-0.02269907,8.81999980285764,14
-25.2944,0.4833333,-34.8279,0.065372148870427,0.0209065118643153,0.030602296085739,7.175372,99.50716,0.4253274,0.04325607,0.7616217,-0.04536892,8.8399998024106,14
-25.23202,0.6833333,-34.83417,-0.0029943094691482,0.0099292035534721,0.0423697635952251,10.75912,99.91689,0.6774974,0.06482069,0.7618362,-0.0679872,8.85999980196357,14
-25.00306,0.2833335,-34.84647,-0.0795727318396295,0.0381552876010244,0.0530852602438969,3.52712,100.0597,0.2638131,0.02153302,0.7659687,-0.0221071,8.87999980151653,14
-24.94164,0.4833332,-34.85248,-0.1499452030342105,0.0522685142269438,0.0619016547261566,7.051391,100.456,0.5524544,0.04303919,0.7669428,-0.0441868,8.8999998010695,14
-24.88025,0.6833332,-34.85849,0.0140931060483779,-0.641360799617614,0.0570304754851775,10.57246,100.8737,0.8685241,0.06449746,0.7671775,-0.06621716,8.91999980062246,14
-24.63107,0.2833333,-34.87209,-0.0009816495432595,-0.4185137580433625,0.0582551830751327,3.46615,100.0596,0.2996657,0.02143109,0.7659745,-0.02149857,8.93999980017543,14
-24.5706,0.4833334,-34.8773,-0.0185598070762544,-0.1852128668305621,0.058087324930554,6.928814,100.4575,0.6241741,0.04283584,0.7669783,-0.04296676,8.95999979972839,14
-24.51015,0.6833334,-34.88251,-0.0248907284143946,0.0062714215146776,0.0560048489792066,10.38801,100.8787,0.9759738,0.06419408,0.7672663,-0.0643883,8.97999979928136,14
-24.44971,0.8833334,-34.88772,-0.0395115056077983,-0.0297952985260234,0.0553803989089303,13.84349,101.3268,1.358436,0.0854869,0.766839,-0.08574353,8.99999979883432,14
-24.14147,0.2833335,-34.90426,-0.0588490461392723,-0.0266590776516083,0.0546039112456639,3.410838,98.84244,0.2381879,0.02093715,0.7591339,-0.02125213,9.01999979838729,14
-24.08201,0.4833334,-34.90911,-0.0693259713070055,-0.0376360861037566,0.0533019739249951,6.818635,99.23286,0.5001349,0.04184815,0.7602006,-0.04247557,9.03999979794025,14
-24.02258,0.6833334,-34.91395,-0.0945486786773983,-0.0360678003859835,0.0543667684929758,10.22354,99.64222,0.7878729,0.06271533,0.7605819,-0.06365477,9.05999979749322,14
-23.96316,0.8833334,-34.9188,-0.1335480636274155,0.0047032907790734,0.0565163946715117,13.6253,100.0739,1.10415,0.08352034,0.7602779,-0.08477058,9.07999979704618,14
-23.74555,0.2833334,-34.92955,-0.1728552698190206,0.0313612439167875,0.0591417873539796,3.355381,97.24618,0.1445737,0.02029869,0.7500308,-0.02113521,9.09999979659915,14
-23.68714,0.4833335,-34.93424,-0.1990203541402486,-0.0094102451142387,0.0616615761113763,6.708323,97.62645,0.311723,0.04057181,0.7511702,-0.04224253,9.11999979615211,14
-23.62876,0.6833336,-34.93893,-0.1190186466358049,-0.0642941026630641,0.056775708847141,10.05911,98.01955,0.5028385,0.06080407,0.7516556,-0.06330709,9.13999979570508,14
-23.39189,0.2833333,-34.95152,-0.0484477128922513,-0.0799748259828712,0.0511398115274417,3.304076,95.38599,0.01941689,0.01953048,0.7392381,-0.02120682,9.15999979525805,14
-23.33445,0.4833335,-34.95641,0.0266040523711978,-0.1097684770281973,0.0441001625764343,6.606942,95.754,0.06010034,0.03903852,0.7404538,-0.04238928,9.17999979481101,14
-23.27703,0.6833335,-34.9613,-0.0828494329418667,0.5132967579192007,0.0443518800994198,9.908171,96.12711,0.1225186,0.05850551,0.7410455,-0.06352821,9.19999979436398,14
-23.02151,0.2833333,-34.97525,-0.028048339790466,0.2449746271801077,0.0383017212840215,3.25387,93.53797,359.92,0.01893772,0.7283177,-0.02116437,9.21999979391694,14
-22.96492,0.4833332,-34.97996,0.0288236339627161,-0.0087118037347858,0.0310135607368309,6.507231,93.89629,359.8602,0.03785474,0.729605,-0.04230505,9.23999979346991,14
-22.90835,0.683333,-34.98468,-0.1249753195810363,0.4181640115550511,0.0326993729426448,9.759957,94.25372,359.8206,0.0567353,0.7302951,-0.06340516,9.25999979302287,14
-22.85179,0.8833331,-34.98939,-0.0983062165262076,0.1937494408791717,0.0269329734946452,13.01156,94.61259,359.8013,0.07556242,0.7303882,-0.08444476,9.27999979257584,14
-22.63474,0.2833334,-34.99936,-0.0781935386539451,-0.0160298486595784,0.0205944729274918,3.206105,90.91344,359.8152,0.01847433,0.7124726,-0.02106866,9.2999997921288,14
-22.57886,0.4833331,-35.00329,-0.0510711018708107,-0.2655346932679601,0.0132762829520203,6.412374,91.2615,359.6498,0.03692869,0.7138454,-0.04211464,9.31999979168177,14
-22.52298,0.683333,-35.00722,0.0221780178059844,-0.2890561292443836,0.002655143349564,9.61862,91.60259,359.5028,0.05534856,0.7146491,-0.06312054,9.33999979123473,14
-22.28248,0.2833331,-35.01966,0.0853881000972158,-0.2733747723184487,-0.0072150340392624,3.452549,91.3407,359.8072,0.01984738,0.715041,-0.02272446,9.3599997907877,14
-22.22227,0.4833331,-35.02425,0.152594291717488,-0.2718061390886693,-0.0167160681248219,6.905247,91.68603,359.6349,0.03967096,0.7162616,-0.04542166,9.37999979034066,14
-22.16208,0.683333,-35.02885,0.0378200482029846,0.3826211167774013,-0.0189773354765705,10.35833,92.02359,359.482,0.05945373,0.7168214,-0.06807427,9.39999978989363,14
-21.90161,0.2833334,-35.04371,0.0896414589151781,0.1456616624296204,-0.0245590369524819,3.549685,93.10386,359.8524,0.02036458,0.7256765,-0.02337087,9.41999978944659,14
-21.83988,0.4833334,-35.04945,0.145114986497493,-0.0766622487313629,-0.0291739598447193,7.099975,93.45189,359.7257,0.04070521,0.7267858,-0.0467202,9.43999978899956,14
-21.77816,0.6833335,-35.05519,-0.0070669603016071,0.3815761441584537,-0.0241732541922843,10.64992,93.79498,359.6197,0.06100066,0.7271879,-0.07001706,9.45999978855252,14
-21.71645,0.8833334,-35.06093,0.0267343454165747,0.1885240904487247,-0.0251834695992769,14.19944,94.13567,359.5342,0.08123175,0.726883,-0.09323926,9.47999978810549,14
-21.49648,0.2833332,-35.07195,0.0584864628092027,0.0101077256734943,-0.0253977178528828,3.58168,94.67261,359.9494,0.02085385,0.7349944,-0.02327949,9.49999978765845,14
-21.43424,0.4833331,-35.07773,0.102474661862363,-0.2080343163102098,-0.0254260136415354,7.162845,95.02831,359.9209,0.04168278,0.736033,-0.046531,9.51999978721142,14
-21.37202,0.683333,-35.08351,0.076156407419738,-0.2001937622946977,-0.0204494918281525,10.74307,95.38537,359.9148,0.06246462,0.7363442,-0.06972975,9.53999978676438,14
-21.13185,0.2833333,-35.09521,0.0324613851437334,-0.1531505482311339,-0.0141263326660308,3.572909,95.67282,0.07632878,0.02141933,0.740857,-0.02266059,9.55999978631735,14
-21.06967,0.4833332,-35.09984,-0.01437116790661,-0.1202202718244896,-0.0071441377561214,7.144207,96.03945,0.1762333,0.04281494,0.7418659,-0.04528895,9.57999978587031,14
-21.0075,0.6833331,-35.10447,-0.0501128695219321,-0.154719117168142,-0.000164957114336,10.71377,96.41565,0.3002821,0.06416237,0.7421452,-0.06786653,9.59999978542328,14
-20.94535,0.883333,-35.1091,-0.0915801995599885,-0.2033305826251535,0.0076855299600495,14.28141,96.80468,0.4501688,0.08544089,0.7416951,-0.09037093,9.61999978497624,14
-20.64412,0.2833333,-35.1247,-0.1342758961260877,-0.2127393116319959,0.0153260811006603,3.608563,96.71669,0.1177193,0.02168845,0.7469228,-0.02284728,9.63999978452921,14
-20.58132,0.4833334,-35.12984,-0.1637566056813284,-0.2362612737985753,0.0221041856661017,7.21526,97.08588,0.2589136,0.04334887,0.747871,-0.04566505,9.65999978408217,14
-20.51855,0.6833334,-35.13497,-0.3798751256583337,0.3930759427426197,0.0368298088616967,10.82029,97.46743,0.4249193,0.06496067,0.7480683,-0.06843393,9.67999978363514,14
-20.45579,0.8833334,-35.1401,-0.3539904031191163,0.1310260857896751,0.0424863269115434,14.42309,97.8648,0.6179808,0.08650141,0.7475153,-0.09112766,9.6999997831881,14
-20.24615,0.2833331,-35.15033,-0.3237954514083974,-0.1163881915613265,0.0477817426105247,3.632576,97.18405,0.1239391,0.0217743,0.7496191,-0.02305675,9.71999978274107,14
-20.18297,0.4833328,-35.15592,-0.5122770094888747,0.3167602183686897,0.0629622153801463,7.263258,97.55251,0.2714496,0.0435201,0.7505305,-0.04608368,9.73999978229403,14
-20.11981,0.6833327,-35.16151,-0.5020505560628603,0.098617940035002,0.07101979835533,10.89181,97.93387,0.4441435,0.06521522,0.7506788,-0.06905691,9.759999781847,14
-19.89027,0.2833332,-35.17351,-0.4940975577372839,-0.1048883831328753,0.0797027025764691,3.588088,98.73008,0.1958894,0.02168479,0.7584662,-0.02264521,9.77999978139997,14
-19.82786,0.4833332,-35.17944,-0.4734895903124254,-0.3481204486731728,0.0882428385147875,7.173784,99.10407,0.4155481,0.04334162,0.7593526,-0.04526123,9.79999978095293,14
-19.76547,0.6833333,-35.18538,-0.4011094684523968,-0.3653703286251534,0.0923635956710171,10.75686,99.49538,0.661095,0.06494898,0.7594842,-0.0678255,9.8199997805059,14
-19.51562,0.2833333,-35.19893,-0.3290110412731781,-0.3434168389564266,0.0950593880663817,3.526818,99.7891,0.2642435,0.02158634,0.7644502,-0.02205176,9.83999978005886,14
-19.45419,0.4833332,-35.20465,-0.2424955526394203,-0.3355760416215267,0.0955417929297013,7.050833,100.168,0.5522642,0.04314571,0.7653354,-0.04407583,9.85999977961183,14
-19.39277,0.6833335,-35.21037,-0.348483448523508,0.3251236513761445,0.1032378989482722,10.57173,100.5681,0.8665821,0.06465682,0.7654836,-0.06605087,9.87999977916479,14
-19.33137,0.8833333,-35.21609,-0.2703263337182342,0.0944362161698386,0.1015787795676459,14.08895,100.9932,1.210427,0.08609833,0.7648956,-0.08795345,9.89999977871776,14
-19.12332,0.2833333,-35.22507,-0.184680531130251,-0.1216154263449347,0.0970160226796821,3.46569,99.87197,0.3008636,0.02147168,0.764922,-0.02145366,9.91999977827072,14
-19.06283,0.4833331,-35.23008,-0.3181300822134076,0.3428948993528388,0.1013516988949518,6.928044,100.2523,0.6255246,0.04291745,0.7658328,-0.04287728,9.93999977782369,14
-19.00237,0.683333,-35.23508,-0.2553651968689472,0.156114669379862,0.0974633452951323,10.38701,100.6557,0.9764069,0.06431659,0.7660299,-0.06425414,9.95999977737665,14
-18.77423,0.2833336,-35.24583,-0.1966641112096852,-0.0160297544854779,0.0929943617657116,3.41484,98.93996,0.2621069,0.02110031,0.7596818,-0.02116088,9.97999977692962,14
-18.71465,0.4833336,-35.25039,-0.1285525850317377,-0.2278997517151407,0.0875835588377995,6.826588,99.31526,0.5471442,0.04217447,0.760645,-0.04229328,9.99999977648258,14
-18.65509,0.6833336,-35.25494,-0.0156161303338162,-0.2137870085917668,0.0794097348814162,10.23537,99.71081,0.8573617,0.06320485,0.7609209,-0.0633812,10.0199997760355,14
-18.40752,0.2833334,-35.26714,0.0856739589964767,-0.1604712199250666,0.0724156309990036,3.36667,97.14839,0.1637986,0.02050761,0.7494611,-0.02108076,10.0399997755885,14
-18.34887,0.4833331,-35.27143,0.1889603998427151,-0.1212682209025242,0.066119033985764,6.730904,97.51353,0.3493844,0.04098974,0.7504995,-0.04213413,10.0599997751415,14
-18.29024,0.6833332,-35.27572,0.0942416763590738,0.5707935626207632,0.0671409318596545,10.09288,97.89256,0.5582429,0.06142994,0.7508807,-0.06314463,10.0799997746944,14
-18.23162,0.8833331,-35.28001,0.1725178286196538,0.3714683191706961,0.0607518943869038,13.45243,98.28848,0.7924432,0.08181085,0.7506051,-0.08409392,10.0999997742474,14
-18.02414,0.2833335,-35.28949,0.2484447160654408,0.1867789691200787,0.0530781688734549,3.315472,95.47691,0.05257887,0.01979459,0.7397639,-0.02110134,10.1199997738004,14
-17.96646,0.4833335,-35.29393,0.3355093067783183,-0.0376358403450748,0.0435704964285008,6.629629,95.83066,0.1256947,0.03956671,0.7408705,-0.04217904,10.1399997733533,14
-17.9088,0.6833335,-35.29836,0.1601832866750463,0.6042462119533554,0.0448480495398015,9.941931,96.19132,0.2200738,0.05929706,0.7413491,-0.06321291,10.1599997729063,14
-17.85115,0.8833333,-35.3028,0.221982046817617,0.3547412270856755,0.0364860690436472,13.25266,96.56154,0.3369464,0.07897202,0.7411997,-0.08418742,10.1799997724593,14
-17.58404,0.2833335,-35.31493,0.2730621915024436,0.1198718714769559,0.0276359774830368,3.260163,92.95273,359.9094,0.01901684,0.7248122,-0.02117036,10.1999997720122,14
-17.52731,0.4833334,-35.31927,0.3266447972587478,-0.1547231025358739,0.0178576220190294,6.519892,93.29266,359.8381,0.03801285,0.7260078,-0.04231736,10.2199997715652,14
-17.47059,0.6833334,-35.3236,0.4193531258731955,-0.2033348364021366,0.0045000845192788,9.778997,93.63092,359.7859,0.05697235,0.7266076,-0.06342302,10.2399997711182,14
-17.23473,0.2833336,-35.33405,0.4953252621877499,-0.2127432516985881,-0.0088828564655187,3.207917,90.22044,359.81,0.01857982,0.7082199,-0.02100038,10.2599997706711,14
-17.17876,0.4833336,-35.33741,0.5680624354314663,-0.2362647161624578,-0.0225983600836059,6.415976,90.55101,359.6382,0.03713972,0.7095061,-0.04197791,10.2799997702241,14
-17.12282,0.6833336,-35.34076,0.4512955864567001,0.3930722504384125,-0.0292596312684096,9.624001,90.87411,359.4839,0.05566456,0.7102266,-0.06291587,10.2999997697771,14
-16.8637,0.2833332,-35.35332,0.4916872235178928,0.1310228078166574,-0.0392675241207811,3.453028,90.82256,359.8082,0.01995927,0.7118754,-0.02263113,10.31999976933,14
-16.80345,0.4833333,-35.35736,0.5266876503939155,-0.1163908706010116,-0.0486295272674581,6.906146,91.15096,359.6359,0.03989439,0.713007,-0.04523534,10.339999768883,14
-16.74321,0.6833335,-35.3614,0.3448400782736005,0.316757950436842,-0.0484752855998209,10.35959,91.47145,359.4819,0.05978849,0.7134812,-0.06779509,10.359999768436,14
-16.68299,0.8833334,-35.36544,0.3381976506203763,0.0986156819474397,-0.0522048674179558,13.81452,91.7862,359.3458,0.07963165,0.7132973,-0.09029707,10.3799997679889,14
-16.46251,0.2833333,-35.37654,0.3189357020091954,-0.1048911547785438,-0.0537953468608449,3.549694,92.71101,359.8546,0.02045815,0.7233155,-0.02328809,10.3999997675419,14
-16.40074,0.4833332,-35.38184,0.300801490414516,-0.3481232615254553,-0.0536178360887547,7.099938,93.04193,359.7289,0.04089193,0.7243327,-0.04655503,10.4199997670949,14
-16.33898,0.6833331,-35.38713,0.3219935289134472,-0.3653724728500429,-0.0554889212426843,10.64984,93.36781,359.6228,0.06128037,0.7246459,-0.06977016,10.4399997666478,14
-16.09862,0.2833335,-35.39904,0.3275677208543239,-0.3434185112654089,-0.0554427489276605,3.581845,94.1312,359.9468,0.02094798,0.7317863,-0.0231972,10.4599997662008,14
-16.03633,0.4833337,-35.40428,0.3317300853646987,-0.3355776393578631,-0.0540346588411111,7.163176,94.46976,359.9147,0.04187136,0.7327408,-0.04636609,10.4799997657537,14
-15.97406,0.6833337,-35.40952,0.1473562255158853,0.325121501488613,-0.0448797515952534,10.74364,94.8093,359.9039,0.06274783,0.7329718,-0.0694828,10.4999997653067,14
-15.71322,0.2833333,-35.42207,0.2320537184462558,0.0944341756148642,-0.0455326455539264,3.573042,95.27251,0.07779672,0.02150861,0.7385083,-0.02257785,10.5199997648597,14
-15.651,0.4833333,-35.42626,0.3021965215761675,-0.1216174323142319,-0.0446385056047233,7.144467,95.62241,0.1780537,0.04299275,0.7394305,-0.04512386,10.5399997644126,14
-15.5888,0.6833334,-35.43044,0.1469304732119472,0.3428935575679385,-0.0336390927772356,10.71419,95.98178,0.3014333,0.06442872,0.739626,-0.0676191,10.5599997639656,14
-15.52662,0.8833334,-35.43462,-0.0181587787443362,0.7964278822412092,-0.0216154211896721,14.28203,96.35371,0.4495622,0.08579555,0.7390954,-0.09004149,10.5799997635186,14
-15.30671,0.2833333,-35.44497,-0.0097954043670398,0.3340083923843036,-0.0151694610928601,3.595847,96.23779,0.1063871,0.02163611,0.7441455,-0.02273984,10.5999997630715,14
-15.24411,0.4833333,-35.44976,-0.0046254989593812,-0.1393877888167753,-0.0085518271016624,7.189946,96.58907,0.2350547,0.04324467,0.7450185,-0.04545033,10.6199997626245,14
-15.18154,0.6833333,-35.45455,-0.1664051367942765,0.2812159154225451,0.0038550747010859,10.7824,96.95167,0.3870412,0.06480359,0.7451497,-0.06811258,10.6399997621775,14
-15.11899,0.8833333,-35.45934,-0.1301655059637418,0.0505287208349828,0.0094264788796536,14.3728,97.32885,0.5645893,0.08629239,0.7445397,-0.09070046,10.6599997617304,14
-14.83821,0.2833334,-35.47241,-0.0961892071714149,-0.1655226388961391,0.0152923056166756,3.636393,96.73684,0.1254641,0.02189617,0.7470322,-0.02298764,10.6799997612834,14
-14.77492,0.4833333,-35.47749,-0.0491405415513366,-0.4212995181529257,0.0208401357793022,7.270925,97.08875,0.2735098,0.0437639,0.7478582,-0.04594535,10.6999997608364,14
-14.71164,0.6833333,-35.48258,-0.0137393302686135,-0.4510936447730944,0.0272210538939887,10.90342,97.45345,0.4456839,0.06558074,0.7479228,-0.0688499,10.7199997603893,14
-14.46121,0.2833332,-35.49549,0.0114039607196883,-0.4416847684504332,0.0347809690065687,3.589148,98.40565,0.1982269,0.02177029,0.7566195,-0.0225774,10.7399997599423,14
-14.39875,0.4833332,-35.50105,0.0417800211583081,-0.4463889527075886,0.0427734490174245,7.175947,98.76321,0.4191701,0.04351226,0.7574204,-0.04512586,10.7599997594953,14
-14.3363,0.683333,-35.5066,-0.1221986210968708,0.2017656140828513,0.0578156313476512,10.76024,99.13803,0.6650147,0.06520509,0.7574687,-0.06762286,10.7799997590482,14
-14.27387,0.8833328,-35.51214,-0.2739158566123265,0.6984560666935067,0.0715199926277208,14.34152,99.53355,0.9381236,0.08682398,0.7567651,-0.09004598,10.7999997586012,14
-14.06565,0.2833333,-35.52113,-0.1779791597274993,0.1676305843670429,0.074442046790395,3.526727,99.55508,0.2661397,0.02164344,0.7631332,-0.02199634,10.8199997581542,14
-14.00419,0.4833334,-35.52658,-0.3060033505359847,0.3466047163710809,0.0854386544320533,7.050697,99.91719,0.5550206,0.04325968,0.7639304,-0.04396494,10.8399997577071,14
-13.94275,0.6833334,-35.53203,-0.4322588019183317,0.5427930833869751,0.0948183075994961,10.5717,100.3005,0.8692036,0.06482825,0.7639928,-0.0658849,10.8599997572601,14
-13.71431,0.2833332,-35.54197,-0.3622477118509923,0.0636109453648505,0.094905913033557,3.466356,99.41502,0.29703,0.02153531,0.7623509,-0.02139392,10.879999756813,14
-13.65379,0.4833332,-35.54657,-0.2837879418762359,-0.4260599219080436,0.0919799560033709,6.929448,99.77847,0.6168761,0.04304466,0.7631818,-0.04275736,10.899999756366,14
-13.59329,0.6833333,-35.55116,-0.3750327387790708,-0.0212420366697638,0.0940059013598997,10.38927,100.1646,0.9618526,0.06450707,0.7633021,-0.06407423,10.919999755919,14
-13.34491,0.2833332,-35.56264,-0.2514198161064698,-0.2672272877513311,0.0878346752496028,3.414964,98.61285,0.2630059,0.02116728,0.7578242,-0.02109626,10.9399997554719,14
-13.2853,0.4833332,-35.56684,-0.1249990765479722,-0.4980888993916368,0.0812204562673883,6.826862,98.97174,0.5479311,0.04230783,0.7587034,-0.04216402,10.9599997550249,14
-13.22571,0.683333,-35.57105,-0.1960959739426808,-0.0479005893506325,0.0816919191631271,10.23591,99.35075,0.8570509,0.06340472,0.7588977,-0.06318766,10.9799997545779,14
-13.16614,0.8833328,-35.57525,-0.2615934937053765,0.3917985128156367,0.0817442594025479,13.64184,99.75309,1.193164,0.08443873,0.7584075,-0.08414835,10.9999997541308,14
-12.85892,0.2833333,-35.58919,-0.1526253142711002,-0.0839685436731478,0.0777288883775568,3.361687,96.36432,0.1379242,0.02045419,0.7449237,-0.02105805,11.0199997536838,14
-12.80036,0.4833333,-35.59313,-0.2694489029228428,0.1500640777644,0.0824998562713119,6.721094,96.71038,0.2964793,0.04088291,0.7458903,-0.04208826,11.0399997532368,14
-12.74181,0.6833332,-35.59706,-0.3872092058830176,0.4013109988550447,0.0865566691271126,10.07852,97.06853,0.4769146,0.06127023,0.7462069,-0.06307605,11.0599997527897,14
-12.68328,0.883333,-35.601,-0.3126801504292391,-0.0228127189920398,0.0825753784975376,13.43379,97.4416,0.6810579,0.08159864,0.7458737,-0.08400292,11.0799997523427,14
-12.46615,0.2833334,-35.61054,-0.2335326377231705,-0.4574253923342414,0.0768258624357471,3.305521,94.74004,0.02092527,0.01966794,0.7354331,-0.02109675,11.0999997518957,14
-12.40864,0.4833334,-35.61478,-0.3255037338540152,0.0024505806384086,0.0761770368677474,6.6099,95.0743,0.06118343,0.03931362,0.7364674,-0.04216962,11.1199997514486,14
-12.35114,0.6833332,-35.61902,-0.4079652200449963,0.4518374913969104,0.0742803042996129,9.912645,95.41338,0.1211656,0.05891752,0.7368819,-0.06319927,11.1399997510016,14
-12.11485,0.2833333,-35.62952,-0.2251093325521651,-0.0142418088573033,0.0618636714635272,3.254275,92.79477,359.9181,0.01906515,0.7238622,-0.02105496,11.1599997505546,14
-12.0582,0.4833334,-35.63355,-0.0361758023912468,-0.4908101708029598,0.0480606669527006,6.507989,93.11915,359.8545,0.03810932,0.724968,-0.04208622,11.1799997501075,14
-12.00157,0.6833333,-35.63758,-0.0892050477614194,-0.0728903255934609,0.0423892866443438,9.76107,93.44218,359.8091,0.05711688,0.7254817,-0.06307724,11.1999997496605,14
-11.74686,0.2833333,-35.6486,0.0715462306889325,-0.3057733771304809,0.027616175658224,3.206399,90.09303,359.8128,0.01861108,0.707435,-0.02095308,11.2199997492135,14
-11.69092,0.4833333,-35.65179,0.2216193083960256,-0.5235330175614014,0.0123486724305053,6.412838,90.40759,359.6429,0.03720219,0.7086259,-0.04188301,11.2399997487664,14
-11.63499,0.6833333,-35.65498,0.1502020186934842,-0.0602423531679168,0.0056513694165545,9.61922,90.71468,359.4897,0.05575858,0.7092531,-0.0627735,11.2599997483194,14
-11.57908,0.8833332,-35.65817,0.0708797550999982,0.3925595392871842,-0.0005288123804731,12.82518,91.01617,359.3528,0.07426632,0.709317,-0.08360419,11.2799997478724,14
-11.52318,0.9766706,-35.66136,0.1633751683595825,-0.0701043833210514,-0.0104034850362708,16.03086,91.31374,359.2314,0.09270997,0.7088178,-0.1043626,11.2999997474253,14
-11.26047,0.2833333,-35.67262,0.2529609713309115,-0.5432570645386843,-0.0195203741721385,3.463542,90.99394,359.813,0.02001971,0.7129213,-0.02269686,11.3199997469783,14
-11.20004,0.4833333,-35.67677,0.1785529091219952,-0.1219220343001666,-0.0240015280269005,6.927129,91.30586,359.6446,0.04001511,0.7139401,-0.04536703,11.3399997465312,14
-11.13963,0.6833332,-35.68092,0.2992300722949181,-0.3513896638483607,-0.0330124124968804,10.39132,91.60995,359.4935,0.05997084,0.7142974,-0.06799494,11.3599997460842,14
-10.90965,0.2833332,-35.6917,0.4154975851055065,-0.565733805365638,-0.040201764289911,3.541374,92.68667,359.8624,0.02046278,0.7231691,-0.02318374,11.3799997456372,14
-10.84801,0.4833333,-35.69683,0.3412137647558104,-0.0990272444538951,-0.0405665778495318,7.083035,93.00186,359.7438,0.04090111,0.7240936,-0.04634453,11.3999997451901,14
-10.78639,0.6833335,-35.70196,0.2691657211551881,0.3571903711554881,-0.0402530504066831,10.62426,93.31234,359.6438,0.06129413,0.7243185,-0.06945384,11.4199997447431,14
-10.53552,0.2833334,-35.71332,0.4665807701935955,-0.1020585598247473,-0.0483209655262015,3.589653,94.13504,359.9882,0.02125807,0.7317999,-0.02300172,11.4399997442961,14
-10.47304,0.4833333,-35.71786,0.4364735354273836,0.1484916935131661,-0.0470341866636445,7.178685,94.4611,-0.002925334,0.04249314,0.7326531,-0.04597504,11.459999743849,14
-10.41058,0.6833333,-35.7224,0.3943836588381302,0.4162563115810074,-0.0447090795525753,10.76656,94.79063,0.02677743,0.06367991,0.7327805,-0.06889635,11.479999743402,14
-10.34814,0.8833333,-35.72694,0.3544209355774521,0.6489651086266784,-0.0418789779909047,14.35321,95.1264,0.07819133,0.0847982,0.7321826,-0.09174287,11.499999742955,14
-10.13977,0.2833335,-35.73454,0.4888210796698766,-0.0594042477661047,-0.043014546877437,3.553728,95.11386,0.08987362,0.02150388,0.7375768,-0.02235263,11.5199997425079,14
-10.07786,0.4833336,-35.73833,0.3361998991221471,0.1554630705109909,-0.0323219273042028,7.10561,95.44812,0.2009453,0.0429812,0.7384174,-0.04467383,11.5399997420609,14
-10.01597,0.6833335,-35.74211,0.1757650630686642,0.3875448116254371,-0.0210463256266706,10.6558,95.79229,0.3341566,0.06441127,0.7385406,-0.06694528,11.5599997416139,14
-9.785141,0.2833333,-35.75219,0.2013144831269295,-0.0557438429655771,-0.0157368665745138,3.623978,95.90085,0.1106269,0.02189468,0.7421736,-0.02283357,11.5799997411668,14
-9.722017,0.4833333,-35.7566,0.2242066237276887,-0.5095211821160471,-0.010634059123582,7.246211,96.23633,0.242682,0.04376092,0.7429442,-0.04563753,11.5999997407198,14
-9.658916,0.6833334,-35.76101,0.0688904470392346,-0.0688106290414013,0.0004417558177962,10.86718,96.58333,0.3974081,0.06557929,0.742964,-0.06839401,11.6199997402728,14
-9.595832,0.8833333,-35.76541,0.1208710198198188,-0.2789031942532642,0.0051697137643884,14.48613,96.94505,0.5768898,0.08732539,0.7422337,-0.09107523,11.6399997398257,14
-9.305047,0.2833334,-35.7781,0.1683501481910143,-0.4738719973623188,0.0105945251984636,3.629281,96.5881,0.1358621,0.02195243,0.7461691,-0.02285255,11.6599997393787,14
-9.241852,0.4833333,-35.78283,0.0119261878956624,0.0122093890093616,0.0236347804877894,7.256693,96.92471,0.2933393,0.04387669,0.74691,-0.04567532,11.6799997389317,14
-9.178675,0.6833332,-35.78756,-0.1422832558238287,0.4878017547219794,0.0368106255718245,10.88204,97.27454,0.4739984,0.06575001,0.7468939,-0.06844535,11.6999997384846,14
-8.917863,0.2833333,-35.80013,-0.0137503262514684,0.0479282690432338,0.0408847922486828,3.574492,98.385,0.2192441,0.02182958,0.7565009,-0.02235691,11.7199997380376,14
-8.855597,0.4833331,-35.80527,-0.1231604757975253,0.3178538492027325,0.0540048298137207,7.146601,98.72823,0.4603198,0.04363155,0.7572191,-0.04468511,11.7399997375906,14
-8.793348,0.6833329,-35.81041,-0.2437039361425252,0.6049939952466397,0.0670683803427252,10.71611,99.08979,0.7254003,0.06538401,0.7571911,-0.06696294,11.7599997371435,14
-8.731116,0.883333,-35.81554,-0.3606772136974348,0.8570780417534871,0.0793193242617462,14.28249,99.47299,1.017004,0.08706232,0.7564178,-0.08916774,11.7799997366965,14
-8.512674,0.2833332,-35.8244,-0.2830286642922752,0.1680832155791807,0.0832910580932377,3.511545,99.2617,0.2765157,0.02168287,0.7614794,-0.02178133,11.7999997362494,14
-8.451422,0.4833331,-35.82932,-0.1886300282050612,-0.4300120600347021,0.0844159028061142,7.020365,99.60851,0.5747846,0.04333896,0.7622032,-0.04353525,11.8199997358024,14
-8.390184,0.6833329,-35.83424,-0.3107679457814285,-0.034498227854509,0.0917592436257592,10.52587,99.97684,0.8973901,0.06494566,0.7622004,-0.06523867,11.8399997353554,14
-8.151708,0.2833334,-35.84397,-0.2297216401764856,-0.2902751726237134,0.0906707095183705,3.452363,99.02286,0.2985744,0.0215394,0.7601368,-0.02121852,11.8599997349083,14
-8.091393,0.4833333,-35.84809,-0.1449388905019324,-0.5314162658099024,0.0873457714154426,6.901481,99.37023,0.618858,0.04305231,0.7608964,-0.04240677,11.8799997344613,14
-8.031095,0.6833334,-35.85222,-0.2457483922417074,-0.0919947583099444,0.0893454159756785,10.34753,99.74003,0.9631723,0.06451916,0.7609537,-0.06354988,11.8999997340143,14
-7.970814,0.8833334,-35.85634,-0.3393032780567502,0.3364496893384956,0.0904040687546228,13.79026,100.1356,1.334707,0.08592071,0.7603093,-0.08462842,11.9199997335672,14
-7.6729,0.2833333,-35.86851,-0.1576429991411716,-0.1510605246745466,0.0831910558281876,3.40165,97.34498,0.2066787,0.02095376,0.7505798,-0.02109804,11.9399997331202,14
-7.613568,0.4833332,-35.87235,-0.1994921672554932,0.0707406624766591,0.0839905686666711,6.800672,97.68237,0.4338251,0.04188126,0.7514096,-0.0421679,11.9599997326732,14
-7.554253,0.6833331,-35.87619,-0.250513978882954,0.3092686435965407,0.0850939040501046,10.19729,98.03611,0.6831993,0.0627653,0.7515684,-0.06319426,11.9799997322261,14
-7.494956,0.8833331,-35.88003,-0.2973944134951898,0.5122526465446011,0.0860523106348694,13.5913,98.40915,0.9571731,0.08358754,0.7510566,-0.08415815,11.9999997317791,14
-7.28751,0.2833335,-35.88754,-0.1707740884421174,-0.226330008433218,0.0824741043159704,3.343009,95.72181,0.1181676,0.02033484,0.7411821,-0.02093785,12.0199997313321,14
-7.229262,0.4833335,-35.89114,-0.2076082087376032,-0.0421636693576732,0.0818683235421389,6.683918,96.04975,0.2557588,0.0406446,0.7420821,-0.04184835,12.039999730885,14
-7.17103,0.6833335,-35.89474,-0.2381849793588175,0.1587290896907965,0.0796730390423974,10.02301,96.38834,0.4138814,0.06091365,0.7423434,-0.0627168,12.059999730438,14
-6.944198,0.2833333,-35.90393,-0.0688162759994313,-0.3162360188489991,0.0701813962313906,3.291764,93.83997,359.9861,0.01952924,0.7301016,-0.02106141,12.079999729991,14
-6.886906,0.4833333,-35.90787,-0.0892169933255782,-0.0818897560187529,0.0660205127197102,6.582578,94.1553,359.9903,0.03903643,0.7310728,-0.04209905,12.0999997295439,14
-6.829628,0.6833332,-35.9118,-0.107339593889812,0.1691830591160114,0.0607486187662118,9.872006,94.47316,0.01276033,0.05850228,0.7314343,-0.06309429,12.1199997290969,14
-6.584007,0.2833332,-35.92152,0.0899991053053623,-0.2556025258872259,0.0472746834737307,3.241515,91.76624,359.8975,0.01904717,0.7176514,-0.02092788,12.1399997286499,14
-6.527529,0.4833331,-35.92488,0.2913180523325964,-0.6913648275858482,0.0322146333288415,6.482587,92.07303,359.8123,0.03807387,0.7186943,-0.04183226,12.1599997282028,14
-6.471066,0.683333,-35.92825,0.2373975514761825,-0.2331266971812864,0.0251595210081205,9.723093,92.37711,359.744,0.05706404,0.7191551,-0.06269666,12.1799997277558,14
-6.414618,0.883333,-35.93162,0.1840505769824139,0.2141346092861528,0.0173508416583345,12.96264,92.68044,359.6929,0.07600231,0.7190344,-0.0835008,12.1999997273088,14
-6.108843,0.2833333,-35.94311,0.4083583607635055,-0.2545581508948478,-0.0002476665402468,3.268982,89.33489,359.7933,0.01901822,0.7027402,-0.02133399,12.2199997268617,14
-6.05175,0.4833332,-35.9459,0.3890840283890227,-0.0139398203986404,-0.0088555451053551,6.538065,89.63141,359.6033,0.0380154,0.7038177,-0.04264414,12.2399997264147,14
-5.994674,0.6833333,-35.94868,0.3515604874776721,0.2434051269562117,-0.0166120236038338,9.80711,89.91908,359.4289,0.05697602,0.7043138,-0.0639126,12.2599997259676,14
-5.937616,0.8833333,-35.95146,0.3092606854087592,0.4652063047858367,-0.0237021310546552,13.07639,90.19961,359.2697,0.07588808,0.7042285,-0.08512303,12.2799997255206,14
-5.715351,0.2833332,-35.96053,0.4424040617722999,-0.2545587537484721,-0.033128592495693,3.530689,91.01231,359.8225,0.02048579,0.7130197,-0.02305966,12.2999997250736,14
-5.653747,0.4833333,-35.96456,0.3890690528775526,-0.0515746623760707,-0.036942173080142,7.061289,91.30911,359.6631,0.04094644,0.7139047,-0.04609073,12.3199997246265,14
-5.592174,0.6833332,-35.96859,0.3307280189312793,0.1681360197197019,-0.0396252375978036,10.59367,91.5984,359.5203,0.06137116,0.7141027,-0.06908669,12.3399997241795,14
-5.352111,0.2833334,-35.97881,0.4703382897449297,-0.2880111797115989,-0.045837757438754,3.563631,92.62226,359.8825,0.0207367,0.7227733,-0.02319151,12.3599997237325,14
-5.290073,0.4833334,-35.98354,0.3959528450009393,-0.0348475136646259,-0.0445226218053989,7.127073,92.92361,359.7833,0.04144687,0.7235934,-0.04635723,12.3799997232854,14
-5.228052,0.6833335,-35.98827,0.3116611108906961,0.2350427180158559,-0.0421020948137425,10.68996,93.22133,359.7022,0.06211078,0.7237066,-0.06947103,12.3999997228384,14
-5.166049,0.8833334,-35.993,0.2314378459678483,0.4693889694336982,-0.0390086803797729,14.2522,93.51766,359.6391,0.08270825,0.7231135,-0.09251068,12.4199997223914,14
-4.865366,0.2833332,-36.00438,0.4229250126777399,-0.2378314530168574,-0.042748812136466,3.587495,94.3113,0.04722084,0.02158742,0.7328356,-0.02267043,12.4399997219443,14
-4.802871,0.4833332,-36.00809,0.3297144015827302,-0.0223023242971521,-0.0358019521151788,7.173853,94.62698,0.1147334,0.04315126,0.7335915,-0.04531078,12.4599997214973,14
-4.740393,0.6833333,-36.01179,0.2206275845626857,0.2099533567270736,-0.0275709616057824,10.75875,94.94981,0.203047,0.06466683,0.7336221,-0.06789946,12.4799997210503,14
-4.677933,0.8833333,-36.0155,0.1098905437376218,0.4066651791047933,-0.0185763855460194,14.34206,95.28252,0.3133231,0.08611216,0.732928,-0.09041494,12.4999997206032,14
-4.469275,0.2833334,-36.02292,0.1700770833751941,-0.3381898555070283,-0.0129199546136646,3.567111,95.17413,0.09093726,0.02157771,0.7379286,-0.02244388,12.5199997201562,14
-4.407136,0.4833333,-36.02679,0.0591143409486993,-0.1602959878874097,-0.0028086967579099,7.132551,95.49259,0.2017616,0.04312689,0.7386665,-0.04485943,12.5399997197092,14
-4.345015,0.6833333,-36.03065,-0.0492880612313866,0.0343244213212684,0.0070720828398833,10.69628,95.82088,0.3338106,0.06462807,0.7386823,-0.06722449,12.5599997192621,14
-4.114011,0.2833335,-36.03937,0.0395096238803462,-0.4469133551245841,0.0116115096411562,3.64611,95.68588,0.1180885,0.02211527,0.7409102,-0.02289188,12.5799997188151,14
-4.050472,0.4833334,-36.04345,-0.0650782211270657,-0.2188396257779803,0.022023096627052,7.290505,96.00632,0.2568363,0.04420211,0.7415809,-0.04575383,12.5999997183681,14
-3.98695,0.6833334,-36.04753,-0.1673972430755272,0.0259607764438691,0.0322534093617861,10.93301,96.3387,0.4176904,0.06623765,0.7414941,-0.06856255,12.619999717921,14
-3.735965,0.2833333,-36.05789,-0.2527090647563598,0.2352171999711917,0.041875458471722,3.618479,96.5079,0.1414348,0.02194195,0.7457048,-0.02273451,12.639999717474,14
-3.672947,0.4833333,-36.06243,-0.2880314677379163,0.2231950941477294,0.0520341344239767,7.235052,96.8295,0.3034091,0.04385515,0.7463651,-0.04543964,12.6599997170269,14
-3.609948,0.6833333,-36.06697,-0.3321584115488581,0.2566483698556922,0.0625935512241468,10.84959,97.16443,0.4876013,0.06571793,0.7462742,-0.06809245,12.6799997165799,14
-3.546965,0.8833332,-36.0715,-0.369930417971227,0.2822610985175491,0.0729338237626961,14.46182,97.51576,0.6959166,0.08750644,0.7454327,-0.09067086,12.6999997161329,14
-3.2365,0.2833332,-36.08424,-0.1697445775393081,-0.3935966291598859,0.0758755316504036,3.550663,98.62617,0.25676,0.0218951,0.7578722,-0.02203184,12.7199997156858,14
-3.174573,0.4833331,-36.08893,-0.2535881839804892,-0.1467054381406596,0.087391386178119,7.098793,98.95702,0.5345262,0.04376297,0.7585083,-0.04403547,12.7399997152388,14
-3.112665,0.6833329,-36.09363,-0.3418068309748828,0.1169122319172061,0.0975480932732111,10.64416,99.30824,0.8356827,0.06558171,0.7584065,-0.06598993,12.7599997147918,14
-3.050771,0.8833328,-36.09832,-0.4201095148932109,0.3449858484465495,0.1057072204944162,14.18614,99.68311,1.163107,0.08732734,0.7575676,-0.087872,12.7799997143447,14
-2.832645,0.2833333,-36.10563,-0.3035186411997996,-0.3685070559140418,0.1060100760343161,3.483267,98.91859,0.29375,0.02170192,0.7595402,-0.02143114,12.7999997138977,14
-2.771808,0.4833333,-36.10982,-0.3654318701082581,-0.1592503761739292,0.1099740302661587,6.963785,99.25106,0.6082293,0.0433773,0.7602012,-0.04283552,12.8199997134507,14
-2.710984,0.6833332,-36.11401,-0.420887507016177,0.0667326487051102,0.1118913922762487,10.44091,99.60575,0.9462494,0.06500464,0.7601492,-0.06418951,12.8399997130036,14
-2.472866,0.2833332,-36.12231,-0.2658885449698753,-0.3831422539410021,0.1070696871065592,3.427443,98.25623,0.2801704,0.02141726,0.7557864,-0.02101463,12.8599997125566,14
-2.412978,0.4833333,-36.1259,-0.313898182926697,-0.1237062042526193,0.1076088577820968,6.851818,98.58607,0.5806923,0.0428075,0.7564932,-0.04200004,12.8799997121096,14
-2.353106,0.6833332,-36.12948,-0.3615437064598142,0.1524564045354575,0.1074271218076532,10.27339,98.93683,0.9038826,0.06415322,0.7565129,-0.06294119,12.8999997116625,14
-2.293253,0.8833333,-36.13306,-0.3954139984953989,0.3930746930409922,0.1063057008154331,13.69187,99.31158,1.252622,0.08543473,0.7558463,-0.08381914,12.9199997112155,14
-1.995725,0.2833334,-36.14325,-0.1482135220668541,-0.3078734469987777,0.0985659314678812,3.376462,96.05864,0.1640617,0.02076597,0.7431355,-0.02094675,12.9399997107685,14
-1.936837,0.4833335,-36.14646,-0.1776031671324852,-0.086072004505957,0.0991673737864502,6.750556,96.37652,0.3472364,0.04150596,0.7439241,-0.04186545,12.9599997103214,14
-1.877964,0.6833334,-36.14967,-0.2160307571467619,0.1524561278500361,0.0994622667800655,10.12264,96.70782,0.550958,0.06220401,0.7440596,-0.06274164,12.9799997098744,14
-1.819109,0.8833334,-36.15289,-0.2501142342357622,0.3554400589260967,0.0989802190987205,13.4925,97.05522,0.7771291,0.08284155,0.7435424,-0.08355698,12.9999997094274,14
-1.611897,0.2833333,-36.15948,-0.1086545385723398,-0.3831427709838146,0.0936383697320693,3.318422,94.34588,0.05113233,0.02001013,0.7330926,-0.02093239,13.0199997089803,14
-1.554097,0.4833333,-36.16283,-0.1293099788210572,-0.19897636360809,0.0908435943472838,6.635538,94.65236,0.1200721,0.0399972,0.7339506,-0.04184103,13.0399997085333,14
-1.49631,0.6833333,-36.16618,-0.1424502140211445,0.0019166141054938,0.0864752490410722,9.950848,94.96516,0.2074619,0.05994162,0.7341873,-0.06270608,13.0599997080863,14
-1.269743,0.2833333,-36.17384,0.0434987360726359,-0.4730484445159287,0.0763689568870447,3.266903,92.54563,359.937,0.01930663,0.7223563,-0.02097866,13.0799997076392,14
-1.212846,0.4833333,-36.17732,0.0396791762777006,-0.2387024472200559,0.0700597278254449,6.533118,92.84127,359.8909,0.03859173,0.7232803,-0.04193389,13.0999997071922,14
-1.155963,0.6833334,-36.18081,0.0378745958968709,0.0123702122356023,0.0623180593147623,9.798253,93.13638,359.8613,0.05783722,0.7236105,-0.06284709,13.1199997067451,14
-1.099095,0.8833333,-36.18428,0.051172427000246,0.2278988812358605,0.0528678321991478,13.06255,93.43286,359.8487,0.07703012,0.7233472,-0.08370245,13.1399997062981,14
-0.813266,0.2833334,-36.19278,0.1092302504721143,0.2221490080790504,0.0432214075916164,3.211236,89.01023,359.7971,0.0187427,0.7007321,-0.02090314,13.1599997058511,14
-0.7571837,0.4833333,-36.1952,0.1532460018001715,0.261874502601969,0.0330578966139611,6.422506,89.29289,359.6099,0.03746534,0.7017582,-0.0417832,13.179999705404,14
-0.7011176,0.6833332,-36.19761,0.1967018358202314,0.2937591950856391,0.0222192331369655,9.633716,89.56687,359.4373,0.05615278,0.7022254,-0.06262405,13.199999704957,14
-0.4422535,0.2833334,-36.20615,0.4637471661439003,-0.3758263723198499,0.0056818257211261,3.453469,89.5927,359.8031,0.02017259,0.7043048,-0.02244969,13.21999970451,14
-0.3819155,0.4833333,-36.209,0.4336923796254683,-0.1226626922469463,-0.0011375725751889,6.906967,89.87394,359.6229,0.04032137,0.7051823,-0.04487284,13.2399997040629,14
-0.3215955,0.6833331,-36.21186,0.3852536472035741,0.1472276894500032,-0.0069756000939591,10.36073,90.14642,359.4582,0.06042958,0.7054114,-0.06725158,13.2599997036159,14
-0.2613048,0.8833331,-36.21471,0.3319294704558926,0.3815743618199688,-0.011950998090576,13.81584,90.41192,359.3083,0.08048611,0.7049912,-0.08957244,13.2799997031689,14
-0.04112589,0.2833333,-36.22245,0.4544268694909337,-0.325645552909356,-0.0176747970440871,3.549837,91.45636,359.8516,0.02069416,0.71572,-0.02308174,13.2999997027218,14
0.02075105,0.4833334,-36.22646,0.3904099302623591,-0.1101167474829755,-0.0187831416881394,7.100103,91.74046,359.72,0.04136352,0.7164906,-0.04614247,13.3199997022748,14
0.08261082,0.6833333,-36.23048,0.321473880992094,0.1221386447464897,-0.0188917773050363,10.65,92.01877,359.6051,0.06198771,0.7165665,-0.06915175,13.3399997018278,14
0.322913,0.2833334,-36.2386,0.2613732496161298,0.3188500912118698,-0.0182589116767886,3.581825,92.87864,359.9447,0.02118721,0.7243013,-0.02297903,13.3599997013807,14
0.3852984,0.4833333,-36.24254,0.2429803426768204,0.2942831469305274,-0.0160360457525854,7.163133,93.17062,359.9077,0.0423495,0.7250141,-0.0459303,13.3799997009337,14
0.4476658,0.6833333,-36.24648,0.2086495414041618,0.31519136211791,-0.0129259395910779,10.74355,93.46282,359.8888,0.06346412,0.7250127,-0.0688297,13.3999997004867,14
0.5100156,0.8833331,-36.25042,0.17259679458695,0.3282591267854616,-0.0093081818929547,14.32301,93.75762,359.8885,0.08451062,0.7242978,-0.09165496,13.4199997000396,14
0.8102406,0.2833333,-36.25948,0.3491779139257853,-0.3601438162204876,-0.0092202367003721,3.564219,94.16644,0.08086741,0.02169274,0.7319741,-0.02229459,13.4399996995926,14
0.8723756,0.4833333,-36.26242,0.2420218386596309,-0.1257976270917117,-0.0006587918030191,7.126833,94.47005,0.1812635,0.0433606,0.7326581,-0.04455749,13.4599996991456,14
0.9344925,0.6833334,-36.26536,0.120001372772216,0.1252750133723135,0.0084843284348536,10.68782,94.78268,0.3017625,0.06497978,0.7326274,-0.06677062,13.4799996986985,14
0.9965922,0.8833333,-36.2683,-0.0026677997851041,0.3408036782780472,0.0177806187942479,14.24709,95.10707,0.4439481,0.08653007,0.7318827,-0.08891228,13.4999996982515,14
1.206552,0.2833333,-36.27465,0.0474019262475011,-0.3852341936486708,0.0242013409293306,3.626601,95.11346,0.110264,0.02206415,0.7375555,-0.0227016,13.5199996978045,14
1.269773,0.4833333,-36.27822,-0.0729110565538051,-0.1885226046589376,0.0337965926729779,7.251534,95.41885,0.2400656,0.0440997,0.7381704,-0.04537382,13.5399996973574,14
1.332973,0.6833332,-36.28178,-0.1896936836888891,0.0249154453360985,0.0427712275196725,10.87525,95.73537,0.390588,0.06608666,0.7380394,-0.06799863,13.5599996969104,14
1.563205,0.2833333,-36.28891,-0.1081489425936568,-0.4375044368983677,0.0487929598700063,3.638441,95.39133,0.1168744,0.02212119,0.7391853,-0.02279261,13.5799996964633,14
1.626614,0.4833333,-36.29268,-0.2192198653430708,-0.1906129318202805,0.0595648477253476,7.275156,95.69653,0.253356,0.04421347,0.7397807,-0.0455554,13.5999996960163,14
1.690005,0.6833333,-36.29645,-0.3271571867738734,0.0730051153695706,0.0702243539080953,10.91005,96.01336,0.4108876,0.06625471,0.739624,-0.06826544,13.6199996955693,14
1.753377,0.8833333,-36.30022,-0.4172627536044233,0.3010790402951308,0.0804104370496077,14.54311,96.34473,0.5912601,0.08822264,0.7387161,-0.09090123,13.6399996951222,14
2.043149,0.2833333,-36.30938,-0.2288054350660253,-0.4124139296649939,0.08618903295811,3.581282,97.45045,0.2208828,0.02206098,0.7511466,-0.02221322,13.6599996946752,14
2.105611,0.4833333,-36.3135,-0.2968127542143453,-0.2031576628621905,0.0979061726443148,7.160277,97.76406,0.4618154,0.04409409,0.7517154,-0.0443976,13.6799996942282,14
2.168054,0.6833331,-36.31762,-0.3613902116531067,0.0228253871938292,0.1084868896917399,10.73684,98.09575,0.7249297,0.06607728,0.7515418,-0.066532,13.6999996937811,14
2.427883,0.2833334,-36.32629,-0.1910502278221688,-0.4270496118914415,0.1123102884270679,3.514028,98.20951,0.2742234,0.02188102,0.7555022,-0.02161079,13.7199996933341,14
2.489251,0.4833333,-36.33015,-0.2523720707422656,-0.1676136602103308,0.120632604290968,7.025494,98.5267,0.568395,0.043735,0.7560859,-0.04319437,13.7399996928871,14
2.550604,0.6833333,-36.33401,-0.3199275405412587,0.1085488623313462,0.1270207618762171,10.53384,98.86494,0.8851106,0.06553966,0.755949,-0.06472759,13.75999969244,14
2.61194,0.8833333,-36.33786,-0.3801081610275227,0.349167556543432,0.131114678107501,14.03913,99.22737,1.227257,0.08727511,0.7550925,-0.08619265,13.779999691993,14
2.829944,0.2833333,-36.34308,-0.2506971214709734,-0.3517801372801158,0.1298643492385878,3.452699,98.14238,0.3003526,0.02171543,0.7551269,-0.02104444,13.799999691546,14
2.890325,0.4833332,-36.34626,-0.2982787897377443,-0.1299788062106747,0.130935843148265,6.902278,98.4603,0.6206204,0.04340385,0.7557414,-0.0420588,13.8199996910989,14
2.950688,0.6833332,-36.34945,-0.3405810020102278,0.1085488699976919,0.1302335883711336,10.34899,98.8004,0.9630938,0.06504585,0.7556593,-0.06302882,13.8399996906519,14
3.011034,0.8833331,-36.35263,-0.3642457493605899,0.3115325850221647,0.1276799805709956,13.79258,99.16578,1.330933,0.08662198,0.7548813,-0.08393478,13.8599996902049,14
3.288728,0.2833333,-36.35939,-0.3376514920640998,0.2932378800284114,0.1267548180530227,3.40197,96.31451,0.2040206,0.02112723,0.7446138,-0.02092631,13.8799996897578,14
3.348119,0.4833332,-36.36223,-0.3184300492054444,0.3204185314762204,0.1255932010115401,6.801414,96.62217,0.4267409,0.04222782,0.7452998,-0.0418245,13.8999996893108,14
3.407493,0.6833332,-36.36506,-0.2931422250192126,0.3397585964136606,0.1239660537809825,10.19861,96.94569,0.6698992,0.06328485,0.7453213,-0.06267939,13.9199996888638,14
3.654384,0.2833333,-36.37132,-0.0481429715297645,-0.3423718221688742,0.1189524111687276,3.343528,94.58022,0.1149969,0.02052516,0.7344645,-0.02075632,13.9399996884167,14
3.712696,0.4833332,-36.37383,-0.0800998799535586,-0.1017532035748443,0.1194564908847866,6.684978,94.87881,0.2476789,0.0410245,0.7352225,-0.04148527,13.9599996879697,14
3.770991,0.6833332,-36.37634,-0.1216907725951355,0.1555919986860343,0.1186182978428149,10.02473,95.18752,0.3991545,0.06148314,0.7353485,-0.06217252,13.9799996875226,14
3.829269,0.8833331,-36.37884,-0.1596563533993515,0.3773931186695884,0.1161236076589702,13.36267,95.50874,0.5708603,0.08188315,0.7348431,-0.08280067,13.9999996870756,14
4.036676,0.2833333,-36.38378,-0.0226749111853576,-0.342372297656601,0.1107643173536203,3.291614,92.85857,359.9874,0.01971623,0.7242275,-0.0208846,14.0199996866286,14
4.094025,0.4833333,-36.38673,-0.0504637634461913,-0.139388358739959,0.1070515056686929,6.582285,93.14473,359.9913,0.0394103,0.7250484,-0.04174574,14.0399996861815,14
4.15136,0.6833332,-36.38967,-0.0735101082541254,0.0803219355083673,0.1018532173548507,9.871577,93.43318,0.01160643,0.05906262,0.7252659,-0.06256492,14.0599996857345,14
4.377648,0.2833334,-36.39447,-0.0788762277063011,0.2644885055326045,0.0949741522309466,3.241356,90.66754,359.8954,0.01923312,0.7109473,-0.02075602,14.0799996852875,14
4.434177,0.4833335,-36.3968,-0.0348751091166734,0.2273764400097341,0.0889950900690692,6.48221,90.94497,359.8065,0.03844503,0.7118394,-0.04148897,14.0999996848404,14
4.49069,0.6833335,-36.39914,0.0023717716384856,0.2357396354475596,0.0815715052505225,9.722508,91.21926,359.7327,0.0576205,0.7121561,-0.06218231,14.1199996843934,14
4.547189,0.8833335,-36.40147,0.0460641333436369,0.2362622550904824,0.0726278668372941,12.96188,91.49217,359.6743,0.07674416,0.711898,-0.08281578,14.1399996839464,14
4.834214,0.2833333,-36.40711,0.2977197018119009,-0.4646857319708225,0.0612386551292942,3.268512,88.13663,359.7904,0.01921998,0.6952689,-0.021149,14.1599996834993,14
4.891345,0.4833333,-36.40876,0.2867539224667501,-0.2428844725991469,0.0547840006986888,6.537034,88.40382,359.5959,0.03841849,0.6961948,-0.04227456,14.1799996830523,14
4.94846,0.6833334,-36.41041,0.2689204442277937,-0.0043565270232376,0.0478891063112598,9.805456,88.6617,359.4152,0.05758015,0.6965467,-0.06335888,14.1999996826053,14
5.208662,0.2833334,-36.41677,0.4680308570430771,-0.4416863946742211,0.0399338690639936,3.530816,89.73724,359.8197,0.02072469,0.7051822,-0.02284835,14.2199996821582,14
5.270343,0.4833333,-36.4195,0.423386560717832,-0.1697051017797008,0.0378159275477472,7.061512,90.00509,359.6557,0.04142379,0.7059237,-0.045669,14.2399996817112,14
5.331993,0.6833332,-36.42222,0.3602270832838501,0.1190027198975944,0.0363339443334851,10.59393,90.26488,359.5064,0.06208705,0.7059868,-0.06845453,14.2599996812642,14
5.393624,0.8833331,-36.42494,0.2920082404491344,0.3721665393586174,0.0354049834893999,14.12607,90.51844,359.3716,0.08268545,0.7053726,-0.09116875,14.2799996808171,14
5.613205,0.2833334,-36.43016,0.2321912370148977,0.4236859864407899,0.0349539496651658,3.563445,91.48184,359.8835,0.02097109,0.7158668,-0.02297722,14.2999996803701,14
5.675322,0.4833333,-36.43365,0.2161213896274318,0.3558033864341685,0.0386285428696453,7.126651,91.75439,359.7834,0.04191562,0.7165419,-0.04592882,14.3199996799231,14
5.737421,0.6833332,-36.43715,0.1885855285485442,0.333884155403583,0.0424648524297097,10.68928,92.02298,359.6996,0.06281333,0.7165183,-0.06882937,14.339999679476,14
5.799502,0.8833331,-36.44064,0.1635104549777111,0.3046122308717974,0.0462801492305899,14.25123,92.28965,359.6318,0.08364383,0.7157965,-0.09165645,14.359999679029,14
6.079422,0.2833334,-36.44539,0.3178605421823732,-0.4256424036961175,0.0517014498262966,3.587398,93.04662,0.04444886,0.02181817,0.7252904,-0.02244683,14.379999678582,14
6.14198,0.4833333,-36.44778,0.2209458973693774,-0.2326600141655583,0.0610483119384497,7.173728,93.33328,0.1074644,0.04361325,0.7259079,-0.0448634,14.3999996781349,14
6.20452,0.6833333,-36.45017,0.1195647161595339,-0.0224631602425637,0.069928642009458,10.75866,93.6265,0.1893232,0.06535912,0.7258087,-0.0672292,14.4199996776879,14
6.454638,0.2833333,-36.45509,0.1975705120918185,-0.4876364480772966,0.0819052004122085,3.567504,93.79609,0.08748435,0.0218264,0.7297687,-0.02220585,14.4399996772408,14
6.516854,0.4833332,-36.45753,0.0522787065451364,-0.2430106648467304,0.0986932973636314,7.13338,94.08585,0.1932109,0.04362475,0.7303744,-0.04438268,14.4599996767938,14
6.579052,0.6833332,-36.45998,-0.1011184973291889,0.0188296900180066,0.1158269548905579,10.69765,94.38486,0.3182368,0.0653742,0.7302668,-0.06650999,14.4799996763468,14
6.641232,0.8833332,-36.46243,-0.2486619707418107,0.2456139649471392,0.1328693741803093,14.26017,94.69572,0.4640564,0.08705336,0.7294468,-0.08856638,14.4999996758997,14
6.851501,0.2833333,-36.46572,-0.1617518708528837,-0.4686805059616985,0.203119994021975,3.645864,94.44118,0.1188713,0.02236617,0.7335798,-0.0226441,14.5199996754527,14
6.91511,0.4833333,-36.46843,-0.2472671991903414,-0.2597380568775626,0.2748528061598918,7.290052,94.73311,0.2565812,0.04470343,0.7341153,-0.0452585,14.5399996750057,14
6.978701,0.6833331,-36.47113,-0.3305602557453788,-0.0335813547482318,0.345186057021877,10.93246,95.03664,0.414543,0.06698902,0.733902,-0.06782045,14.5599996745586,14
7.042268,0.8833332,-36.47384,-0.3971052162550137,0.1575193069097556,0.4133523017491498,14.57362,95.35462,0.5945266,0.08920339,0.7329403,-0.09031195,14.5799996741116,14
7.31129,0.2833333,-36.47799,-0.5229569421413895,0.1278293486913447,0.5664027062360475,3.60989,95.61141,0.1703314,0.02225555,0.7404717,-0.02233737,14.5999996736646,14
7.374267,0.4833332,-36.48104,-0.6412587348469021,0.1441026260719636,0.712933841186441,7.217812,95.90696,0.3595911,0.0444823,0.7409927,-0.04464582,14.6199996732175,14
7.437226,0.6833332,-36.48409,-0.7374391945489744,0.1530231683962954,0.8517981154883003,10.82362,96.21729,0.5695733,0.06665784,0.7407719,-0.0669032,14.6399996727705,14
7.676625,0.2833333,-36.48794,-0.7969304827914439,0.1012750183380126,0.9818955042260598,3.54511,96.93859,0.2477545,0.02212627,0.7481962,-0.02172284,14.6599996723235,14
7.738548,0.4833332,-36.49097,-0.9338380754366876,0.0421744779476902,1.2565061409335885,7.087868,97.24017,0.5146258,0.04422488,0.7487169,-0.04341808,14.6799996718764,14
7.800452,0.6833333,-36.494,-1.0541312748645488,0.0290371705428704,1.5131315283889606,10.62806,97.56115,0.8029065,0.06627393,0.7485127,-0.06506491,14.6999996714294,14
8.059695,0.2833334,-36.49762,-1.1440049029805677,0.0085470203173222,1.7502441208859807,3.482273,97.08913,0.2879363,0.02199754,0.749072,-0.02110902,14.7199996709824,14
8.120605,0.4833336,-36.49998,-1.323899819147366,0.0073620054115053,2.135480923880138,6.961945,97.39307,0.594818,0.04396779,0.7496201,-0.04219169,14.7399996705353,14
8.181502,0.6833335,-36.50233,-1.4945750091073329,0.0521401301011497,2.4883022091432,10.43849,97.71854,0.9235084,0.06589033,0.7494668,-0.06322455,14.7599996700883,14
8.242381,0.8833335,-36.50469,-1.643131045745518,0.0895654770468942,2.807656162625776,13.91206,98.06853,1.276713,0.08774492,0.7486126,-0.08419237,14.7799996696413,14
8.303243,0.9766704,-36.50705,-1.7567306629509378,0.0663223418247356,3.092687995387962,17.38238,98.44661,1.658094,0.1095118,0.747059,-0.1050754,14.7999996691942,14
8.560847,0.2833333,-36.50748,-1.947818342434985,0.0357266396832121,3.4963736699480847,3.423917,96.27731,0.2670515,0.02167121,0.7443811,-0.02069511,14.8199996687472,14
8.620737,0.4833333,-36.50923,-2.1121252715927614,0.051094179674534,3.8549140323921303,6.844978,96.57751,0.552689,0.04331539,0.744976,-0.04136117,14.8399996683002,14
8.680611,0.6833333,-36.51098,-2.237090314794401,0.0591089249340334,4.167975404981696,10.26349,96.89745,0.8590115,0.06491447,0.7448971,-0.06198401,14.8599996678531,14
8.893241,0.2833333,-36.51102,-2.3101990575658675,0.0064551715604042,4.435437399939403,3.36957,94.3584,0.16151,0.02101729,0.7331372,-0.02060738,14.8799996674061,14
8.952075,0.4833333,-36.51254,-2.477256777315665,-0.0535511646751079,4.849589702369883,6.736874,94.64795,0.3403417,0.0420078,0.7338066,-0.04118768,14.899999666959,14
9.010893,0.6833332,-36.51405,-2.6154650449478645,-0.0675942741975829,5.199643767537268,10.10227,94.95042,0.5379792,0.06295611,0.7338355,-0.06172605,14.919999666512,14
9.228998,0.2833333,-36.51201,-2.712639117189285,-0.0889900999589463,5.486278964431662,3.31635,89.76467,0.0005487214,0.02050661,0.7053576,-0.0204158,14.939999666065,14
9.286852,0.4833333,-36.5116,-2.886507589687172,-0.0910809839758332,5.872318250973514,6.631689,90.03907,0.0170014,0.04098995,0.7061576,-0.04080837,14.9599996656179,14
9.344692,0.6833333,-36.5112,-3.0340235914434945,-0.0472084694838236,6.18237830111844,9.945549,90.31662,0.05060593,0.06143605,0.7063619,-0.06115257,14.9799996651709,14
9.402515,0.8833333,-36.5108,-3.14350765938131,-0.0106886205282764,6.418165661055127,13.25826,90.59921,0.1011064,0.08182491,0.7059705,-0.08143918,14.9999996647239,14
9.661446,0.2833333,-36.46005,-3.0919567391584,-0.675151255103158,6.762294363334327,3.247553,80.22175,359.7758,0.0204116,0.6440513,-0.01975203,15.0199996642768,14
9.717923,0.4833332,-36.45409,-3.1725171029266,-0.4163767729735831,7.017498784725454,6.495142,80.4758,359.5658,0.04080123,0.6450846,-0.03948162,15.0399996638298,14
9.774384,0.683333,-36.44812,-3.217464037868977,-0.1403879606126412,7.186337219954375,9.742651,80.71959,359.3689,0.0611526,0.6455927,-0.05917232,15.0599996633828,14
9.830833,0.8833329,-36.44218,-3.215665776038895,0.1005452096656331,7.272214729158399,12.98988,80.95498,359.1866,0.08146209,0.6455774,-0.0787917,15.0799996629357,14
9.992464,0.2833332,-36.35613,-3.156114625825552,0.1403220080773037,7.278822701810398,3.181737,70.43674,359.656,0.02095013,0.5765374,-0.01846174,15.0999996624887,14
10.04673,0.4833333,-36.34299,-3.1723779988090755,0.0611845075328183,7.394345032658521,6.364002,70.67999,359.3252,0.04187806,0.577792,-0.0369027,15.1199996620417,14
10.10098,0.6833333,-36.32985,-3.151573798173816,0.0284981246197094,7.418267344689333,9.546697,70.90629,359.0058,0.06276792,0.5785916,-0.05530862,15.1399996615946,14
10.15522,0.8833333,-36.31672,-3.083231910475405,-0.0110529763722097,7.355922740664774,12.72974,71.11684,358.6968,0.0836084,0.5789365,-0.07365888,15.1599996611476,14
10.34822,0.2833334,-36.16275,-3.0792001979355508,-0.030811163072146,7.367526522961434,3.424318,60.47644,359.5935,0.02402747,0.5034599,-0.01810955,15.1799996607006,14
10.40367,0.4833334,-36.13923,-3.0434191705754667,-0.0041182172435954,7.286408002984452,6.849464,60.71097,359.2007,0.04802755,0.5048082,-0.03619677,15.1999996602535,14
10.4591,0.6833334,-36.11573,-2.965816821362928,0.0157095846754302,7.119406171772933,10.27593,60.92362,358.8193,0.07198636,0.5056955,-0.05424368,15.2199996598065,14
10.61719,0.2833333,-35.93916,-3.0733805862012584,0.695644413410997,6.874327217114196,3.509253,54.91359,359.65,0.02576256,0.4609443,-0.01682671,15.2399996593595,14
10.67071,0.4833331,-35.90876,-3.01944140123852,0.4914407606581678,6.764175911308808,7.020132,55.15182,359.3158,0.05150888,0.4623708,-0.03362418,15.2599996589124,14
10.72422,0.6833329,-35.87838,-2.938828216341939,0.3091211445678968,6.564969848622496,10.5314,55.37157,358.9955,0.07720812,0.4633562,-0.05036873,15.2799996584654,14
10.77771,0.8833329,-35.84801,-2.821979153639965,0.0943241969063917,6.28551395015273,14.04276,55.5738,358.6847,0.1028263,0.4638991,-0.06706044,15.2999996580184,14
10.89152,0.2833333,-35.67648,-2.547460237800811,-0.7195789188537101,6.113293662908639,3.5702,51.00711,359.8304,0.02747865,0.4303993,-0.01474731,15.3199996575713,14
10.94169,0.4833332,-35.63941,-2.468852628429092,-0.510636260251806,5.8551029991248456,7.140877,51.26089,359.6798,0.0549412,0.4318805,-0.02945269,15.3399996571243,14
10.99184,0.683333,-35.60236,-2.3661962532520477,-0.2844790744456955,5.522786987088704,10.71117,51.50734,359.5437,0.08234234,0.4329375,-0.04412512,15.3599996566772,14
11.04198,0.883333,-35.56531,-2.23064350704475,-0.0933782392494951,5.1270217637279885,14.28095,51.74824,359.4217,0.1096551,0.4335698,-0.05874981,15.3799996562302,14
11.18888,0.2833334,-35.34959,-2.2368775919704884,0.6168547630660973,4.676694349743439,3.552122,46.96485,359.9521,0.02825991,0.3982882,-0.01273291,15.3999996557832,14
11.23462,0.4833333,-35.30775,-2.102517156068995,0.3308993439173,4.365212680152531,7.103476,47.22894,359.9233,0.05649463,0.399849,-0.02542799,15.4199996553361,14
11.28034,0.6833333,-35.26593,-1.9445296487293755,0.0668276700227771,4.001208939323789,10.65389,47.49356,359.9111,0.08466736,0.4010219,-0.038093,15.4399996548891,14
11.41541,0.283333,-35.07526,-1.9458038695933928,0.4905667290135756,3.593045761135084,3.631734,44.49629,0.01743599,0.02938608,0.3784241,-0.01185674,15.4599996544421,14
11.45948,0.483333,-35.0297,-1.832836537813062,0.2702631176415951,3.307659290146109,7.262274,44.76556,0.05205252,0.05873403,0.3800014,-0.0236975,15.479999653995,14
11.50354,0.683333,-34.98416,-1.7052535722611264,0.0718434639165316,2.986266036182741,10.89228,45.03967,0.1051972,0.08802285,0.3811936,-0.03550665,15.499999653548,14
11.65199,0.2833333,-34.76935,-1.555256047271504,-0.1590538127880575,2.642814821153859,3.62731,42.8028,0.0592654,0.0296553,0.3647014,-0.01106741,15.519999653101,14
11.6941,0.4833333,-34.7221,-1.5104782092858038,-0.1567195476160952,2.40164653961763,7.25325,43.07526,0.1359499,0.05927228,0.3663069,-0.02212006,15.5399996526539,14
11.7362,0.6833332,-34.67485,-1.4685166298790282,-0.1079341689943998,2.132914292001612,10.87774,43.35514,0.2309536,0.08882126,0.3675418,-0.03314693,15.5599996522069,14
11.7783,0.8833334,-34.62762,-1.4221301754424385,-0.0660131658180904,1.8510863213357744,14.50065,43.64525,0.3467777,0.1182761,0.3684059,-0.04412749,15.5799996517599,14
11.82038,0.9766705,-34.58041,-1.3642239305061938,-0.0842727185216116,1.5709272010838615,18.12193,43.9482,0.4840145,0.1476039,0.3688979,-0.0550604,15.5999996513128,14
11.95821,0.2833334,-34.3622,-1.2703550215492836,-0.1093979876713618,1.4381721687371076,3.569358,42.87798,0.1843762,0.02957636,0.3652858,-0.00988632,15.6199996508658,14
11.99809,0.4833333,-34.31427,-1.1784973437902675,-0.0880722171599637,1.2931734058066375,7.136744,43.16072,0.3867244,0.05911529,0.3668953,-0.0197598,15.6399996504188,14
12.03796,0.6833334,-34.26635,-1.0817048909601237,-0.0736111508756853,1.150624328120294,10.702,43.45878,0.6089284,0.08858781,0.3681444,-0.0296106,15.6599996499717,14
12.16181,0.2833333,-34.07446,-0.9731702434291484,-0.1193309723891963,1.0254235482436869,3.501046,42.06293,0.2442116,0.02927707,0.3586515,-0.008974681,15.6799996495247,14
12.19943,0.4833332,-34.02616,-0.9206543052687371,-0.1719155130269339,0.9085863344032354,6.99983,42.34999,0.5063975,0.05851799,0.3602889,-0.01793798,15.6999996490777,14
12.23705,0.683333,-33.97787,-0.8725765284395557,-0.1780489504076932,0.791585130438218,10.4957,42.6559,0.7897115,0.08769415,0.3615854,-0.02687267,15.7199996486306,14
12.27466,0.8833328,-33.9296,-0.8231501889632984,-0.1910473480541238,0.6882746974116394,13.98898,42.9834,1.095914,0.1167795,0.3625396,-0.03577949,15.7399996481836,14
12.43044,0.2833333,-33.68732,-0.8899573907990668,0.4560615853305565,0.4288650409510381,3.436401,40.39637,0.2524434,0.02890009,0.3450504,-0.008285842,15.7599996477365,14
12.46582,0.4833333,-33.63872,-0.8328066059568666,0.2190322768001777,0.3793740340983298,6.870013,40.68272,0.5233476,0.0577639,0.3467279,-0.01655288,15.7799996472895,14
12.50118,0.6833334,-33.59013,-0.7843998818739735,0.0038873943479191,0.3319194005758028,10.3012,40.98789,0.814051,0.08656701,0.3480885,-0.02480241,15.7999996468425,14
12.64147,0.2833333,-33.37436,-0.7390577014604407,-0.2437349858087921,0.2999951214301788,3.383055,38.21204,0.1630157,0.0283578,0.3271345,-0.008318248,15.8199996463954,14
12.67563,0.4833334,-33.32615,-0.6579247635247683,-0.258126721748449,0.2974424109409241,6.763846,38.48918,0.3430055,0.05667961,0.3288593,-0.01662248,15.8399996459484,14
12.70978,0.6833335,-33.27794,-0.5870216591770951,-0.2260675482677361,0.2899144679786616,10.14275,38.77927,0.541112,0.08494368,0.3302935,-0.02490972,15.8599996455014,14
12.74392,0.8833333,-33.22975,-0.5201523337981975,-0.2008729286492062,0.2904050793174342,13.51967,39.08471,0.7591955,0.1131256,0.331436,-0.03317271,15.8799996450543,14
12.77805,0.9766707,-33.18158,-0.4512134694281311,-0.2358589253701014,0.3119547615996083,16.89437,39.4082,0.9994937,0.1411999,0.3322861,-0.04140419,15.8999996446073,14
12.91557,0.2833334,-32.96414,-0.3473827963751965,-0.2777100746251586,0.3779338150497047,3.325552,35.52964,0.04179055,0.02774444,0.3049721,-0.008506188,15.9199996441603,14
12.94858,0.4833331,-32.91642,-0.2535122583196294,-0.2731099937800506,0.4347106825454823,6.649509,35.79456,0.0993374,0.05545483,0.3067463,-0.01699908,15.9399996437132,14
12.98158,0.6833332,-32.86872,-0.1630997653108412,-0.2753748525537485,0.4949865577722079,9.972178,36.06486,0.1729279,0.08311007,0.3082588,-0.02547509,15.9599996432662,14
13.10358,0.2833333,-32.67806,-0.1769588735405101,0.3824679876883072,0.3928195516373591,3.268839,33.50917,359.9299,0.02713509,0.2881723,-0.008807532,15.9799996428192,14
13.13598,0.4833333,-32.63111,-0.1032516373805094,0.1561722757896119,0.4357469548191517,6.536994,33.76355,359.8743,0.05423996,0.2899852,-0.01760519,15.9999996423721,14
13.16837,0.6833331,-32.58418,-0.0346024476610953,-0.0482396532200209,0.4770319390596214,9.804127,34.01655,359.8329,0.08129036,0.2915587,-0.02638469,16.0199996419251,14
13.30021,0.2833334,-32.37742,-0.0899186234783044,0.4351588297145239,0.3257995999701002,3.217139,30.4414,359.8188,0.0266715,0.2624768,-0.008894713,16.0399996414781,14
13.33125,0.4833333,-32.33055,-0.1496212737692026,0.914828622217888,0.1721228898084135,6.434091,30.68564,359.6512,0.05331402,0.2643404,-0.0177796,16.059999641031,14
13.36229,0.6833335,-32.28371,-0.0853375718995348,0.4857929079321674,0.2222385645252416,9.650745,30.92204,359.4961,0.07990613,0.2659918,-0.02664766,16.079999640584,14
13.39332,0.8833336,-32.23687,-0.0282919118358204,0.0530281430712124,0.2682142726604439,12.8668,31.15202,359.3535,0.1064262,0.2674303,-0.03548678,16.099999640137,14
13.55905,0.2833331,-31.97736,0.0281786763994791,-0.3108251925736472,0.3224691821713428,3.400151,30.2846,359.8032,0.02818913,0.261151,-0.009406419,16.1199996396899,14
13.59184,0.4833331,-31.92775,0.081471354864151,-0.3423266579783837,0.3610586092338614,6.800153,30.52568,359.6205,0.05634528,0.2629721,-0.01880162,16.1399996392429,14
13.62463,0.6833332,-31.87816,0.1230515457212586,-0.3278648898749174,0.3872614067534741,10.19991,30.75764,359.4507,0.08444346,0.2645576,-0.02817758,16.1599996387959,14
13.6574,0.8833331,-31.82859,0.1598976281310165,-0.3207559512631877,0.4135021875359292,13.60092,30.9819,359.2929,0.1124718,0.2659062,-0.03752984,16.1799996383488,14
13.77648,0.2833333,-31.64316,0.0981438729278885,0.345972543066337,0.2793550511776743,3.534221,32.04978,359.8485,0.0292739,0.2759626,-0.009782875,16.1999996379018,14
13.81135,0.4833333,-31.59221,0.1179911209707551,0.1280744609597628,0.2829818342567378,7.068899,32.2934,359.7113,0.05851731,0.2777171,-0.01955968,16.2199996374547,14
13.84621,0.6833332,-31.54127,0.1339005849014451,-0.0684271704910791,0.2862729271814572,10.60334,32.53053,359.5881,0.08769836,0.2792036,-0.02931539,16.2399996370077,14
13.88106,0.8833331,-31.49035,0.1531463296434569,-0.2978938097737901,0.3016237235232353,14.13726,32.76279,359.4783,0.1167873,0.2804209,-0.03904032,16.2599996365607,14
14.03146,0.2833334,-31.25426,0.0411213425803644,0.3456965190427947,0.1085039647342789,3.582155,33.79072,359.9723,0.02983571,0.2904899,-0.009315067,16.2799996361136,14
14.06651,0.4833336,-31.2025,0.0503937278769779,0.104660251037766,0.1124633191582056,7.163729,34.04491,359.9605,0.05963699,0.2921952,-0.0186179,16.2999996356666,14
14.10155,0.6833335,-31.15075,0.0558937304904585,-0.114980279804472,0.1141200602290197,10.74435,34.30062,359.9649,0.08937179,0.2936116,-0.02789954,16.3199996352196,14
14.23563,0.2833334,-30.93999,-0.0607848945154394,0.3527021409141835,-0.0748663703374354,3.55227,34.65175,0.08144247,0.02979965,0.2976419,-0.008552182,16.3399996347725,14
14.26958,0.4833331,-30.88812,-0.0680009304218547,0.1758537903112417,-0.0856928460656298,7.102936,34.91542,0.179839,0.05956168,0.2993325,-0.01708939,16.3599996343255,14
14.30352,0.6833331,-30.83626,-0.0733647682647067,0.0204014025927279,-0.0893908042040152,10.65205,35.18758,0.2957824,0.08925749,0.3007322,-0.02560734,16.3799996338785,14
14.33745,0.8833332,-30.78442,-0.0703621739033444,-0.168015936941055,-0.0755774327015146,14.19955,35.47062,0.4306107,0.1188586,0.3018399,-0.03409831,16.3999996334314,14
14.50534,0.2833333,-30.52201,-0.0524253010410067,-0.3157138033445116,-0.0337735326219608,3.62397,35.69369,0.1165545,0.03040981,0.3062897,-0.00872294,16.4199996329844,14
14.54048,0.4833333,-30.46938,0.0636001163828279,-0.3716435928510286,0.1670566804500559,7.246336,35.95987,0.2501381,0.06078029,0.3079349,-0.01743483,16.4399996325374,14
14.5756,0.6833332,-30.41677,0.2201588501811358,-0.3820974379594641,0.4230061139245258,10.86766,36.23702,0.4019253,0.09108593,0.3092684,-0.02613019,16.4599996320903,14
14.61072,0.8833332,-30.36417,0.4186077653059623,-0.4003921871218276,0.7374787041216351,14.48714,36.52778,0.5738897,0.1212913,0.3102893,-0.03479677,16.4799996316433,14
14.72884,0.2833334,-30.17932,0.5537384068223528,0.2404439050799373,0.9426744311787588,3.624551,36.37038,0.1310196,0.03040195,0.3118988,-0.008784077,16.4999996311963,14
14.7644,0.4833332,-30.12697,0.7985106379208506,-0.003833843174666,1.3097585623638288,7.247463,36.63692,0.2791072,0.0607648,0.3135229,-0.0175572,16.5199996307492,14
14.79994,0.6833332,-30.07463,1.07069824736228,-0.2272030194082966,1.6938138942208203,10.86855,36.91542,0.4457934,0.09105751,0.3148298,-0.02630989,16.5399996303022,14
14.83547,0.8833331,-30.0223,1.2532948563976554,0.2362623251330081,1.910495367971258,14.48782,37.20846,0.63274,0.1212502,0.3158182,-0.03503556,16.5599996298552,14
14.98559,0.2833334,-29.7873,1.456189816994458,0.6950230074901331,2.1374655145205743,3.566908,38.40811,0.2406073,0.03008053,0.3287117,-0.008255191,16.5799996294081,14
15.02084,0.4833332,-29.73585,1.8425003876667585,0.2441023164560974,2.6322686113760128,7.131639,38.68367,0.498821,0.06012318,0.3303037,-0.01649966,16.5999996289611,14
15.05609,0.6833333,-29.68442,2.2340146740779474,-0.2115223467038028,3.10134188074181,10.69396,38.978,0.7768675,0.09009784,0.331571,-0.02472573,16.6199996285141,14
15.19042,0.2833334,-29.47473,2.473249015129296,0.2331267147785618,3.3011670793263197,3.499169,38.81477,0.2821985,0.0296143,0.3320559,-0.007823345,16.639999628067,14
15.22473,0.4833333,-29.42401,2.8816430636050043,0.0327564284927832,3.761730616787645,6.995945,39.09292,0.5818478,0.05919195,0.3336515,-0.01563697,16.65999962762,14
15.25903,0.6833333,-29.37329,3.2774543808749854,-0.1467059496079522,4.166947443721661,10.4897,39.39202,0.9016063,0.08870187,0.3349311,-0.02343105,16.6799996271729,14
15.29333,0.8833333,-29.32259,3.664293580996276,-0.3596215338097043,4.528734730479524,13.98069,39.71491,1.244287,0.1181199,0.3358935,-0.03120076,16.6999996267259,14
15.4039,0.2833333,-29.147,3.942494054218917,0.3000318210010231,4.696134079188468,3.438984,38.58939,0.299514,0.02918405,0.3302031,-0.007449028,16.7199996262789,14
15.43713,0.4833334,-29.09677,4.471919757736838,0.0745716785115127,5.220224528140086,6.875065,38.86762,0.616424,0.05832987,0.33181,-0.01488587,16.7399996258318,14
15.47034,0.6833334,-29.04655,4.952937909554876,-0.1299804553463858,5.659568959671759,10.30855,39.1674,0.9530647,0.08741444,0.3331127,-0.02230695,16.7599996253848,14
15.50354,0.8833334,-28.99635,5.391722793610057,-0.3679857887714858,6.029209477707781,13.7392,39.49151,1.31236,0.1164111,0.3341103,-0.02970578,16.7799996249378,14
15.64652,0.2833335,-28.77045,5.65602996495457,0.2665782363741379,6.122038620975904,3.387878,36.41815,0.1796645,0.02856988,0.3123044,-0.007748512,16.7999996244907,14
15.67898,0.4833333,-28.72095,6.018271073299218,0.0160280248526611,6.3685107337688365,6.773531,36.68423,0.3754344,0.05710332,0.3139552,-0.01548608,16.8199996240437,14
15.71143,0.6833333,-28.67147,6.273247473147965,-0.2136137984659279,6.484335449721904,10.15723,36.96413,0.5888225,0.0855782,0.3153277,-0.02320769,16.8399996235967,14
15.84809,0.2833333,-28.4548,6.315695067570351,0.2435793005153246,6.300714442538187,4.441031,32.3485,359.988,0.03718287,0.2783543,-0.01089341,16.8599996231496,14
15.8897,0.4833333,-28.38917,6.496638446373167,0.0557543053503468,6.361263422652566,8.881079,32.59738,-0.004695487,0.07430145,0.2798054,-0.02176799,16.8799996227026,14
15.93129,0.6833334,-28.32356,6.574521201797476,-0.1111624745401306,6.288221529552764,13.32005,32.8504,0.02248343,0.1112998,0.2808334,-0.03260732,16.8999996222556,14
15.97287,0.8833332,-28.25797,6.563504269625481,-0.3115325248243969,6.104739980184021,17.75918,33.11102,0.07128656,0.1481345,0.2814369,-0.04339438,16.9199996218085,14
16.20248,0.2833332,-27.88909,6.316984721312688,0.3606668219680286,5.581043302674107,8.788034,25.79714,358.6786,0.07211027,0.2234161,-0.02830821,16.9399996213615,14
16.29035,0.4833334,-27.76012,6.33305401985929,0.1477514801273709,5.42494488943354,17.57593,25.73662,357.3323,0.1437775,0.2235038,-0.05644266,16.9599996209145,14
16.37821,0.6833332,-27.63117,6.250671554536439,-0.044255524299946,5.175108809863836,26.35871,25.44255,355.8898,0.2145714,0.222246,-0.08423419,16.9799996204674,14
16.46606,0.8833326,-27.50223,6.083922468835318,-0.2697158786593996,4.85109068592325,35.12996,24.85098,354.2545,0.2840669,0.2196505,-0.111516,16.9999996200204,14
16.62493,0.2833332,-27.26629,5.966057668343272,-0.2629206581909507,4.669074767799785,7.807284,26.05282,358.1883,0.06276333,0.2258977,-0.03070981,17.0199996195734,14
16.71354,0.4833333,-27.15711,5.738434610411687,-0.2106497454426853,4.383302723132825,15.61827,25.92261,356.3379,0.1252439,0.2263303,-0.06130932,17.0399996191263,14
16.80213,0.6833332,-27.04796,5.41795614326287,-0.1662193224171608,4.015589106481421,23.42186,25.51148,354.3757,0.1871193,0.2256512,-0.09161633,17.0599996186793,14
16.89068,0.8833328,-26.93884,5.021597588229732,-0.1829453438271763,3.587780444555019,31.2076,24.75872,352.2047,0.2480866,0.2238635,-0.1214788,17.0799996182323,14
17.12958,0.2833333,-26.59535,4.64325702994541,-0.2075126383211719,3.302358403459856,6.916289,29.95959,358.2243,0.0542647,0.2588797,-0.03053061,17.0999996177852,14
17.21674,0.4833338,-26.50605,4.209585032844611,-0.1866043302664564,2.970592878672281,13.84268,29.87902,356.4193,0.1083807,0.2594332,-0.06101813,17.1199996173382,14
17.30389,0.683334,-26.41677,3.73478224090055,-0.1735367094300222,2.6104540481037084,20.761,29.56258,354.535,0.1620595,0.2589747,-0.09125937,17.1399996168911,14
17.55594,0.2833333,-26.05066,3.114279912247639,0.4986618357064727,2.050122252105055,7.652976,38.2216,358.8814,0.05986556,0.3272661,-0.03105045,17.1599996164441,14
17.65385,0.4833331,-25.95762,2.7535304136092904,0.2857466233225336,1.905254043573436,15.30606,38.24154,357.7552,0.1194434,0.3270451,-0.06195656,17.1799996159971,14
17.75171,0.6833329,-25.86462,2.35324797842906,0.0937396128841033,1.7103416838544483,22.95823,38.09869,356.5765,0.1784742,0.3253302,-0.092595,17.19999961555,14
17.84953,0.8833324,-25.77165,1.9287230828394184,-0.1317205627972025,1.4860847532156285,30.60535,37.76333,355.2935,0.236689,0.3221312,-0.1228096,17.219999615103,14
18.19697,0.2833333,-25.30756,1.7086268266300555,-0.1249249779159337,1.4297118586295987,7.184112,47.2602,359.9076,0.05707633,0.4000891,-0.0258501,17.239999614656,14
18.2899,0.483333,-25.22358,1.4733912694172666,-0.0726541932305072,1.3095715906210472,14.36631,47.49178,359.8437,0.1139104,0.3996764,-0.0515909,17.2599996142089,14
18.3828,0.6833328,-25.13962,1.2373265358314676,-0.0282239505383625,1.1504908378554255,21.54643,47.72411,359.8081,0.1702787,0.3976917,-0.07712102,17.2799996137619,14
18.47567,0.8833328,-25.05569,1.0150401437709142,-0.0449508581954769,0.977395027688022,28.72439,47.96518,359.8034,0.2259604,0.3941442,-0.1023407,17.2999996133149,14
18.70266,0.2833333,-24.76615,1.1058002707534342,-0.0695183740552303,1.022456785337326,3.24306,44.12494,359.5213,0.02465642,0.3755732,-0.01449896,17.3199996128678,14
18.74738,0.4833334,-24.73191,1.1926515627941967,-0.0486103161150744,1.0274264684208705,6.484576,44.32754,359.0529,0.04926446,0.3770714,-0.02897825,17.3399996124208,14
18.79208,0.6833333,-24.69767,1.2908161261521407,-0.0355429608130113,1.019152398270272,9.722163,44.50447,358.5908,0.07378317,0.3782585,-0.04342793,17.3599996119738,14
19.05308,0.2833334,-24.33275,1.2908040255208348,0.6366555434653411,0.8238623054552363,3.198073,42.35101,359.1471,0.02333225,0.361269,-0.0170177,17.3799996115267,14
19.10113,0.4833334,-24.30187,1.5433379447488278,0.4237400624107977,0.8649919067875906,6.389035,42.52175,358.2994,0.04655471,0.3627823,-0.03401316,17.3999996110797,14
19.14918,0.6833334,-24.27099,1.809375279856912,0.231732875646395,0.8966754713599911,9.577858,42.64583,357.4553,0.06970514,0.363992,-0.05096246,17.4199996106327,14
19.19722,0.8833333,-24.24012,2.103903207138188,0.0062721896303313,0.9445583487487924,12.76416,42.72316,356.6102,0.09276958,0.3648985,-0.06784621,17.4399996101856,14
19.56665,0.2833332,-23.77612,2.490479739057079,0.0130673159246823,0.9067855357048806,4.871592,37.9769,359.6387,0.03916191,0.3252086,-0.01680742,17.4599996097386,14
19.62366,0.4833332,-23.71269,2.821851353014658,0.0653375726776006,0.7948919480811192,9.744725,38.17385,359.295,0.07826063,0.3263083,-0.03356723,17.4799996092916,14
19.68065,0.683333,-23.64929,3.108273251236952,0.1097667095863563,0.6247342652691295,14.61902,38.3447,358.9652,0.1172262,0.3268138,-0.05024133,17.4999996088445,14
19.94254,0.2833333,-23.25295,3.3601666994724617,0.093039900981927,0.4118842486296223,4.01085,34.53225,359.7952,0.03288699,0.2966878,-0.01209218,17.5199996083975,14
19.98483,0.4833334,-23.19728,3.822717763439343,0.0684729420648334,0.3844074611075463,8.021059,34.75232,359.6056,0.06572238,0.2981404,-0.02416345,17.5399996079504,14
20.02709,0.6833335,-23.14163,4.209026356542744,0.0893812294726855,0.3246732394072111,12.03054,34.96139,359.4297,0.09846599,0.2992243,-0.03619889,17.5599996075034,14
20.06936,0.8833335,-23.08599,4.532788746839842,0.1024492471296762,0.2497469060291166,16.03657,35.16179,359.2687,0.1310622,0.2999416,-0.0481564,17.5799996070564,14
20.3126,0.2833332,-22.65562,4.807808156635648,0.0543606401048619,0.1765521477193168,6.680452,33.14516,359.6903,0.05507485,0.284895,-0.01920459,17.5999996066093,14
20.38093,0.4833332,-22.5604,4.9778247525336745,-0.0015688477134883,0.0180922732033934,13.36077,33.33387,359.4008,0.1099524,0.2854393,-0.03833919,17.6199996061623,14
20.44925,0.6833332,-22.46519,5.079830199124501,-0.0120234605891177,-0.1227825353558458,20.04072,33.49324,359.1245,0.1644457,0.2850093,-0.05733917,17.6399996057153,14
20.51756,0.8833327,-22.37,5.1295804417468815,-0.0303189839653776,-0.2286515505962505,26.72016,33.62466,358.8546,0.2183697,0.283607,-0.07613987,17.6599996052682,14
20.8525,0.2833333,-21.87346,4.9448889337938695,0.6105174710810894,-0.614425668661486,6.649651,32.37383,359.2702,0.0539238,0.2786517,-0.02227374,17.6799996048212,14
20.92554,0.4833333,-21.78175,4.924813890714155,0.3662399308632585,-0.9017491553857688,13.30004,32.48685,358.5487,0.1076539,0.2792228,-0.0444676,17.6999996043742,14
20.99856,0.6833333,-21.69006,4.818934412652876,0.142871489727729,-1.132928988712452,19.95012,32.51479,357.8158,0.1610076,0.2788404,-0.06650555,17.7199996039271,14
21.35711,0.2833336,-21.29267,4.643808492909059,-0.1139499746490258,-1.2947201086438245,6.55604,36.54649,358.0929,0.04908049,0.3138963,-0.03370336,17.7399996034801,14
21.45235,0.4833336,-21.22027,4.2341015999921225,-0.1385166645470457,-1.5585752617355677,13.11533,36.4523,356.1545,0.09798702,0.3141867,-0.06735924,17.7599996030331,14
21.54756,0.6833337,-21.14788,3.7337525634253614,-0.1176075922969551,-1.7850196624277077,19.66831,36.11912,354.1366,0.1465476,0.3133557,-0.10079,17.779999602586,14
21.64272,0.8833332,-21.07553,3.1602795515790447,-0.1045391230224528,-1.961438738040659,26.20641,35.51258,351.9758,0.1945946,0.3114069,-0.1338681,17.799999602139,14
22.12776,0.2833333,-20.61147,2.645008502665931,-0.7929418960620103,-1.7856045785423156,7.238199,43.27359,358.1345,0.05267741,0.3688926,-0.03837338,17.819999601692,14
22.23817,0.4833333,-20.54162,1.911529314183472,-0.5585962562966673,-1.8184890676065493,14.48693,43.15085,356.2316,0.105194,0.368449,-0.07667162,17.8399996012449,14
22.34855,0.6833332,-20.47179,1.178292112190885,-0.3075242057928634,-1.7670023103492714,21.72533,42.76456,354.2322,0.157247,0.3664315,-0.1146317,17.8599996007979,14
22.45889,0.8833328,-20.40198,0.4693531345678501,-0.0919965870820962,-1.6100564957390358,28.94355,42.06693,352.0545,0.2086146,0.3628502,-0.1520918,17.8799996003509,14
22.78942,0.2833333,-20.10896,-0.450840388414754,0.6421751512794404,-1.7230525301470916,7.753871,52.8306,358.9177,0.05635948,0.4444084,-0.03851762,17.8999995999038,14
22.90862,0.4833335,-20.04211,-1.2918336943003723,0.37967204031081,-1.4662208569843873,15.50757,52.84594,357.8272,0.1124405,0.4431373,-0.07685038,17.9199995994568,14
23.02776,0.683333,-19.97527,-2.0849687944942943,0.1385653248524894,-1.1170082779034445,23.26006,52.7007,356.6827,0.1679861,0.4397928,-0.1148451,17.9399995990098,14
23.40349,0.2833333,-19.68673,-2.806230753559681,-0.135506281700149,-0.6518051458524496,7.932235,60.56628,0.2029269,0.06061912,0.5029593,-0.03335324,17.9599995985627,14
23.52213,0.4833333,-19.61532,-3.8128112841753454,-0.1768350514954404,-0.320926530255365,15.86117,60.85185,0.4476152,0.1209305,0.501112,-0.0665364,17.9799995981157,14
23.64074,0.6833326,-19.54394,-4.7586618479133485,-0.172200786062128,0.0435902808232313,23.78644,61.18868,0.7478361,0.1806457,0.4968625,-0.09939077,17.9999995976686,14
23.75932,0.8833324,-19.47257,-5.622166849333382,-0.1749189620117518,0.4614903465097448,31.70742,61.59937,1.125306,0.2394789,0.4902334,-0.1317587,18.0199995972216,14
24.1776,0.2833333,-19.08144,-6.627736711530883,0.4819820065614608,0.5530966290807608,7.630206,59.15892,0.9442514,0.06192185,0.4920427,-0.02569325,18.0399995967746,14
24.2831,0.4833333,-18.9986,-7.550667547145359,0.2542564933953801,1.0726707809475968,15.25199,59.59396,1.955281,0.1235482,0.4904965,-0.0512603,18.0599995963275,14
24.38858,0.6833335,-18.91578,-8.346359016766613,0.0479265913329551,1.6367405917455269,22.86228,60.19468,3.076466,0.1846017,0.4867431,-0.07658662,18.0799995958805,14
24.49403,0.883333,-18.83299,-8.990824106140593,-0.1913690289180508,2.2659077738577995,30.45712,61.00932,4.368615,0.2448167,0.4808025,-0.1015512,18.0999995954335,14
24.70288,0.2833332,-18.58381,-9.764308382289478,-0.19792039195964,2.8646193223377416,7.523295,48.28464,0.5129985,0.06169404,0.4078513,-0.02275651,18.1199995949864,14
24.79453,0.4833333,-18.48941,-10.405753993915871,-0.1585086070424788,3.439147754900924,15.04045,48.63084,1.089911,0.1231437,0.4070652,-0.04529423,18.1399995945394,14
24.88615,0.6833333,-18.39503,-10.894344248595456,-0.1264495109221713,4.004497253190669,22.55141,49.07429,1.742084,0.1840431,0.4045161,-0.06762888,18.1599995940924,14
24.97774,0.883333,-18.30068,-11.209513361233348,-0.1550584601622465,4.575913872087895,30.05451,49.64557,2.504678,0.2441292,0.4002165,-0.08966437,18.1799995936453,14
25.27644,0.2833333,-18.13942,-11.65100919614212,0.548901451552811,4.687015404137469,7.895066,36.40062,0.3692517,0.06640249,0.3113867,-0.01844845,18.1999995931983,14
25.35263,0.4833339,-18.02438,-12.068986029836434,0.2566739050625138,5.061476146344237,15.78932,36.72095,0.7977014,0.1325289,0.3110939,-0.03671991,18.2199995927513,14
25.4288,0.6833335,-17.90938,-12.303180148703234,-0.0136698004312996,5.400746423395539,23.67863,37.12151,1.295814,0.1980066,0.3093193,-0.05481105,18.2399995923042,14
25.61545,0.2833338,-17.5501,-12.6768013475456,0.4037969492293834,5.353923139655242,8.197289,26.00063,359.7918,0.06923414,0.2245072,-0.01784404,18.2599995918572,14
25.68105,0.4833339,-17.42287,-13.0435669333156,0.1772210699081294,5.5125431362749815,16.393,26.19325,359.6096,0.1380953,0.2247511,-0.03558936,18.2799995914102,14
25.74663,0.6833337,-17.29567,-13.241512343700354,-0.0274713711611883,5.630796951589195,24.58698,26.36778,359.4478,0.2062313,0.2238436,-0.05314543,18.2999995909631,14
25.91896,0.2833332,-16.89735,-13.2551708985592,-0.264640890115362,5.728825428582196,7.747378,13.99792,358.3167,0.06526074,0.1225448,-0.02277695,18.3199995905161,14
25.97982,0.4833328,-16.77312,-13.537767646982855,0.3717348849261568,5.356769384103371,15.49267,13.88275,356.6031,0.1301915,0.123664,-0.04543587,18.3399995900691,14
26.04065,0.6833327,-16.64891,-13.918196422266533,0.1239724936706676,5.293236139165236,23.22867,13.51082,354.7899,0.1944817,0.1241904,-0.06786843,18.359999589622,14
26.10146,0.8833321,-16.52474,-14.15621978545801,-0.1019057693616896,5.172073990706387,30.94666,12.82817,352.7896,0.2578252,0.1241221,-0.08996751,18.379999589175,14
26.16224,0.9766693,-16.4006,-14.239727112917423,-0.3602611220397726,5.015214823236704,38.63432,11.73556,350.4768,0.3199195,0.1234602,-0.1116278,18.399999588728,14
26.26101,0.2833332,-16.0305,-14.661850839040556,-0.3853857548827518,4.896477940965584,6.998337,2.853089,357.3039,0.06041366,0.02627746,-0.02499376,18.4199995882809,14
26.31368,0.4833335,-15.91081,-14.948910159140382,-0.3640594677641297,4.717498174893597,13.9899,2.581089,354.5554,0.1205519,0.02811207,-0.04986946,18.4399995878339,14
26.36633,0.6833338,-15.79115,-15.091432021295944,-0.3495978419236627,4.502196120835325,20.95794,1.940844,351.6651,0.1801575,0.02982491,-0.0745211,18.4599995873868,14
26.42327,0.2833333,-15.4414,-15.389092139044084,0.324970750622217,4.008601928441292,6.805212,1.722716,357.3527,0.05898259,0.01637333,-0.02394855,18.4799995869398,14
26.4727,0.4833331,-15.32405,-15.755875697169792,0.1154002721550671,3.740533455769132,13.60639,1.475124,354.6686,0.1177269,0.01827696,-0.04770029,18.4999995864928,14
26.52211,0.6833331,-15.20674,-15.973629928034878,-0.0722854104198518,3.4383774003134864,20.38617,0.8797622,351.855,0.1759773,0.0201046,-0.07125112,18.5199995860457,14
26.57151,0.8833331,-15.08946,-16.03875226724632,-0.2924478474120694,3.1269145829658616,27.1262,359.8805,348.8133,0.2334982,0.0218489,-0.09450616,18.5399995855987,14
26.59085,0.2833334,-14.62446,-16.308537914451456,0.360934099909683,2.447290172098368,7.352635,359.5459,357.8384,0.06418252,-0.002744687,-0.01856951,18.5599995851517,14
26.62729,0.4833331,-14.49577,-16.74890444422739,0.1301768676699054,2.128554093922485,14.70658,359.3525,355.6404,0.1281056,-0.0007321625,-0.03699925,18.5799995847046,14
26.66372,0.6833327,-14.36711,-17.016415042080467,-0.0786970644864132,1.767039966065127,22.04529,358.8474,353.3206,0.1914377,0.001281653,-0.05525813,18.5999995842576,14
26.64115,0.2833332,-13.92614,-17.11350468780817,-0.3200477730136595,1.3872994823534182,7.837513,2.932195,359.1248,0.06812257,0.02604665,-0.009365479,18.6199995838106,14
26.66301,0.4833331,-13.79023,-17.468735288030945,-0.3281666794441558,1.156223577680846,15.67449,2.980616,358.2486,0.1359037,0.02784523,-0.01868143,18.6399995833635,14
26.68486,0.6833331,-13.65436,-17.611876634555053,-0.2898351443627792,0.8753576115555397,23.50906,2.901131,357.3363,0.2030228,0.02951042,-0.02790396,18.6599995829165,14
26.70669,0.8833331,-13.51852,-17.549701700720757,-0.2583686315747895,0.5692697770021802,31.33916,2.670252,356.3447,0.2691631,0.03103457,-0.03698957,18.6799995824695,14
26.72852,0.9766698,-13.38272,-17.28979394952155,-0.2870829260879517,0.2626172489371816,39.16198,2.241897,355.2124,0.3340126,0.03241082,-0.04589518,18.6999995820224,14
26.61193,0.2833333,-12.98681,-17.546572228322194,-0.3226614205917049,0.3702688796909941,7.665638,3.03554,0.3509406,0.06690259,0.02622297,0.001284083,18.7199995815754,14
26.6122,0.4833332,-12.85285,-17.580871585220233,-0.3117897327583695,0.4397415378397946,15.32733,3.340804,0.7466742,0.1334865,0.02802032,0.002567692,18.7399995811284,14
26.61246,0.6833333,-12.71892,-17.40373513121922,-0.307782889324334,0.4946103335437852,22.98442,3.717838,1.205948,0.1994534,0.02969089,0.003844747,18.7599995806813,14
26.47267,0.2833335,-12.37191,-17.159622920297124,0.3563307442277876,0.2651396477366949,7.277306,353.0168,0.1138165,0.0632856,-0.06084181,0.004854444,18.7799995802343,14
26.45446,0.4833332,-12.2462,-17.06091144151099,0.1363064162963227,0.2679841210847504,14.55684,353.2723,0.271835,0.1263343,-0.05850318,0.00978275,18.7999995797873,14
26.43627,0.683333,-12.12052,-16.758838086769956,-0.0618338228762725,0.2471851431480392,21.83214,353.5611,0.4746198,0.1888419,-0.05592712,0.01469557,18.8199995793402,14
26.4181,0.883333,-11.99487,-16.395355047690693,0.4278370532826165,-0.1012831721897473,29.10362,353.8984,0.7352182,0.2505636,-0.05312265,0.01957318,18.8399995788932,14
26.17614,0.2833336,-11.55163,-15.86600702691488,0.9137791563357416,-0.4645546802125508,7.512678,336.2941,359.9521,0.06420233,-0.2049325,0.01304818,18.8599995784461,14
26.12354,0.4833337,-11.43146,-15.631508179480342,0.4910161639689813,-0.5320196284560552,15.02948,336.5184,359.9503,0.1281325,-0.2016814,0.02619129,18.8799995779991,14
26.07097,0.6833336,-11.31131,-15.224545028472477,0.0645252414461206,-0.619573531584857,22.54344,336.7534,359.9832,0.1914827,-0.1975619,0.0392404,18.8999995775521,14
25.79353,0.2833337,-10.8917,-14.66204926674245,-0.2930542184946074,-0.7042269909367667,8.087861,327.1183,0.1520758,0.06726315,-0.2824097,0.02122895,18.919999577105,14
25.71414,0.4833338,-10.77482,-14.398763740630596,-0.3182829690369155,-0.8390008415511634,16.17284,327.3827,0.3436002,0.1341724,-0.278423,0.04234983,18.939999576658,14
25.63479,0.6833335,-10.65798,-13.970188008451018,-0.2975490460627916,-0.9922348515558204,24.25589,327.6912,0.5881335,0.2004012,-0.2730491,0.06327313,18.959999576211,14
25.55547,0.8833335,-10.54118,-13.395997226187362,-0.2841684212729617,-1.1394295785032975,32.33757,328.0663,0.9069578,0.2656254,-0.2663113,0.08390722,18.9799995757639,14
25.29403,0.2833333,-10.1907,-12.70182608893704,0.3888315797724578,-1.5324664963183825,8.034636,317.3464,359.0858,0.06815286,-0.362261,0.01806479,18.9999995753169,14
25.21046,0.4833333,-10.07699,-12.369438535947666,0.1772063003428298,-1.610755589023749,16.06846,317.3746,358.1669,0.1359464,-0.3577615,0.03603626,19.0199995748699,14
25.12692,0.6833336,-9.963322,-11.90696136510833,-0.0130229926806219,-1.691641440606876,24.09934,317.2636,357.2045,0.2030433,-0.351484,0.0538252,19.0399995744228,14
25.04339,0.8833336,-9.849683,-11.337701646707078,-0.236217972791681,-1.7486597196167066,32.1249,316.9852,356.1493,0.2691107,-0.3434611,0.0713437,19.0599995739758,14
24.67752,0.2833333,-9.381862,-10.64969438284356,0.4136436246484631,-2.173025726687209,7.475308,308.1287,357.7495,0.06718192,-0.4351955,0.01088295,19.0799995735288,14
24.59899,0.4833329,-9.270641,-10.160495106616391,0.1788802688271772,-2.442369080574574,14.94548,307.9004,355.4507,0.1340322,-0.4304418,0.02171386,19.0999995730817,14
24.52048,0.6833329,-9.159454,-9.601204635711028,-0.0344863193175185,-2.7032584778429865,22.39787,307.3389,353.0171,0.2002408,-0.423695,0.03244239,19.1199995726347,14
24.15994,0.2833336,-8.727865,-8.924949245310884,0.4394689188880763,-3.306450612171464,6.982728,310.08,357.7523,0.06346107,-0.4200387,0.007944363,19.1399995721877,14
24.0919,0.4833331,-8.619595,-8.201654571853567,0.9092074818314004,-3.9051554229782695,13.95691,309.8828,355.4673,0.1265992,-0.4157261,0.01586145,19.1599995717406,14
24.02387,0.6833329,-8.511355,-7.864364503431428,0.4697531000786923,-4.254822707889421,20.91536,309.3812,353.0683,0.1892013,-0.4097162,0.02371157,19.1799995712936,14
23.95587,0.8833325,-8.403147,-7.485719085902879,0.0260820852286263,-4.591799497153863,27.84442,308.5233,350.4659,0.2510127,-0.4020351,0.03146289,19.1999995708466,14
23.45936,0.2833333,-7.854102,-7.0916402497239375,-0.3491651460005899,-4.894037996327167,7.246075,311.8808,357.9168,0.06508854,-0.4057556,0.009192293,19.2199995703995,14
23.38937,0.4833331,-7.742706,-6.932576833355899,-0.3925492683868453,-5.242222624605279,14.49006,311.6977,355.7937,0.1298919,-0.401382,0.01834447,19.2399995699525,14
23.3194,0.6833327,-7.631342,-6.712847864845319,-0.390458144448155,-5.567388721232678,21.71995,311.2189,353.5567,0.1941149,-0.395274,0.02741497,19.2599995695055,14
23.24945,0.8833325,-7.52001,-6.4598763975936855,-0.3962082507315979,-5.849308700254856,28.92324,310.3896,351.1141,0.25748,-0.3874596,0.03636464,19.2799995690584,14
22.87049,0.2833334,-7.175933,-6.03361771414928,0.257172608578752,-6.32395642552791,7.726088,315.5765,358.6331,0.06686679,-0.3764012,0.014449,19.2999995686114,14
22.79294,0.4833334,-7.063057,-6.121042962913382,0.0267535803578825,-6.466903143547576,15.45128,315.5144,357.2461,0.133404,-0.3719982,0.02883146,19.3199995681643,14
22.71543,0.6833333,-6.950217,-6.1388941643518,-0.182914374487338,-6.553769530450735,23.17291,315.247,355.785,0.199312,-0.3658512,0.04309594,19.3399995677173,14
22.63794,0.8833327,-6.83741,-6.118120054998268,-0.4261870690513793,-6.5651739171691865,30.88288,314.732,354.1784,0.2642675,-0.3579932,0.05715499,19.3599995672703,14
22.143,0.2833333,-6.452631,-5.821485798973519,0.2029644754561262,-6.863329153719636,7.890674,319.7988,0.2219845,0.06394957,-0.3429793,0.0254609,19.3799995668232,14
22.0508,0.4833332,-6.350273,-5.83954987220795,-0.0363667419074544,-6.905281834937327,15.77803,320.069,0.4837664,0.1275764,-0.3387644,0.05079614,19.3999995663762,14
21.95862,0.6833333,-6.247948,-5.784581182264537,-0.2569340717711889,-6.864484148083276,23.66168,320.3919,0.7994883,0.1905789,-0.332945,0.07588571,19.4199995659292,14
21.49973,0.2833333,-5.940068,-5.416138234693541,0.2072775892647866,-7.08355975742723,7.597745,318.9795,0.7376291,0.05980268,-0.3499974,0.02922905,19.4399995654821,14
21.40258,0.4833331,-5.848951,-4.970600945757596,0.6648177070825994,-7.223909185151937,15.18904,319.3524,1.531797,0.1193208,-0.3459045,0.0583239,19.4599995650351,14
21.30547,0.6833329,-5.757864,-4.992606705971573,0.2319313902046088,-6.993500078403354,22.77277,319.8568,2.418057,0.1782936,-0.3402777,0.0871683,19.4799995645881,14
21.2084,0.8833323,-5.666793,-4.92079912081851,-0.2099855479785068,-6.671076289729741,30.34479,320.5323,3.445225,0.2364458,-0.3331405,0.1156407,19.499999564141,14
20.67198,0.2833333,-5.304671,-4.565076654763759,0.2442366144713842,-6.522770695213325,7.542649,307.7801,0.3389007,0.05776328,-0.4393152,0.03159684,19.519999563694,14
20.56403,0.4833332,-5.229148,-4.576716625701224,0.068928547819466,-6.012246978324584,15.0813,308.0727,0.7348742,0.1151991,-0.4347625,0.06316707,19.539999563247,14
20.4561,0.6833328,-5.153646,-4.500463909810748,-0.0915531219456827,-5.427971295627772,22.61549,308.4348,1.190525,0.1721186,-0.4283256,0.09445462,19.5599995627999,14
20.34821,0.8833322,-5.078166,-4.365255106405309,-0.2912823965002113,-4.755400881104976,30.1443,308.8901,1.731663,0.2282754,-0.420034,0.125324,19.5799995623529,14
19.98151,0.2833334,-4.870771,-3.861155928272476,0.3760511546561081,-4.405310960085821,7.967246,302.0148,0.5744345,0.05834073,-0.483824,0.03804616,19.5999995619059,14
19.85807,0.4833336,-4.805917,-3.7100711837795934,0.1734201242468441,-3.805946156980317,15.93258,302.3608,1.210666,0.1163745,-0.4786573,0.0759712,19.6199995614588,14
19.73465,0.6833332,-4.74108,-3.5133388507882266,-0.0156792006790641,-3.1555593471040297,23.89113,302.8209,1.932043,0.1738261,-0.4711666,0.1135167,19.6399995610118,14
