pX,pY,pZ,aX,aY,aZ,reX,reY,reZ,rtX,rtY,rtZ,t,ID
-42.00041,0.23,-38.99972,4.3940108409291625,-0.0931575134554593,5.323067462124904,0.01571906,0.00994068,0.02319559,0.0001371922,8.672103e-05,0.0002024078,1.43999996781349,5
-42.00082,0.43,-38.99944,4.761041908799058,0.0212908363634211,5.61735065871261,0.03144053,0.009950227,0.04639474,0.0002744055,8.672101e-05,0.0004048466,1.45999996736646,5
-42.00122,0.63,-38.99917,5.180254017445051,-0.3187341758766047,5.918679428246641,0.04724899,0.0099663,0.06980263,0.000412378,8.672119e-05,0.0006091068,1.47999996691942,5
-42.00152,0.2833333,-38.9989,5.531916473428915,-0.4193253150608748,6.151195174748423,0.02345374,3.779734,0.03410539,0.0002143763,0.03297835,0.000290714,1.49999996647239,5
-42.00209,0.4833333,-38.99845,5.817041879179072,-0.3058165831791549,6.316549978498621,0.04691728,3.779754,0.06820602,0.0004288369,0.03297834,0.0005813836,1.51999996602535,5
-41.99162,0.2833333,-38.97238,6.121871581742191,-0.6428111534020245,6.4613042198177695,0.7560318,8.239966,0.4395216,0.006856035,0.07181799,0.003351543,1.53999996557832,5
-41.99738,0.4833333,-38.95807,6.353481357728036,-0.736399154785456,6.53565913159386,1.512013,8.248669,0.8791857,0.01371161,0.07181173,0.006702804,1.55999996513128,5
-42.00313,0.6833333,-38.94377,6.619428892039352,-1.038789968062878,6.611968047032256,2.269952,8.263219,1.320155,0.02058483,0.0718012,0.01006107,1.57999996468425,5
-42.00887,0.8833333,-38.92949,6.803640347303592,-1.09617131871635,6.614524085412732,3.02996,8.283685,1.762861,0.02747682,0.07178642,0.01342842,1.59999996423721,5
-41.95607,0.2833332,-38.88226,7.039583717394663,-1.3607534386180182,6.638633778636944,1.590108,15.55754,0.1529569,0.01392882,0.1353169,-0.0005556844,1.61999996379018,5
-41.95108,0.4833332,-38.85466,7.185216591734537,-1.3787225608387508,6.583504548425168,3.180385,15.56389,0.3055688,0.02785579,0.1352774,-0.001116489,1.63999996334314,5
-41.88179,0.2833333,-38.77736,7.244541186594212,-1.1754126488623493,6.453981656539717,2.854283,21.08036,0.05450723,0.02457248,0.1828566,-0.004088388,1.65999996289611,5
-41.86462,0.4833333,-38.73024,7.327990075583685,-1.4154278080174532,6.325439151003472,5.710496,21.08434,0.1077683,0.04914387,0.1826859,-0.008190278,1.67999996244907,5
-41.84746,0.6833334,-38.68314,7.321617207132995,-1.404857926741287,6.122650726489965,8.568897,21.091,0.1613614,0.07370317,0.1824013,-0.01229229,1.69999996200204,5
-41.76127,0.2833332,-38.60572,7.230584785455996,-1.1690366915708772,5.851638821002027,4.088346,26.78686,0.1321456,0.03496677,0.2314487,-0.007141346,1.719999961555,5
-41.731,0.483333,-38.54067,7.224969805066081,-1.3725668919238805,5.635466087757877,8.180598,26.80102,0.2645717,0.06992009,0.2310054,-0.01429057,1.73999996110797,5
-41.61865,0.2833333,-38.43338,7.1258614970113925,-1.321539069793578,5.348618454655153,4.307527,32.03228,0.2379717,0.03669514,0.2756376,-0.008374319,1.75999996066093,5
-41.58216,0.4833331,-38.36725,6.93994059454306,-1.0412871763801892,4.9984335911596816,8.617069,32.05923,0.4772793,0.07335248,0.2750507,-0.01675324,1.7799999602139,5
-41.54569,0.6833324,-38.30115,6.771933078038536,-1.196414451499237,4.658250696521407,12.92816,32.10502,0.7220663,0.1099198,0.2740731,-0.02511289,1.79999995976686,5
-41.43723,0.2833333,-38.22705,6.519449138163594,-1.0930116218332648,4.260909925670198,3.723679,37.04473,0.2150142,0.03140224,0.3174487,-0.008542861,1.81999995931983,5
-41.40105,0.4833338,-38.173,6.311891653631363,-1.1832885990973203,3.9006335364498383,7.446107,37.06582,0.4316523,0.06276077,0.3169443,-0.01707504,1.8399999588728,5
-41.25541,0.2833333,-38.05327,6.021296074325555,-1.0134325085333735,3.4887379276982813,3.678149,40.95871,0.2433972,0.03080679,0.349625,-0.009239366,1.85999995842576,5
-41.2165,0.4833335,-38.00207,5.656608234022492,-0.608777461463744,3.034575963928667,7.355119,40.9823,0.4886201,0.06157204,0.3490825,-0.01846735,1.87999995797873,5
-41.1776,0.6833341,-37.95088,5.226998956349064,0.0063885204297461,2.5476857826021515,11.03084,41.02213,0.7377751,0.09226401,0.3481792,-0.02767419,1.89999995753169,5
-40.97421,0.2833333,-37.78653,4.874388974765687,-0.0449291345567779,2.1312445965486333,3.617961,45.59787,0.2516331,0.02995149,0.3872405,-0.01020896,1.91999995708466,5
-40.93214,0.4833328,-37.73927,4.459325204700299,0.1712733795693388,1.69033253651412,7.234864,45.62186,0.505142,0.05986457,0.3866588,-0.02040551,1.93999995663762,5
-40.89008,0.6833324,-37.69202,4.105680736753492,0.2027867374814435,1.316466572131283,10.85055,45.66233,0.7625588,0.08970846,0.3856904,-0.03057952,1.95999995619059,5
-40.74649,0.2833338,-37.58279,3.697428716061261,0.2633276554741852,0.9293948116418776,3.554007,49.12225,0.327304,0.02939035,0.4153816,-0.01029293,1.97999995574355,5
-40.7033,0.4833338,-37.53794,3.2463193608532848,0.2998589533344037,0.5404379923394202,7.106935,49.15289,0.6569774,0.05874397,0.4147773,-0.0205737,1.99999995529652,5
-40.66012,0.6833336,-37.4931,2.8609549654578785,0.2752920284802821,0.2267625018238064,10.65861,49.20459,0.9916217,0.08803198,0.4137713,-0.03083217,2.01999995484948,5
-40.5373,0.2833328,-37.40641,2.451283703629578,0.2732014005019496,-0.0705611417120408,3.505715,51.48319,0.365897,0.02893882,0.4340198,-0.01041003,2.03999995440245,5
-40.49338,0.4833328,-37.36336,2.016292180169572,0.7204630842756095,-0.3705291608500474,7.0102,51.51697,0.7343329,0.05784093,0.433404,-0.02080779,2.05999995395541,5
-40.35057,0.2833333,-37.25515,1.7345316559308372,0.4986616578124239,-0.5468310807472392,3.462514,52.84752,0.4166154,0.02867222,0.4447021,-0.0101899,2.07999995350838,5
-40.30677,0.4833333,-37.21291,1.454853346290463,0.2737239892181332,-0.7062754100028812,6.923826,52.8855,0.8360796,0.05730914,0.4440844,-0.02036807,2.09999995306134,5
-40.14073,0.283333,-37.08484,1.321704986801528,-0.4355871958074093,-0.7445883520157466,3.424292,53.71476,0.348145,0.0280271,0.4514864,-0.01078881,2.11999995261431,5
-40.09616,0.4833335,-37.0446,1.1339012295945423,-0.2451479747779212,-0.7952421345737832,6.84714,53.74606,0.6976916,0.05601439,0.4508755,-0.02157119,2.13999995216727,5
-40.0516,0.6833339,-37.00437,0.9562238712782544,-0.0609812393174074,-0.8277000001583019,10.26874,53.79884,1.052236,0.08394328,0.4498585,-0.03233068,2.15999995172024,5
-39.90754,0.2833329,-36.89826,0.7254797390826369,0.5448346369895809,-0.8919646494143194,3.390027,53.53646,0.244972,0.02737175,0.450128,-0.01141409,2.1799999512732,5
-39.86251,0.4833329,-36.85968,0.6462528814308541,0.2414909040537326,-0.8493571593935556,6.778698,53.55826,0.4908255,0.05470606,0.4495341,-0.02281959,2.19999995082617,5
-39.81749,0.683333,-36.82112,0.5773632036438698,-0.0649890652634618,-0.8034389314347763,10.16624,53.595,0.7401099,0.0819843,0.4485454,-0.03420151,2.21999995037913,5
-39.61817,0.2833329,-36.6731,0.5697154130328528,-0.1355542037716974,-0.6975768768888457,3.349365,52.73953,0.152699,0.02677523,0.4439375,-0.01178706,2.2399999499321,5
-39.57327,0.4833333,-36.6356,0.559264492461196,-0.1836427836158266,-0.6110028713796041,6.697284,52.75296,0.3059801,0.05351464,0.4433676,-0.02356215,2.25999994948506,5
-39.52839,0.6833336,-36.59812,0.45960743950954,0.217620958223438,-0.5895924378302624,10.04423,52.77558,0.4613162,0.0802008,0.4424188,-0.035314,2.27999994903803,5
-39.39188,0.2833333,-36.499,0.458662971736814,-0.0501783052845812,-0.5177749299854284,3.307255,51.97432,0.05715236,0.02615799,0.4379743,-0.01219623,2.29999994859099,5
-39.34704,0.4833333,-36.46268,0.4615622795005336,-0.3211130637162592,-0.466144254493102,6.613537,51.9793,0.1146558,0.05228647,0.437427,-0.02437885,2.31999994814396,5
-39.18834,0.2833333,-36.34596,0.3933009633630107,0.0707419422338757,-0.4400189306335633,3.267096,51.15809,359.9603,0.02556338,0.4315893,-0.01262056,2.33999994769692,5
-39.1435,0.4833333,-36.31076,0.4972151995944145,-0.2064669820034571,-0.3014566929663189,6.533226,51.15467,359.9203,0.05109839,0.4310632,-0.02522724,2.35999994724989,5
-39.09867,0.683333,-36.27557,0.4798436152569181,-0.0066196268930519,-0.2479775393310745,9.79818,51.14886,359.8794,0.07658125,0.430187,-0.03781203,2.37999994680285,5
-39.05386,0.883333,-36.24039,0.4661849471450452,0.1911374345091609,-0.2002805708484416,13.06215,51.14059,359.8377,0.1019943,0.428962,-0.0503624,2.39999994635582,5
-38.8849,0.2833336,-36.11765,0.5512749134655266,-0.3057825094045506,-0.0934114284164877,3.225506,49.11425,359.8615,0.02509636,0.4154663,-0.01279543,2.41999994590878,5
-38.84077,0.4833332,-36.08264,0.4547096458489079,-0.1122076894330182,-0.1240318885019107,6.450164,49.1025,359.7222,0.05016634,0.4149718,-0.02557746,2.43999994546175,5
-38.69053,0.2833333,-35.97179,0.3591146153838949,0.0792771281514913,-0.1608903590309296,3.199124,47.75592,359.8036,0.02483134,0.4046753,-0.01286577,2.45999994501472,5
-38.64692,0.4833333,-35.93681,0.4202278124767886,-0.4239136062845238,-0.0932663253826646,6.397264,47.7394,359.6061,0.04963611,0.4042006,-0.02571726,2.47999994456768,5
-38.60332,0.6833333,-35.90183,0.3633945189272083,-0.2366119445167672,-0.1069449347074069,9.594385,47.71158,359.4062,0.07439481,0.4034102,-0.03854477,2.49999994412065,5
-38.46909,0.2833335,-35.80531,0.4353565286947187,-0.4782769232513691,-0.033129376553866,3.540548,48.91151,359.7961,0.02738406,0.4138422,-0.01440842,2.51999994367361,5
-38.42012,0.4833335,-35.76736,0.5017676766081536,-0.7230779555075262,0.0302229338912525,7.080144,48.89249,359.5906,0.05473492,0.4132478,-0.02879928,2.53999994322658,5
-38.37118,0.6833334,-35.72942,0.4785343949064966,-0.3050875478495392,0.0399622345462553,10.6197,48.8603,359.3815,0.08203213,0.4122576,-0.04316644,2.55999994277954,5
-38.1835,0.2833333,-35.59424,0.5637999902591986,-0.5561600475315622,0.124174404174628,3.575263,50.86291,359.8453,0.02759289,0.4292596,-0.01461431,2.57999994233251,5
-38.1334,0.4833333,-35.55696,0.533566114415791,-0.3301772272917078,0.1281166748419728,7.14973,50.84828,359.6889,0.05515067,0.4286316,-0.029216,2.59999994188547,5
-37.96135,0.2833335,-35.43214,0.5047239679779878,-0.1062853261771232,0.1293418005961761,3.580837,52.03595,359.9001,0.02769502,0.4384632,-0.01448819,2.61999994143844,5
-37.91102,0.4833335,-35.39508,0.5050938604923587,-0.0968761937287878,0.1494400256625674,7.160696,52.0265,359.7993,0.0553549,0.4378206,-0.02895958,2.6399999409914,5
-37.8607,0.6833335,-35.35804,0.491275523288003,-0.0618551761780803,0.156991080917745,10.73952,52.01057,359.6969,0.08295291,0.4367508,-0.04339861,2.65999994054437,5
-37.81039,0.8833337,-35.321,0.4747322528593045,-0.0545380568775286,0.1595322047692526,14.31726,51.98782,359.5921,0.110462,0.4352552,-0.05779092,2.67999994009733,5
-37.63201,0.2833332,-35.19061,0.4424128519493777,-0.0482649127868011,0.1532126958335915,3.59384,53.4664,0.05841802,0.02823451,0.449601,-0.01365046,2.6999999396503,5
-37.58224,0.4833333,-35.15245,0.4037876108514169,-0.0163790821991252,0.1412494315729446,7.186721,53.47198,0.1178352,0.05643591,0.4489378,-0.02727959,2.71999993920326,5
-37.41965,0.2833335,-35.03376,0.3703596126565429,-0.0121964366300102,0.1313666482709479,3.557898,54.09597,0.0792717,0.02796259,0.4544981,-0.01350081,2.73999993875623,5
-37.37017,0.4833335,-34.99623,0.3239717948297524,-0.0090602994755845,0.1110907294853049,7.114521,54.10338,0.1589605,0.0558876,0.4538408,-0.02698509,2.75999993830919,5
-37.32072,0.6833337,-34.95872,0.26532050557676,0.0196880415444234,0.0802995886456976,10.6701,54.11589,0.2398912,0.08375074,0.4527464,-0.04043932,2.77999993786216,5
-37.18136,0.2833335,-34.85815,0.2059922604904756,0.020732695313043,0.0468883954312175,3.636151,54.7956,0.1001835,0.02856956,0.4599093,-0.01382344,2.79999993741512,5
-37.13051,0.4833334,-34.82013,0.1357096772104711,0.0207326372927367,0.006572568084266,7.271282,54.8052,0.2011692,0.05710248,0.4592143,-0.02762897,2.81999993696809,5
-37.07968,0.6833336,-34.78214,0.0642752514807796,0.0463454854799091,-0.036072365070396,10.90601,54.82139,0.3036134,0.08557419,0.458057,-0.04140662,2.83999993652105,5
-36.88359,0.2833333,-34.64032,-0.1334029344525333,0.5244472152864955,-0.1695153910471027,3.641206,55.28071,0.1111803,0.02859433,0.4636584,-0.01387974,2.85999993607402,5
-36.83247,0.4833332,-34.60254,-0.1774836175241887,0.3366215130752754,-0.1922614677072474,7.281357,55.29138,0.2232521,0.05715168,0.4629557,-0.02774134,2.87999993562698,5
-36.78137,0.6833339,-34.56477,-0.2229835591553453,0.1487961000944069,-0.2158486732715481,10.92031,55.30939,0.337078,0.08564197,0.4617859,-0.04157082,2.89999993517995,5
-36.65171,0.2833333,-34.47187,-0.1290554189587993,-0.5202662841045634,-0.1384918118042115,3.596381,56.47154,0.1526018,0.02827502,0.4728307,-0.01367285,2.91999993473291,5
-36.60088,0.4833333,-34.435,-0.1779673030158832,-0.2864430093374709,-0.1616108213820091,7.19168,56.486,0.3063588,0.05651382,0.472131,-0.02732827,2.93999993428588,5
-36.55006,0.6833335,-34.39814,-0.2244913901543554,-0.0557558232003129,-0.1833311495713516,10.78583,56.51041,0.4625349,0.08468837,0.4709662,-0.04095253,2.95999993383884,5
-36.36318,0.283333,-34.2634,-0.3839977471238498,0.5997166179387052,-0.2864389471171584,3.541337,57.9685,0.2397076,0.02804216,0.4842802,-0.01314374,2.97999993339181,5
-36.31303,0.483333,-34.22709,-0.3840070687045376,0.349166867617674,-0.2786296056737996,7.081521,57.99086,0.4811755,0.05604875,0.4835835,-0.02627088,2.99999993294477,5
-36.14213,0.2833333,-34.10329,-0.372151063602935,0.0986172198340281,-0.264894901342064,3.50116,58.23751,0.275281,0.02785606,0.4863288,-0.01276789,3.01999993249774,5
-36.09273,0.4833333,-34.06705,-0.3248266969913622,0.0871173032055475,-0.2252496266865975,7.0012,58.2629,0.5525534,0.05567772,0.4856438,-0.02551997,3.0399999320507,5
-36.04335,0.6833333,-34.03082,-0.2758882072267994,0.1012294549748185,-0.1869647103979268,10.49947,58.30575,0.8340484,0.08343503,0.4845037,-0.03824107,3.05999993160367,5
-35.89756,0.2833333,-33.92484,-0.2142901137078467,0.087638327202955,-0.1422141802874392,3.443403,58.10171,0.2904974,0.02749522,0.4852984,-0.01237417,3.07999993115664,5
-35.84924,0.4833333,-33.88879,-0.2955461662015182,0.7133158868480103,-0.1999262375341501,6.885294,58.12806,0.5832133,0.05495505,0.4846367,-0.02473024,3.0999999307096,5
-35.80094,0.6833332,-33.85275,-0.2342101746205678,0.4340175162080237,-0.1549091624893357,10.32603,58.17251,0.8801541,0.08235735,0.4835351,-0.03706018,3.11999993026257,5
-35.59963,0.2833335,-33.70661,-0.3095911397789272,0.6359563979145549,-0.2086175747368308,3.401736,56.97443,0.2227643,0.02701442,0.4767009,-0.01244902,3.13999992981553,5
-35.55199,0.4833334,-33.67101,-0.2709601314974605,0.4131098511681323,-0.1785409635407546,6.802125,56.99439,0.4470718,0.05399486,0.4760684,-0.02488193,3.1599999293685,5
-35.50436,0.6833334,-33.63541,-0.2331097576759155,0.191308810810041,-0.1472678185788254,10.20144,57.02803,0.6745154,0.08091988,0.4750152,-0.03728928,3.17999992892146,5
-35.36779,0.2833337,-33.53634,-0.1853939021030193,-0.0838084515375721,-0.1072800324630023,3.358505,55.74348,0.1592018,0.02655406,0.4672566,-0.01247195,3.19999992847443,5
-35.32093,0.4833338,-33.50106,-0.2709127830951914,0.4937818756237777,-0.1630951916181331,6.715686,55.75755,0.3195622,0.05307552,0.4666535,-0.02492743,3.21999992802739,5
-35.27407,0.6833341,-33.46579,-0.2293646689293922,0.1663949078032637,-0.1234196958756541,10.07184,55.78128,0.4820792,0.07954355,0.4656492,-0.03735807,3.23999992758036,5
-35.08143,0.283333,-33.32629,-0.3131231389357936,0.3202449234844275,-0.1741834556610797,3.313527,53.99605,0.04282784,0.02593078,0.4537604,-0.01279199,3.25999992713332,5
-35.03511,0.483333,-33.29171,-0.2985443872609714,0.0493093762902221,-0.1423241488034641,6.626025,53.99978,0.08591972,0.0518318,0.4531913,-0.02556939,3.27999992668629,5
-34.98879,0.683333,-33.25713,-0.2787321604834325,-0.2205811319014494,-0.1081409544807563,9.937228,54.00605,0.1294681,0.07767902,0.452244,-0.03832131,3.29999992623925,5
-34.85987,0.2833333,-33.16459,-0.3511523215813135,0.1765011448118539,-0.1401649571152212,3.268545,52.78462,359.9495,0.02535125,0.4443453,-0.01307186,3.31999992579222,5
-34.81393,0.4833336,-33.1308,-0.2712493705605361,-0.0912985030589094,-0.0319492470285993,6.536078,52.78027,359.8987,0.05067401,0.4438031,-0.02612916,3.33999992534518,5
-34.76799,0.6833338,-33.09703,-0.1872952780383308,-0.358053169511851,0.0752072875735088,9.802379,52.77292,359.847,0.07594524,0.4429003,-0.03916197,3.35999992489815,5
-34.584,0.2833332,-32.96327,-0.2630541418160597,0.0421643828501712,0.0640329775012169,3.225781,50.32368,359.8517,0.02492548,0.4250408,-0.01313856,3.37999992445111,5
-34.53903,0.4833331,-32.92933,-0.2594290575298146,-0.222498652639789,0.1310512303756681,6.450593,50.31108,359.7024,0.04982372,0.4245346,-0.02626306,3.39999992400408,5
-34.37322,0.2833335,-32.80778,-0.251314708742516,-0.4861170762646852,0.195278131586047,3.198741,48.7253,359.7897,0.02466838,0.412396,-0.01318481,3.41999992355704,5
-34.32887,0.4833333,-32.77371,-0.3227294459000234,-0.0827628907878777,0.1978100383979466,6.396533,48.7076,359.5782,0.04931074,0.411912,-0.02635502,3.43999992311001,5
-34.28453,0.683333,-32.73966,-0.2591589407749453,-0.3442890346852075,0.3329461944569871,9.593322,48.6778,359.364,0.0739075,0.4111062,-0.03950086,3.45999992266297,5
-34.2402,0.883333,-32.70562,-0.1876424677125747,-0.604769758179253,0.4659984806834458,12.78866,48.63556,359.1465,0.09843832,0.4099799,-0.05260618,3.47999992221594,5
-34.05799,0.2833335,-32.57463,-0.2608008370110575,-0.1982780705027271,0.4871316015660234,3.532006,50.0611,359.797,0.02717407,0.4229493,-0.0146435,3.4999999217689,5
-34.0084,0.4833336,-32.53776,-0.2685406324937673,-0.45666850412175,0.5807326501131804,7.063035,50.04219,359.5924,0.05431504,0.4223447,-0.02926932,3.51999992132187,5
-33.84561,0.283333,-32.42044,-0.4084941901142613,-0.2338217534330852,0.5692224495162357,3.508512,51.38163,359.8385,0.02697603,0.4333499,-0.01454015,3.53999992087483,5
-33.796,0.4833325,-32.38443,-0.5409711692949735,-0.0088842719673445,0.5531622983149802,7.017249,51.36666,359.6755,0.05392739,0.432739,-0.02907035,3.5599999204278,5
-33.74641,0.6833324,-32.34843,-0.5567866333617175,-0.4744400271286317,0.6655462707718307,10.52487,51.34142,359.5101,0.08081999,0.431722,-0.04356877,3.57999991998076,5
-33.69682,0.8833321,-32.31244,-0.6751503736328104,-0.2453203919596118,0.6900756964752794,14.03144,51.30542,359.3409,0.1076294,0.4303,-0.05802228,3.59999991953373,5
-33.52686,0.2833333,-32.189,-0.6952287184685915,-0.4409857719577652,0.821027238195029,3.56979,52.86819,359.9357,0.02764105,0.4449677,-0.01436796,3.61999991908669,5
-33.47652,0.4833333,-32.15228,-0.7045351493138376,-0.6356053748061652,0.9398941434476562,7.139042,52.86214,359.871,0.05525137,0.4443198,-0.02871936,3.63999991863966,5
-33.32235,0.2833332,-32.03915,-0.8759265912316643,-0.163253594906973,0.9224942633214576,3.58428,53.48125,0.05755277,0.02815488,0.4497181,-0.01362334,3.65999991819263,5
-33.27269,0.4833333,-32.00111,-1.0353525125437173,0.2845312678044456,0.8943061869296827,7.167603,53.48675,0.116259,0.05627752,0.4490583,-0.02722419,3.67999991774559,5
-33.22305,0.6833333,-31.96309,-1.0694114336448235,-0.1972292529495801,0.9782763265094836,10.74992,53.49603,0.1758613,0.08433726,0.4479596,-0.0407948,3.69999991729856,5
-33.17342,0.8833335,-31.92507,-1.191073758952335,0.0167311334691403,0.9757685861128635,14.33118,53.50927,0.2368523,0.1123063,0.4464236,-0.05432177,3.71999991685152,5
-33.01791,0.2833337,-31.80651,-1.2944532762164729,0.2338272201476461,0.9628603662211715,3.56686,53.37069,0.06948493,0.02807899,0.448856,-0.01343493,3.73999991640449,5
-32.96869,0.4833335,-31.7684,-1.2353838922945748,-0.2385258284448006,1.063189783909671,7.132657,53.37723,0.1396722,0.05612315,0.4482036,-0.02685146,3.75999991595745,5
-32.83249,0.2833333,-31.65583,-1.3277601548460929,-0.0151564709194962,1.0278598783625803,3.651627,52.76184,0.08005581,0.0288533,0.4440912,-0.01353149,3.77999991551042,5
-32.7826,0.4833332,-31.61614,-1.4055629886066434,0.211349154088131,0.9773552236705711,7.302214,52.76954,0.1607687,0.05766924,0.4434146,-0.02704522,3.79999991506338,5
-32.73272,0.6833336,-31.57646,-1.3669769068590083,-0.251593464613926,0.9765569566132974,10.95186,52.78259,0.2429537,0.08641993,0.4422882,-0.04052681,3.81999991461635,5
-32.5514,0.283333,-31.41225,-1.4040048820550195,-0.0188153655368487,0.8999204268199641,3.633685,51.86136,0.08579502,0.02883989,0.4370421,-0.01319089,3.83999991416931,5
-32.50247,0.4833328,-31.37191,-1.4182427078093909,0.2170983532162577,0.8189966146244494,7.266279,51.86958,0.1722525,0.05764218,0.4363828,-0.02636464,3.85999991372228,5
-32.45355,0.6833325,-31.33158,-1.2484828212713914,-0.236436822160138,0.8443710808115448,10.89781,51.88345,0.2601257,0.08637835,0.435285,-0.03950785,3.87999991327524,5
-32.33476,0.283333,-31.21759,-1.2205352416589932,0.0057496118909879,0.7504883114482723,3.586149,52.15859,0.151485,0.02868505,0.4393618,-0.01256872,3.89999991282821,5
-32.28698,0.483333,-31.17712,-1.0503304892210643,-0.1758037111218173,0.7560465173141147,7.171174,52.1729,0.3041279,0.05733322,0.4387154,-0.02512119,3.91999991238117,5
-32.23922,0.6833328,-31.13665,-1.010433566736502,0.1249256228468963,0.6522406814818567,10.75511,52.19707,0.459191,0.08591706,0.4376392,-0.03764509,3.93999991193414,5
-32.07858,0.2833337,-30.97682,-0.961626885863886,0.4287913747499843,0.5410966273434674,3.528429,51.50341,0.2125506,0.02853438,0.4342139,-0.011706,3.9599999114871,5
-32.03273,0.483334,-30.93558,-0.8943117014447317,0.6835233604034632,0.4313427867651391,7.055759,51.52316,0.4266894,0.05703326,0.4335943,-0.02339714,3.97999991104007,5
-31.98689,0.6833338,-30.89436,-0.6742167258638929,-0.0169021901360627,0.4440458186309755,10.58203,51.55651,0.6440852,0.08547027,0.4325628,-0.03506269,3.99999991059303,5
-31.89036,0.2833331,-30.78561,-0.5940721542471508,0.191830616252097,0.3459294574275304,3.47246,50.27573,0.2459969,0.02834012,0.4245429,-0.0109281,4.019999910146,5
-31.84653,0.4833331,-30.74358,-0.3865221879616562,-0.0231764887089019,0.3367360006543229,6.943795,50.29823,0.493733,0.05664545,0.4239554,-0.02184281,4.03999990969896,5
-31.8027,0.683333,-30.70156,-0.309373633329411,0.244099773406978,0.2257436269268673,10.41359,50.3363,0.7460064,0.08489053,0.4229777,-0.03272555,4.05999990925193,5
-31.66595,0.2833336,-30.54164,-0.2335748784137585,0.5145128305020987,0.108476749203298,3.425961,47.80455,0.2280087,0.02813482,0.4049416,-0.01029354,4.07999990880489,5
-31.62435,0.4833335,-30.49853,-0.1508309187109873,0.7357916328793646,-0.0062674213240967,6.850521,47.82522,0.4586903,0.05623729,0.4043968,-0.0205649,4.09999990835786,5
-31.50173,0.2833338,-30.3502,0.0771717453444296,0.0019145299917565,-0.0210488259033923,3.386551,46.24971,0.167331,0.02774791,0.3925245,-0.01026259,4.11999990791082,5
-31.46108,0.4833341,-30.30723,0.168791557274968,0.1771948457755467,-0.1308444654944835,6.771798,46.26465,0.3360774,0.05546214,0.3920093,-0.02050993,4.13999990746379,5
-31.42043,0.6833338,-30.26427,0.3698398169271897,-0.0712644736271091,-0.1543646427962635,10.15609,46.28984,0.5071408,0.08312046,0.3911514,-0.03073681,4.15999990701675,5
-31.3798,0.883334,-30.22132,0.4399263072561723,0.1625595583659524,-0.2648156504852181,13.53926,46.32571,0.681803,0.1106977,0.3899519,-0.0409338,4.17999990656972,5
-31.24233,0.2833333,-30.07025,0.4988398291236073,0.399519584292147,-0.3734612161135153,3.338051,45.63165,0.1175905,0.02724468,0.387578,-0.01034866,4.19999990612268,5
-31.20213,0.4833336,-30.02806,0.7229237878158017,-0.052968787515217,-0.3434427733229377,6.674724,45.64198,0.2358526,0.05445483,0.3870842,-0.02068497,4.21999990567565,5
-31.16195,0.6833333,-29.98588,0.9338770457518528,-0.5300245784818287,-0.3094567957678009,10.01049,45.65937,0.3557283,0.08161169,0.3862621,-0.03100084,4.23999990522861,5
-30.99618,0.2833331,-29.8354,1.0134468765868585,-0.1266704391773355,-0.358960765715878,3.289176,46.28529,0.02240567,0.02646687,0.3928545,-0.01109982,4.25999990478158,5
-30.95495,0.4833333,-29.79548,1.1818568501553628,-0.3881977931377901,-0.3202931854761459,6.577309,46.28722,0.04493553,0.05290351,0.3923692,-0.02218711,4.27999990433455,5
-30.91375,0.6833333,-29.75557,1.2332745580222486,-0.1684874297181102,-0.3601955092504596,9.864207,46.29033,0.06663995,0.07928291,0.3915606,-0.03326081,4.29999990388751,5
-30.7864,0.2833335,-29.66288,1.2680459179450525,0.0533141052064585,-0.3922900074270892,3.244394,46.35891,359.9594,0.02588439,0.3934637,-0.0114681,4.31999990344048,5
-30.74494,0.4833336,-29.62434,1.4498555590728053,-0.4153786332822667,-0.281306153798571,6.487835,46.35544,359.9186,0.05174038,0.3929907,-0.0229238,4.33999990299344,5
-30.70349,0.6833334,-29.58581,1.4547408600726826,-0.1893949522336475,-0.3105594864815124,9.730379,46.3496,359.8772,0.07754786,0.392203,-0.03435786,4.35999990254641,5
-30.5202,0.2833333,-29.45201,1.4324738865197837,0.0386794658645093,-0.3392832575575006,3.204157,44.14143,359.8262,0.02533954,0.3756426,-0.01191001,4.37999990209937,5
-30.47909,0.4833333,-29.41401,1.3915442025998177,0.2165743727096859,-0.3589171023871138,6.407345,44.12677,359.6514,0.05065169,0.3752009,-0.02380739,4.39999990165234,5
-30.32017,0.2833333,-29.2793,1.3747365738878443,0.1585544209553996,-0.3502196321073079,3.440722,43.92635,359.7957,0.0271762,0.373891,-0.01288073,4.4199999012053,5
-30.27592,0.4833335,-29.23851,1.3329191792957469,0.1313739488826808,-0.3380942681736982,6.880424,43.90783,359.5901,0.05432014,0.3733837,-0.02574611,4.43999990075827,5
-30.23168,0.6833335,-29.19773,1.3768403326627237,-0.3451581060292762,-0.2282250055193806,10.31913,43.87662,359.3814,0.08140787,0.3725391,-0.03858477,4.45999990031123,5
-30.18746,0.8833337,-29.15696,1.2651209366314262,-0.1259702197281638,-0.2511072905088696,13.75843,43.83209,359.1681,0.1084274,0.3713575,-0.05139194,4.4799998998642,5
-30.02644,0.2833333,-29.01096,1.1295191545541847,0.096353374673314,-0.2718181873496199,3.557366,46.32563,359.8418,0.0279939,0.3931948,-0.01347804,4.49999989941716,5
-29.97961,0.4833332,-28.9701,1.1354505198434524,-0.370771584773459,-0.1508309796943621,7.113825,46.31078,359.6822,0.05595348,0.3926254,-0.02694063,4.51999989897013,5
-29.82281,0.2833333,-28.84414,1.0551657324886747,-0.1421745678534796,-0.1078989505692469,3.571414,48.40759,359.8946,0.02804501,0.4098104,-0.01361458,4.53999989852309,5
-29.77497,0.4833331,-28.80415,0.9550971361096252,0.0895587141966409,-0.0632585283627058,7.141935,48.39761,359.7877,0.05605374,0.4092127,-0.02721729,4.55999989807606,5
-29.72715,0.683333,-28.76418,0.939159167308123,-0.3681565561204892,0.0658157689905323,10.71137,48.38076,359.6792,0.08399959,0.4082178,-0.04078984,4.57999989762902,5
-29.67934,0.8833328,-28.72422,0.8006706136863251,-0.1301511915944151,0.0622956875180911,14.27979,48.35671,359.5681,0.1118563,0.4068269,-0.05431895,4.59999989718199,5
-29.50968,0.2833334,-28.60123,0.6517229243057763,0.1109905885138577,0.059056176909781,3.594557,50.56093,0.03648522,0.02849546,0.4268304,-0.01310591,4.61999989673495,5
-29.46165,0.4833331,-28.56089,0.5575599761075516,0.1428752288141006,0.0549906784316789,7.188327,50.56438,0.07328551,0.0569568,0.4262005,-0.02619581,4.63999989628792,5
-29.31053,0.2833333,-28.44554,0.4452541568277439,0.2055991925069814,0.0383971063147932,3.548515,51.39722,0.08898829,0.02823577,0.4334075,-0.01272671,4.65999989584088,5
-29.26311,0.4833336,-28.4057,0.3259483967877727,0.2458470804284773,0.0175650811969987,7.095623,51.40554,0.1786226,0.05643332,0.432784,-0.02543626,4.67999989539385,5
-29.21571,0.6833335,-28.36587,0.3024727888377647,-0.4300116996292696,0.064648184394727,10.64174,51.41957,0.26964,0.08456908,0.4317459,-0.03811781,4.69999989494681,5
-29.01084,0.2833336,-28.2059,0.1670331412805552,-0.1977559226885938,-0.0147270257765086,3.622833,52.34901,0.1058556,0.02877573,0.4408597,-0.01311471,4.71999989449978,5
-28.9619,0.4833336,-28.16582,0.0346629246888419,0.0365901733986104,-0.0961770019933077,7.244655,52.35911,0.212536,0.05751476,0.4401983,-0.02621267,4.73999989405274,5
-28.91298,0.6833336,-28.12575,0.0754906984688403,-0.419557763570086,-0.0640999186201831,10.86609,52.37611,0.3205502,0.08619195,0.4390968,-0.03928607,4.75999989360571,5
-28.77184,0.2833333,-28.01354,-0.0278838269581989,-0.1810298810672992,-0.16203216553928,3.641965,52.50136,0.103112,0.02889735,0.4420502,-0.01324823,4.77999989315867,5
-28.72251,0.4833333,-27.97343,-0.1312748611657994,0.0595888556581625,-0.2634613380790434,7.282864,52.51126,0.2070506,0.05775721,0.44138,-0.02647911,4.79999989271164,5
-28.6732,0.6833335,-27.93333,-0.1332869896748327,-0.3902865186425069,-0.300084904777222,10.92266,52.52797,0.3126197,0.08655002,0.4402644,-0.03967964,4.8199998922646,5
-28.47826,0.2833336,-27.77456,-0.2276847720098125,-0.1454865515729465,-0.3939570370844549,3.604542,53.50785,0.1529623,0.02868413,0.449899,-0.01296632,4.83999989181757,5
-28.42929,0.4833338,-27.73502,-0.3114090745028548,0.1014043364513509,-0.4786466110273011,7.208014,53.52238,0.3070848,0.05733147,0.4492303,-0.02591613,4.85999989137053,5
-28.38033,0.6833335,-27.69548,-0.2206496096139183,-0.342198367852436,-0.4418830028264295,10.81043,53.5469,0.4636511,0.08591413,0.4481169,-0.03883658,4.8799998909235,5
-28.33139,0.8833333,-27.65596,-0.2838219438597278,-0.0911254244805998,-0.5048499051171049,14.41153,53.58189,0.6238452,0.1144015,0.4465604,-0.05171511,4.89999989047647,5
-28.17173,0.2833333,-27.52358,-0.3378377504727226,0.1620382284987375,-0.556721295182605,3.543701,54.77124,0.2355185,0.02839942,0.4596996,-0.01239824,4.91999989002943,5
-28.1236,0.4833331,-27.48456,-0.3412805673673169,0.204900276249623,-0.5883223071404196,7.086329,54.79322,0.4727977,0.05676353,0.4590374,-0.0247809,4.9399998895824,5
-27.98013,0.2833336,-27.36532,-0.3486985156787767,0.2775563858052031,-0.6207944251602981,3.503726,54.88759,0.2683607,0.0282094,0.4605981,-0.01201211,4.95999988913536,5
-27.93284,0.4833336,-27.32632,-0.3494324115593592,0.3266906958427177,-0.6460936566090574,7.006371,54.91236,0.5386657,0.05638422,0.4599486,-0.02400947,4.97999988868833,5
-27.88555,0.6833335,-27.28734,-0.2359099256418702,-0.3413277028665563,-0.5918428851830377,10.50721,54.95417,0.8132445,0.08449401,0.4588675,-0.03597628,4.99999988824129,5
-27.69195,0.2833333,-27.12549,-0.2451240467040421,-0.1022774386389462,-0.6489915879152441,3.440792,54.75961,0.2919549,0.02782999,0.4596101,-0.01154535,5.01999988779426,5
-27.64587,0.4833335,-27.08669,-0.2450620625490032,0.1378183952243545,-0.6975309920658894,6.880002,54.78609,0.5862169,0.05562393,0.4589845,-0.02307278,5.03999988734722,5
-27.5998,0.6833335,-27.04789,-0.2005861096134822,0.1665669231115619,-0.7227430188215429,10.31808,54.83073,0.8846733,0.08335963,0.4579427,-0.03457624,5.05999988690019,5
-27.46593,0.2833333,-26.93959,-0.1615198793478391,0.2240645302531131,-0.7469087722056855,3.395501,53.99694,0.2188684,0.02726485,0.4537162,-0.01174856,5.07999988645315,5
-27.42025,0.4833336,-26.90168,-0.1176010868671113,0.2569950613044309,-0.7621724335481943,6.789582,54.01648,0.4389812,0.05449384,0.4531163,-0.02348367,5.09999988600612,5
-27.37458,0.6833337,-26.86378,0.1153384169459315,-0.4282711529316331,-0.6392867683968682,10.1826,54.04943,0.6621722,0.08166717,0.4521177,-0.03519467,5.11999988555908,5
-27.18655,0.2833334,-26.71624,0.2056005275957062,-0.2075155233938946,-0.6059640779274034,3.351049,52.90066,0.1401358,0.02672297,0.4451991,-0.01192936,5.13999988511205,5
-27.1414,0.4833335,-26.67903,0.2935763768613135,0.0132404157597095,-0.5661018892202172,6.70074,52.91301,0.2810829,0.05341203,0.4446272,-0.02384449,5.15999988466501,5
-27.09625,0.6833335,-26.64182,0.3719198971431545,0.0216042147480985,-0.530705112222158,10.04947,52.93382,0.4239337,0.08004802,0.443675,-0.03573601,5.17999988421798,5
-26.96523,0.2833336,-26.54474,0.444361393335285,0.0576710465606511,-0.4913166340442814,3.307633,52.30541,0.05656593,0.02612335,0.4405686,-0.01227781,5.19999988377094,5
-26.92017,0.4833338,-26.50869,0.5214286237106833,0.0681252884025256,-0.440052540598554,6.614287,52.31033,0.1134793,0.05221718,0.440018,-0.02454188,5.21999988332391,5
-26.87511,0.6833337,-26.47264,0.5911668876664891,0.0796245982570922,-0.3984279284895322,9.919722,52.31857,0.1707528,0.07825651,0.4391012,-0.03678399,5.23999988287687,5
-26.6812,0.2833333,-26.33592,0.643719876931808,0.1188270860736995,-0.3598178806967311,3.26376,51.36374,359.9469,0.02546399,0.43321,-0.01275876,5.25999988242984,5
-26.63614,0.4833333,-26.30111,0.689372474690682,0.1324171397729732,-0.3164830808843355,6.526562,51.35918,359.8935,0.05089981,0.4326829,-0.02550357,5.2799998819828,5
-26.59109,0.6833335,-26.26629,0.6276974999112426,0.7873671563253208,-0.3473239310125748,9.788093,51.35145,359.8391,0.07628326,0.4318052,-0.0382254,5.29999988153577,5
-26.46166,0.2833333,-26.17543,0.6949786387818229,0.5394307762870912,-0.280805140622629,3.220702,49.752,359.8763,0.0250409,0.420517,-0.01280049,5.31999988108873,5
-26.41738,0.4833333,-26.14077,0.7568673216860304,0.2946303192682853,-0.2082909099667205,6.440444,49.74151,359.7518,0.05005476,0.4200181,-0.02558688,5.3399998806417,5
-26.37311,0.6833335,-26.10612,0.6489946196298106,0.7188927451965719,-0.2644392415780991,9.659181,49.72386,359.6258,0.07502149,0.4191875,-0.03834915,5.35999988019466,5
-26.18606,0.2833336,-25.97437,0.6835349611655559,0.4803648493647971,-0.2135466348983286,3.281694,48.75246,359.808,0.02539053,0.4126005,-0.0133433,5.37999987974763,5
-26.14078,0.4833336,-25.93913,0.7053036308975607,0.2449733654562811,-0.1624629009692739,6.562445,48.73588,359.6149,0.05075313,0.4120913,-0.02667202,5.39999987930059,5
-26.09552,0.6833335,-25.9039,0.7248933245398028,-0.0416430337303929,-0.1033532948627318,9.842196,48.70795,359.4192,0.0760669,0.4112435,-0.03997498,5.41999987885356,5
-25.88961,0.2833337,-25.75933,0.7846287397508753,-0.1137762750966066,-0.0252006143420615,3.534148,50.61977,359.823,0.02721637,0.4273531,-0.01457844,5.43999987840652,5
-25.83994,0.4833338,-25.72258,0.8281359888042594,-0.1582059477784519,0.0503223437525619,7.06734,50.60328,359.6447,0.05439953,0.426742,-0.0291396,5.45999987795949,5
-25.79029,0.6833338,-25.68584,0.7520678053624827,0.251943588581815,0.0348208514285381,10.60147,50.57535,359.4629,0.08153622,0.4257234,-0.04368215,5.47999987751245,5
-25.64989,0.2833333,-25.58881,0.7644452788482603,-0.0017424897682509,0.0869566346241903,3.560895,52.03812,359.8546,0.02736454,0.4384934,-0.0147686,5.49999987706542,5
-25.59934,0.4833333,-25.5526,0.7690230373826914,-0.2533374614289082,0.140655899526056,7.120944,52.02444,359.7078,0.05469465,0.4378572,-0.02952293,5.51999987661839,5
-25.5488,0.6833333,-25.51639,0.6014974465947809,0.1630849963495632,0.0561805999722544,10.67993,52.00134,359.5586,0.08196405,0.4367981,-0.04424473,5.53999987617135,5
-25.35117,0.2833333,-25.37795,0.5870921895718411,-0.0843289183309701,0.0802014071339982,3.595336,53.70612,359.9828,0.02791964,0.4514858,-0.01430377,5.55999987572432,5
-25.30043,0.4833333,-25.34105,0.56007675059492,-0.3296520049241013,0.098054499023874,7.189922,53.70451,359.9657,0.05580678,0.4508193,-0.02858891,5.57999987527728,5
-25.2497,0.6833332,-25.30417,0.4266669251262449,0.0930427236785208,0.0340213734368397,10.78349,53.70178,359.9483,0.08363117,0.4497095,-0.04284178,5.59999987483025,5
-25.03603,0.2833334,-25.15354,0.4659933233197364,-0.1480985887826079,0.0914114179887519,3.555855,54.77187,0.08282194,0.02788089,0.4597404,-0.01362981,5.61999987438321,5
-24.98619,0.4833331,-25.11657,0.4936978013373831,-0.3871493414784624,0.1420731892284408,7.110431,54.77965,0.1665247,0.05572604,0.4590763,-0.02723955,5.63999987393618,5
-24.93636,0.683333,-25.07961,0.3511099214829656,0.0418176922726327,0.0624244037345071,10.66395,54.79278,0.2514834,0.0835093,0.4579706,-0.04081929,5.65999987348914,5
-24.78739,0.2833336,-24.97598,0.2022410299494943,0.4472628765001746,-0.0222526514127672,3.614655,55.53626,0.08903899,0.02826842,0.465641,-0.01400646,5.67999987304211,5
-24.73625,0.4833336,-24.93901,0.1995381200481603,-0.0757908452497793,-0.0085355796783517,7.228307,55.54473,0.1787245,0.05650077,0.4649457,-0.02799545,5.69999987259507,5
-24.68513,0.6833335,-24.90205,0.093282860324539,0.0979217644094703,-0.0691315858602656,10.84144,55.559,0.2695176,0.08467171,0.4637879,-0.04195714,5.71999987214804,5
-24.47796,0.2833333,-24.75748,0.1090008398239419,-0.1510607148521943,-0.0461915244946062,3.647736,56.15691,0.1115599,0.02853918,0.4704141,-0.01412186,5.739999871701,5
-24.42617,0.4833331,-24.72042,0.1211794587315431,-0.3969068823758099,-0.0269012191127551,7.294442,56.16763,0.2239872,0.05704143,0.4696986,-0.02822556,5.75999987125397,5
-24.3744,0.6833332,-24.68336,-0.0362630044656526,0.0263104879975971,-0.1237904508577472,10.94001,56.18574,0.3382252,0.0854772,0.4685075,-0.04229639,5.77999987080693,5
-24.32265,0.8833332,-24.64631,-0.1926258892422581,0.4270514278568557,-0.220154102268971,14.58486,56.21157,0.4551499,0.1138206,0.4668419,-0.05632281,5.7999998703599,5
-24.15047,0.2833333,-24.52748,-0.2028248222262014,-0.0996615584116791,-0.2161787879052639,3.60566,57.50421,0.1616381,0.02825952,0.4807435,-0.01389693,5.81999986991286,5
-24.09893,0.4833332,-24.4913,-0.3064049277081899,0.0714374724924115,-0.2739378712192852,7.210235,57.51957,0.3245204,0.05648277,0.4800283,-0.02777598,5.83999986946583,5
-24.0474,0.6833332,-24.45514,-0.4002045084984793,0.2477635809328868,-0.3253747623763843,10.8137,57.54549,0.4899384,0.08464167,0.4788376,-0.0416237,5.85999986901879,5
-23.85847,0.2833336,-24.32415,-0.3167892381814283,-0.263268092665441,-0.2565482883905545,3.543983,59.00753,0.2424059,0.0279535,0.4921873,-0.01338834,5.87999986857176,5
-23.80764,0.4833335,-24.28869,-0.3848950233111985,-0.0764881230868971,-0.2921110940643316,7.0869,59.03017,0.4866364,0.05587237,0.491478,-0.02675983,5.89999986812472,5
-23.75684,0.6833335,-24.25323,-0.4415334609794712,0.1155187624249295,-0.3213711957828593,10.62864,59.06836,0.7345645,0.08372924,0.4902971,-0.04010179,5.91999986767769,5
-23.55178,0.2833332,-24.11029,-0.3066399447922094,-0.3798319238002201,-0.2216894972689402,3.482243,59.27816,0.2827077,0.02762758,0.4942398,-0.01288241,5.93999986723065,5
-23.50208,0.4833331,-24.07501,-0.3477613048020664,-0.1773710772264656,-0.2451766657212708,6.963346,59.30409,0.5674343,0.05522114,0.4935509,-0.02574893,5.95999986678362,5
-23.45239,0.6833333,-24.03974,-0.3872600215602197,0.0303164538091746,-0.2692883452261441,10.44282,59.34785,0.8565298,0.08275289,0.4924042,-0.03858445,5.97999986633658,5
-23.31402,0.2833336,-23.94305,-0.3189265982054614,-0.4493532868592335,-0.2211066981116793,3.431884,59.08436,0.291076,0.02730317,0.4927753,-0.01255555,5.99999986588955,5
-23.26527,0.4833338,-23.90792,-0.3470200910453336,-0.2312107283554236,-0.2386874081896515,6.862322,59.11068,0.5843463,0.05457181,0.4921079,-0.02509323,6.01999986544251,5
-23.21653,0.6833335,-23.87281,-0.364925880356715,-0.0078411294273149,-0.2495928385765466,10.29168,59.15505,0.8817885,0.081784,0.4909966,-0.03760505,6.03999986499548,5
-23.02064,0.2833333,-23.73631,-0.205629807791297,-0.4718295353847687,-0.1364570065950729,3.391461,57.56968,0.1910863,0.0267378,0.481267,-0.01278821,6.05999986454844,5
-22.97249,0.4833333,-23.70177,-0.2104816643539919,-0.2380062409291034,-0.1360921494765783,6.781558,57.58673,0.3833751,0.05344139,0.4806329,-0.02556071,6.07999986410141,5
-22.92435,0.6833333,-23.66723,-0.2119359790261796,0.0010442534631415,-0.1328515063398683,10.1706,57.61547,0.5783442,0.08009036,0.4795772,-0.038307,6.09999986365438,5
-22.71337,0.2833335,-23.51955,-0.0241960790024045,-0.4472626722098894,0.0011883185886603,3.340437,55.92101,0.1067294,0.02618092,0.4686395,-0.01284347,6.11999986320734,5
-22.66615,0.4833334,-23.48535,-0.0281407976736183,-0.1977582453302829,0.0011304638066249,6.679547,55.9304,0.2142875,0.05232985,0.4680418,-0.02566988,6.13999986276031,5
-22.61893,0.6833333,-23.45116,-0.0380213594775007,0.0569737267328565,-0.0043879031918372,10.01767,55.94623,0.3232803,0.07842672,0.4670466,-0.03847088,6.15999986231327,5
-22.57174,0.8833333,-23.41698,-0.0429083418466902,0.2646622722526634,-0.008027039543073,13.35479,55.96877,0.4345185,0.1044495,0.4656552,-0.05123544,6.17999986186624,5
-22.39255,0.2833335,-23.29295,-0.010674089655275,0.2395722270037941,0.0132111102886511,3.290551,54.20336,359.9792,0.02547622,0.4553879,-0.01324186,6.1999998614192,5
-22.34578,0.4833336,-23.25967,0.0177516173474394,0.2484581129111319,0.0309253716099782,6.580136,54.20156,359.9582,0.05092399,0.4548247,-0.02646888,6.21999986097217,5
-22.1848,0.2833333,-23.14694,0.1745443141067362,-0.1888722546205,0.1356803185815529,3.244764,52.79779,359.9224,0.02505884,0.4444568,-0.01319427,6.23999986052513,5
-22.13889,0.4833333,-23.11379,0.1467380217784644,0.0726550042075617,0.1116052981524298,6.488567,52.79116,359.8443,0.05009014,0.443922,-0.0263742,6.2599998600781,5
-22.093,0.6833334,-23.08065,0.1106666149864068,0.3404548440854618,0.0807428864242325,9.731384,52.78,359.7653,0.07507379,0.4430317,-0.03952901,6.27999985963106,5
-22.04712,0.8833333,-23.04752,0.0768567804574402,0.5622560808936858,0.0504099840324769,12.97298,52.76416,359.6849,0.09998887,0.4417871,-0.05264574,6.29999985918403,5
-21.87642,0.2833333,-22.9283,0.1848726863843381,-0.1679629523800095,0.1163160939365113,3.203071,50.09177,359.8076,0.02461001,0.4232205,-0.01335197,6.31999985873699,5
-21.83141,0.4833333,-22.89502,0.1559933930124408,0.0141131438640053,0.0880181535702391,6.40516,50.07556,359.6142,0.0491936,0.4227228,-0.02668928,6.33999985828996,5
-21.78641,0.6833333,-22.86175,0.1295329713981559,0.2024615975270395,0.0612171457941208,9.60624,50.04826,359.4183,0.07373135,0.4218942,-0.04000205,6.35999985784292,5
-21.59606,0.2833334,-22.7293,0.2626606840216183,-0.295502183689373,0.1451781728753935,3.450976,50.64537,359.7991,0.02646795,0.4275689,-0.01446316,6.37999985739589,5
-21.54723,0.4833334,-22.6938,0.2359018934225503,-0.0946093337772714,0.1192901311564753,6.900988,50.62711,359.5967,0.05290477,0.4269854,-0.02890927,6.39999985694885,5
-21.49841,0.6833333,-22.65832,0.2074182880792427,0.1125560859464979,0.0931276342273825,10.35035,50.59628,359.3913,0.07928851,0.4260137,-0.04332808,6.41999985650182,5
-21.29187,0.2833333,-22.51517,0.3526722532355499,-0.3665905455653283,0.1890497911888466,3.548964,52.41956,359.8422,0.02717388,0.441485,-0.01491112,6.43999985605478,5
-21.2411,0.4833333,-22.47958,0.3116073976852007,-0.1468796563910784,0.1571843251184645,7.097641,52.40475,359.6827,0.05431781,0.4408484,-0.02981057,6.45999985560775,5
-21.19034,0.6833331,-22.44401,0.2610879417169904,0.0791039349264381,0.1200590134553536,10.6453,52.37976,359.5208,0.08140225,0.4397886,-0.04467719,6.47999985516071,5
-21.05031,0.2833335,-22.34715,0.2121793681278525,0.2590891115224781,0.0853323796958136,3.572974,53.4938,359.897,0.02743511,0.4498562,-0.01483251,6.49999985471368,5
-20.99912,0.4833335,-22.3115,0.2000592051133871,0.2073411760347838,0.0763391016879708,7.145133,53.48409,359.7932,0.05483704,0.4491997,-0.0296479,6.51999985426664,5
-20.94795,0.6833335,-22.27587,0.1840657511280028,0.1906141173157942,0.0655125649775065,10.71625,53.46769,359.6877,0.0821778,0.4481067,-0.04443043,6.53999985381961,5
-20.75037,0.2833332,-22.13734,0.1756636529882627,0.1555925633821739,0.0607065235477932,3.591942,54.83769,0.05555341,0.02804294,0.460252,-0.0140019,6.55999985337257,5
-20.6997,0.4833331,-22.10044,0.1578470546507411,0.1289346375122599,0.0501669695548727,7.182998,54.843,0.1121334,0.05605385,0.4595738,-0.027982,6.57999985292554,5
-20.64904,0.6833332,-22.06355,0.1321782791580048,0.1372978776414039,0.0353453515027268,10.77301,54.85197,0.169609,0.08400166,0.4584446,-0.0419305,6.5999998524785,5
-20.43441,0.2833333,-21.91365,0.1102713102745625,0.12736655373303,0.0241763817376998,3.568876,55.66808,0.08601945,0.0278869,0.4666649,-0.01387581,6.61999985203147,5
-20.38383,0.4833331,-21.87729,0.0741372136750726,0.1257982837835412,0.0027908725267593,7.136613,55.67615,0.1725021,0.05573718,0.4659857,-0.02773516,6.63999985158443,5
-20.33327,0.6833332,-21.84094,0.0230657981712774,0.159251698531152,-0.028840778682305,10.70326,55.68977,0.2603335,0.08352512,0.4648549,-0.04156333,6.6599998511374,5
-20.28273,0.8833331,-21.80461,-0.0311881704699921,0.1744101757682034,-0.0626597866919631,14.26889,55.70921,0.3502142,0.1112244,0.4632741,-0.05534755,6.67999985069036,5
-20.10082,0.2833333,-21.67862,0.02022809124513,-0.5223562749049631,-0.0243894103266733,3.646541,56.32727,0.1123086,0.02851204,0.4717247,-0.0141536,6.69999985024333,5
-20.04894,0.4833334,-21.6417,-0.0786297624914134,-0.3068278008738384,-0.0885367993258796,7.29201,56.33807,0.2255259,0.05698704,0.4710076,-0.02828855,6.7199998497963,5
-19.88332,0.2833333,-21.52685,-0.1747770486919329,-0.0850267638262159,-0.1501752457058707,3.59798,56.85546,0.1175845,0.02809593,0.4757867,-0.01404275,6.73999984934926,5
-19.83187,0.4833335,-21.4908,-0.2361995393137697,-0.0693455879306026,-0.1871104842424777,7.194888,56.86661,0.2360507,0.05615583,0.4750826,-0.02806766,6.75999984890223,5
-19.78043,0.6833334,-21.45477,-0.3062819699637842,-0.0196886616477516,-0.2291228479689202,10.79076,56.88543,0.3564045,0.08415266,0.4739103,-0.04206078,6.77999984845519,5
-19.72901,0.883333,-21.41875,-0.3729049355506362,0.010628164937745,-0.2680132314082044,14.38599,56.91222,0.4792928,0.1120604,0.4722709,-0.05601279,6.79999984800816,5
-19.5567,0.2833335,-21.29992,-0.2464754929463843,-0.6720250323644057,-0.1726822804502319,3.565744,58.63644,0.2061669,0.02800744,0.4893731,-0.01366631,6.81999984756112,5
-19.50545,0.4833335,-21.26447,-0.2611333125329445,-0.4434283998942884,-0.1740541034900218,7.130418,58.65581,0.4138783,0.05597965,0.4886602,-0.02731546,6.83999984711409,5
-19.45421,0.6833333,-21.22903,-0.2706025574152484,-0.2096050437593787,-0.1723142435402742,10.69399,58.6885,0.6248032,0.08388963,0.4874732,-0.04093413,6.85999984666705,5
-19.26562,0.2833333,-21.09826,-0.2627372690647345,-0.0228251502344792,-0.1593409816666451,3.510078,59.40524,0.2638406,0.02774263,0.4952034,-0.01317632,6.87999984622002,5
-19.21526,0.4833332,-21.06313,-0.2556226728634989,-0.0688230847638795,-0.1492404566961731,7.019066,59.42963,0.529604,0.0554511,0.4945027,-0.02633634,6.89999984577298,5
-19.1649,0.6833332,-21.02801,-0.245627542736015,-0.0808452037420949,-0.1388375640441772,10.5265,59.4708,0.799412,0.08309674,0.4933363,-0.03946548,6.91999984532595,5
-18.96026,0.2833334,-20.88539,-0.2215184767584315,-0.1122073428793185,-0.1204240883491323,3.452382,59.28786,0.2903197,0.02743296,0.494316,-0.0126982,6.93999984487891,5
-18.91107,0.4833334,-20.85026,-0.2036489632056195,-0.1362515229896798,-0.1075137776355958,6.903245,59.31428,0.5829368,0.05483078,0.4936386,-0.0253773,6.95999984443188,5
-18.86189,0.6833335,-20.81515,-0.1915248450532658,-0.1263198844126214,-0.0993429243886296,10.35295,59.35883,0.8797503,0.08217067,0.4925108,-0.03802979,6.97999984398484,5
-18.81273,0.8833334,-20.78005,-0.1742927011072161,-0.1357282484839405,-0.0882399897460928,13.8014,59.42232,1.183114,0.109428,0.4909339,-0.05064381,6.99999984353781,5
-18.64123,0.2833334,-20.66117,-0.0736581628216885,-0.1378194219925311,-0.0177446827698446,3.404174,58.15382,0.2228309,0.02690373,0.4857174,-0.01273623,7.01999984309077,5
-18.59283,0.4833333,-20.62652,0.019500746605642,-0.1059345474331268,0.0491794831228737,6.80697,58.17379,0.4472058,0.05377336,0.4850719,-0.02545583,7.03999984264374,5
-18.54445,0.6833332,-20.59189,0.1164584266296504,-0.0933898211826846,0.1203267170527055,10.20867,58.20747,0.674731,0.0805876,0.4839974,-0.03814913,7.0599998421967,5
-18.35723,0.2833333,-20.46158,0.0526938322577503,0.5667874893061036,0.0799252444171294,3.354069,56.42456,0.130374,0.0263265,0.4725076,-0.01283286,7.07999984174967,5
-18.30973,0.4833332,-20.42732,0.1343293776224978,0.3303503740826526,0.1375976283199307,6.706758,56.43608,0.2616844,0.05262012,0.4718997,-0.0256488,7.09999984130263,5
-18.26225,0.6833333,-20.39307,0.2164357586363952,0.1033218740904908,0.1945286503658572,10.05843,56.45549,0.3947954,0.07886101,0.4708877,-0.03843886,7.1199998408556,5
-18.05934,0.2833333,-20.25199,0.1134138067496568,0.5516287245810562,0.1226468671735219,3.303614,54.68695,0.0101533,0.02564546,0.4591306,-0.01316155,7.13999984040856,5
-18.01241,0.4833336,-20.21853,0.1690732867970474,0.3434176695349423,0.1586844810579997,6.606217,54.68783,0.02034905,0.05126167,0.4585584,-0.02630831,7.15999983996153,5
-17.9655,0.6833333,-20.18508,0.2179280914184627,0.1446152440945167,0.1888580366921424,9.907577,54.68929,0.03055158,0.0768252,0.4576056,-0.03942925,7.17999983951449,5
-17.82766,0.2833332,-20.08959,0.2710098233855014,-0.0991399055996167,0.2207325629902854,3.259502,53.49666,359.9366,0.02514859,0.4499044,-0.01329383,7.19999983906746,5
-17.78129,0.4833331,-20.05665,0.3564039084505186,-0.122139067702774,0.2741182394669437,6.51802,53.49123,359.8729,0.0502693,0.4493583,-0.02657286,7.21999983862042,5
-17.73494,0.6833333,-20.02372,0.4272497155686796,-0.1111625782971427,0.3160057898426416,9.775395,53.48206,359.8083,0.07534035,0.4484491,-0.03982637,7.23999983817339,5
-17.54107,0.2833333,-19.8882,0.3580077343058594,0.360665814975993,0.2605026509963899,3.214486,50.62417,359.8188,0.02467949,0.4274199,-0.01342047,7.25999983772635,5
-17.49572,0.4833332,-19.85506,0.2810206782352438,0.8152448550100071,0.1990819462848811,6.428022,50.60885,359.6366,0.04933251,0.4269139,-0.02682639,7.27999983727932,5
-17.45038,0.6833333,-19.82193,0.3442581938510543,0.3475976972209079,0.2334126742218316,9.640512,50.58305,359.4521,0.07393918,0.4260715,-0.04020691,7.29999983683228,5
-17.23874,0.2833334,-19.67365,0.403672894419163,-0.1372982700194054,0.2644927230774136,3.371799,50.31842,359.798,0.02587994,0.4249973,-0.01410257,7.31999983638525,5
-17.19118,0.4833334,-19.63878,0.3253884659888513,0.2655331965875606,0.2008685709491544,6.742637,50.30048,359.5946,0.05173032,0.4244435,-0.02818911,7.33999983593822,5
-17.14363,0.6833331,-19.60392,0.4048254250975187,0.0108012994455375,0.2470451025196531,10.1125,50.27026,359.3884,0.07752904,0.4235215,-0.0422474,7.35999983549118,5
-17.09611,0.8833331,-19.56907,0.4772718521443924,-0.2355670943851481,0.2894990652367646,13.48256,50.22718,359.1779,0.103263,0.4222316,-0.05627027,7.37999983504415,5
-16.91345,0.2833335,-19.44349,0.3893813955262502,0.1923544429961378,0.2219241049188056,3.537051,52.04239,359.83,0.02708252,0.4385353,-0.01487209,7.39999983459711,5
-16.86293,0.4833335,-19.40786,0.4732809175992152,-0.0372870247956274,0.2747965630457578,7.073221,52.02653,359.6585,0.0541322,0.4379072,-0.02972741,7.41999983415008,5
-16.81243,0.6833335,-19.37224,0.5441624342116409,-0.2585654284357497,0.3206225857624467,10.60953,51.99968,359.484,0.08113025,0.4368609,-0.04455829,7.43999983370304,5
-16.61413,0.2833336,-19.23538,0.4287486954214952,0.1944461940942554,0.2386225317495665,3.567814,53.58342,359.8954,0.02737689,0.4505551,-0.01484641,7.45999983325601,5
-16.56294,0.4833336,-19.19989,0.3042001822570555,0.6302083946493733,0.1512301872935957,7.134869,53.57355,359.7897,0.05472058,0.4498994,-0.02967713,7.47999983280897,5
-16.51177,0.6833335,-19.16442,0.3212458161854634,0.1437436909449554,0.1613744191518051,10.70089,53.55692,359.6825,0.08200357,0.4488078,-0.0444748,7.49999983236194,5
-16.297,0.2833333,-19.01429,0.33434474516201,-0.3599703024027554,0.169569160037895,3.59045,54.91449,0.05471626,0.02801863,0.4608469,-0.01402117,7.5199998319149,5
-16.24629,0.4833335,-18.97749,0.2086759086868479,0.0240436957364181,0.0834955491712285,7.180041,54.91972,0.1104448,0.05600546,0.4601684,-0.02802069,7.53999983146787,5
-16.19559,0.6833335,-18.94069,0.243949013574662,-0.2495053123428702,0.1091131082412211,10.76861,54.92855,0.1670588,0.08392951,0.4590386,-0.04198866,7.55999983102083,5
-16.14491,0.8833337,-18.90391,0.2750568529367534,-0.5146908181562286,0.1328517502872905,14.35612,54.94117,0.225042,0.1117631,0.4574592,-0.05591122,7.5799998305738,5
-15.96419,0.2833333,-18.77897,0.1476978222416853,-0.1055864188928908,0.0482986024679057,3.568116,55.74256,0.08571516,0.02787077,0.4672395,-0.01389318,7.59999983012676,5
-15.91358,0.4833333,-18.74269,0.0227748603137794,0.2862689046879257,-0.0340235165102846,7.135064,55.7506,0.1719015,0.05570478,0.4665597,-0.02776968,7.61999982967973,5
-15.86298,0.6833333,-18.70642,0.1219584466655536,-0.2441028878607416,0.0379541134385768,10.70098,55.76417,0.2594131,0.08347687,0.4654281,-0.04161535,7.63999982923269,5
-15.66402,0.2833332,-18.5685,0.0347897243144501,-0.0714357321450437,-0.0182172869067755,3.646584,56.39059,0.1120289,0.0285034,0.4722116,-0.01417168,7.65999982878566,5
-15.6121,0.4833332,-18.53165,-0.0601221998165897,0.1116852726865012,-0.0793309021642247,7.292102,56.40136,0.2249423,0.05696972,0.4714938,-0.02832489,7.67999982833862,5
-15.56019,0.683333,-18.4948,-0.150604317191938,0.2529900342718321,-0.1369963863550314,10.93659,56.41954,0.3396691,0.08537048,0.4702988,-0.0424456,7.69999982789159,5
-15.34452,0.2833332,-18.3456,-0.201343413991804,0.1667436951265921,-0.1661752160872698,3.618831,57.24522,0.1333467,0.0282735,0.4787668,-0.01410468,7.71999982744455,5
-15.29267,0.4833331,-18.30948,-0.2522947117823602,0.1197005124253546,-0.1941007288177427,7.236578,57.25793,0.2676979,0.05651036,0.4780498,-0.02819133,7.73999982699752,5
-15.24085,0.6833329,-18.27338,-0.2908890871232366,0.0585441713112599,-0.2121888900620128,10.85324,57.27939,0.4041874,0.08468268,0.4768561,-0.04224575,7.75999982655048,5
-15.18903,0.883333,-18.23729,-0.3304030843041428,0.0099324242031263,-0.2310781148375067,14.46862,57.30998,0.5436941,0.1127599,0.4751873,-0.05625541,7.77999982610345,5
-15.00841,0.2833333,-18.11288,-0.3692538815171104,0.0005237289107856,-0.2489232006222455,3.559178,59.08549,0.2278294,0.02799701,0.4927803,-0.01358333,7.79999982565641,5
-14.95718,0.4833333,-18.07758,-0.3948681388311428,-0.0229983110517904,-0.2573319893917922,7.117251,59.10686,0.4573546,0.05595864,0.4920645,-0.02714955,7.81999982520938,5
-14.90596,0.6833332,-18.04228,-0.4229157816909126,-0.0339751721881167,-0.2696562688858996,10.67419,59.14291,0.6903805,0.08385799,0.4908727,-0.04068578,7.83999982476234,5
-14.70896,0.2833333,-17.90585,-0.4543491794332208,-0.0057490235864402,-0.2858882769286577,3.497215,59.53576,0.2739044,0.02767379,0.4961915,-0.013076,7.85999982431531,5
-14.6588,0.4833333,-17.87079,-0.477475350075693,0.0083645252873912,-0.2981112561057824,6.993316,59.56099,0.5498052,0.05531359,0.4954942,-0.02613569,7.87999982386827,5
-14.60865,0.6833332,-17.83575,-0.4805358863366589,-0.0449510266808564,-0.2983996936869406,10.48783,59.60358,0.8299214,0.08289103,0.4943336,-0.03916436,7.89999982342124,5
-14.39577,0.2833335,-17.6876,-0.482874095931173,-0.1123801885052397,-0.2992595267348577,3.439127,59.28363,0.2913356,0.02733733,0.4942857,-0.01263229,7.91999982297421,5
-14.34679,0.4833333,-17.65257,-0.4788179016102152,-0.1406063513070816,-0.2967656031857917,6.876787,59.31003,0.5849727,0.05464024,0.4936134,-0.02524575,7.93999982252717,5
-14.29782,0.6833335,-17.61756,-0.4571650721184781,-0.182945698657053,-0.283059665077614,10.31325,59.35456,0.8827935,0.08188552,0.4924941,-0.0378327,7.95999982208014,5
-14.24887,0.8833334,-17.58256,-0.4366739293624473,-0.2127400400220456,-0.269082704191673,13.74846,59.41801,1.187112,0.109049,0.4909292,-0.05038183,7.9799998216331,5
-14.06927,0.2833333,-17.45838,-0.4153337735614268,-0.2033316378803481,-0.2532677541187933,3.393275,57.77611,0.1913481,0.02672968,0.4828441,-0.012842,7.99999982118607,5
-14.02097,0.4833332,-17.42398,-0.3820522200111611,-0.208036209462245,-0.2279006929256972,6.785182,57.79319,0.3839011,0.05342508,0.4822072,-0.02566819,8.01999982073903,5
-13.97268,0.6833331,-17.3896,-0.3567940296523133,-0.2001955370539503,-0.2090386923926122,10.17603,57.82199,0.579137,0.08006589,0.4811469,-0.03846811,8.039999820292,5
-13.77744,0.2833334,-17.25386,-0.3399123422894252,-0.153152215051708,-0.1965039891063469,3.341065,56.09555,0.1063076,0.02616443,0.4699837,-0.01288916,8.05999981984496,5
-13.73009,0.4833335,-17.2198,-0.3202395907505693,-0.1202220930174078,-0.1827826921696456,6.680737,56.1049,0.213413,0.05229627,0.4693841,-0.02576114,8.07999981939793,5
-13.68277,0.6833335,-17.18576,-0.2865829437667138,-0.1547213545217187,-0.1603500819702983,10.01945,56.12067,0.3219655,0.07837635,0.4683857,-0.03860759,8.09999981895089,5
-13.63545,0.8833336,-17.15172,-0.2522221167073404,-0.2033332316963936,-0.1388867419173323,13.35716,56.14311,0.4327374,0.1043823,0.4669898,-0.0514176,8.11999981850386,5
-13.39149,0.2833333,-16.98271,-0.2137789774778244,-0.2127421951366318,-0.1155101343802655,3.285486,53.86365,359.9573,0.0253897,0.4527533,-0.01331608,8.13999981805682,5
-13.34476,0.4833334,-16.94951,-0.1602841165436679,-0.2362642011233522,-0.0827302125422342,6.569984,53.85995,359.9144,0.05075087,0.4521951,-0.02661734,8.15999981760979,5
-13.29804,0.6833335,-16.91633,-0.1113982283712591,-0.2472409380300168,-0.054711632105679,9.853141,53.85371,359.8708,0.07605945,0.4512657,-0.03989244,8.17999981716275,5
-13.25133,0.8833334,-16.88315,-0.0651248046331556,-0.2190147729631185,-0.0295441572783623,13.13536,53.84483,359.8262,0.1012985,0.4499663,-0.05313114,8.19999981671572,5
-13.08064,0.2833333,-16.76457,-0.0107299668723257,-0.2049013138203907,0.000194507418282,3.230588,51.43233,359.8544,0.02484556,0.4337728,-0.01337529,8.21999981626868,5
-13.035,0.4833334,-16.73142,0.0311973352531715,-0.1782431529072566,0.0201957531995979,6.460187,51.41995,359.708,0.04966391,0.4332547,-0.02673591,8.23999981582165,5
-12.98936,0.6833335,-16.69827,0.0597970247660484,-0.1123821899444226,0.0305156053784667,9.688791,51.39911,359.5598,0.07443555,0.4323922,-0.04007111,8.25999981537461,5
-12.80197,0.2833332,-16.56772,0.085863744632503,-0.0606338994526075,0.0387665632362086,3.283496,50.02886,359.795,0.02520665,0.4227187,-0.01373464,8.27999981492758,5
-12.75576,0.4833332,-16.53364,0.1201594687276177,-0.0763147948296257,0.0525721899861082,6.566009,50.01114,359.5888,0.05038535,0.4221962,-0.02745394,8.29999981448054,5
-12.70956,0.683333,-16.49958,0.1471212345660379,-0.1061091577997783,0.0620922069914513,9.84751,49.98131,359.3799,0.07551545,0.4213262,-0.04114679,8.31999981403351,5
-12.50276,0.2833333,-16.35638,0.1703128827782407,-0.0967005918770387,0.0700511554474676,3.534751,51.60536,359.8144,0.02706204,0.4351106,-0.01488186,8.33999981358647,5
-12.45236,0.4833334,-16.32059,0.2006727654831142,-0.1014049332943017,0.0841828284359209,7.068491,51.58807,359.6274,0.05409072,0.434488,-0.02974563,8.35999981313944,5
-12.40199,0.6833335,-16.28482,0.2208360151080324,-0.0935644301554544,0.0925075574566793,10.60315,51.55881,359.437,0.08107364,0.4334505,-0.04458893,8.3799998126924,5
-12.35163,0.8833334,-16.24907,0.232216863528663,-0.0465211043200415,0.096534323460574,14.13673,51.51706,359.2422,0.1079719,0.4319999,-0.05938561,8.39999981224537,5
-12.17839,0.2833333,-16.13042,0.2459818987153639,-0.0135907792146706,0.1040098652011956,3.564342,53.2792,359.8745,0.02730733,0.4481903,-0.01492319,8.41999981179833,5
-12.12722,0.4833334,-16.095,0.2434410031117817,0.031884389401397,0.1006582168494816,7.127847,53.26738,359.7476,0.05458059,0.4475391,-0.02983116,8.4399998113513,5
-12.07607,0.6833333,-16.05958,0.2237811719804856,0.116562698780304,0.0864301831106058,10.69034,53.24742,359.6188,0.08179351,0.446455,-0.04470621,8.45999981090426,5
-11.88674,0.2833335,-15.92788,0.1983852992627017,0.1871277391070297,0.0690915205047257,3.593028,54.69374,0.01697159,0.02791433,0.4591464,-0.01426993,8.47999981045723,5
-11.83575,0.4833334,-15.8914,0.1786466119154131,0.1902636731032704,0.0564200948952375,7.185296,54.69538,0.03450925,0.05579706,0.4584695,-0.02851948,8.49999981001019,5
-11.78478,0.6833334,-15.85493,0.2370801037446508,0.1792870290639415,0.0993714902574307,10.77654,54.69816,0.05232207,0.08361702,0.4573424,-0.04273693,8.51999980956316,5
-11.57888,0.2833335,-15.71175,0.2794513544219228,0.2075133102585671,0.1324274876926949,3.561964,55.57074,0.08253572,0.02783117,0.4659156,-0.0138509,8.53999980911613,5
-11.52843,0.4833335,-15.67543,0.3177364911180884,0.221626694305947,0.1637758673928626,7.122689,55.57849,0.1657673,0.05562618,0.4652402,-0.02768299,8.55999980866909,5
-11.478,0.6833334,-15.63911,0.1874891512532279,0.8885986609155287,0.0798903625377853,10.68241,55.59156,0.2502783,0.08335975,0.4641158,-0.04148452,8.57999980822206,5
-11.42758,0.8833333,-15.6028,0.1985490654946637,0.6641838233985172,0.0920367043836201,14.24108,55.61023,0.3367758,0.1110049,0.4625438,-0.055242,8.59999980777502,5
-11.2538,0.2833333,-15.48343,0.2041485668335969,0.4544046075612349,0.1003967247342796,3.635467,56.36501,0.1074697,0.02840232,0.4720176,-0.01415457,8.61999980732799,5
-11.20201,0.4833333,-15.44672,0.2163711234904823,0.2048996451698903,0.1132414533368422,7.269889,56.3753,0.2157661,0.05676791,0.4713045,-0.02829097,8.63999980688095,5
-11.15024,0.6833333,-15.41003,0.1686436141993557,0.1813780071678105,0.0852882981996128,10.90391,56.39265,0.3255956,0.08507252,0.470117,-0.04239912,8.65999980643392,5
-10.9603,0.2833335,-15.2793,0.1052841017441252,0.1970590644964009,0.047504246988371,3.62838,56.99745,0.1219345,0.02832964,0.4768701,-0.01417073,8.67999980598688,5
-10.90836,0.4833335,-15.24303,0.0383294386016093,0.198626966548369,0.0081183910494484,7.255692,57.00911,0.2448276,0.05662268,0.4761524,-0.02832306,8.69999980553985,5
-10.85644,0.6833336,-15.20678,0.1539245370183017,-0.507548091863974,0.0959420459104798,10.88191,57.02879,0.3696644,0.08485062,0.4749574,-0.04244301,8.71999980509281,5
-10.64967,0.2833336,-15.06453,0.1192198786672458,-0.2972461380781034,0.081800563482961,3.574811,58.77205,0.2075821,0.02806622,0.4904024,-0.0137275,8.73999980464578,5
-10.59822,0.4833334,-15.0291,0.0801600707091871,-0.0764901853341578,0.0651954831343673,7.148566,58.79159,0.4167386,0.05609715,0.4896843,-0.02743767,8.75999980419874,5
-10.54678,0.6833335,-14.99369,0.0492410952815314,0.1024492071427177,0.0544597142259259,10.72114,58.82459,0.6291078,0.08406476,0.4884887,-0.04111711,8.77999980375171,5
-10.49535,0.8833334,-14.95828,0.0178118608881714,0.0538378339432188,0.0404202290559396,14.29225,58.87164,0.8462777,0.1119393,0.4868174,-0.05475287,8.79999980330467,5
-10.32371,0.2833333,-14.83987,-0.0128159946082178,0.0444293919887884,0.0250923097895121,3.512365,59.5612,0.2645831,0.0277452,0.4963841,-0.01321835,8.81999980285764,5
-10.27323,0.4833333,-14.80485,-0.0309524965239686,0.0209081656172525,0.0163606110141607,7.023617,59.58567,0.5310865,0.055456,0.4956807,-0.02642032,8.8399998024106,5
-10.22275,0.6833333,-14.76983,-0.073949544109368,0.0099314542360394,-0.0198224979334025,10.53333,59.62698,0.801637,0.08310395,0.49451,-0.03959145,8.85999980196357,5
-10.03479,0.2833333,-14.63952,-0.1240068439524062,0.0381574489009583,-0.0628740959310771,3.453121,59.42896,0.2902429,0.02742257,0.4953853,-0.01273575,8.87999980151653,5
-9.985498,0.4833332,-14.60451,-0.1702304076885656,0.0522701917629795,-0.10509140375407,6.904735,59.45538,0.5828034,0.05481019,0.4947062,-0.02545224,8.8999998010695,5
-9.936222,0.6833331,-14.56951,-0.0521422560273618,-0.6413597899249133,-0.0558328265932068,10.35517,59.49992,0.879573,0.08213975,0.4935753,-0.03814186,8.91999980062246,5
-9.731872,0.2833333,-14.4279,-0.0736636634292624,-0.4185128703152657,-0.0990618046866043,3.40476,58.28353,0.2227652,0.02689348,0.4867059,-0.01276966,8.93999980017543,5
-9.683387,0.4833333,-14.39336,-0.0936783017955162,-0.1852119431229076,-0.1383661534217868,6.808088,58.3035,0.4470705,0.05375244,0.4860589,-0.02552245,8.95999979972839,5
-9.634915,0.6833333,-14.35884,-0.1013115202498173,0.0062724585622983,-0.1661456570956332,10.21035,58.33717,0.6745251,0.08055623,0.4849817,-0.03824899,8.97999979928136,5
-9.586458,0.8833331,-14.32432,-0.1191531248162283,-0.0297940178976623,-0.2010388857949205,13.61149,58.38514,0.9068342,0.1072812,0.4834757,-0.05093813,8.99999979883432,5
-9.333754,0.2833334,-14.14901,-0.1389447448024574,-0.0266576098946932,-0.2339553992799228,3.350929,56.11492,0.1056873,0.02623564,0.4701317,-0.01293883,9.01999979838729,5
-9.286251,0.4833333,-14.11489,-0.1496949220867467,-0.0376342609034293,-0.2575817380592315,6.700469,56.12424,0.2121717,0.05243851,0.4695284,-0.0258604,9.03999979794025,5
-9.238762,0.6833333,-14.08077,-0.173763622135759,-0.036066113354133,-0.2840921128913685,10.04902,56.13997,0.3201043,0.07858902,0.4685239,-0.03875609,9.05999979749322,5
-9.191286,0.8833331,-14.04666,-0.205149650567475,0.0047049165672696,-0.3131893134552239,13.39659,56.16236,0.4302573,0.104665,0.4671193,-0.0516151,9.07999979704618,5
-9.011987,0.2833334,-13.92346,-0.2329521994535275,0.0313629915824738,-0.3377244105129637,3.293634,54.40031,359.979,0.02547651,0.4569162,-0.01329954,9.09999979659915,5
-8.96505,0.4833333,-13.89032,-0.2462706856288834,-0.0094079385021886,-0.3505332031156314,6.586301,54.39849,359.9578,0.05092447,0.4563502,-0.02658429,9.11999979615211,5
-8.918125,0.6833333,-13.85718,-0.2868789327013612,-0.0642916911614535,-0.2498994576000424,9.87761,54.39538,359.9361,0.07631902,0.4554077,-0.0398434,9.13999979570508,5
-8.723716,0.2833333,-13.72239,-0.3222754317945,-0.0799724429687083,-0.1570051590969061,3.241875,52.36905,359.8899,0.02496022,0.4411111,-0.01334387,9.15999979525805,5
-8.677754,0.4833332,-13.68938,-0.341781826224576,-0.1097663759265074,-0.0643830071882831,6.482784,52.35965,359.7791,0.04989317,0.4405811,-0.02667302,9.17999979481101,5
-8.631806,0.6833332,-13.65638,-0.5006121778137143,0.5132984426859968,-0.0774823281939269,9.722707,52.34384,359.667,0.0747788,0.4396986,-0.03997685,9.19999979436398,5
-8.422725,0.2833333,-13.51038,-0.543078075638789,0.2449760931075524,0.0087214014836956,3.195577,49.83675,359.7913,0.02452043,0.4212082,-0.01339867,9.21999979391694,5
-8.377775,0.4833333,-13.4772,-0.570785725607398,-0.0087106397568576,0.0925678428178109,6.390171,49.8192,359.5814,0.04901454,0.4207149,-0.02678284,9.23999979346991,5
-8.332839,0.6833333,-13.44403,-0.7591048224769743,0.4181650967786902,0.0543086784844089,9.583735,49.78967,359.369,0.07346322,0.4198936,-0.04014202,9.25999979302287,5
-8.287912,0.8833333,-13.41087,-0.8049342575892098,0.1937501513230022,0.1272265422917424,12.77601,49.74775,359.1529,0.09784701,0.4187454,-0.05346247,9.27999979257584,5
-8.103353,0.2833333,-13.28456,-0.842536805429857,-0.0160291821230068,0.1925701340099657,3.530405,51.50397,359.8029,0.02699737,0.4343174,-0.014932,9.2999997921288,5
-8.052936,0.4833333,-13.24888,-0.861383274641681,-0.2655340450260784,0.2580171691375454,7.059832,51.48563,359.6043,0.05396179,0.4336972,-0.02984603,9.31999979168177,5
-8.002542,0.6833333,-13.21321,-0.8370933368959461,-0.2890559256506096,0.354252025924854,10.58946,51.4546,359.4021,0.08087517,0.432664,-0.04473678,9.33999979123473,5
-7.81748,0.2833332,-13.09406,-0.8084892784366087,-0.2733747866057315,0.4398214002638632,3.561255,54.37039,359.8738,0.02713757,0.4566776,-0.01517502,9.3599997907877,5
-7.765678,0.4833331,-13.05966,-0.7647117200983455,-0.2718068109394123,0.5227431233797439,7.121693,54.35846,359.7459,0.05423947,0.4560151,-0.03033853,9.37999979034066,5
-7.713892,0.683333,-13.02527,-0.859957328937007,0.3826202798388515,0.4966326792020759,10.68107,54.33835,359.616,0.08128117,0.4549122,-0.04546832,9.39999978989363,5
-7.521946,0.2833333,-12.91317,-0.8057407476746192,0.1456606732095492,0.5585722126351467,3.595108,55.68524,359.9815,0.02766157,0.4668192,-0.01479258,9.41999978944659,5
-7.469951,0.4833332,-12.87807,-0.7378947549960122,-0.0766630700758664,0.6165709912467197,7.189475,55.68351,359.9632,0.05529105,0.4661301,-0.02956597,9.43999978899956,5
-7.417971,0.6833332,-12.84298,-0.8316555092251834,0.3815754527933735,0.5507847028561859,10.78279,55.68059,359.9445,0.08285809,0.4649828,-0.04430605,9.45999978855252,5
-7.366006,0.883333,-12.80789,-0.759868827063249,0.1885229596625916,0.581256679745561,14.37511,55.67643,359.9254,0.1103361,0.4633788,-0.05899829,9.47999978810549,5
-7.189961,0.2833334,-12.68908,-0.6814409220841844,0.0101061991122164,0.6047552257532178,3.55575,56.08777,0.0702884,0.02767034,0.4699045,-0.01404513,9.49999978765845,5
-7.139166,0.4833333,-12.65344,-0.5853582762537348,-0.2080359554273964,0.6295682017418507,7.110197,56.0944,0.1416098,0.05530604,0.4692259,-0.02806768,9.51999978721142,5
-7.088385,0.6833333,-12.61781,-0.5379691899951808,-0.2001955770409174,0.6057785175081492,10.66362,56.10559,0.2140224,0.08288066,0.4680962,-0.04205925,9.53999978676438,5
-6.89457,0.2833333,-12.4804,-0.4984354145111433,-0.153152188132378,0.5662288108330475,3.625132,55.7903,0.0780265,0.02827313,0.4676018,-0.01419675,9.55999978631735,5
-6.843017,0.4833333,-12.4437,-0.4558545850821724,-0.1202218517017237,0.5192433751492729,7.249224,55.79775,0.1566642,0.05650994,0.4668997,-0.0283752,9.57999978587031,5
-6.791481,0.6833333,-12.40701,-0.3993285177612247,-0.1547203906528625,0.4731476277065898,10.87287,55.81037,0.2367608,0.08468758,0.4657306,-0.04252212,9.59999978542328,5
-6.739961,0.8833332,-12.37033,-0.3417838813290537,-0.2033320882782139,0.4164320735603901,14.49546,55.82838,0.318808,0.1127726,0.4640962,-0.05662249,9.61999978497624,5
-6.599045,0.2833334,-12.15162,-0.2827550454115437,-0.2127407881877859,0.3548289097984849,3.630695,54.34298,0.07988691,0.02850075,0.4564064,-0.01384625,9.63999978452921,5
-6.548394,0.4833335,-12.11354,-0.2112525224865908,-0.2362626595778502,0.2968343302539917,7.260323,54.35063,0.1604082,0.05696464,0.455719,-0.02767446,9.65999978408217,5
-6.497758,0.6833334,-12.07547,-0.2933557324208107,0.3930745765647989,0.1289298912650114,10.88891,54.36354,0.2422658,0.08536352,0.4545746,-0.04147065,9.67999978363514,5
-6.447134,0.8833333,-12.03742,-0.1731447998620474,0.1310250015243284,0.0919536551972566,14.51655,54.38216,0.3268923,0.1136725,0.4529752,-0.05521596,9.6999997831881,5
-6.304215,0.2833332,-11.90831,-0.0508140980603073,-0.1163888239478062,0.054716684937432,3.576322,55.25684,0.1797414,0.02837312,0.4634657,-0.01308148,9.71999978274107,5
-6.254741,0.4833332,-11.87016,-0.1108446632617781,0.3167596224844718,-0.1098125839544614,7.151543,55.27377,0.3608385,0.05671011,0.4627871,-0.0261463,9.73999978229403,5
-6.20528,0.6833332,-11.83203,-0.0013082995145601,0.0986171781918041,-0.1640818155948853,10.72564,55.30236,0.544762,0.08498355,0.4616573,-0.03918164,9.759999781847,5
-6.036286,0.2833333,-11.68877,0.1080847018078481,-0.1048896350124365,-0.2195204700117212,3.513158,56.10963,0.2577799,0.02810889,0.470033,-0.0124324,9.77999978139997,5
-5.987924,0.4833333,-11.65085,0.2281051195540153,-0.3481220642686109,-0.2679018428802102,7.02521,56.13348,0.5174478,0.05618303,0.4693669,-0.02484929,9.79999978095293,5
-5.939571,0.6833333,-11.61295,0.3794332679395937,-0.3653715039283665,-0.2954489996239058,10.53572,56.17376,0.7811949,0.08419389,0.4682582,-0.03723606,9.8199997805059,5
-5.743,0.2833332,-11.46016,0.5168611162922634,-0.3434180361261509,-0.3301585470132835,3.452371,56.69825,0.3011678,0.02775774,0.4745561,-0.01199174,9.83999978005886,5
-5.695547,0.4833333,-11.4227,0.6505259575552915,-0.3355777238619126,-0.3639356087814338,6.903206,56.72563,0.6045083,0.05547894,0.4739054,-0.02396675,9.85999977961183,5
-5.648108,0.6833332,-11.38524,0.6288834114221409,0.325121724683842,-0.4889149140013273,10.35288,56.77181,0.9122103,0.08314164,0.472822,-0.03591661,9.87999977916479,5
-5.600683,0.8833332,-11.3478,0.7436204949347553,0.0944346170396204,-0.5129609059830784,13.80124,56.83763,1.226686,0.1107204,0.4713073,-0.04783008,9.89999977871776,5
-5.431242,0.2833334,-11.22806,0.8471670305300845,-0.1216167122874691,-0.5325941488303201,3.403122,56.45509,0.2417617,0.02715958,0.4727096,-0.01218617,9.91999977827072,5
-5.384087,0.4833334,-11.19174,0.7811584006630024,0.3428941395133446,-0.632916800968145,6.804843,56.47672,0.4848155,0.05428307,0.4720812,-0.02435926,9.93999977782369,5
-5.336945,0.6833334,-11.15543,0.8611921822452748,0.1561142232507558,-0.6186941972677538,10.20548,56.51318,0.7312631,0.08135081,0.4710352,-0.0365074,9.95999977737665,5
-5.148694,0.2833334,-11.02718,0.9195164417022834,-0.0160299387391497,-0.6000370450019332,3.353466,55.38673,0.1473421,0.02650577,0.4645068,-0.0124604,9.97999977692962,5
-5.102002,0.4833334,-10.99184,0.9661670427263798,-0.2278995792223412,-0.5687428698573171,6.705563,55.39972,0.2954122,0.05297726,0.4639092,-0.02490686,9.99999977648258,5
-5.055323,0.6833334,-10.9565,1.040152654387584,-0.2137866645644619,-0.4990978164803881,10.05665,55.4216,0.4454898,0.07939576,0.4629142,-0.03732842,10.0199997760355,5
-4.851369,0.2833333,-10.81733,1.0869129982928691,-0.1604707304985255,-0.4266635527894653,3.303462,54.14065,0.02353709,0.02575986,0.4548894,-0.01293458,10.0399997755885,5
-4.804897,0.4833333,-10.78325,1.1166620038457014,-0.1212677333054537,-0.3431654911555366,6.605938,54.1427,0.04719404,0.05149052,0.4543225,-0.0258548,10.0599997751415,5
-4.758437,0.6833333,-10.74917,0.9679022392721972,0.5707942597356037,-0.3625175620274614,9.907116,54.14607,0.07075592,0.07716676,0.4533785,-0.03875156,10.0799997746944,5
-4.71199,0.8833332,-10.7151,0.9418980828926196,0.3714693299088083,-0.2775768298565388,13.20734,54.15089,0.09478468,0.1027716,0.4520587,-0.0516125,10.0999997742474,5
-4.539577,0.2833334,-10.5994,0.8916676656168341,0.1867800374429062,-0.1840244321195534,3.253563,52.66568,359.9202,0.02513408,0.4434238,-0.01321708,10.1199997738004,5
-4.493599,0.4833334,-10.56608,0.8272366130796405,-0.0376347447544437,-0.073781920310731,6.50616,52.65884,359.8398,0.05024049,0.4428875,-0.02641959,10.1399997733533,5
-4.447633,0.6833333,-10.53278,0.6512985867805572,0.6042473167784491,-0.1573056493960383,9.757807,52.64733,359.7585,0.07529915,0.4419944,-0.03959707,10.1599997729063,5
-4.40168,0.8833333,-10.49949,0.6624773921198024,0.3547423353954713,-0.1075511502088648,13.00817,52.63092,359.6754,0.1002869,0.4407457,-0.05273874,10.1799997724593,5
-4.180352,0.2833334,-10.34981,0.6543367434074359,0.1198730965243038,-0.0612403913624994,3.201747,49.7722,359.784,0.02454989,0.4206985,-0.01346548,10.1999997720122,5
-4.135274,0.4833334,-10.31661,0.6375750178173147,-0.1547216346918428,-0.0106998790763999,6.402505,49.754,359.5667,0.04907337,0.4202038,-0.02691632,10.2199997715652,5
-4.090209,0.6833333,-10.28342,0.6782062404078975,-0.2033331330792981,0.0533644738054981,9.602239,49.72337,359.3468,0.07355126,0.41938,-0.04034217,10.2399997711182,5
-3.889482,0.2833334,-10.14797,0.6992700819096249,-0.212741707016855,0.1103580680501643,3.532291,51.35795,359.7994,0.02701816,0.4331705,-0.01493184,10.2599997706711,5
-3.839095,0.4833333,-10.11219,0.712108945757018,-0.2362633122627268,0.1680282626882299,7.063626,51.33928,359.5974,0.05400355,0.4325513,-0.02984567,10.2799997702241,5
-3.78873,0.6833333,-10.07642,0.5845628248412622,0.3930739839039326,0.1078749958662443,10.59514,51.3077,359.3918,0.08093789,0.4315196,-0.04473565,10.2999997697771,5
-3.57205,0.2833333,-9.930679,0.5863021707973035,0.1310243689636119,0.1367541603041164,3.561549,53.31804,359.8566,0.02721043,0.4484977,-0.01506103,10.31999976933,5
-3.520708,0.4833333,-9.89557,0.581322451768872,-0.116389490658615,0.1640711158235612,7.12226,53.30453,359.7115,0.05438636,0.4478467,-0.03010798,10.339999768883,5
-3.469382,0.6833332,-9.86047,0.4033750777539193,0.3167592731429922,0.0594673248151371,10.68192,53.28173,359.5643,0.08150205,0.4467631,-0.04512154,10.359999768436,5
-3.41807,0.8833331,-9.82538,0.3717501406963301,0.0986169380086464,0.0519929643887762,14.24049,53.24919,359.4135,0.1085312,0.4452482,-0.06008721,10.3799997679889,5
-3.235365,0.2833334,-9.702332,0.3296828911549536,-0.1048895212368827,0.0373319658819353,3.595075,54.89444,359.9813,0.02776172,0.4607091,-0.01460316,10.3999997675419,5
-3.183857,0.4833333,-9.666518,0.2890867242411306,-0.3481215779783044,0.0230234154661044,7.189413,54.89269,359.9627,0.05549134,0.460029,-0.02918723,10.4199997670949,5
-3.132364,0.6833333,-9.630715,0.2824655330650587,-0.365370866140595,0.029205072163613,10.78273,54.88972,359.9438,0.0831585,0.4588967,-0.04373844,10.4399997666478,5
-2.933669,0.2833334,-9.496191,0.2635898759807001,-0.3434172549428498,0.0269206106286166,3.555994,55.9083,0.08139276,0.02773958,0.4685196,-0.01391722,10.4599997662008,5
-2.883089,0.4833334,-9.460235,0.2447325531386106,-0.3355768079077228,0.0239625838765036,7.110676,55.91595,0.1636853,0.0554435,0.4678428,-0.02781364,10.4799997657537,5
-2.832524,0.6833333,-9.424288,0.068760523891453,0.3251226462135572,-0.0822707631633496,10.66433,55.92886,0.2472366,0.08308616,0.466716,-0.04167936,10.4999997653067,5
-2.615228,0.2833333,-9.27777,0.1187483097459567,0.094435293856065,-0.0388340392720749,3.624471,56.89738,0.1044292,0.02823929,0.4761078,-0.01426399,10.5199997648597,5
-2.56323,0.4833333,-9.241702,0.1588724626581671,-0.1216163191258503,-0.0031846761887184,7.247891,56.90735,0.2096526,0.05644216,0.4753929,-0.02850976,10.5399997644126,5
-2.511251,0.6833334,-9.205646,0.0130927174944543,0.3428946748508471,-0.0917541062829663,10.87086,56.92414,0.3162393,0.08458391,0.4742024,-0.04272783,10.5599997639656,5
-2.459287,0.8833333,-9.169599,-0.1385529694886493,0.7964287470573828,-0.1845695712207913,14.49277,56.94812,0.4254294,0.1126332,0.472538,-0.05689909,10.5799997635186,5
-2.276083,0.2833334,-9.047291,-0.1422735588565112,0.3340087481724823,-0.1795702124061673,3.637645,57.38221,0.1123642,0.02831271,0.4798179,-0.0143778,10.5999997630715,5
-2.223674,0.4833333,-9.011427,-0.1459093743903178,-0.1393879462382338,-0.1746667909505292,7.274232,57.39297,0.2256052,0.05658875,0.4790921,-0.028737,10.6199997626245,5
-2.171279,0.6833333,-8.975574,-0.2878624715595542,0.2812155863794627,-0.2595674803990748,10.90973,57.41116,0.3406444,0.08479943,0.4778838,-0.0430632,10.6399997621775,5
-2.118901,0.8833332,-8.93973,-0.2617679716406192,0.0505282287949166,-0.2320835440088817,14.54434,57.4371,0.4583362,0.1129175,0.4761944,-0.057344,10.6599997617304,5
-1.886041,0.2833333,-8.784561,-0.2347383062244201,-0.1655232714568554,-0.2031316677576695,3.581385,59.58355,0.2157201,0.02805332,0.4965548,-0.0138928,10.6799997612834,5
-1.834063,0.4833332,-8.749686,-0.1936202902052752,-0.4213004950022996,-0.1642541367743346,7.161677,59.6039,0.4330641,0.05607096,0.4958248,-0.02776801,10.6999997608364,5
-1.7821,0.6833332,-8.714822,-0.1532701754889053,-0.4510947299967353,-0.1263760865702252,10.7408,59.63826,0.6537706,0.08402531,0.4946096,-0.04161204,10.7199997603893,5
-1.574493,0.2833333,-8.575983,-0.1119255015613087,-0.4416860724263046,-0.0893461521000862,3.514626,60.36837,0.2668613,0.02767844,0.5024818,-0.0134062,10.7399997599423,5
-1.523503,0.4833333,-8.541618,-0.0570395692203503,-0.4463903590466112,-0.0450591284372476,7.028128,60.39308,0.5356681,0.05532248,0.5017689,-0.02679568,10.7599997594953,5
-1.472525,0.6833333,-8.507262,-0.1629161188591124,0.2017642356214507,-0.1081741994293841,10.54009,60.43476,0.8085235,0.08290362,0.5005822,-0.04015416,10.7799997590482,5
-1.42156,0.8833332,-8.472916,-0.2580295894839735,0.6984546472868474,-0.1650838175582532,14.05073,60.49421,1.087593,0.1103979,0.4989231,-0.05347059,10.7999997586012,5
-1.248732,0.2833333,-8.356803,-0.1540184086575488,0.1676294025300123,-0.0933098336541098,3.453439,60.26538,0.2913926,0.02733632,0.5017084,-0.01292829,10.8199997581542,5
-1.198942,0.4833333,-8.322499,-0.2368492321277595,0.3466033318985695,-0.1472716204007635,6.905341,60.2919,0.5850819,0.05463745,0.5010204,-0.02583716,10.8399997577071,5
-1.149165,0.6833333,-8.288205,-0.3192419603366461,0.5427917091943374,-0.2015220180925263,10.35608,60.33662,0.883006,0.0818809,0.4998749,-0.03871877,10.8599997572601,5
-0.959675,0.2833333,-8.161186,-0.2414320259187963,0.0636100349861853,-0.1486722593211116,3.404861,59.10926,0.2230148,0.02680261,0.4929843,-0.01296166,10.879999756813,5
-0.910698,0.4833333,-8.127347,-0.1594293846707548,-0.4260605659682787,-0.09217896301858,6.80829,59.12925,0.4475617,0.05357078,0.4923289,-0.02590628,10.899999756366,5
-0.8617349,0.6833333,-8.093518,-0.2193799986057822,-0.0212430638730975,-0.1299017627335681,10.21065,59.16295,0.6752498,0.08028388,0.4912377,-0.03882432,10.919999755919,5
-0.6562313,0.2833333,-7.955278,-0.103365171072479,-0.2672285754362168,-0.0506963429749776,3.354381,57.39465,0.1307955,0.02622108,0.4799473,-0.01305335,10.9399997554719,5
-0.6081638,0.4833333,-7.921819,0.0119134825950448,-0.4980904593189457,0.0283380205526864,6.70736,57.40621,0.2625287,0.05240922,0.4793297,-0.02608943,10.9599997550249,5
-0.56011,0.6833332,-7.88837,-0.0384885672292847,-0.0479020875115805,-0.00357406735941,10.05935,57.42568,0.3960592,0.07854508,0.4783015,-0.0390994,10.9799997545779,5
-0.5120699,0.8833331,-7.854929,-0.0853805104042679,0.3917973308914894,-0.0340394346384167,13.41033,57.45341,0.5323503,0.1046062,0.476864,-0.05207218,10.9999997541308,5
-0.2575108,0.2833333,-7.684325,0.0151358544406183,-0.0839693534310128,0.0302564436548253,3.300122,55.21253,359.9818,0.02544325,0.4632048,-0.01348404,11.0199997536838,5
-0.2100448,0.4833333,-7.651743,-0.073144246040832,0.1500630173692704,-0.0322426834271096,6.599274,55.21095,359.9635,0.05085789,0.4626287,-0.026953,11.0399997532368,5
-0.1625907,0.6833333,-7.619167,-0.1632777318590108,0.4013098371421735,-0.0966928269097975,9.897085,55.20825,359.9448,0.0762194,0.4616695,-0.04039546,11.0599997527897,5
-0.1151501,0.8833332,-7.586601,-0.0956577053927301,-0.0228137403584963,-0.0584492278736945,13.19394,55.20442,359.9257,0.1015105,0.4603284,-0.05380064,11.0799997523427,5
0.06514466,0.2833333,-7.465733,-0.0264273339234279,-0.4574261517381481,-0.0203320608327279,3.243552,53.19335,359.8909,0.02488076,0.4475518,-0.01352146,11.0999997518957,5
0.111588,0.4833333,-7.433352,-0.1018702618232203,0.0024496450827637,-0.0783872916333567,6.486139,53.18405,359.7812,0.04973426,0.4470135,-0.02702809,11.1199997514486,5
0.1580181,0.6833332,-7.40098,-0.1718761660078689,0.4518365135892415,-0.1332841801420397,9.727747,53.16837,359.6701,0.07454064,0.4461172,-0.04050903,11.1399997510016,5
0.3536223,0.2833333,-7.26899,-0.0238226872288707,-0.0142426960626931,-0.0447418044109619,3.196122,50.67529,359.7919,0.02442808,0.4278305,-0.01357541,11.1599997505546,5
0.3990536,0.4833333,-7.236458,0.1259610356013003,-0.4908107283554435,0.0442853710455652,6.391262,50.65779,359.5825,0.04882991,0.4273292,-0.02713624,11.1799997501075,5
0.4444718,0.6833332,-7.203935,0.072406198763764,-0.0728904339677251,-0.0016166661118477,9.585387,50.62832,359.3706,0.07318663,0.4264947,-0.04067175,11.1999997496605,5
0.6609239,0.2833333,-7.058644,0.1948861716353125,-0.3057731425228484,0.0699684468883514,3.530267,52.06236,359.7985,0.02690643,0.4386999,-0.0150972,11.2199997492135,5
0.7117297,0.4833333,-7.023518,0.3062710514565734,-0.523532212159415,0.1353061503296233,7.059568,52.04361,359.5955,0.05378018,0.4380735,-0.03017615,11.2399997487664,5
0.7625129,0.6833333,-6.988404,0.2314274769004414,-0.0602410143450149,0.0775272277300915,10.58905,52.01191,359.389,0.08060321,0.4370299,-0.04523081,11.2599997483194,5
0.8132732,0.8833332,-6.953306,0.148517316778296,0.3925611356296395,0.0155929457443848,14.11886,51.96666,359.1776,0.107353,0.4355701,-0.06024445,11.2799997478724,5
0.864019,0.9766704,-6.918218,0.2080906488861402,-0.0701029115567297,0.049854010983255,17.64747,51.90697,358.9596,0.133993,0.4336962,-0.07519646,11.2999997474253,5
1.080838,0.2833333,-6.775167,0.2637201301532057,-0.5432557803385009,0.0837594779595463,3.563286,54.32267,359.8775,0.02717438,0.4563063,-0.0151431,11.3199997469783,5
1.132598,0.4833333,-6.740646,0.1809693990973158,-0.121920321394396,0.0270776783891859,7.125781,54.31112,359.7537,0.05431468,0.4556437,-0.03027194,11.3399997465312,5
1.184343,0.6833333,-6.706136,0.2609798623536967,-0.3513879843957385,0.0789392607579575,10.68722,54.29164,359.6279,0.08139467,0.4545406,-0.04536716,11.3599997460842,5
1.375606,0.2833334,-6.577935,0.3369580913753132,-0.5657320212848072,0.1294102288258489,3.59268,55.72097,0.01731708,0.02778402,0.4670864,-0.01451551,11.3799997456372,5
1.427234,0.4833333,-6.54237,0.2534197620987104,-0.0990256840038801,0.0752689929410612,7.184579,55.72265,0.03519719,0.05553644,0.4663979,-0.02901031,11.3999997451901,5
1.478846,0.6833333,-6.506815,0.1719302022515028,0.3571916054373002,0.0236209235536337,10.77545,55.72549,0.05335741,0.0832264,0.4652516,-0.04347248,11.4199997447431,5
1.686953,0.2833333,-6.367381,0.3157909869194721,-0.1020573022825421,0.1223247203117807,3.561869,56.58883,0.08250854,0.02770618,0.4737536,-0.01409743,11.4399997442961,5
1.738035,0.4833333,-6.331957,0.2705521573963279,0.148492963600301,0.0963475198524737,7.122492,56.59657,0.1657201,0.05537632,0.4730669,-0.02817564,11.459999743849,5
1.789101,0.6833333,-6.296544,0.216314876179013,0.4162575701686228,0.0654060907408817,10.68208,56.60965,0.2502098,0.0829851,0.4719236,-0.04222265,11.479999743402,5
1.840154,0.8833333,-6.26114,0.1651811700579144,0.6489662116223034,0.0374083270490235,14.24064,56.62831,0.3366778,0.110506,0.4703253,-0.05622495,11.499999742955,5
2.015588,0.2833334,-6.145063,0.2630987216184137,-0.059403778463725,0.1068360604064873,3.635398,57.38041,0.1073713,0.02827483,0.4798057,-0.01440615,11.5199997425079,5
2.068021,0.4833333,-6.109286,0.1237920364246987,0.1554632524124892,0.0190193888902481,7.26975,57.39069,0.2155676,0.05651311,0.4790809,-0.0287938,11.5399997420609,5
2.120434,0.6833333,-6.073521,-0.019916936162927,0.3875447312159148,-0.0709125322091344,10.9037,57.40803,0.3253068,0.08469068,0.4778738,-0.04315257,11.5599997416139,5
2.312484,0.2833333,-5.946259,-0.0054668505612358,-0.0557440682516278,-0.0553734146753566,3.628479,58.01177,0.121872,0.02820358,0.4846267,-0.01442183,11.5799997411668,5
2.365057,0.4833333,-5.91092,0.0090833537468677,-0.5095216887918668,-0.0381832160995703,7.255888,58.02341,0.2446837,0.05637065,0.4838972,-0.02882507,11.5999997407198,5
2.417615,0.6833332,-5.87559,-0.1230692882678967,-0.0688109810835249,-0.1170375023714607,10.88221,58.04309,0.3694518,0.08447297,0.4826827,-0.04319526,11.6199997402728,5
2.470158,0.8833331,-5.84027,-0.0774090009018992,-0.2789033947979248,-0.0775547202891289,14.50746,58.07114,0.4970525,0.1124819,0.4809847,-0.05751966,11.6399997398257,5
2.712039,0.2833333,-5.680155,-0.0310367406190117,-0.4738720618293246,-0.0363777566154355,3.568279,60.21844,0.2356002,0.02796401,0.5013504,-0.01384065,11.6599997393787,5
2.764028,0.4833333,-5.645669,-0.1501606981265855,0.01220953963565,-0.1047927220210769,7.135444,60.2406,0.4729604,0.0558925,0.5006182,-0.02766382,11.6799997389317,5
2.816002,0.6833333,-5.611193,-0.2622878795942789,0.4878022010253197,-0.1688969930473676,10.70144,60.27797,0.7139797,0.08375844,0.4993992,-0.04145604,11.6999997384846,5
3.032535,0.2833333,-5.467368,-0.128822907567776,0.0479287735411133,-0.0734359746777766,3.499947,60.67298,0.2761772,0.02757324,0.5047768,-0.01334491,11.7199997380376,5
3.083403,0.4833333,-5.433257,-0.1917484461722205,0.3178542955060723,-0.1097317658535002,6.998777,60.69844,0.5543562,0.0551125,0.5040663,-0.02667327,11.7399997375906,5
3.13426,0.6833333,-5.399154,-0.2630992338022686,0.6049942674890625,-0.1528301982598714,10.49596,60.74141,0.836767,0.08258906,0.5028837,-0.03996991,11.7599997371435,5
3.185102,0.8833332,-5.365062,-0.3316375708497583,0.85707803739761,-0.1953273355763505,13.99189,60.80268,1.125556,0.1099804,0.5012302,-0.05322534,11.7799997366965,5
3.366658,0.2833333,-5.243956,-0.2443053322939956,0.1680831650509846,-0.1379653820867181,3.439735,60.42709,0.2920716,0.02721773,0.5029299,-0.01290157,11.7999997362494,5
3.416332,0.4833333,-5.2099,-0.1477770556713391,-0.4300120325055471,-0.076300018118216,6.877936,60.45358,0.5864299,0.05440063,0.5022456,-0.02578383,11.8199997358024,5
3.465991,0.6833333,-5.175854,-0.2296086722076955,-0.0344983304790136,-0.1320923306891344,10.31498,60.49822,0.8850063,0.08152656,0.5011063,-0.03863903,11.8399997353554,5
3.664122,0.2833333,-5.044067,-0.1444365113259671,-0.2902754001748193,-0.0766254841537663,3.393807,58.89002,0.1912504,0.0266072,0.4913287,-0.01310424,11.8599997349083,5
3.713092,0.4833333,-5.010617,-0.0591946711937163,-0.5314168398276078,-0.0192886440476307,6.78621,58.9071,0.3837117,0.05318004,0.4906805,-0.02619214,11.8799997344613,5
3.762048,0.6833333,-4.977176,-0.1297267452715864,-0.0919959013796536,-0.0648559885471327,10.17757,58.93589,0.5788618,0.07969864,0.4896012,-0.03925324,11.8999997340143,5
3.810989,0.8833332,-4.943745,-0.1960824280382036,0.336448219403643,-0.1073893258298253,13.56785,58.97691,0.7781507,0.1061397,0.4880923,-0.05227613,11.9199997335672,5
4.05826,0.2833333,-4.778967,-0.0342820022075178,-0.1510616267989968,-0.0010090802628401,3.336311,56.70269,0.07731519,0.02593919,0.4746584,-0.01323047,11.9399997331202,5
4.106168,0.4833333,-4.745883,-0.0595355979854925,0.070739704531798,-0.0191655338457668,6.671199,56.70948,0.1552611,0.05184593,0.4740548,-0.02644307,11.9599997326732,5
4.154063,0.6833332,-4.712809,-0.0930700364343595,0.3092675005268309,-0.0435748723271647,10.00512,56.72094,0.2342514,0.07770137,0.4730499,-0.03962952,11.9799997322261,5
4.201943,0.8833332,-4.679744,-0.1236652698833733,0.5122512286189409,-0.0669395203634852,13.33807,56.73726,0.3148602,0.1034836,0.4716449,-0.05277862,11.9999997317791,5
4.375224,0.2833333,-4.565563,-0.007540325856441,-0.2263315652242948,0.0030049447955509,3.280643,55.03679,359.9562,0.02521003,0.4618537,-0.01356455,12.0199997313321,5
4.422567,0.4833333,-4.533397,-0.0301210986590856,-0.0421651228273056,-0.018226016093906,6.560315,55.03301,359.9121,0.05039186,0.4612859,-0.02711412,12.039999730885,5
4.469899,0.6833333,-4.501237,-0.0492400036957363,0.1587278888621336,-0.0377331640910192,9.838653,55.0266,359.8672,0.07552142,0.4603406,-0.04063756,12.059999730438,5
4.658462,0.2833333,-4.375616,0.0951980801008778,-0.3041372264728315,0.0477962459312988,3.229563,52.61377,359.8545,0.02469839,0.4430346,-0.01362666,12.079999729991,5
4.704767,0.4833333,-4.343418,0.0792556752724369,-0.0591430360825931,0.0272552910878203,6.458153,52.6014,359.708,0.04936989,0.4425058,-0.02723836,12.0999997295439,5
4.75106,0.6833333,-4.31123,0.0626933165117638,0.2011848919826849,0.0060982808235849,9.685747,52.58057,359.5598,0.07399492,0.4416255,-0.04082428,12.1199997290969,5
4.956217,0.2833333,-4.174031,0.2239545429181131,-0.2028278785827304,0.1006365864215652,3.282397,51.20411,359.795,0.02505568,0.4319863,-0.01398857,12.1399997286499,5
5.003104,0.4833333,-4.140925,0.3856335407871754,-0.6206336121388569,0.1955339932797919,6.563811,51.18639,359.5887,0.05008357,0.4314527,-0.02796159,12.1599997282028,5
5.049977,0.6833333,-4.107828,0.332264741598367,-0.1471330719227639,0.1489394410902185,9.844209,51.15656,359.3798,0.07506317,0.4305643,-0.04190757,12.1799997277558,5
5.096836,0.8833333,-4.074744,0.2774134225511151,0.3128186801859223,0.1023408065710902,13.12405,51.11414,359.1669,0.09997854,0.4293219,-0.05581582,12.1999997273088,5
5.355771,0.2833334,-3.903481,0.4530450450113852,-0.1287213200231667,0.2080306253142261,3.525866,53.33111,359.8334,0.02683989,0.4486089,-0.01510503,12.2199997268617,5
5.406904,0.4833333,-3.869059,0.4236613992453382,0.1346929829404022,0.1798915586570646,7.050756,53.31563,359.6655,0.05364703,0.4479706,-0.03019185,12.2399997264147,5
5.458008,0.6833333,-3.834651,0.3775068308867668,0.4106820235493911,0.1426096226605682,10.57654,53.2894,359.4945,0.08040826,0.4469068,-0.04525859,12.2599997259676,5
5.509098,0.8833332,-3.800253,0.3260394799405297,0.6471801903342509,0.1037935775196965,14.10122,53.25199,359.3195,0.1070856,0.4454195,-0.0602782,12.2799997255206,5
5.693059,0.2833333,-3.679798,0.4213828939388948,-0.0479052086729662,0.162268586100764,3.564393,54.87729,359.8962,0.02718421,0.4606004,-0.0151347,12.2999997250736,5
5.744979,0.4833333,-3.645499,0.3595029036263222,0.1745749666772925,0.1186280367024459,7.128064,54.86752,359.7913,0.05433571,0.4599314,-0.03025363,12.3199997246265,5
5.796883,0.6833332,-3.611211,0.2928773166716212,0.408870193592445,0.0734175501856173,10.69069,54.85101,359.6848,0.08142684,0.4588177,-0.04533896,12.3399997241795,5
5.997196,0.2833334,-3.478039,0.3924814169473913,-0.0250906645679517,0.1374047804913505,3.589495,56.23257,0.05501134,0.02784937,0.4710181,-0.01433633,12.3599997237325,5
6.048725,0.4833333,-3.442417,0.3125959199328632,0.2444239566361206,0.084957951832439,7.178182,56.23782,0.1110441,0.05566763,0.4703249,-0.02865079,12.3799997232854,5
6.100239,0.6833333,-3.406806,0.2243453933070842,0.5251614443743253,0.0287918700150571,10.76583,56.2467,0.1679498,0.08342334,0.4691708,-0.0429331,12.3999997228384,5
6.151739,0.8833332,-3.371205,0.1396883420975836,0.7651835928854003,-0.0233143358925784,14.35246,56.25937,0.2262165,0.1110894,0.4675573,-0.05716923,12.4199997223914,5
6.402839,0.2833334,-3.205564,0.2840503138819032,0.0750170858471632,0.0739828343542925,3.586807,57.35807,0.09973154,0.02787384,0.4796434,-0.01425569,12.4399997219443,5
6.454602,0.4833333,-3.170344,0.1915175289246296,0.3011468486957017,0.0158389030517074,7.172616,57.36748,0.2000135,0.05571183,0.4789381,-0.02849507,12.4599997214973,5
6.506351,0.6833332,-3.135133,0.0870271310237775,0.5379617453655468,-0.049293334458708,10.75738,57.38335,0.3018532,0.08348727,0.4777639,-0.04270253,12.4799997210503,5
6.558084,0.8833331,-3.099932,-0.0172277906837159,0.723287979168212,-0.1135011264289482,14.34109,57.40601,0.4061149,0.1111731,0.4761223,-0.05686416,12.4999997206032,5
6.734012,0.2833333,-2.985123,0.0122319566404325,-0.0323920531349942,-0.0920363062483582,3.639414,57.92682,0.1136819,0.02826312,0.483979,-0.01450961,12.5199997201562,5
6.78678,0.4833333,-2.949719,-0.0995682322304976,0.1305132109445131,-0.1609694713867144,7.277776,57.93772,0.2282467,0.05648963,0.4832462,-0.0290005,12.5399997197092,5
6.839534,0.6833332,-2.914325,-0.2059342959274417,0.3063644584681974,-0.2247454825168851,10.91506,57.95613,0.3446473,0.08465102,0.4820262,-0.04345802,12.5599997192621,5
7.032048,0.2946714,-2.788896,-0.1678611894715445,-0.2064358536740822,-0.19495805898437,3.603745,59.22101,0.1609759,0.02803078,0.4938181,-0.0143155,12.5799997188151,5
7.084631,0.4946714,-2.754313,-0.2852804750377604,-0.0118111804956663,-0.2660169565637393,7.206399,59.2363,0.3231771,0.05602551,0.4930843,-0.02861268,12.5999997183681,5
7.137199,0.6946713,-2.719739,-0.3939657253353026,0.1979910964964096,-0.3302698318793573,10.80795,59.2621,0.487926,0.08395658,0.4918625,-0.04287741,12.619999717921,5
7.346717,0.306713,-2.583085,-0.4814880439870492,0.3710376699008092,-0.3797544077126156,3.54368,60.71432,0.2418697,0.02774636,0.5050896,-0.0138059,12.639999717474,5
7.398572,0.506713,-2.549163,-0.5080300468550121,0.3091589857420928,-0.4091471450688347,7.086252,60.7369,0.4855234,0.05545786,0.5043619,-0.02759451,12.6599997170269,5
7.450413,0.706713,-2.515251,-0.5325932532696935,0.2937514333452263,-0.4368628290202362,10.62765,60.775,0.7328789,0.08310792,0.5031504,-0.04135257,12.6799997165799,5
7.502241,0.9067129,-2.481347,-0.5431771823420934,0.2717737354445852,-0.4551972252170571,14.16746,60.82934,0.9858779,0.1106672,0.5014568,-0.05506613,12.6999997161329,5
7.761172,0.3225602,-2.311707,-0.3423825724807585,-0.4606550377482994,-0.3508861508308768,3.477134,60.98356,0.2913037,0.02743245,0.5071131,-0.01320491,12.7199997156858,5
7.811746,0.5225601,-2.277831,-0.3783480303620727,-0.2672513594700212,-0.400891518667445,6.953154,61.01023,0.5846863,0.05483144,0.506408,-0.02639365,12.7399997152388,5
7.862309,0.7225601,-2.243964,-0.4182439553504125,-0.0538145591766086,-0.4518020647726943,10.42752,61.05527,0.8826388,0.08216946,0.5052344,-0.03955003,12.7599997147918,5
7.912858,0.92256,-2.210107,-0.4509935663704656,0.1276078350931477,-0.4962355248040532,13.90063,61.11948,1.187236,0.1094237,0.5035936,-0.05266607,12.7799997143447,5
8.095196,0.3354207,-2.090791,-0.3190390286773201,-0.6397938018461072,-0.4428889793644242,3.418315,60.24926,0.2556502,0.02691669,0.5016005,-0.01304033,12.7999997138977,5
8.144756,0.5354207,-2.057322,-0.3342045372610922,-0.479148801523771,-0.4810174549636914,6.835128,60.27227,0.5131367,0.05379853,0.5009275,-0.02606267,12.8199997134507,5
8.194303,0.7354206,-2.023862,-0.3446389037508162,-0.2963106482072922,-0.5114499467703068,10.25083,60.31108,0.7742552,0.08062462,0.4998071,-0.03905804,12.8399997130036,5
8.393034,0.3468911,-1.893792,-0.1756903074763407,-0.7936527991750865,-0.4323609938887372,3.36809,58.50493,0.1555988,0.02630342,0.4884124,-0.01317646,12.8599997125566,5
8.441719,0.5468911,-1.860777,-0.1786806809842875,-0.5746834743188713,-0.46104329882816,6.734764,58.51873,0.3122627,0.05257344,0.4877785,-0.02633571,12.8799997121096,5
8.49039,0.746891,-1.827771,-0.1837027112768527,-0.3318667666488625,-0.4864330169505597,10.10043,58.54198,0.4710715,0.07879056,0.4867229,-0.03946847,12.8999997116625,5
8.539047,0.946891,-1.794775,-0.1795932977001353,-0.1173526817405884,-0.5015704079882812,13.46507,58.5751,0.6331987,0.1049321,0.4852471,-0.05256336,12.9199997112155,5
8.787714,0.3620871,-1.632887,0.066804357443182,-0.8503936967823161,-0.3726185599631684,3.311412,56.38671,0.01317673,0.02551982,0.4722484,-0.01354939,12.9399997107685,5
8.835697,0.5620871,-1.60072,0.0801089021928209,-0.6516010288588312,-0.390948530848506,6.621837,56.38786,0.02642319,0.05101068,0.471657,-0.02708354,12.9599997103214,5
8.883669,0.762087,-1.568558,0.0840143412914642,-0.4269423273811411,-0.4104641661011816,9.930887,56.38977,0.03970198,0.07644786,0.4706725,-0.04059056,12.9799997098744,5
8.931627,0.9524213,-1.536406,0.0895157499826257,-0.2286327477582879,-0.4242541318988526,13.239,56.39248,0.05323636,0.1018141,0.4692959,-0.05406002,12.9999997094274,5
9.093215,0.3566761,-1.432263,0.2433631504812563,-0.9734683859032494,-0.3490946014626049,3.255663,54.62216,359.9124,0.02488978,0.4586554,-0.0137132,13.0199997089803,5
9.140409,0.5566761,-1.400627,0.2558772722402107,-0.7849505644350379,-0.359680362878956,6.510354,54.61465,359.8242,0.04975214,0.4580998,-0.02741117,13.0399997085333,5
9.187591,0.7566761,-1.369,0.2693461050563339,-0.5690996376782669,-0.3644076585229264,9.764071,54.60199,359.7348,0.074567,0.4571748,-0.04108306,13.0599997080863,5
9.353481,0.3478715,-1.262071,0.4485499976438039,-1.0189264833076694,-0.2685241848838587,3.207336,52.66095,359.8169,0.02437377,0.4434138,-0.01384425,13.0799997076392,5
9.399905,0.5478715,-1.230671,0.463792566950147,-0.762391059646186,-0.2726023328861888,6.413698,52.6455,359.6328,0.04872127,0.4428912,-0.0276735,13.0999997071922,5
9.446316,0.7478715,-1.19928,0.4753922172601701,-0.480037566405635,-0.2726979170182747,9.619051,52.61948,359.4463,0.07302339,0.442021,-0.04147691,13.1199997067451,5
9.492716,0.9478714,-1.167897,0.4943727848137218,-0.2241956799268014,-0.2618184543072341,12.8231,52.58252,359.2565,0.09725954,0.4408044,-0.05524182,13.1399997062981,5
9.743485,0.3359032,-1.020855,0.5526432178054588,-0.1951152514999876,-0.2342552176628196,3.462983,54.23944,359.818,0.02617004,0.4556853,-0.01518652,13.1599997058511,5
9.794426,0.5359032,-0.9881054,0.5932243948335323,-0.1133134598399251,-0.209990772593087,6.925003,54.22284,359.6348,0.05230904,0.4550595,-0.03035518,13.179999705404,5
9.845347,0.7359031,-0.9553639,0.6276028945642977,-0.0322285882425169,-0.1818943630220245,10.38666,54.19475,359.4482,0.07839561,0.454017,-0.04549946,13.199999704957,5
10.06995,0.3260401,-0.8237215,0.8493886454393813,-0.645612754013331,-0.0368570072147061,3.54114,56.42282,359.8651,0.02667084,0.4725323,-0.01564276,13.21999970451,5
10.12274,0.5260401,-0.7915156,0.816184055040047,-0.3483927864036419,-0.0494870348310028,7.081838,56.41018,359.7285,0.05331029,0.4718544,-0.03127375,13.2399997040629,5
10.17553,0.7260401,-0.7593188,0.7619599084873361,-0.0298842947921857,-0.0679995561530508,10.6215,56.38882,359.5899,0.07989128,0.4707257,-0.0468705,13.2599997036159,5
10.22829,0.92604,-0.7271311,0.6983517075871841,0.2574370409119084,-0.0854981436112835,14.16009,56.35836,359.448,0.1063884,0.4691477,-0.06241802,13.2799997031689,5
10.41828,0.3157229,-0.616303,0.7830530485008627,-0.3926562606177083,-0.0117900025261372,3.58917,58.16136,359.9862,0.02730992,0.4858056,-0.0153262,13.2999997027218,5
10.47161,0.5157229,-0.5834655,0.705210103194986,-0.1314923640576302,-0.0365305271307814,7.1777,58.16006,359.9724,0.05458873,0.4850909,-0.03063371,13.3199997022748,5
10.52493,0.7157228,-0.5506373,0.618426580787439,0.1483584942247295,-0.0611690521082848,10.76522,58.15787,359.9584,0.08180632,0.4839008,-0.04590695,13.3399997018278,5
10.73162,0.3063915,-0.4291814,0.534619911240009,0.3943534112626656,-0.07877323052859,3.554411,59.29347,0.08489001,0.0273195,0.4943929,-0.01469714,13.3599997013807,5
10.78418,0.5063916,-0.3962364,0.4880428601002542,0.4067159033131895,-0.0822506294243118,7.107532,59.30144,0.1706458,0.05460388,0.4936793,-0.02937304,13.3799997009337,5
10.83672,0.7063915,-0.3633008,0.4233986796413571,0.4641083868087627,-0.0919754593795438,10.65964,59.31489,0.2577093,0.08182806,0.4924912,-0.04401661,13.3999997004867,5
10.88925,0.9063915,-0.3303747,0.3530914081115064,0.5128829254776437,-0.1008971164081253,14.21069,59.33408,0.3468009,0.1089657,0.4908302,-0.05861367,13.4199997000396,5
11.14978,0.2938817,-0.1785574,0.4635407910576745,-0.1409228373499899,-0.0022665487848734,3.624453,60.56033,0.1157787,0.02781876,0.5039486,-0.01507366,13.4399996995926,5
11.20388,0.4938818,-0.145714,0.3315629921006504,0.10833622209382,-0.0563852024873086,7.247856,60.57138,0.2324395,0.05560166,0.5031918,-0.03012805,13.4599996991456,5
11.25796,0.6938816,-0.1128797,0.1837212464037509,0.3704426912707553,-0.1177762943493319,10.87086,60.58999,0.350571,0.08332436,0.5019314,-0.04515383,13.4799996986985,5
11.31202,0.8938816,-0.08005482,0.0324208414811906,0.5927145077767526,-0.1794126985714259,14.49278,60.61656,0.4715768,0.1109558,0.5001693,-0.06013011,13.4999996982515,5
11.49325,0.2837349,0.02427676,0.028911742050397,-0.1196790571092984,-0.1541253129698927,3.624882,61.28361,0.1258795,0.02777119,0.5093841,-0.01517505,13.5199996978045,5
11.54767,0.4837348,0.0565883,-0.1073292417161546,0.0817936974787504,-0.2109741136396814,7.248696,61.29563,0.2527328,0.05550652,0.5086188,-0.03033054,13.5399996973574,5
11.60207,0.6837348,0.08889058,-0.2414881337200203,0.2952674195945957,-0.2655301240554859,10.87143,61.31593,0.3816004,0.08317821,0.5073447,-0.04545135,13.5599996969104,5
11.80066,0.2833334,0.2035417,-0.2023527974375216,-0.172225983775465,-0.2195387265502046,3.573854,63.10935,0.2094481,0.02752806,0.523008,-0.01476149,13.5799996964633,5
11.85462,0.4833335,0.2349978,-0.2964249534407575,0.0746693208485651,-0.2575544166521084,7.146603,63.12907,0.4204689,0.05502109,0.5222425,-0.02950424,13.5999996960163,5
11.90856,0.6833334,0.266445,-0.3832736641877936,0.3336350788498812,-0.2919849385909501,10.71822,63.16235,0.6347483,0.0824525,0.5209682,-0.04421403,13.6199996955693,5
11.96249,0.8833333,0.2978858,-0.4499425233135063,0.5520631867258365,-0.3158402516479843,14.28837,63.20981,0.8538445,0.1097925,0.5191866,-0.05887692,13.6399996951222,5
12.21254,0.2833332,0.4429704,-0.2662450913654357,-0.1764060208701264,-0.1989724345356756,3.506881,64.04248,0.2792823,0.02723461,0.5299205,-0.01415891,13.6599996946752,5
12.26541,0.4833333,0.4741346,-0.3031456361988063,0.0265736966772717,-0.2099931615318682,7.012623,64.06827,0.5605972,0.05443544,0.5291715,-0.02830013,13.6799996942282,5
12.31827,0.6833333,0.5052905,-0.3355946340853482,0.2419323001476905,-0.2202915326597359,10.51676,64.11182,0.846191,0.08157443,0.5279249,-0.042408,13.6999996937811,5
12.54177,0.2833334,0.6357574,-0.167442315102642,-0.2231894956243246,-0.117487132124509,3.442045,63.81174,0.2932474,0.02684737,0.52822,-0.01370169,13.7199996933341,5
12.5934,0.4833333,0.6668566,-0.2008426621791024,0.0279429797170494,-0.1322248889863475,6.882529,63.83835,0.5887787,0.05366018,0.5275003,-0.02738302,13.7399996928871,5
12.64501,0.6833332,0.6979467,-0.2409391623176766,0.2919961913064786,-0.1516741913488266,10.32185,63.88321,0.8885317,0.08041659,0.5263022,-0.04103569,13.75999969244,5
12.6966,0.8833331,0.7290278,-0.2762136959337251,0.5164762562787685,-0.1691119836326766,13.75989,63.94713,1.194825,0.1070923,0.5246269,-0.05464722,13.779999691993,5
12.88502,0.2833332,0.8381622,-0.1501916412483446,-0.2048623896004902,-0.0925712387948549,3.394246,62.32207,0.192489,0.02621172,0.5171749,-0.01388787,13.799999691546,5
12.9359,0.4833332,0.8686436,-0.1786921474015397,0.0044581629166008,-0.1037383925417136,6.787072,62.33926,0.3862072,0.05238949,0.5164924,-0.02775826,13.8199996910989,5
12.98677,0.6833332,0.899116,-0.2043769263929729,0.2272356361410162,-0.1129435364164157,10.17885,62.36824,0.5826029,0.07851364,0.515356,-0.04160041,13.8399996906519,5
13.03762,0.883333,0.9295798,-0.2157463624112559,0.4110303025416847,-0.1137355173307188,13.56955,62.40953,0.7831692,0.1045615,0.5137672,-0.05540209,13.8599996902049,5
13.2772,0.2833334,1.068884,-0.1840895342228563,0.3811402300250164,-0.091297164062007,3.336486,60.12774,0.07762468,0.02553488,0.5007356,-0.01399818,13.8799996897578,5
13.327,0.4833333,1.099053,-0.1593439175437083,0.3942402895263194,-0.0741131021876464,6.671544,60.13456,0.155884,0.05103785,0.5000988,-0.02797749,13.8999996893108,5
13.37678,0.6833333,1.129213,-0.1297299268095795,0.3968942378690825,-0.0556060152077382,10.00564,60.14606,0.2351868,0.0764903,0.4990385,-0.04192918,13.9199996888638,5
13.58959,0.2833334,1.252796,0.0914331276719906,-0.3046483622769353,0.0710465364486037,3.281005,58.45464,359.9562,0.02479712,0.4880852,-0.01431173,13.9399996884167,5
13.63877,0.4833334,1.282086,0.0714633226236394,-0.0712704299428959,0.0576130328584687,6.561048,58.45086,359.9122,0.04956663,0.4874851,-0.02860758,13.9599996879697,5
13.68794,0.6833333,1.311371,0.0418704143427195,0.1775996545785803,0.0374759991944682,9.839767,58.44445,359.8673,0.07428473,0.4864859,-0.04287581,13.9799996875226,5
13.73709,0.8833332,1.340647,0.0139044442100644,0.38963655566703,0.0170608772733915,13.11754,58.43536,359.8216,0.09893499,0.4850889,-0.05710472,13.9999996870756,5
13.91631,0.2833334,1.445017,0.1334379208808105,-0.3412379693243982,0.0790536422632555,3.229382,56.02356,359.8544,0.02428047,0.4694979,-0.01435501,14.0199996866286,5
13.96445,0.4833333,1.474402,0.1080526869613844,-0.1385820129215162,0.0578140877302377,6.457808,56.01119,359.708,0.0485347,0.4689376,-0.02869427,14.0399996861815,5
14.01257,0.6833333,1.503778,0.0843080076672428,0.0807513189598608,0.0367771523697144,9.685235,55.99036,359.5597,0.07274319,0.4680047,-0.04300644,14.0599996857345,5
14.20915,0.2833333,1.618607,0.0734248445326208,0.2644892750421501,0.022529321161735,3.281878,54.6037,359.7949,0.02462509,0.458535,-0.01472472,14.0799996852875,5
14.25791,0.4833333,1.648867,0.1035762200319752,0.2273772778194583,0.0322617519860024,6.562785,54.58598,359.5884,0.04922298,0.4579688,-0.0294331,14.0999996848404,5
14.30666,0.6833333,1.679119,0.1259047247284446,0.235740387272238,0.0378417238295827,9.842664,54.55613,359.3793,0.07377335,0.457026,-0.04411297,14.1199996843934,5
14.35539,0.8833331,1.709359,0.1519850349366525,0.2362629934119352,0.0461366542835954,13.12201,54.51369,359.1663,0.09826076,0.4557077,-0.05875334,14.1399996839464,5
14.60764,0.2833332,1.854995,0.3565043811366184,-0.4646850275381069,0.1588105897503555,3.525793,56.70759,359.8329,0.0263807,0.4747289,-0.01589255,14.1599996834993,5
14.66072,0.4833333,1.886339,0.3316077896988787,-0.2428836885409672,0.1401077464068989,7.050578,56.69206,359.6646,0.052729,0.4740534,-0.03176573,14.1799996830523,5
14.71376,0.6833333,1.91767,0.2993631705158961,-0.00435588226606,0.1183675447819525,10.57627,56.66577,359.4931,0.07903217,0.4729277,-0.0476175,14.1999996826053,5
14.93947,0.2833334,2.048068,0.4537827583799867,-0.4416862281925351,0.2058489394297762,3.564611,58.23436,359.8956,0.02672845,0.4863865,-0.01592978,14.2199996821582,5
14.99332,0.4833333,2.079261,0.3964187271361492,-0.1697053939720494,0.1716887383101135,7.128498,58.22453,359.7902,0.0534247,0.48568,-0.03184273,14.2399996817112,5
15.04715,0.6833333,2.110444,0.3226227704369186,0.1190021204415556,0.1287340034698543,10.69134,58.20793,359.6831,0.08006161,0.4845037,-0.04772037,14.2599996812642,5
15.10097,0.8833332,2.14162,0.2443520456012358,0.3721656762847972,0.0837952790976457,14.25314,58.18425,359.5735,0.1066136,0.4828592,-0.06354722,14.2799996808171,5
15.29057,0.2833334,2.252669,0.1735552072722903,0.4236853558837772,0.0436855363906643,3.589275,59.55648,0.05409781,0.02741625,0.4963878,-0.01514396,14.2999996803701,5
15.34408,0.4833333,2.285228,0.1410178817469862,0.3558027919438317,0.0263005256664707,7.177763,59.56164,0.1092434,0.05480234,0.4956574,-0.030265,14.3199996799231,5
15.39758,0.6833333,2.317777,0.0987437471293652,0.3338834005297916,0.0043105248475381,10.76521,59.57038,0.1652462,0.08212681,0.4944413,-0.04535206,14.339999679476,5
15.45106,0.8833333,2.350317,0.0590841242090611,0.3046114516050832,-0.0152418741091624,14.35162,59.58284,0.2225875,0.109363,0.492741,-0.0603903,14.359999679029,5
15.69318,0.2833334,2.490394,0.190499741254051,-0.4256428584498627,0.0635774980518664,3.586698,60.63799,0.09867792,0.02744899,0.5045431,-0.01505502,14.379999678582,5
15.74688,0.4833333,2.522579,0.1031869177211532,-0.2326603813661381,0.0167805699917882,7.172405,60.64729,0.1979097,0.0548627,0.5038013,-0.03009265,14.3999996781349,5
15.80056,0.6833332,2.554755,0.0120224867818201,-0.0224632499736667,-0.0321230326684536,10.75706,60.66301,0.2986786,0.08221475,0.5025663,-0.04509656,14.4199996776879,5
16.01811,0.2833334,2.680857,0.1031144184746395,-0.4876367363493546,0.0239665512057105,3.639762,61.16782,0.1126934,0.02783972,0.508516,-0.01531204,14.4399996772408,5
16.07281,0.4833334,2.71321,-0.0023018293017429,-0.2430111485235093,-0.0325071523541113,7.278471,61.17863,0.2262546,0.05564334,0.5077459,-0.03060437,14.4599996767938,5
16.12749,0.6833334,2.745553,-0.1170885393413634,0.0188289996983375,-0.0937212150474304,10.9161,61.19688,0.3416548,0.08338286,0.5064638,-0.04586132,14.4799996763468,5
16.18216,0.8833334,2.777887,-0.2287200250271333,0.2456132691390622,-0.1524727051935919,14.55316,61.22291,0.4597168,0.1110335,0.5046711,-0.06107115,14.4999996758997,5
16.36296,0.2833333,2.881671,-0.0959901348127267,-0.4686812328707487,-0.0688212643560288,3.60373,62.43857,0.1601747,0.02761409,0.5180206,-0.01510273,14.5199996754527,5
16.4174,0.4833332,2.913237,-0.1197332198552096,-0.2597387337811254,-0.0740592704438336,7.206388,62.45378,0.3215581,0.05519275,0.5172508,-0.03018627,14.5399996750057,5
16.47184,0.6833332,2.944793,-0.1468369699184251,-0.0335815798600467,-0.0807602210708369,10.80791,62.47945,0.485479,0.08270855,0.5159692,-0.04523547,14.5599996745586,5
16.52625,0.8833332,2.976341,-0.164041750234066,0.157519351078367,-0.0815109959817004,14.40813,62.51604,0.6530627,0.110132,0.5141774,-0.06023672,14.5799996741116,5
16.75873,0.2833335,3.110464,-0.1808122494352808,0.1278292949398012,-0.084064875588723,3.537554,64.15241,0.2611885,0.02736391,0.5307327,-0.01446086,14.5999996736646,5
16.81229,0.4833334,3.141473,-0.1954542223347886,0.1441025078534137,-0.0866753938163604,7.074004,64.17675,0.5243021,0.05469365,0.5299701,-0.02890368,14.6199996732175,5
16.86582,0.6833334,3.172473,-0.1955360518735638,0.1530230330155833,-0.0823745750853968,10.60927,64.21781,0.7914094,0.08196304,0.5287004,-0.04331454,14.6399996727705,5
17.07217,0.2833334,3.292295,-0.168586830966138,0.1012749402806648,-0.0641845812359287,3.470172,64.14364,0.2906874,0.0270036,0.5306717,-0.0139286,14.6599996723235,5
17.12444,0.4833333,3.323268,-0.1438147305440047,0.042174305454891,-0.0489060384690684,6.938921,64.17023,0.5837041,0.05397328,0.529937,-0.02783683,14.6799996718764,5
17.17669,0.6833333,3.354233,-0.1236973483226222,0.0290368313941478,-0.0374839938892757,10.40633,64.21508,0.8809904,0.08088423,0.5287138,-0.04171462,14.6999996714294,5
17.3998,0.2833333,3.484033,-0.0964404368497966,0.0085467747328773,-0.0230217593583343,3.416634,63.36481,0.2547986,0.02653587,0.5249192,-0.01376586,14.7199996709824,5
17.45108,0.4833333,3.514733,-0.0837498279502142,0.0073618735154954,-0.016311270228023,6.831791,63.38773,0.5114368,0.05303766,0.5242157,-0.02751283,14.7399996705353,5
17.50235,0.6833333,3.545425,-0.0861915942068982,0.0521405455648684,-0.0173410966724203,10.24584,63.4264,0.7716976,0.07948454,0.5230444,-0.04123131,14.7599996700883,5
17.55361,0.8833332,3.576107,-0.092131871624133,0.0895668089875084,-0.0193564746668837,13.6587,63.48147,1.037542,0.105853,0.5214068,-0.05490922,14.7799996696413,5
17.60485,0.9766704,3.606781,-0.0899557355674041,0.0663243633009602,-0.0155983984320666,17.0703,63.554,1.311136,0.1321195,0.5193046,-0.06853419,14.7999996691942,5
17.82766,0.2833332,3.735644,-0.0960902241960006,0.0357285137564982,-0.0183677572641505,3.362373,61.11221,0.1289708,0.02583582,0.5081342,-0.01394614,14.8199996687472,5
17.87793,0.4833331,3.765955,-0.1060582259105231,0.0510960297904879,-0.0238559118874199,6.723302,61.12362,0.2588423,0.0516387,0.5074773,-0.02787388,14.8399996683002,5
17.92819,0.6833332,3.796257,-0.1081677605807733,0.0591109551220137,-0.0255030900620498,10.08322,61.14287,0.3904963,0.07738967,0.5063837,-0.04177349,14.8599996678531,5
18.12471,0.2833334,3.909844,-0.090724365225526,0.0064572139448458,-0.0167528178196523,3.306072,59.37255,0.0100026,0.02510398,0.4950424,-0.01421066,14.8799996674061,5
18.17425,0.4833334,3.939374,-0.0751161277361021,-0.0535495704234737,-0.0104684129111287,6.611164,59.37343,0.02006026,0.05017959,0.4944244,-0.02840534,14.899999666959,5
18.22378,0.6833335,3.968899,-0.0646701118842969,-0.0675930826033842,-0.0080131077121494,9.914877,59.37487,0.0301319,0.07520253,0.4933957,-0.04257137,14.919999666512,5
18.4361,0.2833332,4.09217,-0.0479397216150019,-0.0889892532632296,-0.0028448880295259,3.2544,57.538,359.9103,0.02451472,0.4811047,-0.01435211,14.939999666065,5
18.48485,0.4833332,4.121324,-0.0461772546543777,-0.0910800119179249,-0.0078639990121152,6.507808,57.53032,359.8201,0.04900222,0.4805224,-0.02868832,14.9599996656179,5
18.53358,0.6833333,4.150469,-0.0588018284316298,-0.0472073142176533,-0.0222087973088065,9.760228,57.51738,359.7288,0.07344297,0.4795528,-0.04299704,14.9799996651709,5
18.58229,0.8833334,4.179607,-0.0745339471137285,-0.0106873560166668,-0.0393044236580681,13.01135,57.49899,359.6357,0.09781515,0.4781972,-0.05726522,14.9999996647239,5
18.84525,0.2833334,4.333113,0.1007710863655333,-0.6751502738979044,0.0522700984584485,3.201476,54.29866,359.7756,0.0239635,0.4561809,-0.01448845,15.0199996642768,5
18.89289,0.4833334,4.362534,0.1214882469597782,-0.4163759741054167,0.0551317269995239,6.401976,54.27976,359.5499,0.04790145,0.4556444,-0.02896104,15.0399996638298,5
18.94051,0.6833335,4.391947,0.1340747590681985,-0.1403870024935438,0.0532394853423223,9.60141,54.24794,359.3215,0.07179468,0.454751,-0.04340651,15.0599996633828,5
18.98812,0.8833334,4.42135,0.1501363999799743,0.1005459770843572,0.0534964865462557,12.79953,54.2028,359.0891,0.09562453,0.4535021,-0.05780983,15.0799996629357,5
19.18145,0.2833332,4.532665,0.1813029565881017,0.1403222620250378,0.0627992270909247,3.53096,55.67802,359.7939,0.02640308,0.4668154,-0.01597734,15.0999996624887,5
19.23443,0.4833332,4.564457,0.2058326087972481,0.0611841642895703,0.0694460245617021,7.060927,55.65885,359.5861,0.05277382,0.4661485,-0.0319354,15.1199996620417,5
19.28738,0.6833332,4.596239,0.2221172707026006,0.0284972990064473,0.0727477109837266,10.59109,55.62642,359.3749,0.07909518,0.4650375,-0.04786672,15.1399996615946,5
19.3403,0.883333,4.628006,0.2420324443191859,-0.0110543973469864,0.0796540395528522,14.12153,55.58012,359.1587,0.1053443,0.4634834,-0.06375457,15.1599996611476,5
19.58307,0.2833332,4.767288,0.2480941897720505,-0.0308128404339466,0.0794600112883907,3.563876,57.96844,359.8766,0.02667948,0.4843634,-0.01600946,15.1799996607006,5
19.63693,0.4833332,4.798439,0.2420707934758859,-0.0041201588330032,0.0737052760125527,7.12693,57.95681,359.7518,0.05332518,0.4836598,-0.03200332,15.1999996602535,5
19.69078,0.6833333,4.82958,0.2360959652281309,0.0157075977848829,0.0693291223580407,10.6889,57.93718,359.6251,0.07991152,0.4824885,-0.04796138,15.2199996598065,5
19.9075,0.2833333,4.955589,0.0371322984841775,0.6956426011911905,-0.0453882830366616,3.592917,59.3616,0.01671003,0.02730809,0.4949202,-0.01539637,15.2399996593595,5
19.96129,0.4833335,4.987797,0.0502859808569589,0.4914390383436973,-0.0373422997667489,7.185025,59.36322,0.03398151,0.05458504,0.4941906,-0.03077088,15.2599996589124,5
20.01507,0.6833338,5.019996,0.0502478233587844,0.3091196690575176,-0.035792796946775,10.77609,59.36596,0.05153284,0.08180054,0.4929759,-0.04611066,15.2799996584654,5
20.06883,0.8833337,5.052186,0.0495119411974442,0.0943227937036017,-0.0336447441117346,14.36617,59.36988,0.06950415,0.1089283,0.4912775,-0.06140095,15.2999996580184,5
20.24904,0.2833333,5.156357,0.2432448770423292,-0.7195805299190356,0.0809530575633354,3.561575,60.22765,0.08234364,0.02724169,0.5014577,-0.01496993,15.3199996575713,5
20.30226,0.4833333,5.188462,0.2325626854428257,-0.5106380263864161,0.0791370829877138,7.12191,60.23538,0.1653678,0.05444793,0.500731,-0.02991971,15.3399996571243,5
20.35547,0.6833334,5.220559,0.2143065353775277,-0.2844811301591259,0.0733065205740564,10.6812,60.24844,0.2497022,0.08159386,0.4995211,-0.04483601,15.3599996566772,5
20.40866,0.8833334,5.252646,0.2012068920368115,-0.0933803738043328,0.0706897664703465,14.23946,60.26706,0.3360097,0.1086534,0.4978296,-0.0597049,15.3799996562302,5
20.64305,0.2833332,5.387504,0.0303996170222582,0.6168524926078423,-0.0214750399457033,3.634285,61.14481,0.1148224,0.02781111,0.5083435,-0.01526616,15.3999996557832,5
20.69764,0.4833331,5.419866,0.0557002075051613,0.3308969723155399,-0.0014655659093891,7.267515,61.15581,0.2305301,0.05558623,0.5075759,-0.03051268,15.4199996553361,5
20.75221,0.683333,5.452219,0.0812791996244861,0.0668254172493885,0.0192528866385179,10.90014,61.17434,0.3479006,0.08330009,0.5062978,-0.04572759,15.4399996548891,5
20.96047,0.2833333,5.572009,-0.075236062503631,0.4905648145177341,-0.0643833225621746,3.61544,61.97607,0.1335503,0.02764283,0.514571,-0.01524283,15.4599996544421,5
21.01506,0.4833335,5.603699,-0.0707546647196473,0.2702616813341253,-0.0546196769007334,7.229775,61.98878,0.2681087,0.05524972,0.5138018,-0.03046605,15.479999653995,5
21.06964,0.6833335,5.63538,-0.0691249562324252,0.0718422999386032,-0.0451829512671171,10.84303,62.01027,0.4048156,0.08279373,0.5125212,-0.04565446,15.499999653548,5
21.29557,0.2833335,5.765299,-0.0571122440358955,-0.1590546968572141,-0.0286258953533256,3.558689,63.79876,0.2273311,0.02740888,0.528121,-0.0147245,15.519999653101,5
21.34952,0.4833334,5.796269,-0.0993138271365445,-0.1567202642452736,-0.0444641476353959,7.116288,63.82007,0.4563547,0.05478323,0.5273541,-0.02943051,15.5399996526539,5
21.40346,0.6833335,5.827229,-0.1504392294019503,-0.1079348311750916,-0.0660902581667279,10.6727,63.85604,0.6888787,0.08209628,0.5260773,-0.0441037,15.5599996522069,5
21.45739,0.8833336,5.858183,-0.1978550781798951,-0.0660144611693234,-0.0864833762267354,14.22759,63.90733,0.9266985,0.1093191,0.5242924,-0.05872961,15.5799996517599,5
21.5113,0.9766703,5.889128,-0.2289138703469682,-0.0842747652619346,-0.0986135455659269,17.78125,63.975,1.172036,0.1364287,0.5220015,-0.07329489,15.5999996513128,5
21.73426,0.2833333,6.018033,-0.1751201002990399,-0.1093995481213773,-0.0599739396509981,3.489981,64.27578,0.2827288,0.02709691,0.5316467,-0.01411045,15.6199996508658,5
21.78696,0.4833333,6.04891,-0.1329672246350597,-0.0880731864301106,-0.0274284329142346,6.978841,64.30177,0.5674867,0.0541605,0.5309024,-0.02820351,15.6399996504188,5
21.83966,0.6833333,6.079778,-0.0902161735615223,-0.0736117426653768,0.0057685826118385,10.46605,64.34563,0.8566587,0.08116335,0.5296634,-0.04226248,15.6599996499717,5
22.03679,0.2833334,6.194018,-0.0346012541540687,-0.1193307062450041,0.0463775196554347,3.42983,63.73109,0.2729051,0.02667285,0.5276292,-0.01377724,15.6799996495247,5
22.08833,0.4833333,6.224776,-0.0823604420092181,-0.171914692902076,0.0609509231822809,6.858135,63.75574,0.5478982,0.05331152,0.5269161,-0.02753451,15.6999996490777,5
22.13987,0.6833332,6.255526,-0.1318095888668189,-0.1780472122378232,0.0726330651246529,10.28532,63.79734,0.8268064,0.07989474,0.5257288,-0.04126311,15.7199996486306,5
22.19138,0.8833331,6.286267,-0.1713834968044665,-0.191044805353444,0.0880419958957752,13.71127,63.85659,1.111741,0.1063983,0.5240687,-0.05495076,15.7399996481836,5
