pX,pY,pZ,aX,aY,aZ,reX,reY,reZ,rtX,rtY,rtZ,t,ID
-42.91901,0.2300002,-37.99973,5.591179990156611,-0.0044489315030953,1.109001780699522,0.01639881,0.01590139,356.0634,0.000138256,0.0001435991,-0.0343468,6.73999984934926,18
-42.84354,0.4300002,-37.99942,5.916045158284796,-0.4076522295131636,1.0830539327650044,0.0471071,0.04058038,352.2789,0.0003863109,0.0003810049,-0.06732879,6.75999984890223,18
-42.76723,0.6299999,-37.99897,6.159425337642496,-0.5667521832537356,1.0574655145240044,0.0884324,0.08642343,348.3133,0.0006909251,0.0008288354,-0.1018096,6.77999984845519,18
-42.68824,0.8299999,-37.99836,6.324376856711659,-0.5070824654101429,1.0316392304544948,0.1378257,0.1510229,344.0836,0.001008704,0.001471752,-0.1384517,6.79999984800816,18
-42.53661,0.2833333,-38.00063,6.6240866245083865,-0.8932453184759052,0.992924850653182,0.03345532,8.596373,359.9461,0.0002558825,0.0749473,-0.0004908775,6.81999984756112,18
-42.53564,0.4833333,-38.00018,6.828282903890923,-1.0313327230168263,0.9511261689163106,0.06742972,9.093613,359.8926,0.000512272,0.07927398,-0.0009810998,6.83999984711409,18
-42.53466,0.6833333,-37.99973,6.941674635039135,-0.9466780860096308,0.906231633453416,0.1016921,9.590325,359.8412,0.0007684657,0.08359482,-0.001455304,6.85999984666705,18
-42.50231,0.2833333,-37.97805,6.969233496029069,-0.6635695512749819,0.8582836269648126,1.090865,17.77366,0.5034139,0.01008371,0.1544335,0.002869584,6.87999984622002,18
-42.50499,0.4833333,-37.95702,7.092216218871471,-1.0590015858885462,0.7981272073578225,2.177233,18.28411,1.016637,0.02016603,0.1586815,0.005738975,6.89999984577298,18
-42.50768,0.6833332,-37.936,7.120703596405953,-1.1989700785976805,0.7381041560473136,3.260841,18.80432,1.541286,0.03026392,0.1629047,0.008616148,6.91999984532595,18
-42.42256,0.2833336,-37.90779,7.061099223452004,-1.10880850041053,0.6781831716883673,1.870757,27.50848,0.1000967,0.01606424,0.2377122,-0.00303298,6.93999984487891,18
-42.409,0.4833333,-37.87776,7.116548706583501,-1.453120411299711,0.6195186231404008,3.741423,28.0085,0.2156475,0.03212911,0.2418048,-0.006074728,6.95999984443188,18
-42.39545,0.6833333,-37.84775,7.076045680990163,-1.5379963928098783,0.5623322856155966,5.613414,28.51304,0.3465835,0.04820237,0.2458235,-0.009130814,6.97999984398484,18
-42.38192,0.8833333,-37.81776,6.94753222916524,-1.38877010534279,0.5066746698841484,7.486488,29.02328,0.4945194,0.06428111,0.2497671,-0.01218998,6.99999984353781,18
-42.25099,0.2833333,-37.7897,6.95469708349593,-1.6700434594739972,0.4566683625717047,3.516213,37.70019,0.1377456,0.02942265,0.322906,-0.00877542,7.01999984309077,18
-42.21535,0.4833333,-37.73927,6.867347809969424,-1.6879082495119313,0.4074148295184088,7.034374,38.20805,0.3049203,0.0588383,0.3265125,-0.01756851,7.03999984264374,18
-42.17973,0.6833333,-37.68887,6.695009426139798,-1.4676981476192137,0.3593031639523687,10.5529,38.73068,0.5051742,0.0882132,0.3297998,-0.02635177,7.0599998421967,18
-42.01372,0.2833336,-37.7885,6.447489907446887,-1.033701748537082,0.3128106220880369,358.7485,46.53471,355.1506,-0.02673484,0.3942205,-0.03455287,7.07999984174967,18
-41.96944,0.4833336,-37.81794,6.307990354359973,-1.2629141314292849,0.2613511152083489,359.3969,46.01418,352.1744,-0.03150307,0.389598,-0.06075726,7.09999984130263,18
-41.92532,0.6833336,-37.83207,6.093337108446164,-1.2213299071154693,0.2123231905405589,0.6340088,45.37939,349.8388,-0.02907503,0.3846708,-0.08382805,7.1199998408556,18
-41.7114,0.2833332,-37.80081,5.815034376613333,-0.9342833346693632,0.1665448821200357,2.845353,53.73082,359.6367,0.02071577,0.4518248,-0.014047,7.13999984040856,18
-41.66733,0.4833332,-37.78432,5.677275441399047,-1.0663768566935588,0.1225245366813396,5.373807,52.82041,358.8063,0.03735507,0.4447189,-0.03016935,7.15999983996153,18
-41.62257,0.6833333,-37.7714,5.476462747671249,-0.9237014548637424,0.0820183138729291,7.81707,51.88451,357.7882,0.05286051,0.4375493,-0.04712872,7.17999983951449,18
-41.45696,0.2833332,-37.76966,5.225966830872075,-0.5315910414385714,0.0462671425771219,2.824075,58.14397,359.5077,0.01945033,0.4858486,-0.01572765,7.19999983906746,18
-41.41024,0.4833334,-37.75084,5.151278197799044,-0.5546478583888648,0.0202761017486139,5.640344,57.28749,358.9731,0.03888795,0.4791493,-0.03143908,7.21999983862042,18
-41.36352,0.6833332,-37.73201,5.028425271432504,-0.2989633521625688,0.0008443871178585,8.448027,56.40017,358.3934,0.05830009,0.4721322,-0.04712476,7.23999983817339,18
-41.13396,0.2833333,-37.73425,4.872778013981005,0.2101285798787591,-0.0105466627708352,2.901595,65.44832,359.6507,0.01965252,0.5404842,-0.01625068,7.25999983772635,18
-41.08505,0.4833332,-37.71875,4.609396013865961,0.7082434256719436,-0.0127169445265522,5.797481,64.604,359.2586,0.0392911,0.5339634,-0.03248499,7.27999983727932,18
-41.03615,0.6833332,-37.70325,4.417316282118222,0.2906831849138055,-0.0081508771706921,8.686828,63.73508,358.8214,0.05890096,0.5270747,-0.0486922,7.29999983683228,18
-40.7906,0.2833335,-37.69912,4.1042852003095405,-0.1372963103966583,0.0090443637703572,2.930434,72.08534,359.8016,0.01965707,0.5882301,-0.0164445,7.31999983638525,18
-40.74058,0.483333,-37.68676,3.588585628753812,0.2655357217776077,0.0439322782975821,5.85739,71.25473,359.5608,0.03929959,0.5819054,-0.03287342,7.33999983593822,18
-40.69057,0.6833328,-37.6744,3.2439705316264096,0.0108039335325531,0.0941457163579002,8.780044,70.40707,359.2758,0.05891232,0.5751752,-0.04927476,7.35999983549118,18
-40.64057,0.8833328,-37.66205,2.869859130897545,-0.2355644602110139,0.1617830615716613,11.69946,69.53797,358.9464,0.07850352,0.5680452,-0.06563237,7.37999983504415,18
-40.42564,0.2833335,-37.65839,2.444919477242273,0.1923570623602832,0.2232808914729389,3.052184,75.48306,0.05168276,0.02133617,0.6118737,-0.01594504,7.39999983459711,18
-40.37404,0.4833335,-37.64438,2.236750575428971,-0.0372847681019463,0.2810473275102012,6.104225,74.67484,0.06045592,0.0426528,0.6056251,-0.03187416,7.41999983415008,18
-40.32246,0.6833338,-37.63039,2.0246146615567118,-0.2585633097363102,0.3301034260019833,9.157322,73.86241,0.02796013,0.06395699,0.5989226,-0.04777049,7.43999983370304,18
-40.0868,0.2833332,-37.61538,1.7217150401698191,0.1944477191745341,0.3609811181528144,3.175268,77.75091,0.2228952,0.02278969,0.6273455,-0.01587528,7.45999983325601,18
-40.0333,0.483333,-37.60017,1.4207505614900242,0.6302094686348451,0.3696022908599587,6.357006,76.95934,0.40284,0.04558923,0.6211233,-0.03175314,7.47999983280897,18
-39.97981,0.6833329,-37.58497,1.3074880954004726,0.1437449216549443,0.3516556521173157,9.539968,76.17255,0.5396131,0.06834443,0.6143959,-0.04760031,7.49999983236194,18
-39.72443,0.2833334,-37.56604,1.2097452856495323,-0.3599685861865156,0.3081090869020002,3.307033,77.99256,0.1740046,0.02338107,0.6289731,-0.0169781,7.5199998319149,18
-39.6685,0.4833333,-37.55146,1.0044571704033487,0.0240461755382086,0.2387124458070886,6.616274,77.19951,0.3019419,0.0467394,0.6227157,-0.03394532,7.53999983146787,18
-39.61258,0.6833333,-37.53689,0.99798071915518,-0.2495031206389024,0.1137268114953471,9.926003,76.40807,0.384441,0.07004933,0.6159135,-0.05087808,7.55999983102083,18
-39.55668,0.8833331,-37.52232,0.9916758111251625,-0.5146888062629373,-0.0722013914257999,13.23565,75.61291,0.4210117,0.09329091,0.608573,-0.06776152,7.5799998305738,18
-39.3386,0.283333,-37.51444,0.8448452704907794,-0.1055851721532671,-0.144730179428592,3.307057,77.506,0.07867265,0.02293259,0.625688,-0.01752733,7.59999983012676,18
-39.28246,0.4833333,-37.50102,0.7015434882395226,0.2862689316943734,-0.1733393124868385,6.613852,76.70787,0.1107088,0.04583439,0.6194403,-0.03503799,7.61999982967973,18
-39.22634,0.6833332,-37.4876,0.8326867757430207,-0.2441034193650709,-0.16895999907792,9.919885,75.9057,0.09635546,0.06868977,0.6126522,-0.05251297,7.63999982923269,18
-38.98996,0.2833332,-37.47641,0.7630834569118008,-0.0714359623967968,-0.1850441860183451,3.271923,77.11308,359.9616,0.02211644,0.6230401,-0.01805609,7.65999982878566,18
-38.93408,0.4833333,-37.46474,0.6886009527344399,0.1116858725781256,-0.2062128334481698,6.542003,76.30735,359.877,0.04420639,0.6168141,-0.03609207,7.67999982833862,18
-38.87821,0.6833333,-37.45307,0.6231390117897249,0.2529909579794857,-0.2285887475294288,9.809383,75.49078,359.7444,0.06624639,0.6100614,-0.05409541,7.69999982789159,18
-38.62386,0.2833336,-37.43793,0.5927904020990056,0.1667442260210986,-0.2445712856825395,3.226746,75.42976,359.8519,0.02148212,0.6115183,-0.0182452,7.71999982744455,18
-38.56865,0.4833336,-37.42665,0.5629521010311223,0.1197007208977117,-0.2672695260817974,6.450192,74.61729,359.6579,0.04294034,0.6052793,-0.03646972,7.73999982699752,18
-38.51345,0.6833335,-37.41538,0.5484225620747267,0.0585443417132368,-0.2973909679822242,9.66958,73.78805,359.416,0.06435564,0.5985365,-0.05465856,7.75999982655048,18
-38.45826,0.8833333,-37.40411,0.5228530570592653,0.0099322026631322,-0.3126632626764589,12.88397,72.93637,359.1237,0.08570847,0.5912961,-0.07279591,7.77999982610345,18
-38.23952,0.2833333,-37.39648,0.4922757201738506,0.000523429052089,-0.3304873966842336,3.282603,74.39243,359.7839,0.02167593,0.6043404,-0.01881699,7.79999982565641,18
-38.18324,0.4833333,-37.38509,0.4714794829560276,-0.0229989337682191,-0.35104202201763,6.560907,73.57692,359.5208,0.04332674,0.5980674,-0.03761239,7.81999982520938,18
-38.12699,0.6833336,-37.3737,0.4397933832621348,-0.0339764546459465,-0.3591577124158149,9.834118,72.7402,359.2083,0.06493304,0.5912791,-0.05636979,7.83999982476234,18
-37.88563,0.2833333,-37.3634,0.3939313200044267,-0.0057502627468364,-0.3652627727272914,3.533551,76.65598,359.8049,0.02313081,0.6199078,-0.0204553,7.85999982431531,18
-37.82472,0.4833334,-37.35291,0.348815148717243,0.0083626210714227,-0.3691764252710285,7.063048,75.84269,359.5592,0.04623173,0.6135945,-0.04088506,7.87999982386827,18
-37.76385,0.6833333,-37.34242,0.319414334690542,-0.0449533716246395,-0.3707285207100952,10.58967,75.00688,359.2595,0.06928906,0.6066717,-0.0612848,7.89999982342124,18
-37.5032,0.2833334,-37.3295,0.2803106787143079,-0.1123822700925916,-0.3629464209327366,3.563749,78.64414,359.8599,0.0232804,0.6334015,-0.02064913,7.91999982297421,18
-37.44168,0.4833333,-37.32009,0.2422844667781092,-0.1406080096772512,-0.352332782153411,7.124411,77.83813,359.6689,0.04652934,0.6271453,-0.04127599,7.93999982252717,18
-37.38018,0.6833333,-37.31068,0.2202969838313109,-0.1829472638114148,-0.3390324721890678,10.68098,77.01296,359.4253,0.06972398,0.6202581,-0.06185547,7.95999982208014,18
-37.3187,0.883333,-37.30127,0.1881390901948307,-0.2127415459364572,-0.326706903354875,14.23267,76.16163,359.1255,0.09284116,0.6127475,-0.08236692,7.9799998216331,18
-37.09872,0.2833333,-37.29382,0.1518266639180723,-0.2033326757991425,-0.3139437168031733,3.592747,80.08632,-0.003983746,0.02397604,0.6430491,-0.02019447,7.99999982118607,18
-37.03688,0.4833336,-37.28352,0.1262221550607094,-0.2080364864961372,-0.3011442022222326,7.184274,79.29623,359.9427,0.04792373,0.6368412,-0.04036125,8.01999982073903,18
-36.97506,0.6833338,-37.27321,0.0848570313624321,-0.2001961556758527,-0.2918557785799081,10.7737,78.49568,359.8387,0.07181533,0.6299837,-0.06048083,8.039999820292,18
-36.73513,0.2833333,-37.26334,0.0279485640567855,-0.15315249025613,-0.2832889323930061,3.562295,81.40624,0.06716468,0.02394518,0.6518107,-0.0198256,8.05999981984496,18
-36.67378,0.4833336,-37.25332,-0.0298500445013445,-0.1202222304018239,-0.2758652953038307,7.123892,80.62524,0.08568755,0.04785676,0.6456724,-0.03962486,8.07999981939793,18
-36.61245,0.6833333,-37.24329,-0.0738495078571261,-0.1547206238666136,-0.2700612436396525,10.68448,79.83858,0.05510163,0.07171371,0.638886,-0.05937875,8.09999981895089,18
-36.55113,0.8833331,-37.23327,-0.1236876085545439,-0.2033318179523773,-0.2635192625510925,14.2433,79.03985,359.9737,0.0954911,0.6314591,-0.07906737,8.11999981850386,18
-36.24948,0.2833333,-37.22156,-0.1732101781049664,-0.2127407592647501,-0.2572419010985811,3.634948,82.65428,0.09876284,0.02438571,0.6600045,-0.02029672,8.13999981805682,18
-36.18671,0.4833338,-37.21217,-0.2076860352113527,-0.2362626026900737,-0.251559665940313,7.269803,81.87939,0.1484199,0.04873812,0.6538835,-0.04056627,8.15999981760979,18
-36.12397,0.6833341,-37.20279,-0.2476216988816411,-0.2472393685197728,-0.2455434481324232,10.90443,81.10052,0.1481805,0.07303301,0.6470797,-0.06079284,8.17999981716275,18
-36.06124,0.883334,-37.19341,-0.2903830559645612,-0.2190136367756955,-0.2381160562759632,14.53793,80.31121,0.09702293,0.09724587,0.6396009,-0.08095116,8.19999981671572,18
-35.85193,0.2833333,-37.18953,-0.3211584720817306,-0.2049005767185823,-0.2294834973017572,3.615617,83.47999,0.1114633,0.02418676,0.6653968,-0.02027699,8.21999981626868,18
-35.78941,0.4833338,-37.18086,-0.3616518973182216,-0.1782434625231206,-0.2223820907013518,7.231274,82.70945,0.1744086,0.04834067,0.659331,-0.04052661,8.23999981582165,18
-35.72691,0.6833338,-37.1722,-0.4122491754167967,-0.1123831848271346,-0.2141359504455664,10.84645,81.93595,0.1885054,0.07243726,0.652584,-0.06072884,8.25999981537461,18
-35.49739,0.2833333,-37.16568,-0.4579798392354384,-0.0606358215276791,-0.2050152281362542,3.559143,85.68283,0.2112615,0.02402323,0.6796004,-0.01976492,8.27999981492758,18
-35.4357,0.4833336,-37.15776,-0.483881323196158,-0.0763170898550386,-0.1953265253691967,7.119703,84.92398,0.3756049,0.04801453,0.6736445,-0.03950414,8.29999981448054,18
-35.37402,0.6833331,-37.14983,-0.5014088392825222,-0.1061116866487638,-0.186121691040789,10.68117,84.16886,0.4935812,0.07195072,0.6670118,-0.05919841,8.31999981403351,18
-35.12442,0.2833333,-37.14026,-0.5070932523801837,-0.096703296529291,-0.1760099801735251,3.498256,86.23438,0.254347,0.02379702,0.6831232,-0.01924295,8.33999981358647,18
-35.06376,0.4833335,-37.13223,-0.4868978302345468,-0.1014080235289446,-0.1653540980819201,6.998507,85.48165,0.4630865,0.04756361,0.6772311,-0.03846101,8.35999981313944,18
-35.00311,0.683333,-37.1242,-0.468643143744714,-0.0935676643083316,-0.1566603651461307,10.49986,84.73555,0.6270645,0.07127479,0.67068,-0.05763397,8.3799998126924,18
-34.94248,0.883333,-37.11617,-0.4486060490809826,-0.0465242284434205,-0.1477146881816153,14.00195,83.99058,0.7462604,0.0949086,0.6634769,-0.07674477,8.39999981224537,18
-34.73423,0.2833338,-37.11151,-0.4134352376506029,-0.0135936860668176,-0.1386846814037809,3.440482,85.87701,0.2674065,0.0235656,0.6808529,-0.01874193,8.41999981179833,18
-34.67463,0.4833341,-37.10294,-0.3875649330700526,0.0318819276329463,-0.1311658857869275,6.882794,85.12835,0.4904292,0.04710083,0.6750004,-0.03745677,8.4399998113513,18
-34.61506,0.6833341,-37.09436,-0.372084862957891,0.1165605779900408,-0.122492851987026,10.32677,84.38723,0.6697792,0.07058486,0.6685115,-0.05613099,8.45999981090426,18
-34.38705,0.2833336,-37.08787,-0.3538652412922118,0.1871262030499361,-0.1128055866599666,3.394235,84.64948,0.1729702,0.02291216,0.6730027,-0.01882584,8.47999981045723,18
-34.32832,0.4833336,-37.07973,-0.3197565150731165,0.1902631010021512,-0.102252093854986,6.789137,83.89445,0.3012222,0.04579325,0.667155,-0.03762804,8.49999981001019,18
-34.2696,0.6833338,-37.07161,-0.1817153189139801,0.1792865632462645,-0.0855832695763822,10.1844,83.14118,0.3851477,0.06862482,0.6606965,-0.0563902,8.51999980956316,18
-34.02253,0.2833336,-37.06222,-0.0562882598466139,0.2075124126861846,-0.0690405044298145,3.341471,83.0345,0.08609249,0.02232829,0.6625472,-0.01876342,8.53999980911613,18
-33.96479,0.4833339,-37.05404,0.0701805599017788,0.2216252240226217,-0.0529647940293784,6.682421,82.27405,0.1280017,0.04462804,0.6566943,-0.03750169,8.55999980866909,18
-33.90707,0.6833336,-37.04586,-0.0025127322191345,0.8885977271893544,-0.0371792200030398,10.02276,81.51029,0.1253062,0.06688199,0.6502596,-0.05620164,8.57999980822206,18
-33.84936,0.8833337,-37.03769,0.0989517142270486,0.6641828829642882,-0.0263359305827677,13.36175,80.73788,0.07685085,0.08906903,0.6432492,-0.07484619,8.59999980777502,18
-33.64138,0.2833338,-37.03437,0.1984536194883617,0.4544039431154861,-0.016196446632442,3.290317,81.16425,359.955,0.02154846,0.6502777,-0.01897505,8.61999980732799,18
-33.58449,0.4833335,-37.02671,0.3094303730344485,0.2048995927251115,-0.0070829028114687,6.578868,80.39551,359.8656,0.04307229,0.6444153,-0.03792887,8.63999980688095,18
-33.52761,0.6833335,-37.01905,0.3467896389468805,0.1813782101517623,-0.003169877514118,9.864575,79.61591,359.7307,0.06454881,0.6379991,-0.0568434,8.65999980643392,18
-33.30097,0.2833336,-37.01269,0.3646715928894579,0.1970588852084316,-0.0008569668636795,3.240205,79.4137,359.8724,0.02103929,0.6386283,-0.0189186,8.67999980598688,18
-33.24494,0.4833333,-37.00486,0.3760467873794191,0.1986264034203602,-0.0003493240388579,6.477527,78.64039,359.7008,0.04205511,0.6327534,-0.037816,8.69999980553985,18
-33.18893,0.6833336,-36.99704,0.6054609303951395,-0.507548751082668,-0.0007833350888262,9.711187,77.85179,359.4837,0.06302851,0.6263502,-0.05667578,8.71999980509281,18
-32.94388,0.2833331,-36.98768,0.6521002392390933,-0.2972463548266309,0.0024248567510127,3.193949,76.91417,359.7718,0.02058513,0.621729,-0.01889144,8.73999980464578,18
-32.88865,0.4833333,-36.9793,0.6859521079981263,-0.0764902080718459,0.0041275610548225,6.383521,76.13496,359.4998,0.04114661,0.6158181,-0.03776141,8.75999980419874,18
-32.83343,0.6833333,-36.97092,0.7203979095407185,0.1024494357392373,0.0042701551025672,9.568163,75.3351,359.1819,0.06166846,0.6094056,-0.05659496,8.77999980375171,18
-32.77823,0.8833334,-36.96255,0.7354356924331924,0.053838077175492,0.0020946724276242,12.74686,74.50917,358.8154,0.08213347,0.6024975,-0.07537316,8.79999980330467,18
-32.56382,0.2833331,-36.95897,0.7344862676704516,0.0444294249192325,7.164551004024133e-05,3.529588,78.14087,359.7727,0.02266015,0.6300225,-0.02094933,8.81999980285764,18
-32.50261,0.4833331,-36.9506,0.7311053216782213,0.0209083209478903,-0.0018335200394261,7.054855,77.36192,359.497,0.04529148,0.624004,-0.0418723,8.8399998024106,18
-32.44143,0.6833333,-36.94223,0.702859730263075,0.0099319702334402,-0.0063836100319178,10.57623,76.55895,359.1696,0.06787682,0.6173693,-0.06275797,8.85999980196357,18
-32.21127,0.2833331,-36.93708,0.6506280915987759,0.0381581102975923,-0.0106756229184199,3.560124,80.23643,359.8347,0.0228253,0.6440894,-0.02111845,8.87999980151653,18
-32.14951,0.4833333,-36.9298,0.588166880699255,0.0522717293010733,-0.0148080364062792,7.116819,79.46524,359.6206,0.04561855,0.6381279,-0.04221397,8.8999998010695,18
-32.08776,0.6833333,-36.92253,0.7405912321525179,-0.6413572970554864,-0.0176855386408405,10.6693,78.67378,359.3559,0.06835946,0.6315277,-0.06326114,8.91999980062246,18
-31.83666,0.2833335,-36.91386,0.7067962511701111,-0.4185102211569098,-0.0167986468739442,3.5951,81.73165,359.9572,0.0234774,0.6539767,-0.02080634,8.93999980017543,18
-31.77442,0.4833335,-36.90598,0.6596772555312498,-0.1852092445688848,-0.016459925028208,7.188615,80.97415,359.8669,0.04692768,0.6480543,-0.0415853,8.95999979972839,18
-31.7122,0.6833335,-36.8981,0.6135379928595626,0.0062752715016963,-0.0168366562722184,10.7796,80.20412,359.7276,0.07032319,0.6414721,-0.06231574,8.97999979928136,18
-31.64999,0.8833334,-36.89022,0.5499308286585602,-0.0297915063850763,-0.0196246277742559,14.36736,79.41501,359.5366,0.09363959,0.6342375,-0.08297665,8.99999979883432,18
-31.3393,0.2833333,-36.87948,0.4721657080963979,-0.0266556977510268,-0.0219247321412368,3.565797,82.89533,0.06020473,0.02366825,0.6616029,-0.02020081,9.01999979838729,18
-31.27764,0.4833331,-36.87114,0.3947090011756167,-0.0376329295726378,-0.0238551443640986,7.130881,82.15063,0.07432602,0.04730594,0.6557482,-0.04037298,9.03999979794025,18
-31.21599,0.6833333,-36.8628,0.2967492773731131,-0.0360646942959445,-0.0294386665974215,10.69477,81.40026,0.04153919,0.07088884,0.6492365,-0.06049824,9.05999979749322,18
-31.15437,0.8833333,-36.85447,0.1793018920328251,0.0047058374871631,-0.0355053603286066,14.25693,80.63815,359.9602,0.09439312,0.6420751,-0.08055741,9.07999979704618,18
-30.93349,0.2833333,-36.85006,0.0570316951296767,0.0313638391493656,-0.042127611551372,3.637302,83.44594,0.07976387,0.02414995,0.6651778,-0.02060205,9.09999979659915,18
-30.87053,0.4833331,-36.84184,-0.0554180685204528,-0.0094073274595136,-0.0493933393228331,7.274322,82.70601,0.1126353,0.04826788,0.6593185,-0.04117676,9.11999979615211,18
-30.80759,0.683333,-36.83362,-0.0690196136377565,-0.0642917214783707,-0.0517210686729541,10.91102,81.96138,0.09790528,0.07233112,0.6527725,-0.06170708,9.13999979570508,18
-30.56665,0.2833331,-36.82709,-0.09482794277503,-0.0799729223767266,-0.0536527528124324,3.629239,84.29219,0.1012846,0.02407096,0.6706658,-0.02059347,9.15999979525805,18
-30.50376,0.4833328,-36.81945,-0.1175280387786656,-0.1097672076380003,-0.055196005817578,7.258407,83.55656,0.1560592,0.04810951,0.6648489,-0.0411595,9.17999979481101,18
-30.44089,0.683333,-36.81181,-0.3255764047143046,0.5132977807666551,-0.0547884262400373,10.88685,82.81773,0.1638948,0.07208963,0.6583427,-0.06167699,9.19999979436398,18
-30.17977,0.2833334,-36.80315,-0.3608741900112804,0.2449754704782414,-0.0587538092001977,3.57594,86.04952,0.1851028,0.02391129,0.6819444,-0.02010847,9.21999979391694,18
-30.1177,0.4833333,-36.79604,-0.3906496096132521,-0.0087114331366193,-0.060961020096137,7.152907,85.32403,0.3252055,0.04779154,0.6762196,-0.04019041,9.23999979346991,18
-30.05566,0.6833335,-36.78892,-0.6263801340436395,0.418164522325396,-0.0634042150810714,10.73026,84.60099,0.4205395,0.07161533,0.6698121,-0.06022599,9.25999979302287,18
-29.99363,0.8833335,-36.78181,-0.661607937792116,0.1937497329844043,-0.0692456488969099,14.3072,83.87471,0.4704715,0.09535639,0.6627295,-0.0801944,9.27999979257584,18
-29.77499,0.2833331,-36.77776,-0.6873351866017039,-0.0160293198558938,-0.074651669069901,3.514073,86.65127,0.238837,0.02373439,0.6857734,-0.01952249,9.2999997921288,18
-29.71399,0.4833332,-36.7704,-0.6888244964040879,-0.2655342301509278,-0.0798037937804068,7.029787,85.93357,0.4339334,0.04743785,0.6801174,-0.03901989,9.31999979168177,18
-29.653,0.6833332,-36.76305,-0.6403372234107714,-0.2890556996676183,-0.0810383020974825,10.54628,85.22195,0.5862697,0.07108638,0.673797,-0.05847024,9.33999979123473,18
-29.41434,0.2833332,-36.75643,-0.5909541116755506,-0.2733744631381735,-0.0826286682874766,3.454523,86.76922,0.2716437,0.02353336,0.6865264,-0.01898211,9.3599997907877,18
-29.35438,0.483333,-36.74868,-0.5265461540077858,-0.2718065835625407,-0.0846569658184037,6.910758,86.0565,0.5008296,0.04703572,0.6809193,-0.03793705,9.37999979034066,18
-29.29444,0.6833329,-36.74093,-0.6358794432016488,0.3826203498813825,-0.083326506203484,10.36854,85.352,0.6884369,0.07048643,0.6746675,-0.05685025,9.39999978989363,18
-29.03648,0.2833333,-36.73206,-0.5682225662272877,0.1456609499820866,-0.0854274772159868,3.405889,85.63515,0.2019371,0.02299567,0.6793267,-0.01890597,9.41999978944659,18
-28.97745,0.4833334,-36.7244,-0.4866737289857035,-0.0766627426880169,-0.0849504300837225,6.812648,84.91814,0.3614426,0.04596043,0.6737291,-0.03778682,9.43999978899956,18
-28.91844,0.6833336,-36.71674,-0.6046963603895072,0.3815761010352538,-0.0836167993890342,10.22013,84.20507,0.4790252,0.06887559,0.6675126,-0.0566276,9.45999978855252,18
-28.85944,0.8833337,-36.70909,-0.5296154717206427,0.1885230928653658,-0.0838194871404596,13.62783,83.49091,0.5545079,0.09172045,0.6606835,-0.07541076,9.47999978810549,18
-28.64163,0.2833331,-36.70524,-0.4490587904124297,0.0101058191053517,-0.0817347374206463,3.354715,83.76748,0.1066852,0.02241374,0.6673146,-0.01884925,9.49999978765845,18
-28.5836,0.4833328,-36.6974,-0.3492582199666074,-0.2080368627569448,-0.0775955548970372,6.709151,83.04485,0.1713467,0.04479941,0.661711,-0.03767268,9.51999978721142,18
-28.52558,0.683333,-36.68957,-0.3118569372474127,-0.2001964548376084,-0.0768497151968858,10.06309,82.32053,0.193586,0.06713746,0.6555188,-0.05645698,9.53999978676438,18
-28.28874,0.2833333,-36.68396,-0.2843072497382657,-0.1531527996977583,-0.0758345427998534,3.30345,82.28228,359.9926,0.02166486,0.6576442,-0.0190122,9.55999978631735,18
-28.23157,0.4833331,-36.67672,-0.2532468633195712,-0.1202224261550166,-0.0747870584940955,6.605603,81.5519,359.9431,0.04330455,0.6520396,-0.03800264,9.57999978587031,18
-28.17441,0.6833333,-36.66947,-0.2052565264010937,-0.154721183771273,-0.0739381848372957,9.905459,80.81317,359.8502,0.06489593,0.6458726,-0.05695377,9.59999978542328,18
-28.11727,0.8833333,-36.66223,-0.161583623277604,-0.2033327833022316,-0.0754140523976261,13.20294,80.06097,359.7127,0.08642505,0.6391492,-0.07585011,9.61999978497624,18
-27.8214,0.2833333,-36.65513,-0.1163174529489055,-0.2127410545062156,-0.0763588773523977,3.248224,79.9369,359.8615,0.02094532,0.6421334,-0.01913213,9.63999978452921,18
-27.76513,0.4833333,-36.64796,-0.0563242045610046,-0.2362622845366876,-0.0770001672500413,6.493458,79.19836,359.6809,0.04186673,0.6365089,-0.03824259,9.65999978408217,18
-27.70889,0.6833333,-36.6408,-0.1821733831294771,0.3930754619407201,-0.0755537192949873,9.735125,78.4442,359.4565,0.06274668,0.6303523,-0.05731513,9.67999978363514,18
-27.65265,0.8833336,-36.63364,-0.0716762031255235,0.1310261887626503,-0.0792906364129777,12.97219,77.66916,359.186,0.0835646,0.6236697,-0.07633188,9.6999997831881,18
-27.44511,0.2833331,-36.63092,0.0402125930315655,-0.1163875150933521,-0.0826501601935234,3.195713,77.3139,359.7672,0.02050615,0.6244562,-0.01900394,9.71999978274107,18
-27.38978,0.4833331,-36.62298,-0.0711233027200606,0.3167612601206573,-0.0869235996128736,6.387191,76.57066,359.4926,0.04098901,0.6188034,-0.03798656,9.73999978229403,18
-27.33446,0.6833329,-36.61504,0.0081671856086593,0.0986187664323247,-0.0929434763588261,9.573904,75.80684,359.174,0.06143255,0.6126481,-0.05693262,9.759999781847,18
-27.10176,0.2833333,-36.61083,0.0778071635156578,-0.1048880208108781,-0.0980941113588826,3.530693,79.02166,359.7801,0.02254654,0.6359665,-0.02107971,9.77999978139997,18
-27.04043,0.4833333,-36.60326,0.1513274802054098,-0.3481206016516344,-0.1023852879166895,7.057345,78.2789,359.5139,0.04506456,0.6302102,-0.04213315,9.79999978095293,18
-26.97913,0.6833332,-36.59568,0.2654362412715016,-0.3653698769205241,-0.1018614847813523,10.58048,77.51301,359.1982,0.0675365,0.6238333,-0.06315035,9.8199997805059,18
-26.72847,0.2833333,-36.58986,0.3635606172917569,-0.3434161406219403,-0.099866457452677,3.560298,80.89139,359.8335,0.0226987,0.6484476,-0.02125738,9.83999978005886,18
-26.66663,0.4833331,-36.58329,0.4597280624991526,-0.3355753736039565,-0.0965276589434509,7.117412,80.15553,359.6205,0.04536691,0.6427389,-0.04249188,9.85999977961183,18
-26.6048,0.683333,-36.57673,0.3546520001438011,0.325124465664124,-0.0911107839205129,10.67041,79.39976,359.359,0.06798225,0.6363891,-0.06367795,9.87999977916479,18
-26.54299,0.8833327,-36.57016,0.4209393017117513,0.0944368340948031,-0.0899583142243898,14.21866,78.61763,359.0459,0.09052332,0.629405,-0.08479395,9.89999977871776,18
-26.33326,0.2833335,-36.56789,0.4819428439123463,-0.1216147476990217,-0.0875776261000353,3.594826,82.2293,359.9548,0.02337153,0.6572536,-0.02092199,9.91999977827072,18
-26.27095,0.4833335,-36.56058,0.3141018875006836,0.3428958696683962,-0.0855748278836259,7.188097,81.50763,359.8645,0.04671622,0.6515819,-0.04181654,9.93999977782369,18
-26.20866,0.6833338,-36.55326,0.3331715589105357,0.1561153768616925,-0.0858314239906903,10.77887,80.77372,359.7273,0.07000592,0.6452493,-0.06266253,9.95999977737665,18
-25.97929,0.2833331,-36.54884,0.3384087974924767,-0.0160296119611231,-0.0852939172610263,3.556181,83.4339,0.06158485,0.02351845,0.6651183,-0.02024702,9.97999977692962,18
-25.91772,0.4833331,-36.54105,0.3441255050752652,-0.2279005856045752,-0.0842374598449495,7.11152,82.72451,0.07943147,0.04700598,0.6595131,-0.04046457,9.99999977648258,18
-25.85618,0.6833332,-36.53327,0.3853085704639625,-0.2137877677343194,-0.0794992481596637,10.66576,82.01006,0.05268953,0.07043923,0.6532529,-0.06063609,10.0199997760355,18
-25.60455,0.2833332,-36.52717,0.4084993387886761,-0.1604716401802503,-0.0748298332238803,3.625384,84.39425,0.08212879,0.02391547,0.6713303,-0.02071609,10.0399997755885,18
-25.54167,0.4833333,-36.51996,0.428449777599738,-0.1212683972284976,-0.0704511906202043,7.250441,83.68889,0.1196865,0.04779895,0.6657261,-0.04140473,10.0599997751415,18
-25.47882,0.6833333,-36.51275,0.2452300601046459,0.5707938292876618,-0.0639613668242091,10.87526,82.97945,0.1118646,0.07162768,0.6594349,-0.06205057,10.0799997746944,18
-25.41598,0.8833332,-36.50554,0.2353033521208907,0.3714687892571339,-0.0624337862709509,14.49871,82.26004,0.05767131,0.09537539,0.6524642,-0.08262647,10.0999997742474,18
-25.20646,0.2833334,-36.5045,0.2204478976023018,0.1867792968563979,-0.0601301536423193,3.63831,84.68539,0.08626468,0.02397039,0.6732062,-0.02082607,10.1199997738004,18
-25.14334,0.4833336,-36.49751,0.2155512626058104,-0.0376354815077804,-0.057270684745859,7.276317,83.98328,0.1280502,0.04790864,0.6676208,-0.04162403,10.1399997733533,18
-25.08024,0.6833336,-36.49052,-0.0511122213654999,0.6042466686236874,-0.0539103246366821,10.91355,83.2774,0.1249028,0.07178994,0.6613423,-0.06237299,10.1599997729063,18
-25.01716,0.8833336,-36.48354,-0.0752234565707894,0.3547416753927197,-0.0543961793559972,14.54961,82.56181,0.07539903,0.09558981,0.6543776,-0.08305274,10.1799997724593,18
-24.74797,0.2833333,-36.48212,-0.1069192524508899,0.1198724453204265,-0.0538722019856692,3.582083,87.215,0.1988098,0.02382679,0.6893371,-0.020301,10.1999997720122,18
-24.68568,0.4833333,-36.47601,-0.131196638296398,-0.1547227489256347,-0.0526335555836752,7.165252,86.52636,0.3548045,0.04762216,0.683867,-0.04057558,10.2199997715652,18
-24.62341,0.6833337,-36.46989,-0.1060625904828747,-0.2033343828680364,-0.0482303022649759,10.74893,85.84151,0.4685095,0.07136162,0.6777064,-0.06080292,10.2399997711182,18
-24.38408,0.2833334,-36.46608,-0.0820936357022077,-0.2127431779100022,-0.0439561746168237,3.51577,88.06353,0.2480583,0.02355854,0.6946806,-0.01976596,10.2599997706711,18
-24.32289,0.4833336,-36.46006,-0.0446830314024779,-0.2362649431037431,-0.0401934532727921,7.033198,87.38138,0.4545122,0.04708634,0.6892829,-0.03950701,10.2799997702241,18
-24.26172,0.6833335,-36.45403,-0.1921746289123831,0.3930719207855054,-0.0328635198480924,10.55148,86.70628,0.6203434,0.07055906,0.6832129,-0.05920176,10.2999997697771,18
-24.00267,0.2833334,-36.4477,-0.1704388634886626,0.1310221332652669,-0.0339767343646428,3.45536,87.842,0.2688879,0.0233432,0.6932977,-0.01922397,10.31999976933,18
-23.94257,0.4833336,-36.4411,-0.143216868740037,-0.1163917598101058,-0.0356665191319436,6.912212,87.16364,0.4975556,0.04665652,0.6879398,-0.03841911,10.339999768883,18
-23.88248,0.6833337,-36.4345,-0.3241918537994515,0.3167565494119917,-0.0360906597606245,10.37053,86.49372,0.6866657,0.06991857,0.6819325,-0.05757276,10.359999768436,18
-23.82241,0.8833337,-36.4279,-0.3195796925344361,0.0986144703161986,-0.0402296332019815,13.82981,85.82751,0.8365539,0.09310708,0.6752822,-0.07666676,10.3799997679889,18
-23.60429,0.2833331,-36.42593,-0.317440851511872,-0.1048917015284484,-0.0431892960220423,3.406078,86.46932,0.1976781,0.02283319,0.6846471,-0.01910106,10.3999997675419,18
-23.54515,0.4833332,-36.41918,-0.3043521240035183,-0.3481230783171929,-0.0451904390046991,6.81285,85.78712,0.3551597,0.04563661,0.6792978,-0.03817556,10.4199997670949,18
-23.48603,0.6833333,-36.41244,-0.2439985573229037,-0.3653723318066866,-0.043310999275171,10.22027,85.10899,0.4727694,0.06839086,0.6733267,-0.05721,10.4399997666478,18
-23.24869,0.2833333,-36.40844,-0.19176881782181,-0.3434186914245549,-0.0403623481167088,3.354789,84.92834,0.1119195,0.02225295,0.6748183,-0.01904209,10.4599997662008,18
-23.19052,0.4833333,-36.40167,-0.133980271343848,-0.3355784746411778,-0.0367441809659681,6.709301,84.24049,0.1836819,0.04447693,0.6694691,-0.03805922,10.4799997657537,18
-23.13237,0.6833331,-36.39491,-0.2575605423493314,0.3251216353883269,-0.0293659582689471,10.06351,83.55165,0.215256,0.06665526,0.6635264,-0.05703694,10.4999997653067,18
-22.87621,0.2833332,-36.3892,-0.1035749742468503,0.0944349606313388,-0.024878897842484,3.303585,83.16743,359.9902,0.02150401,0.6634397,-0.01919579,10.5199997648597,18
-22.81892,0.4833332,-36.38287,0.0433407412410318,-0.1216161772113197,-0.0213847077136861,6.60581,82.47104,359.9401,0.0429826,0.6580834,-0.03836944,10.5399997644126,18
-22.76165,0.6833335,-36.37653,-0.0310133951886939,0.3428953044495665,-0.0172550297175888,9.905818,81.76656,359.8488,0.06441431,0.6521618,-0.05750285,10.5599997639656,18
-22.7044,0.8833337,-36.3702,-0.1123454403435282,0.7964297450763295,-0.0139852980221917,13.2035,81.04905,359.7149,0.08578382,0.6456804,-0.07658125,10.5799997635186,18
-22.48712,0.2833333,-36.36871,-0.0204118483290898,0.3340098896740748,-0.018667205618442,3.252468,81.14398,359.8874,0.02091759,0.6501619,-0.0192043,10.5999997630715,18
-22.43071,0.4833333,-36.36225,0.0703242864730917,-0.1393866460955348,-0.024392956005748,6.502367,80.4417,359.7347,0.04181134,0.6447948,-0.03838684,10.6199997626245,18
-22.37432,0.6833336,-36.3558,-0.0025544789663669,0.281217380478815,-0.024068634695233,9.74914,79.72563,359.5404,0.0626632,0.6388898,-0.05753151,10.6399997621775,18
-22.31795,0.8833334,-36.34935,0.1190776252540821,0.0505298266183722,-0.0291144846752544,12.99204,78.99081,359.3026,0.0834552,0.6324526,-0.07662023,10.6599997617304,18
-22.0415,0.2833333,-36.3467,0.2356431890702914,-0.165521988127849,-0.0350531417055677,3.200019,78.26574,359.7611,0.02034314,0.6309186,-0.01923859,10.6799997612834,18
-21.98595,0.4833333,-36.33976,0.3610482596616009,-0.4212991128819628,-0.0420957787893669,6.395934,77.55587,359.4822,0.04066361,0.6255184,-0.03845578,10.6999997608364,18
-21.93041,0.6833333,-36.33281,0.4728788438545628,-0.4510930492373471,-0.0457812094202765,9.587151,76.82537,359.1611,0.06094442,0.6196108,-0.05763606,10.7199997603893,18
-21.67939,0.2833333,-36.32827,0.5673864378936209,-0.4416839721957908,-0.0488428520744292,3.531801,79.73743,359.7752,0.02239484,0.6407713,-0.02125867,10.7399997599423,18
-21.61795,0.4833332,-36.32152,0.6586732951619432,-0.4463883305138648,-0.051400833176892,7.059685,79.02808,359.5063,0.04476159,0.635259,-0.04249106,10.7599997594953,18
-21.55652,0.683333,-36.31477,0.5482602707358204,0.2017667012230769,-0.0508050970594879,10.58421,78.29574,359.1901,0.06708372,0.6291227,-0.06368573,10.7799997590482,18
-21.49513,0.8833329,-36.30803,0.439560509263714,0.6984566201514648,-0.0494920870949684,14.10476,77.5341,358.8231,0.08934139,0.6223686,-0.08482055,10.7999997586012,18
-21.28541,0.2833332,-36.30888,0.5560327788681789,0.1676309912061204,-0.0545669385159683,3.560452,81.44465,359.8299,0.02257641,0.6521131,-0.02139131,10.8199997581542,18
-21.22349,0.4833332,-36.30295,0.4369369808972152,0.3466047634145709,-0.057919397061056,7.117752,80.7429,359.6156,0.04512279,0.6466463,-0.04275867,10.8399997577071,18
-21.16159,0.683333,-36.29702,0.308176385222076,0.5427929566309024,-0.0601457999590024,10.67114,80.02148,359.3549,0.0676173,0.6405363,-0.06407771,10.8599997572601,18
-20.93133,0.2833333,-36.29488,0.3623175888732675,0.0636106974282307,-0.0677659917221618,3.595358,83.20939,359.9622,0.02323788,0.6636684,-0.02107613,10.879999756813,18
-20.86891,0.4833333,-36.28849,0.4115052784628545,-0.4260605713695693,-0.0745492536481791,7.189259,82.52203,359.8813,0.04644821,0.6582414,-0.04212527,10.899999756366,18
-20.80651,0.6833333,-36.28209,0.2805959452085034,-0.0212426482351436,-0.0752173234886299,10.7809,81.82336,359.7558,0.06960443,0.6521485,-0.06312568,10.919999755919,18
-20.55627,0.2833333,-36.27758,0.3537694903884691,-0.2672283942316596,-0.078683601146217,3.556298,84.18559,0.06026837,0.02337819,0.6699983,-0.02041006,10.9399997554719,18
-20.49461,0.4833333,-36.27061,0.4191621641487906,-0.4980907011573354,-0.0811684383321562,7.111752,83.50961,0.07891204,0.04672614,0.6646302,-0.04079039,10.9599997550249,18
-20.43296,0.6833333,-36.26364,0.2778256847093061,-0.0479024885137818,-0.0797101859455722,10.66616,82.8289,0.05507615,0.07002048,0.658604,-0.06112465,10.9799997545779,18
-20.37133,0.8833333,-36.25667,0.1351498073917909,0.3917968078375645,-0.0775746902379523,14.21902,82.13799,359.9875,0.09323829,0.6519264,-0.08139224,10.9999997541308,18
-20.05954,0.2833335,-36.25215,0.1649505694962698,-0.0839697346575233,-0.0835910735691172,3.626004,85.26577,0.08997685,0.02380757,0.6769408,-0.02085068,11.0199997536838,18
-19.99656,0.4833334,-36.24574,-0.0359074340826133,0.1500629095177109,-0.0877997933415031,7.251826,84.59527,0.1375546,0.04758361,0.6715782,-0.04167452,11.0399997532368,18
-19.93361,0.6833335,-36.23933,-0.2410284055481657,0.4013097889661558,-0.0911100434212173,10.8775,83.92166,0.1421065,0.07130519,0.6655244,-0.06245506,11.0599997527897,18
-19.87067,0.8833334,-36.23292,-0.2553780031521171,-0.0228138353166533,-0.0993023188800421,14.50198,83.23936,0.1027856,0.09494631,0.6587866,-0.08316536,11.0799997523427,18
-19.65093,0.2833333,-36.23286,-0.2681979990750722,-0.4574265599711068,-0.1061851649067122,3.625871,85.70947,0.09819028,0.02377453,0.6797813,-0.0208894,11.0999997518957,18
-19.58793,0.4833333,-36.22679,-0.456448887238821,0.0024495631051239,-0.1062538309799236,7.251587,85.04247,0.1542324,0.04751724,0.6744472,-0.04175143,11.1199997514486,18
-19.52495,0.6833335,-36.22072,-0.6340263391194423,0.451836839234739,-0.1051242906295542,10.87664,84.37299,0.1679354,0.07120377,0.6684196,-0.06256412,11.1399997510016,18
-19.28487,0.2833332,-36.21916,-0.5402248765896314,-0.0142426924908732,-0.1082649402130542,3.574781,87.68519,0.1896866,0.02364224,0.6923044,-0.02041188,11.1599997505546,18
-19.22265,0.4833332,-36.2137,-0.4357316395270683,-0.4908111901657117,-0.1096421732543007,7.150449,87.02883,0.338624,0.04725329,0.6870604,-0.04079743,11.1799997501075,18
-19.16046,0.6833335,-36.20825,-0.5691851631717135,-0.072891132040859,-0.105096909575586,10.72649,86.37612,0.4474075,0.07080968,0.6811278,-0.06113544,11.1999997496605,18
-18.90046,0.2833334,-36.20467,-0.4731641364736951,-0.3057742879447341,-0.103381860711373,3.513747,88.46237,0.2447316,0.02345672,0.6971788,-0.01985632,11.2199997492135,18
-18.83926,0.4833335,-36.19911,-0.3713039061697447,-0.523533790294298,-0.1013041588033445,7.029012,87.81297,0.4500209,0.04688383,0.6920004,-0.03968697,11.2399997487664,18
-18.77808,0.6833336,-36.19355,-0.4832884881012891,-0.0602428915545343,-0.0963981238203004,10.54496,87.17086,0.6167656,0.07025602,0.6861501,-0.05947077,11.2599997483194,18
-18.71692,0.8833336,-36.188,-0.5935647205101144,0.3925593192281869,-0.0913947436584692,14.06151,86.53129,0.7451335,0.09355252,0.6796342,-0.07919101,11.2799997478724,18
-18.65577,0.9766703,-36.18244,-0.5197864573906852,-0.0701043062219982,-0.0946135986896052,17.57825,85.88941,0.8345887,0.1167508,0.6724597,-0.09882879,11.2999997474253,18
-18.39773,0.2833332,-36.18344,-0.4373901490850986,-0.5432568299310527,-0.0981131029904958,3.45001,88.26671,0.2726991,0.02326145,0.6959618,-0.01925399,11.3199997469783,18
-18.33768,0.4833333,-36.1772,-0.5104444651512736,-0.1219212205348941,-0.093165208012472,6.901395,87.62295,0.5073119,0.04649299,0.6908335,-0.03847922,11.3399997465312,18
-18.27764,0.6833335,-36.17097,-0.3776308549466485,-0.351388926659437,-0.0916241416585421,10.35417,86.9883,0.7046359,0.06967374,0.6850573,-0.0576627,11.3599997460842,18
-18.04991,0.2833335,-36.17057,-0.2385540573190621,-0.5657327200548816,-0.0878644781414053,3.396997,87.00671,0.1762034,0.02255697,0.6880607,-0.01928927,11.3799997456372,18
-17.99085,0.4833335,-36.16475,-0.2812862038787695,-0.0990266386382741,-0.0777130590832868,6.794389,86.35601,0.3138269,0.04508294,0.6829439,-0.0385542,11.3999997451901,18
-17.9318,0.6833336,-36.15893,-0.3136134715057821,0.3571905609846839,-0.0661232940046616,10.19213,85.70847,0.4135129,0.06756124,0.6772077,-0.05777831,11.4199997447431,18
-17.68476,0.2833332,-36.15642,-0.068410879583709,-0.1020583916007067,-0.0593219726051259,3.342354,85.39364,0.08934745,0.02196221,0.6778136,-0.01920345,11.4399997442961,18
-17.62673,0.4833331,-36.15051,-0.0428749061232593,0.148491766604813,-0.0491334588832117,6.68412,84.73718,0.1405161,0.0438961,0.6726981,-0.03838165,11.459999743849,18
-17.56871,0.6833332,-36.14461,-0.0222384599628142,0.4162562144449104,-0.0386731993077731,10.02526,84.07877,0.1533165,0.06578478,0.6669928,-0.05752021,11.479999743402,18
-17.51071,0.8833332,-36.13871,0.0070193505633877,0.6489645373096176,-0.0284598832121005,13.36539,83.41379,0.1268232,0.0876088,0.6607034,-0.07660311,11.499999742955,18
-17.30317,0.2833334,-36.1408,0.2168509784249117,-0.0594054007672174,-0.0283226730306012,3.290759,83.55405,359.9586,0.02117217,0.6659665,-0.01939912,11.5199997425079,18
-17.24601,0.4833335,-36.1354,0.1446115688729783,0.1554617843942232,-0.0256177681367262,6.579844,82.8889,359.8789,0.04232017,0.6608478,-0.03877555,11.5399997420609,18
-17.18886,0.6833333,-36.13001,0.0684551179035573,0.3875433052754367,-0.0228084615403645,9.866496,82.21422,359.7598,0.0634224,0.6551676,-0.05811265,11.5599997416139,18
-16.96226,0.2833334,-36.1298,0.1787788032557227,-0.0557453391228199,-0.0283502893018763,3.240509,81.77667,359.875,0.02066196,0.6543482,-0.01933253,11.5799997411668,18
-16.90596,0.4833335,-36.12419,0.2887825667349499,-0.5095226125866393,-0.0346321547332024,6.478379,81.10655,359.712,0.04130065,0.6492219,-0.03864298,11.5999997407198,18
-16.84968,0.6833335,-36.11858,0.2237955124066797,-0.068811472513768,-0.0344460454564483,9.713159,80.42234,359.5094,0.06189878,0.6435596,-0.05791577,11.6199997402728,18
-16.79342,0.8833336,-36.11298,0.3636814493648437,-0.2789033547238386,-0.040130685059708,12.94402,79.71933,359.265,0.08243778,0.6373668,-0.07713237,11.6399997398257,18
-16.50643,0.2833335,-36.11223,0.4964430068179517,-0.4738718702577761,-0.0462532211568884,3.267557,79.5104,359.7698,0.02063435,0.6392915,-0.01977696,11.6599997393787,18
-16.44959,0.4833333,-36.10612,0.4233126806671432,0.0122100890861995,-0.0477352130828521,6.531303,78.8337,359.5006,0.04124557,0.6341125,-0.0395315,11.6799997389317,18
-16.39277,0.6833333,-36.10001,0.3471225413312062,0.487802808321941,-0.0489439084622702,9.790648,78.1366,359.1903,0.06181566,0.6283998,-0.05924682,11.6999997384846,18
-16.13249,0.2833332,-36.09739,0.5451028858637557,0.0479292309955022,-0.0550740934825242,3.529271,81.05598,359.7917,0.02222544,0.6495527,-0.0213913,11.7199997380376,18
-16.071,0.4833332,-36.09176,0.4957450033783868,0.31785514037232,-0.0580782472486234,7.054928,80.38113,359.5415,0.04442319,0.6442921,-0.04275552,11.7399997375906,18
-16.00955,0.6833332,-36.08614,0.4247685895907178,0.6049951304757688,-0.060374997588724,10.57833,79.68473,359.2462,0.06658065,0.6384014,-0.06408691,11.7599997371435,18
-15.94812,0.8833333,-36.08051,0.3457489585161895,0.8570786682159759,-0.0622966893423679,14.09694,78.96088,358.903,0.08866654,0.6318876,-0.08534995,11.7799997366965,18
-15.72826,0.2833335,-36.08231,0.4398673722096493,0.1680835247594566,-0.071626119227524,3.5622,82.55684,359.8504,0.02249672,0.6594298,-0.0214856,11.7999997362494,18
-15.66625,0.4833334,-36.0772,0.5318701791379024,-0.4300115047472743,-0.0798234823528574,7.121689,81.88982,359.6587,0.04496462,0.6542047,-0.04294702,11.8199997358024,18
-15.60426,0.6833334,-36.0721,0.3999099814157798,-0.0344975023393394,-0.0794336921841463,10.67766,81.20484,359.4231,0.06738098,0.6483305,-0.06435957,11.8399997353554,18
-15.36385,0.2833332,-36.07111,0.4586863018132323,-0.2902743788954797,-0.0855352242338938,3.592767,84.1899,-0.0004067688,0.02325869,0.6700318,-0.02101689,11.8599997349083,18
-15.30144,0.4833332,-36.06512,0.5083386417041851,-0.5314156525892872,-0.0911177968855767,7.184499,83.53883,359.9586,0.04649056,0.6648425,-0.04200558,11.8799997344613,18
-15.23905,0.683333,-36.05913,0.362244192313323,-0.0919944819729948,-0.0896920132194623,10.77452,82.87933,359.8758,0.06966863,0.6589835,-0.06294601,11.8999997340143,18
-15.17668,0.883333,-36.05314,0.2143300919851967,0.3364497109436549,-0.0874830077014365,14.36232,82.20585,359.7493,0.09276936,0.6524614,-0.08381669,11.9199997335672,18
-14.87632,0.2833331,-36.05258,0.3324077555615048,-0.1510607700847557,-0.0920951776782459,3.57051,85.47153,0.07337359,0.0233163,0.6782742,-0.02067129,11.9399997331202,18
-14.81429,0.483333,-36.04674,0.2193531171603346,0.0707405101951361,-0.0920770223755198,7.140412,84.83002,0.1067137,0.04660063,0.6731437,-0.04131568,11.9599997326732,18
-14.75227,0.6833328,-36.04089,0.0913475172425499,0.3092686249533791,-0.0915134413553246,10.70946,84.18495,0.09977938,0.06983177,0.6673433,-0.06191291,11.9799997322261,18
-14.69027,0.8833327,-36.03505,-0.0371585557236997,0.5122526825241618,-0.0908538480549765,14.27718,83.53113,0.05138513,0.09298627,0.6608796,-0.08244228,11.9999997317791,18
-14.47985,0.2833332,-36.03794,0.0080491325765397,-0.2263298901275512,-0.1006055019821232,3.647446,86.04016,0.09236587,0.02381707,0.6818901,-0.02112346,12.0199997313321,18
-14.41642,0.4833333,-36.0323,-0.1179366376387367,-0.0421633343034774,-0.1008473665072742,7.29462,85.40303,0.1442305,0.04760196,0.6767461,-0.04221894,12.039999730885,18
-14.35301,0.6833331,-36.02665,-0.2399372666276686,0.1587294429525649,-0.0999345137029621,10.94115,84.76337,0.1553864,0.07133064,0.6709,-0.06326465,12.059999730438,18
-14.12308,0.2833333,-36.02849,-0.162432514363962,-0.316235486299258,-0.1054354571862674,3.619334,87.16183,0.118247,0.02358717,0.6890105,-0.021023,12.079999729991,18
-14.06008,0.4833335,-36.02366,-0.2775567527386737,-0.0818893499637346,-0.1028342657663827,7.238681,86.52911,0.1966161,0.04714272,0.6839212,-0.04201849,12.0999997295439,18
-13.9971,0.6833334,-36.01884,-0.3886519252053375,0.1691833381536061,-0.0983863211312296,10.85763,85.89567,0.2351287,0.07064295,0.6781326,-0.06296482,12.1199997290969,18
-13.74687,0.2833335,-36.01926,-0.2756542181399428,-0.2556022692388473,-0.0987433028208712,3.560443,89.04949,0.2103132,0.02343454,0.700837,-0.02047593,12.1399997286499,18
-13.6848,0.4833335,-36.0149,-0.1503736124289627,-0.6913648365589593,-0.0971932633566012,7.121952,88.42729,0.3822592,0.046839,0.6958371,-0.04092548,12.1599997282028,18
-13.62275,0.6833333,-36.01056,-0.2742522698426004,-0.2331267635648782,-0.0884755295286368,10.68408,87.8105,0.5164858,0.07018953,0.6901466,-0.06132872,12.1799997277558,18
-13.56071,0.883333,-36.00621,-0.3873875268482223,0.2141347059866632,-0.0789039302069198,14.24606,87.19437,0.6128445,0.09345995,0.6837718,-0.08166423,12.1999997273088,18
-13.25114,0.2833333,-36.00653,-0.2069597621284344,-0.2545578039926617,-0.077443003310698,3.491665,89.53462,0.2643826,0.02325386,0.7038506,-0.01981759,12.2199997268617,18
-13.19024,0.4833335,-36.00176,-0.2604892871460507,-0.0139389222164361,-0.0723614002776216,6.984913,88.91972,0.4916153,0.04647794,0.6989157,-0.03961017,12.2399997264147,18
-13.12935,0.6833333,-35.99698,-0.3222575822725915,0.2434065194435394,-0.0672994422578199,10.47898,88.31377,0.683109,0.06964962,0.6933119,-0.05935505,12.2599997259676,18
-13.06848,0.8833331,-35.99221,-0.3786191602855755,0.4652077632211688,-0.0626688294901995,13.97383,87.71243,0.8390966,0.09274754,0.6870452,-0.07903714,12.2799997255206,18
-12.85058,0.2833333,-35.99444,-0.2470198035617645,-0.254557537151528,-0.0676731505220402,3.431063,88.86031,0.2515366,0.02291418,0.6996769,-0.01939035,12.2999997250736,18
-12.79079,0.4833332,-35.98919,-0.2924481911723156,-0.0515738625496098,-0.0638373026850089,6.863217,88.24652,0.4668633,0.04579901,0.6947752,-0.03875305,12.3199997246265,18
-12.73102,0.6833332,-35.98393,-0.3330165871810084,0.1681365602842581,-0.0589386552725272,10.29644,87.64089,0.6467578,0.06863429,0.6892311,-0.05807405,12.3399997241795,18
-12.49344,0.2833334,-35.9851,-0.1657157492841676,-0.2880114345305095,-0.0601489710388492,3.381777,87.40529,0.1567037,0.02227625,0.6905851,-0.01939885,12.3599997237325,18
-12.4346,0.4833335,-35.98002,-0.2037043638882494,-0.0348480216472107,-0.0543936965052509,6.763661,86.78471,0.2768259,0.0445225,0.6856887,-0.03877293,12.3799997232854,18
-12.37577,0.6833335,-35.97494,-0.2436276298565349,0.235041872626902,-0.0476680977025907,10.14569,86.16648,0.3608025,0.06672215,0.680178,-0.05810678,12.3999997228384,18
-12.31696,0.8833334,-35.96987,-0.2720635792726114,0.4693880625397372,-0.0406354094458478,13.52746,85.54628,0.4083129,0.08885517,0.6740586,-0.07738306,12.4199997223914,18
-12.02028,0.2833331,-35.97152,-0.0205316524235499,-0.2378321311400658,-0.0435248119412605,3.325575,85.32858,0.03187072,0.02152572,0.6774102,-0.01946047,12.4399997219443,18
-11.96248,0.4833331,-35.96656,-0.0461569048468,-0.0223029614751004,-0.040451634920096,6.649852,84.69949,0.0271839,0.04302301,0.6725103,-0.03889581,12.4599997214973,18
-11.90468,0.6833332,-35.9616,-0.0812434674834712,0.2099525737143053,-0.037643417293502,9.972925,84.0654,359.9854,0.06447632,0.6670287,-0.0582921,12.4799997210503,18
-11.84691,0.8833332,-35.95664,-0.1124180641727168,0.4066643169021469,-0.0357113672601059,13.29438,83.42184,359.9055,0.0858673,0.6609709,-0.07763211,12.4999997206032,18
-11.63948,0.2833333,-35.96109,0.0301069472832651,-0.338190383439536,-0.0464133084138183,3.268048,83.60754,359.914,0.02075624,0.6663263,-0.01956677,12.5199997201562,18
-11.58263,0.4833333,-35.95655,0.0069348778748601,-0.1602961266657059,-0.0477630035894733,6.533968,82.97092,359.7916,0.04148866,0.6614299,-0.0391113,12.5399997197092,18
-11.52579,0.6833331,-35.95201,-0.0119503124858422,0.0343245947723618,-0.0494184117614224,9.797089,82.3226,359.6313,0.06217726,0.6559805,-0.05861672,12.5599997192621,18
-11.29953,0.2833333,-35.95423,0.1638963710351415,-0.4469123850703791,-0.061963874068283,3.216281,81.02451,359.8045,0.02022802,0.6493903,-0.01952696,12.5799997188151,18
-11.24355,0.4833332,-35.94914,0.1484393426504517,-0.2188384120559167,-0.0665994699612042,6.429269,80.38072,359.5726,0.04043362,0.644469,-0.03903233,12.5999997183681,18
-11.18758,0.6833333,-35.94406,0.1330829890784928,0.0259616680922562,-0.0708221111221973,9.638443,79.71928,359.3024,0.06059988,0.6390241,-0.05849986,12.619999717921,18
-10.93941,0.2833332,-35.94476,0.1311096949712435,0.2352177752956619,-0.0750163258182539,3.371525,80.79464,359.7818,0.02117008,0.6478453,-0.02051483,12.639999717474,18
-10.88066,0.4833332,-35.93942,0.1728618777020543,0.223195343478231,-0.0833988660622111,6.739493,80.14959,359.5253,0.04231526,0.6428548,-0.04100567,12.6599997170269,18
-10.82194,0.6833332,-35.93409,0.1995454074273865,0.2566483614924048,-0.0901126430098457,10.10337,79.48423,359.2281,0.06341596,0.6372915,-0.0614545,12.6799997165799,18
-10.76324,0.8833332,-35.92876,0.2249087486999617,0.2822612060206372,-0.0954996018572842,13.46387,78.79338,358.8871,0.0844615,0.6311601,-0.0818506,12.6999997161329,18
-10.45297,0.2833334,-35.93127,0.4732203874338321,-0.3935966720217344,-0.1066512962069978,3.532017,83.03344,359.8293,0.0220882,0.6625574,-0.0215421,12.7199997156858,18
-10.39138,0.4833334,-35.92709,0.4241161373156785,-0.1467057247574855,-0.1102070349030341,7.061479,82.39398,359.6182,0.0441484,0.6575505,-0.04306423,12.7399997152388,18
-10.32982,0.6833334,-35.92292,0.3567270876464388,0.1169117938900355,-0.1121013717378929,10.58807,81.73579,359.3651,0.06616342,0.6519026,-0.06454275,12.7599997147918,18
-10.26827,0.8833332,-35.91875,0.2848187118141769,0.3449852307829387,-0.1128532051273083,14.11052,81.05327,359.0669,0.08810698,0.64562,-0.08595248,12.7799997143447,18
-10.04844,0.2833335,-35.92279,0.3900414113439234,-0.368507601879887,-0.1231654867888423,3.576248,84.35866,359.9161,0.02263197,0.6711431,-0.02149401,12.7999997138977,18
-9.986169,0.4833334,-35.91845,0.3086593964188733,-0.1592512788862473,-0.1235957953419131,7.150715,83.72963,359.7928,0.04523731,0.6661593,-0.04296228,12.8199997134507,18
-9.923914,0.6833335,-35.91411,0.2234215523697207,0.0667317462541443,-0.1227500753412584,10.72256,83.08721,359.6284,0.06779039,0.6605119,-0.06438163,12.8399997130036,18
-9.684059,0.2833333,-35.91612,0.3381225343590239,-0.3831431459378597,-0.1304251250418602,3.572207,85.69805,0.05119034,0.02315466,0.6797282,-0.02086926,12.8599997125566,18
-9.621943,0.4833332,-35.91088,0.2398172360422528,-0.1237070889316003,-0.1292065592410907,7.143723,85.08366,0.06458046,0.04628221,0.6747889,-0.04170861,12.8799997121096,18
-9.559846,0.6833331,-35.90564,0.133517781572432,0.1524554039901,-0.1264003017598298,10.71417,84.4647,0.0391775,0.06935678,0.6691793,-0.06250054,12.8999997116625,18
-9.497766,0.8833331,-35.9004,0.0334975075701793,0.3930737864083818,-0.1226355070176197,14.28308,83.83608,359.9736,0.09235475,0.6629054,-0.08322467,12.9199997112155,18
-9.196706,0.2833334,-35.90412,0.2078785363241779,-0.3078743829028914,-0.1297933570953446,3.608768,86.95597,0.09239122,0.02340285,0.687716,-0.02108083,12.9399997107685,18
-9.133878,0.4833335,-35.89951,0.1001202492647399,-0.0860729594888217,-0.1284217779845349,7.217259,86.3479,0.1465659,0.04677483,0.6827997,-0.04213414,12.9599997103214,18
-9.07107,0.6833332,-35.8949,-0.020330857738342,0.1524550705911371,-0.1261530620802844,10.82551,85.73776,0.1620462,0.0700933,0.6771909,-0.06314296,12.9799997098744,18
-9.00828,0.8833331,-35.89029,-0.1389596105457808,0.3554390424382238,-0.1235727963019002,14.43266,85.12057,0.1381255,0.09333324,0.670896,-0.08408146,12.9999997094274,18
-8.79896,0.2833332,-35.89614,-0.0814338071910949,-0.3831435102635609,-0.1322873938971227,3.633399,87.30985,0.09258621,0.02349424,0.6899477,-0.02130008,13.0199997089803,18
-8.735679,0.4833333,-35.89189,-0.192835015860382,-0.1989767215742107,-0.1288602233192435,7.266502,86.70428,0.1468625,0.04695718,0.685041,-0.04257196,13.0399997085333,18
-8.672415,0.6833333,-35.88764,-0.2977060182526774,0.0019165030305844,-0.123501290195918,10.89895,86.09663,0.1626495,0.07036493,0.6794305,-0.06379387,13.0599997080863,18
-8.443029,0.2833335,-35.89277,-0.2003647638990138,-0.4730482019805981,-0.1269134678391239,3.58921,89.28133,0.1731673,0.02334394,0.7022791,-0.02093016,13.0799997076392,18
-8.380433,0.4833334,-35.8893,-0.2928281466396711,-0.2387018361773806,-0.1197620383267619,7.178979,88.6852,0.3092318,0.04665745,0.6974527,-0.04183298,13.0999997071922,18
-8.317854,0.6833332,-35.88583,-0.3784022000637286,0.0123711015318132,-0.1106228470915198,10.76894,88.09241,0.4086254,0.06991693,0.6919256,-0.06268785,13.1199997067451,18
-8.255292,0.8833331,-35.88237,-0.4421028344539506,0.2278997461391516,-0.1002502277970478,14.35843,87.49825,0.4707479,0.09309524,0.6857041,-0.08347431,13.1399997062981,18
-7.966104,0.2833333,-35.88839,-0.4481442431800451,0.2221503191114474,-0.0960273339951172,3.521117,90.6622,0.2537116,0.02317213,0.7107959,-0.0202936,13.1599997058511,18
-7.904611,0.4833334,-35.88499,-0.4563328048166619,0.2618762516615364,-0.0910854762651141,7.043616,90.07581,0.4717251,0.04631463,0.7060535,-0.0405614,13.179999705404,18
-7.843136,0.6833336,-35.8816,-0.4525717822654505,0.2937615890766177,-0.0861193650019913,10.567,89.49804,0.6551186,0.06940427,0.7006261,-0.06078325,13.199999704957,18
-7.584404,0.2833333,-35.88451,-0.2102790950890254,-0.3758238041808367,-0.0917280903499033,3.456778,90.4961,0.2735612,0.02292939,0.7097856,-0.01973951,13.21999970451,18
-7.524036,0.4833331,-35.88057,-0.2545231959224399,-0.1226601934535241,-0.0889926333224337,6.914729,89.91308,0.5125855,0.04582937,0.7050862,-0.03945022,13.2399997040629,18
-7.463686,0.6833333,-35.87663,-0.306538804778504,0.1472299682715457,-0.0855572214218014,10.37387,89.33993,0.7179489,0.0686788,0.6997266,-0.0591184,13.2599997036159,18
-7.403353,0.883333,-35.87269,-0.352907468063897,0.381576135620927,-0.0819227284375045,13.83392,88.77267,0.8903963,0.0914575,0.6937122,-0.07872546,13.2799997031689,18
-7.185734,0.2833332,-35.87831,-0.2121422926178651,-0.3256441310634043,-0.0885550156048111,3.406369,89.19764,0.2024804,0.0224032,0.7017897,-0.01961118,13.2999997027218,18
-7.126338,0.4833332,-35.87425,-0.2485499497301053,-0.1101155122428706,-0.0837908777290366,6.813231,88.61037,0.370353,0.0447771,0.6971048,-0.03919583,13.3199997022748,18
-7.06696,0.6833332,-35.8702,-0.2807512636374354,0.1221398720588944,-0.0772811127199446,10.22065,88.02859,0.5042372,0.0671036,0.6917873,-0.05873929,13.3399997018278,18
-6.829792,0.2833334,-35.87474,-0.295489482292131,0.3188509167380167,-0.0697365999946768,3.354898,87.66604,0.1154935,0.02181398,0.6922406,-0.01954642,13.3599997013807,18
-6.771369,0.4833333,-35.87064,-0.2614876214607604,0.2942835364332085,-0.068399249379631,6.709477,87.07273,0.1963932,0.04360017,0.6875607,-0.03906755,13.3799997009337,18
-6.712962,0.6833333,-35.86655,-0.236017501046903,0.3151914408721978,-0.0661744930038281,10.06373,86.47968,0.242704,0.06534112,0.6822768,-0.05854879,13.3999997004867,18
-6.654572,0.8833332,-35.86246,-0.2055445684777055,0.3282590333954194,-0.0639177906131678,13.41733,85.88276,0.2539546,0.08701812,0.676394,-0.0779728,13.4199997000396,18
-6.358345,0.2833333,-35.86892,0.0455037181809161,-0.3601439426280893,-0.0734535323409488,3.299937,85.59596,359.9669,0.02093132,0.6791399,-0.01977431,13.4399996995926,18
-6.300881,0.4833332,-35.86538,0.0190288089138124,-0.1257979931597633,-0.0730396018921055,6.598395,84.99209,359.899,0.04183855,0.6744568,-0.03952613,13.4599996991456,18
-6.243432,0.6833332,-35.86184,-0.0177510353897125,0.1252742010009205,-0.0723207425051839,9.894578,84.37977,359.795,0.06269988,0.669201,-0.0592375,13.4799996986985,18
-6.185999,0.8833332,-35.8583,-0.0518325992199204,0.3408029055451496,-0.0720596337075107,13.18851,83.75468,359.6538,0.08350136,0.6633772,-0.07889275,13.4999996982515,18
-5.978861,0.2833334,-35.86508,0.0844667690033644,-0.3852347732419002,-0.0866439347719278,3.24281,83.49955,359.8734,0.02037415,0.665635,-0.01966533,13.5199996978045,18
-5.922381,0.4833335,-35.86116,0.0545899532552347,-0.1885232895773168,-0.0896514338528007,6.483114,82.89025,359.7119,0.04072482,0.6609479,-0.03930877,13.5399996973574,18
-5.865918,0.6833334,-35.85725,0.0273749854102818,0.0249146767848469,-0.0925373690686583,9.720597,82.26739,359.5144,0.06103612,0.6557174,-0.0589141,13.5599996969104,18
-5.639952,0.2833334,-35.8628,0.1925869964846391,-0.4375054941572643,-0.1084305245891954,3.195265,81.24442,359.7793,0.01990837,0.6508549,-0.01961306,13.5799996964633,18
-5.584248,0.4833334,-35.8584,0.164881988792092,-0.1906145906260378,-0.1134041018285074,6.387072,80.62926,359.524,0.03979479,0.6461506,-0.03920454,13.5999996960163,18
-5.528558,0.6833333,-35.85401,0.1354505241887822,0.0730029930983116,-0.1171668667313738,9.575,79.99549,359.2322,0.05964325,0.6409289,-0.05875883,13.6199996955693,18
-5.472883,0.8833331,-35.84962,0.1175080244021802,0.3010767372549019,-0.1202798477727142,12.75831,79.33875,358.9013,0.07943755,0.6351948,-0.07825715,13.6399996951222,18
-5.181516,0.2833335,-35.85793,0.3660003118831536,-0.4124159050560222,-0.1370436214970709,3.516855,83.35059,359.8035,0.02178035,0.6646336,-0.02168298,13.6599996946752,18
-5.120083,0.4833335,-35.85456,0.3501754068848268,-0.2031594013805302,-0.1408705659178082,7.030517,82.73755,359.569,0.04353326,0.6598279,-0.04333987,13.6799996942282,18
-5.058679,0.6833335,-35.85118,0.3265091595440474,0.0228234484793011,-0.1424476641010201,10.54215,82.10454,359.2934,0.06524478,0.6543847,-0.06496312,13.6999996937811,18
-4.798206,0.2833335,-35.85705,0.5188904644607377,-0.4270518826110504,-0.1530195561380622,3.559046,84.98143,359.8572,0.02205742,0.6751729,-0.02189387,13.7199996933341,18
-4.736105,0.4833334,-35.85443,0.4672594988669127,-0.1676157165335861,-0.1533337195391197,7.11571,84.37486,359.6761,0.0440861,0.670391,-0.04376459,13.7399996928871,18
-4.674022,0.6833334,-35.85181,0.3970687636468095,0.1085473672195131,-0.1514902245214529,10.66922,83.75153,359.455,0.06606478,0.6649482,-0.0655856,13.75999969244,18
-4.611956,0.8833334,-35.84919,0.3220980238268702,0.3491662512607961,-0.1482624312270388,14.21908,83.10611,359.1911,0.08797149,0.6588507,-0.08733565,13.779999691993,18
-4.392406,0.2833335,-35.85589,0.4241799605202145,-0.3517812767780027,-0.1577070479707245,3.591366,86.21862,-0.004437879,0.02285003,0.6830577,-0.02144266,13.799999691546,18
-4.329848,0.4833334,-35.85215,0.3390830056279101,-0.1299794433015059,-0.1542348288943102,7.181784,85.6274,359.9545,0.04567534,0.6783006,-0.0428564,13.8199996910989,18
-4.267308,0.6833335,-35.84841,0.2496664346453325,0.1085488339310163,-0.1490174444079812,10.77055,85.02827,359.8754,0.06844788,0.6728641,-0.0642209,13.8399996906519,18
-4.204786,0.8833333,-35.84467,0.1699571564492412,0.3115330244432167,-0.1429013637231477,14.35728,84.41621,359.7565,0.09114487,0.6667544,-0.08551502,13.8599996902049,18
-3.925602,0.2833333,-35.85419,0.1328302270126922,0.2932384447245377,-0.1427007842169416,3.569973,87.67586,0.07669575,0.02293106,0.6922696,-0.02109181,13.8799996897578,18
-3.8634,0.4833331,-35.85065,0.0810386906593405,0.3204193252915688,-0.1403886663365128,7.139404,87.09464,0.1171922,0.04583159,0.6875702,-0.04215629,13.8999996893108,18
-3.801215,0.6833332,-35.84711,0.0290743313306462,0.3397596041897757,-0.1368402716520336,10.70801,86.51083,0.1212109,0.06867921,0.6821899,-0.06317316,13.9199996888638,18
-3.549732,0.2833333,-35.85384,0.1915926675765649,-0.3423707345930599,-0.1460861732056955,3.64741,88.39649,0.09744192,0.02340835,0.6967704,-0.02157674,13.9399996884167,18
-3.486129,0.4833332,-35.85069,0.0723977373838327,-0.1017520497896738,-0.1422143370982809,7.294587,87.81902,0.1581896,0.04678543,0.6920528,-0.04312531,13.9599996879697,18
-3.422543,0.683333,-35.84754,-0.0592482586924362,0.1555932322709048,-0.1366625256625653,10.94115,87.24014,0.1822135,0.07010747,0.6866204,-0.06462279,13.9799996875226,18
-3.35898,0.8833331,-35.84439,-0.1888736769875285,0.3773945795442146,-0.1302159731662939,14.5874,86.65498,0.1683157,0.0933526,0.6804788,-0.0860528,13.9999996870756,18
-3.150506,0.2833333,-35.854,-0.1419246459092522,-0.3423706877238046,-0.1371779132399808,3.619324,89.18264,0.1147483,0.02319129,0.7016722,-0.02145734,14.0199996866286,18
-3.087379,0.4833332,-35.85142,-0.2638034248519368,-0.1393869175539063,-0.1300163955123849,7.238581,88.60915,0.1933921,0.04635205,0.6970021,-0.04288673,14.0399996861815,18
-3.02427,0.6833332,-35.84884,-0.3790417119810645,0.0803231025354093,-0.121117910138679,10.85735,88.03548,0.2359644,0.06945825,0.6916228,-0.06426603,14.0599996857345,18
-2.795551,0.2833332,-35.85792,-0.4729292725496056,0.2644892914202544,-0.1114433901128251,3.560285,91.26715,0.2141838,0.02305709,0.7144957,-0.02090099,14.0799996852875,18
-2.733361,0.4833332,-35.85588,-0.505779258567292,0.2273771892208826,-0.1089689024948583,7.12145,90.70467,0.3936657,0.04608405,0.7099141,-0.04177527,14.0999996848404,18
-2.671188,0.6833332,-35.85383,-0.5343229099175772,0.2357406652644218,-0.1050729261071126,10.68314,90.14861,0.5393403,0.06905848,0.7046313,-0.06260196,14.1199996843934,18
-2.609031,0.8833331,-35.85179,-0.5439417660377162,0.2362636437446377,-0.1008009676865526,14.24469,89.59472,0.6511561,0.09195411,0.6986533,-0.08335993,14.1399996839464,18
-2.320381,0.2833333,-35.86264,-0.3271131920392278,-0.4646840914597571,-0.112618170620081,3.491361,91.90175,0.2694328,0.02286937,0.7183586,-0.02026115,14.1599996834993,18
-2.259339,0.4833333,-35.86026,-0.36563375278897,-0.2428830196522212,-0.1103438704790988,6.984155,91.34644,0.5053597,0.04570977,0.7138432,-0.04049708,14.1799996830523,18
-2.198311,0.6833332,-35.85789,-0.4008119175963022,-0.0043554886688529,-0.107262460847032,10.47759,90.8011,0.7092283,0.06849802,0.7086481,-0.06068472,14.1999996826053,18
-1.940157,0.2833334,-35.86548,-0.2072831211866435,-0.441685893312573,-0.1177463902677971,3.431028,91.36449,0.2567436,0.02251728,0.715107,-0.01985448,14.2199996821582,18
-1.880195,0.4833333,-35.86272,-0.247368761030433,-0.1697051290475014,-0.116331487586919,6.862971,90.80946,0.4807787,0.04500567,0.7106248,-0.03968095,14.2399996817112,18
-1.820249,0.6833334,-35.85997,-0.296233079544536,0.1190024231751326,-0.1128370622406294,10.29589,90.26359,0.672966,0.06744526,0.7054887,-0.05946541,14.2599996812642,18
-1.760321,0.8833334,-35.85721,-0.3407153203218832,0.3721659906921273,-0.1080281459309944,13.72949,89.72312,0.8339682,0.08981616,0.6997042,-0.07918936,14.2799996808171,18
-1.54294,0.2833334,-35.86688,-0.3676489427839791,0.4236856286489086,-0.1026759382845341,3.381747,89.59531,0.1539507,0.02188436,0.7042696,-0.01983787,14.2999996803701,18
-1.483946,0.4833336,-35.86407,-0.3441035861072499,0.3558026357420181,-0.104116706173535,6.76346,89.03318,0.2748928,0.04374013,0.699792,-0.03964979,14.3199996799231,18
-1.424969,0.6833335,-35.86126,-0.3243726901640107,0.3338829061375503,-0.1035491613038104,10.14525,88.47392,0.3632002,0.06555047,0.6946908,-0.05942084,14.339999679476,18
-1.366009,0.8833334,-35.85846,-0.2951193730316914,0.3046103747447312,-0.1020703317457076,13.52677,87.91361,0.418706,0.08729589,0.6889712,-0.07913308,14.359999679029,18
-1.089391,0.2833335,-35.87091,-0.0634408544399764,-0.4256443244644257,-0.11734740919497,3.325471,87.70787,0.03559068,0.02113887,0.692524,-0.01987915,14.379999678582,18
-1.031431,0.4833335,-35.86826,-0.0759283142570363,-0.2326619114121196,-0.1168238587007977,6.649739,87.13754,0.03803192,0.0422502,0.6880506,-0.03973313,14.3999996781349,18
-0.9734876,0.6833335,-35.86561,-0.088070459431564,-0.0224648124273853,-0.1154347602457548,9.972946,86.56306,0.006905939,0.06331878,0.6829852,-0.05954761,14.4199996776879,18
-0.7280023,0.2833335,-35.87527,0.1131214762250958,-0.4876379794300407,-0.1298769115619791,3.268433,86.15545,359.9192,0.02034911,0.6827266,-0.01999301,14.4399996772408,18
-0.6710048,0.4833333,-35.87315,0.089653387088088,-0.2430120923553242,-0.1317733130834142,6.53497,85.57687,359.8052,0.04067568,0.6782591,-0.03996336,14.4599996767938,18
-0.6140212,0.6833332,-35.87102,0.0547779568143325,0.0188281364502794,-0.1326214549526199,9.798917,84.98751,359.6567,0.06095848,0.6732273,-0.05989449,14.4799996763468,18
-0.5570537,0.8833332,-35.86889,0.021264114746252,0.2456124283673404,-0.1333854935144103,13.06011,84.38322,359.472,0.08118358,0.667636,-0.0797693,14.4999996758997,18
-0.3501015,0.2833333,-35.87942,0.2653238580194141,-0.4686821092735583,-0.1549111749045622,3.215898,83.25079,359.8019,0.01982721,0.6640313,-0.01993107,14.5199996754527,18
-0.293965,0.4833332,-35.87653,0.3298122630620881,-0.2597395043360826,-0.1613036012508786,6.428689,82.66479,359.5706,0.03963245,0.6595405,-0.03984006,14.5399996750057,18
-0.2378445,0.683333,-35.87364,0.3833025007971891,-0.033582436574288,-0.1664282403664074,9.637971,82.06158,359.3043,0.05939936,0.6545166,-0.05971102,14.5599996745586,18
-0.1817381,0.883333,-35.87075,0.439276905522759,0.1575182418102761,-0.1711643873651311,12.84305,81.437,359.0009,0.07911269,0.6489648,-0.07952356,14.5799996741116,18
0.08844885,0.2833333,-35.88506,0.4779193057774344,0.1278286450426874,-0.1785725436609766,3.399534,83.67934,359.7901,0.02087741,0.6667943,-0.02115013,14.5999996736646,18
0.14786,0.4833335,-35.88247,0.5031498722419983,0.1441023100093998,-0.182998473684691,6.795809,83.09325,359.5451,0.04172983,0.6622342,-0.04227515,14.6199996732175,18
0.2072555,0.6833335,-35.87988,0.5286575307044679,0.1530232809522027,-0.1853419800276725,10.18845,82.48779,359.2627,0.06253856,0.6570777,-0.06335634,14.6399996727705,18
0.4473713,0.2833333,-35.89172,0.5681284418410044,0.101275828879937,-0.1864647774775747,3.533425,85.6208,359.8295,0.02160619,0.6792844,-0.02204259,14.6599996723235,18
0.5091004,0.4833332,-35.89029,0.5938494045511513,0.0421753380595147,-0.1922636107990527,7.064787,85.03902,359.6221,0.04318682,0.6747033,-0.04406625,14.6799996718764,18
0.5708101,0.6833331,-35.88887,0.6020702006053749,0.0290380982579332,-0.1942742321738464,10.59304,84.43923,359.3764,0.06472021,0.6694672,-0.06604206,14.6999996714294,18
0.8311693,0.2833333,-35.90014,0.6067048815459155,0.008548166523265,-0.1935439603843463,3.576934,87.12163,359.9204,0.02213744,0.688804,-0.02201027,14.7199996709824,18
0.8935865,0.4833332,-35.8987,0.584259416669056,0.007363294228919,-0.1968197031925314,7.152229,86.54988,359.805,0.0442487,0.6842415,-0.04399429,14.7399996705353,18
0.9559857,0.6833333,-35.89726,0.5350283740197237,0.0521417919560219,-0.1967562119032706,10.72513,85.96575,359.6522,0.06630898,0.6790002,-0.0659283,14.7599996700883,18
1.018367,0.8833333,-35.89582,0.4731449215240197,0.0895674761339022,-0.194456595394918,14.29529,85.36423,359.4597,0.08829676,0.6730857,-0.08779071,14.7799996696413,18
1.080731,0.9766706,-35.89438,0.4127457963151073,0.0663243894362334,-0.1910672425565351,17.8622,84.73979,359.2245,0.1101899,0.6665046,-0.1095596,14.7999996691942,18
1.338764,0.2833331,-35.90957,0.3360497201342221,0.0357287133428645,-0.1910168711742699,3.563229,88.4848,0.05630455,0.02261537,0.6973472,-0.02133954,14.8199996687472,18
1.4009,0.483333,-35.90724,0.2485066029889142,0.0510960429452421,-0.1880824114687627,7.125733,87.92873,0.07844487,0.04520357,0.6928383,-0.04264903,14.8399996683002,18
1.463018,0.683333,-35.90491,0.1644495981695235,0.0591104332006184,-0.18347575603444,10.68724,87.36916,0.06566208,0.06774027,0.6876475,-0.06391021,14.8599996678531,18
1.693376,0.2833334,-35.9181,0.098212873014976,0.0064561914458611,-0.1784166641829472,3.62695,89.67671,0.08827828,0.02298293,0.7047384,-0.02176775,14.8799996674061,18
1.756674,0.4833333,-35.91652,0.0245269354032959,-0.0535503022982282,-0.1802534250120189,7.253567,89.12531,0.1417315,0.04593571,0.7002273,-0.04350726,14.899999666959,18
1.81995,0.6833333,-35.91493,-0.0592570271658194,-0.0675934795981757,-0.1796147486416686,10.88005,88.57225,0.1598975,0.06883627,0.6950017,-0.06520153,14.919999666512,18
2.070621,0.2833334,-35.92803,-0.138598051311372,-0.0889893105865939,-0.1776667822272557,3.638923,90.1984,0.09573951,0.02300341,0.7079539,-0.02190019,14.939999666065,18
2.13413,0.4833334,-35.92689,-0.2345069742855461,-0.0910801506091055,-0.1797003329479736,7.277566,89.64939,0.1567094,0.04597643,0.7034566,-0.04377171,14.9599996656179,18
2.197622,0.6833332,-35.92575,-0.3454459249456851,-0.0472076490976137,-0.177847133032273,10.91559,89.09927,0.1828821,0.06889571,0.6982375,-0.06559172,14.9799996651709,18
2.261095,0.8833331,-35.92461,-0.4566907928929176,-0.0106877361977656,-0.1733314980410369,14.5528,88.54342,0.1731473,0.09173661,0.6923023,-0.0873404,14.9999996647239,18
2.571395,0.2833332,-35.94209,-0.3414077974161031,-0.6751506557342372,-0.186808081707845,3.582524,92.45559,0.1997161,0.02288215,0.7217043,-0.02136637,15.0199996642768,18
2.63399,0.4833333,-35.9416,-0.4013999107055879,-0.4163765545698221,-0.1822216811097803,7.165676,91.91859,0.3661171,0.0457342,0.7172987,-0.04270489,15.0399996638298,18
2.696568,0.6833332,-35.9411,-0.4607783095978668,-0.1403877666889176,-0.1752881152306642,10.74921,91.38741,0.4999667,0.06853377,0.7121776,-0.06399485,15.0599996633828,18
2.75913,0.8833329,-35.9406,-0.5045773423750246,0.1005449624259527,-0.1674233408739027,14.33248,90.85789,0.6011325,0.09125437,0.7063469,-0.08521453,15.0799996629357,18
2.976787,0.2833333,-35.95525,-0.5178192455369182,0.140321821819928,-0.1600638136087084,3.515653,93.15793,0.2488095,0.02266087,0.7259331,-0.02078819,15.0999996624887,18
3.038268,0.4833333,-35.95458,-0.525093157351324,0.061184071248,-0.1620947246670141,7.032439,92.62747,0.4653789,0.04529284,0.7215934,-0.04155033,15.1199996620417,18
3.099734,0.6833333,-35.95392,-0.5269695986681144,0.0284970995943162,-0.1629103019863862,10.54966,92.10602,0.6509342,0.06787241,0.7165592,-0.06226369,15.1399996615946,18
3.161183,0.8833334,-35.95325,-0.5095204138273104,-0.0110547180267813,-0.1637889524305649,14.06732,91.58981,0.8060085,0.09037939,0.7108358,-0.08291049,15.1599996611476,18
3.438621,0.2833333,-35.97177,-0.4973963579640816,-0.0308129520315582,-0.1712622900966138,3.450252,93.32328,0.2828009,0.022455,0.7269306,-0.02020243,15.1799996607006,18
3.499005,0.4833333,-35.97061,-0.4865992157690808,-0.0041199577656393,-0.176243237482808,6.901508,92.79784,0.5345688,0.04488105,0.7226443,-0.0403758,15.1999996602535,18
3.559373,0.6833332,-35.96946,-0.4636155506630333,0.0157082156227302,-0.1797964236337961,10.35394,92.28351,0.7564058,0.06725863,0.7176865,-0.06050622,15.2199996598065,18
3.806434,0.2833332,-35.98485,-0.6534224678857079,0.6956435008543924,-0.16777855407679,3.397237,91.93072,0.1794317,0.02172924,0.7185706,-0.02022237,15.2399996593595,18
3.865779,0.4833332,-35.984,-0.59076226267159,0.4914400854098383,-0.1818494712680447,6.79455,91.39733,0.3272326,0.04342826,0.7142977,-0.04041906,15.2599996589124,18
3.925107,0.6833332,-35.98315,-0.5335945887805948,0.3091205289951079,-0.1919351775388591,10.19212,90.86864,0.4442093,0.0650818,0.7093834,-0.06057372,15.2799996584654,18
3.984418,0.8833331,-35.98231,-0.4683738615928172,0.0943235706181405,-0.1993522633863804,13.58963,90.34097,0.5304072,0.08667015,0.7038327,-0.08066811,15.2999996580184,18
4.190941,0.2833332,-35.99854,-0.1708742954383773,-0.7195796662353914,-0.230026091698555,3.342133,90.28017,0.09216927,0.02113969,0.7085152,-0.02010351,15.3199996575713,18
4.249262,0.4833332,-35.99749,-0.0979724934985109,-0.5106369061415121,-0.2384831000460749,6.683589,89.74115,0.1530418,0.04225244,0.7042522,-0.0401807,15.3399996571243,18
4.307566,0.6833329,-35.99644,-0.0270881246566787,-0.2844796759054366,-0.2448348250612255,10.02455,89.20166,0.1825705,0.06332256,0.6993783,-0.06021726,15.3599996566772,18
4.365853,0.8833328,-35.9954,0.0553259869966566,-0.0933787199642786,-0.250503095272002,13.36465,88.65792,0.1801599,0.08433109,0.6938981,-0.08019563,15.3799996562302,18
4.631874,0.2833333,-36.01725,-0.0391630353177028,0.6168539992191933,-0.2383190489394877,3.285527,88.49575,359.9499,0.02023033,0.697486,-0.02031654,15.3999996557832,18
4.689197,0.4833334,-36.0169,0.0884068469167269,0.3308986513325742,-0.256622739065655,6.569434,87.94656,359.8681,0.04043716,0.6932292,-0.04061012,15.4199996553361,18
4.746506,0.6833335,-36.01654,0.2182440180696021,0.066827149146791,-0.2723875442621022,9.851049,87.38857,359.7535,0.06059974,0.6883913,-0.06086298,15.4399996548891,18
4.981471,0.2833333,-36.03387,0.1388093222754243,0.4905662401968603,-0.2693645992349758,3.230571,86.27213,359.845,0.01964545,0.6834887,-0.02025992,15.4599996544421,18
5.03789,0.4833332,-36.03317,0.2372844946374943,0.2702626407599857,-0.2915726900185191,6.458553,85.71583,359.6584,0.03926863,0.6792226,-0.04049772,15.479999653995,18
5.094294,0.6833332,-36.03247,0.3292557981080382,0.0718432184192036,-0.3105427686159103,9.683599,85.14497,359.4385,0.05885399,0.6744047,-0.06069632,15.499999653548,18
5.349435,0.2833332,-36.04998,0.4281271376452498,-0.1590534868812066,-0.327574489867608,3.282566,84.92965,359.7822,0.01984609,0.6748994,-0.02073877,15.519999653101,18
5.40684,0.4833331,-36.04898,0.4484643811057465,-0.1567189884954948,-0.35053488447533,6.561925,84.36926,359.532,0.03966979,0.6705888,-0.04145379,15.5399996526539,18
5.464228,0.6833332,-36.04797,0.4445931626618415,-0.1079335008897126,-0.3677327040967029,9.837693,83.79028,359.2473,0.05945426,0.665715,-0.06212763,15.5599996522069,18
5.521597,0.883333,-36.04696,0.4298326201283702,-0.0660128597740491,-0.3804552241641872,13.11001,83.18842,358.9256,0.07918673,0.6602824,-0.08274601,15.5799996517599,18
5.57895,0.9766704,-36.04596,0.4175034925411616,-0.0842728608717315,-0.3899981792271205,16.3778,82.55889,358.5633,0.0988461,0.6542961,-0.1032889,15.5999996513128,18
5.840036,0.2833332,-36.07129,0.4820157822175046,-0.1093976802334374,-0.4158803492214531,3.524997,87.179,359.8197,0.02119254,0.6891949,-0.02234531,15.6199996508658,18
5.90167,0.4833331,-36.07171,0.524592768890205,-0.0880714138487995,-0.4346289226711022,7.047129,86.62296,359.6048,0.04235843,0.6848176,-0.04466295,15.6399996504188,18
5.963274,0.6833331,-36.07213,0.5592272914945564,-0.0736100169533208,-0.4477486030541939,10.56792,86.04859,359.3525,0.06348499,0.6797785,-0.0669473,15.6599996499717,18
6.191991,0.2833333,-36.09369,0.5999128066294537,-0.119329778268587,-0.4567850652442331,3.564345,89.0986,359.8871,0.02147248,0.7012049,-0.02251879,15.6799996495247,18
6.254207,0.4833333,-36.09499,0.5389937379859866,-0.1719141684542717,-0.4687270815282787,7.126704,88.55019,359.7394,0.04291609,0.6968539,-0.04501367,15.6999996490777,18
6.316405,0.6833332,-36.09628,0.4658613628297701,-0.1780475641928283,-0.4745764778906078,10.68647,87.98763,359.5557,0.06431121,0.6918171,-0.0674576,15.7199996486306,18
6.378585,0.8833332,-36.09756,0.3943228490207211,-0.1910456816691361,-0.4759867284929839,14.24323,87.40607,359.3335,0.08563666,0.6861002,-0.08982849,15.7399996481836,18
6.667179,0.2833332,-36.12418,0.1140422981936524,0.4560633184476107,-0.4547659934645693,3.576831,91.02889,0.05303611,0.02219886,0.7130694,-0.02194095,15.7599996477365,18
6.729596,0.4833332,-36.12466,0.0131786981817558,0.219033850404945,-0.4650563127852791,7.153094,90.49828,0.0733573,0.04437224,0.7087634,-0.0438523,15.7799996472895,18
6.791996,0.6833332,-36.12514,-0.0921713689859515,0.0038885550153776,-0.4658995063762532,10.72835,89.96427,0.06018217,0.06649467,0.7037557,-0.06571398,15.7999996468425,18
7.051791,0.2833334,-36.14867,-0.1880589176193581,-0.2437341595857028,-0.4594512115285951,3.597526,92.05403,0.08072599,0.02230084,0.7192971,-0.02210088,15.8199996463954,18
7.114573,0.4833333,-36.14981,-0.2889292065187323,-0.2581261125352437,-0.4079779226484774,7.194619,91.52761,0.1284698,0.04457273,0.7150089,-0.04417335,15.8399996459484,18
7.177337,0.6833332,-36.15095,-0.3907078782196738,-0.2260669191046049,-0.3494224801521213,10.79119,90.99947,0.1427778,0.06679276,0.7100043,-0.0661984,15.8599996455014,18
7.240082,0.883333,-36.15208,-0.4792055199469676,-0.2008721754306473,-0.2863323500506638,14.38673,90.46533,0.1231394,0.08893933,0.7042891,-0.0881507,15.8799996450543,18
7.30281,0.9766704,-36.15322,-0.5402373527091378,-0.2358580363352428,-0.2212168234337213,17.98088,89.9206,0.06789101,0.1109893,0.6978698,-0.1100086,15.8999996446073,18
7.560587,0.2833333,-36.18368,-0.6237061907524009,-0.2777089302486859,-0.055423835701589,3.63705,93.04549,0.1073137,0.02251425,0.7252614,-0.02238359,15.9199996441603,18
7.62406,0.4833332,-36.18548,-0.7038204515510973,-0.2731088464415792,0.1118713726575251,7.273882,92.52429,0.1816302,0.04499854,0.7209851,-0.04473804,15.9399996437132,18
7.687515,0.6833332,-36.18728,-0.7661355349139551,-0.2753738607201497,0.2776375978702958,10.91019,92.00311,0.2230285,0.06742984,0.7159708,-0.06704025,15.9599996432662,18
7.914959,0.2833333,-36.2149,-1.0095167962719476,0.3824686522211744,0.4601328630301324,3.589854,95.25317,0.1835035,0.02229237,0.738371,-0.02206112,15.9799996428192,18
7.977606,0.4833333,-36.21774,-1.1336385840291925,0.1561724540321715,0.7351010476915505,7.180151,94.74074,0.335164,0.04455576,0.7341759,-0.04409355,15.9999996423721,18
8.040236,0.6833333,-36.22058,-1.234723529763727,-0.0482397744876871,0.99999828379935,10.77059,94.23339,0.4556252,0.06676757,0.7292472,-0.06607544,16.0199996419251,18
8.28791,0.2833334,-36.2505,-1.5370648329033043,0.4351588224837655,1.2732559409986166,3.52841,96.69527,0.248307,0.02207914,0.7467908,-0.02156376,16.0399996414781,18
8.349537,0.4833334,-36.25366,-1.8165199089831368,0.914828824504898,1.5318569895458367,7.057858,96.19026,0.4658824,0.0441304,0.7426703,-0.04310013,16.059999641031,18
8.411146,0.6833333,-36.25682,-1.930573934076524,0.4857927508591815,1.9397786516794469,10.58804,95.69454,0.6538686,0.06613216,0.7378308,-0.06458849,16.079999640584,18
8.47274,0.8833331,-36.25998,-2.012385686934497,0.0530282182536791,2.318993373852741,14.11829,95.20451,0.8127417,0.08805993,0.7322779,-0.08600662,16.099999640137,18
8.766047,0.2833335,-36.29724,-2.048096365109989,-0.3108253046939662,2.6659175571691165,3.461449,97.16548,0.286733,0.02185545,0.7495174,-0.0209944,16.1199996396899,18
8.826577,0.4833335,-36.30008,-2.168559505663799,-0.342326602745843,3.1883545668059767,6.923834,96.66576,0.5437497,0.04368187,0.7454577,-0.04195956,16.1399996392429,18
8.88709,0.6833335,-36.30292,-2.265004553639473,-0.3278646573581079,3.6629308007829096,10.38732,96.17771,0.7724022,0.06546104,0.740702,-0.06287959,16.1599996387959,18
8.947585,0.8833333,-36.30576,-2.324276600048808,-0.3207554093918667,4.086909782796518,13.85161,95.69804,0.9736613,0.08717266,0.7352551,-0.08373477,16.1799996383488,18
9.137057,0.2833334,-36.33528,-2.533941823758081,0.3459727419557621,4.483145014189581,3.406997,96.46587,0.218583,0.02122351,0.7454903,-0.02090229,16.1999996379018,18
9.196534,0.4833333,-36.33845,-2.6386264459379145,0.1280744376993688,4.977795672711437,6.814413,95.96179,0.4072968,0.04241811,0.7414624,-0.041778,16.2199996374547,18
9.255995,0.6833333,-36.34163,-2.70516925377229,-0.0684275484942405,5.407470706730756,10.22236,95.46512,0.5672187,0.06356803,0.7367653,-0.06260998,16.2399996370077,18
9.315438,0.8833331,-36.3448,-2.720746322335591,-0.2978948090123822,5.770466906662151,13.63061,94.97246,0.6987896,0.08465448,0.7314038,-0.08337946,16.2599996365607,18
9.538739,0.2833334,-36.38099,-2.9444260964223368,0.3456955509051768,6.09577101669511,3.351488,90.52918,0.02839342,0.0207582,0.7100558,-0.02059893,16.2799996361136,18
9.597212,0.4833336,-36.38127,-3.01569412932494,0.1046588873863544,6.549131054469335,6.701685,90.01031,0.02772213,0.04149739,0.7059514,-0.04116329,16.2999996356666,18
9.655668,0.6833335,-36.38156,-3.047632580757812,-0.1149816524289958,6.914873470448853,10.05083,89.48744,-0.003725844,0.06219449,0.701233,-0.06168618,16.3199996352196,18
9.853118,0.2833332,-36.36367,-3.2650196284651773,0.35270011978643,7.220537445763128,3.28724,83.51641,359.8564,0.02056174,0.6657408,-0.02003689,16.3399996347725,18
9.910396,0.4833332,-36.3599,-3.3266253874596696,0.1758516128945561,7.636985383428865,6.572034,82.98418,359.6821,0.04110048,0.6615439,-0.04005026,16.3599996343255,18
9.967661,0.6833332,-36.35614,-3.335120891321628,0.0203992409443239,7.980179941368071,9.853854,82.43812,359.4769,0.06160473,0.6567931,-0.06001376,16.3799996338785,18
10.02491,0.8833332,-36.35238,-3.2816707034090697,-0.168018003631302,8.247949391673544,13.13262,81.87426,359.2379,0.08205429,0.6514925,-0.07991736,16.3999996334314,18
10.25579,0.2833335,-36.27958,-3.1574609478087368,-0.3157151617688686,8.438558944638366,3.200894,70.49409,359.6346,0.02096985,0.5769477,-0.01872079,16.4199996329844,18
10.31059,0.4833335,-36.26709,-3.008059113635328,-0.371644680339725,8.834318662168364,6.397326,69.94574,359.2384,0.04191764,0.5725868,-0.03741992,16.4399996325374,18
10.36538,0.6833334,-36.2546,-2.8089538355299397,-0.3820983706402274,9.13744438851112,9.588833,69.37124,358.8082,0.06282583,0.5677661,-0.05608303,16.4599996320903,18
10.42015,0.8833334,-36.24213,-2.5529437176947614,-0.4003931873187144,9.347526906278748,12.77512,68.76676,358.3426,0.08368795,0.5624911,-0.07468332,16.4799996316433,18
10.56504,0.2833334,-36.13799,-2.4296843120457456,0.2404431881022891,9.495650707323165,3.240853,60.12036,359.5786,0.02263319,0.5007956,-0.01734605,16.4999996311963,18
10.61782,0.4833334,-36.11633,-2.122853191208444,-0.0038343920153934,9.693949327206528,6.476708,59.56885,359.1256,0.04524186,0.4963045,-0.03467174,16.5199996307492,18
10.67057,0.6833335,-36.09468,-1.757796970752242,-0.2272037414387643,9.775168598659503,9.707059,58.98753,358.6377,0.06780721,0.4914043,-0.0519628,16.5399996303022,18
10.72331,0.8833334,-36.07304,-1.5516464228698492,0.2362614476847861,9.776029494541834,12.93249,58.37227,358.1123,0.09032497,0.4861,-0.06919992,16.5599996298552,18
10.89729,0.2833334,-35.89479,-1.3015639416916418,0.695022218117785,9.67278111536427,3.475107,49.88374,359.5587,0.02586995,0.4216074,-0.01627689,16.5799996294081,18
10.94876,0.4833333,-35.86172,-0.7990186422946941,0.2441019653722683,9.746833215159228,6.945024,49.32944,359.0832,0.0517093,0.4169684,-0.03253262,16.5999996289611,18
11.00021,0.6833333,-35.82867,-0.2565592652202362,-0.2115229349216721,9.698396017348315,10.4116,48.74165,358.5717,0.07752017,0.4119368,-0.04874384,16.6199996285141,18
11.14526,0.2833336,-35.62733,0.0519655650311339,0.2331242647709826,9.575384441164832,3.532963,44.64266,359.6866,0.02747772,0.3796966,-0.01423679,16.639999628067,18
11.19261,0.4833335,-35.58747,0.5814285287361969,0.0327539898976046,9.626421924372927,7.062842,44.1013,359.3424,0.054939,0.3750346,-0.02843318,16.65999962762,18
11.23995,0.6833335,-35.54762,1.115333899012004,-0.1467080929616651,9.556062294308871,10.58824,43.53376,358.9615,0.0823397,0.3700106,-0.0425953,16.6799996271729,18
11.28728,0.8833332,-35.50778,1.6576211456958028,-0.3596232186636166,9.373167734453052,14.10866,42.93495,358.5396,0.1096526,0.3646297,-0.05671186,16.6999996267259,18
11.39613,0.2833334,-35.32752,2.0576250206855526,0.3000312920231025,9.11910790732908,3.57184,40.86315,359.8917,0.02887461,0.3489464,-0.01176498,16.7199996262789,18
11.43851,0.4833335,-35.28176,2.73577318590225,0.0745716596941165,9.174830294977784,7.142135,40.34277,359.7541,0.05772748,0.3442846,-0.02348875,16.7399996258318,18
11.48086,0.6833335,-35.23602,3.373300047735503,-0.1299799011914872,9.101208852206248,10.71001,39.80907,359.5823,0.08651502,0.3392857,-0.03518568,16.7599996253848,18
11.52321,0.8833336,-35.19029,3.977307335991848,-0.3679846100706883,8.911470527268126,14.2751,39.25747,359.3739,0.1152085,0.3339552,-0.04684469,16.7799996249378,18
11.6665,0.2833333,-34.96203,4.358352410625424,0.2665799870889372,8.658970165729965,3.579215,37.6206,359.9624,0.02945585,0.3222882,-0.01037975,16.7999996244907,18
11.70532,0.4833333,-34.91311,4.834324610535816,0.0160297640679412,8.564817044394388,7.157148,37.1086,359.8932,0.05887685,0.3176379,-0.02074362,16.8199996240437,18
11.74414,0.683333,-34.8642,5.211550078662066,-0.2136121607426248,8.313517694465673,10.73332,36.58796,359.7926,0.08823612,0.312677,-0.03106883,16.8399996235967,18
11.8954,0.2833332,-34.63312,5.336783843866236,0.2435812130945784,7.905940381973117,5.645333,34.39421,359.8521,0.04666213,0.2953616,-0.01579126,16.8599996231496,18
11.95375,0.4833331,-34.5532,5.626555959098388,0.0557562832677845,7.774163610306541,11.28805,33.8603,359.6508,0.09320155,0.2900793,-0.0315408,16.8799996227026,18
12.01209,0.6833332,-34.47329,5.812571362356852,-0.1111604406932104,7.496159003529147,16.92753,33.29284,359.3896,0.1395044,0.2840919,-0.04721003,16.8999996222556,18
12.07042,0.8833335,-34.3934,5.90858504504326,-0.3115306445657617,7.096662403727958,22.56306,32.67773,359.0589,0.1854573,0.2774145,-0.0627613,16.9199996218085,18
12.29723,0.2833333,-34.08074,5.719850262305721,0.3606683514041869,6.517697979061147,6.429722,29.1083,359.1351,0.05238556,0.2513019,-0.02138658,16.9399996213615,18
12.36576,0.4833336,-33.98993,5.804204189653115,0.1477529930111902,6.433628699680199,12.84888,28.4475,358.1903,0.1045933,0.2458485,-0.04270104,16.9599996209145,18
12.43428,0.6833331,-33.89914,5.7800630992546544,-0.0442538409270321,6.249125261149558,19.25474,27.65385,357.1367,0.1564558,0.2396076,-0.06387489,16.9799996204674,18
12.50279,0.8833328,-33.80836,5.6616109085089015,-0.2697137571721963,5.986219968408136,25.64334,26.69304,355.9354,0.2078057,0.2325997,-0.08484001,16.9999996200204,18
12.69682,0.2833333,-33.58853,5.640608585954309,-0.2629185892356475,6.039824597487765,6.243515,29.217,357.9341,0.04814881,0.2527477,-0.03115181,17.0199996195734,18
12.78232,0.4833333,-33.5112,5.496091443828913,-0.2106481663495111,5.967567956079272,12.4629,28.36211,355.756,0.09614755,0.2472689,-0.06226035,17.0399996191263,18
12.86779,0.683333,-33.43389,5.244991331795658,-0.1662184458401148,5.794262131572314,18.64531,27.23291,353.4128,0.143834,0.2409734,-0.09317394,17.0599996186793,18
12.95322,0.8833329,-33.35661,4.9042037627767066,-0.1829450520704149,5.544928964343111,24.77655,25.77774,350.8331,0.1910514,0.2338821,-0.1237853,17.0799996182323,18
13.22985,0.2833334,-33.02057,4.658735775872172,-0.2075123627682795,5.58742793199972,6.894129,33.29708,357.9815,0.05255964,0.2869521,-0.03406858,17.0999996177852,18
13.32594,0.4833329,-32.93972,4.327483861463415,-0.1866040758831341,5.5504369033676895,13.7732,32.41307,355.8363,0.1049981,0.2810868,-0.06807526,17.1199996173382,18
13.422,0.6833324,-32.85889,3.925422232747991,-0.1735369080580948,5.454313635482752,20.61116,31.22261,353.498,0.1570059,0.2741135,-0.1018032,17.1399996168911,18
13.70827,0.2833333,-32.51777,3.35518869666293,0.4986613237164815,5.117724471515288,7.639498,39.49438,358.6996,0.05887051,0.3378098,-0.03316372,17.1599996164441,18
13.81106,0.4833333,-32.42977,3.0824300837837697,0.2857463229411322,5.329613546448471,15.26149,38.71561,357.2839,0.1174598,0.331408,-0.06616513,17.1799996159971,18
13.9138,0.6833332,-32.3418,2.73972732198232,0.0937389162919682,5.437303188342913,22.8614,37.6972,355.6896,0.175514,0.3234898,-0.09886506,17.19999961555,18
14.01651,0.8833333,-32.25386,2.343456555330216,-0.1317213046033595,5.463994593497091,30.42825,36.36527,353.83,0.2327569,0.3140919,-0.1311089,17.219999615103,18
14.37954,0.2833336,-31.79201,2.1904385324461053,-0.1249265077876796,5.729363536429773,7.17837,43.97658,359.6436,0.05688605,0.3738614,-0.02631735,17.239999614656,18
14.47124,0.4833335,-31.70663,1.9967867553346128,-0.0726562305621297,5.860231340735748,14.35081,43.40084,359.2121,0.1135301,0.367647,-0.05252187,17.2599996142089,18
14.56291,0.6833333,-31.62128,1.7783203557122924,-0.0282264574337199,5.883622923783904,21.51605,42.74397,358.6858,0.1697085,0.3599864,-0.07851076,17.2799996137619,18
14.65456,0.8833333,-31.53595,1.5510840649695066,-0.0449539194199659,5.826707783272003,28.67228,41.97332,358.0348,0.2252001,0.3509112,-0.1041813,17.2999996133149,18
14.87295,0.2833333,-31.22063,1.6943344826982614,-0.069521063723261,6.1008961698020805,3.219636,40.2434,359.2617,0.02416229,0.3440424,-0.015711,17.3199996128678,18
14.91858,0.4833333,-31.18688,1.8099513535393756,-0.0486128544598741,6.247171414297547,6.428947,39.68605,358.4909,0.04827666,0.3395755,-0.03140002,17.3399996124208,18
14.96419,0.6833333,-31.15313,1.915150164558657,-0.0355448877666642,6.294921437383575,9.624803,39.08094,357.6812,0.0723017,0.334825,-0.04705568,17.3599996119738,18
15.24775,0.2833335,-30.74946,1.8925187781869344,0.6366542231984833,6.054997220962608,3.142262,36.00232,358.8156,0.02288155,0.3091731,-0.01829882,17.3799996115267,18
15.29632,0.4833335,-30.71785,2.159825468642433,0.4237395463262802,6.099594807457166,6.263891,35.41132,357.5968,0.04566796,0.3046977,-0.03655969,17.3999996110797,18
15.34488,0.6833332,-30.68626,2.3948459325608766,0.2317329241708829,6.02671354174327,9.368668,34.74974,356.3396,0.06839456,0.2999621,-0.0547532,17.4199996106327,18
15.39343,0.8833331,-30.65467,2.6139223642946607,0.0062728454514396,5.862130817506905,12.45383,34.0124,355.0337,0.09102919,0.2949705,-0.07288034,17.4399996101856,18
15.77636,0.2833333,-30.07353,2.933766049228641,0.0130675038372933,5.79663054482884,4.880603,32.34063,359.4826,0.03963731,0.2784228,-0.01618998,17.4599996097386,18
15.82962,0.4833335,-30.00643,3.19129921053376,0.0653370957088742,5.604315778573934,9.756424,31.77937,358.9177,0.07920865,0.2735547,-0.03233216,17.4799996092916,18
15.88288,0.6833336,-29.93937,3.403838931792276,0.1097662746954183,5.309049590821523,14.62618,31.15928,358.2963,0.1186402,0.2681863,-0.04838843,17.4999996088445,18
16.20394,0.2833333,-29.42008,3.5888669400928386,0.0930389612446382,4.934696630479124,4.020671,31.48372,359.7088,0.03307486,0.2712216,-0.01196192,17.5199996083975,18
16.24491,0.4833332,-29.36313,3.587177669319125,0.0684718416827362,4.329668308555174,8.037187,30.96154,359.3804,0.06609713,0.26662,-0.02390292,17.5399996079504,18
16.28586,0.6833332,-29.3062,3.5539776578195124,0.0893806184300093,3.693467889345296,12.04906,30.40991,359.011,0.09902546,0.2616885,-0.03580771,17.5599996075034,18
16.32683,0.8833333,-29.24927,3.5047506694914503,0.1024486703242079,3.051211605118862,16.05317,29.8229,358.5981,0.1318031,0.2564366,-0.04763407,17.5799996070564,18
16.6618,0.2833332,-28.69508,3.455068117225228,0.0543601092974725,2.428118905048894,6.681436,28.27704,359.5485,0.05554693,0.2440727,-0.01804886,17.5999996066093,18
16.72459,0.4833333,-28.59593,3.082197279485115,-0.0015696809059825,1.4655349367735973,13.35707,27.70001,359.0265,0.1108934,0.2387073,-0.0360314,17.6199996061623,18
16.78737,0.6833328,-28.4968,2.6941376056880983,-0.0120238123698887,0.5546019075386361,20.02563,27.03844,358.4148,0.1658501,0.2325274,-0.05388649,17.6399996057153,18
16.85013,0.8833326,-28.39768,2.305993070660662,-0.0303179223506017,-0.2830122295531865,26.68513,26.26394,357.686,0.2202283,0.225555,-0.0715529,17.6599996052682,18
17.23733,0.2833337,-27.73882,1.704399463696756,0.6105186551831778,-1.337975666306818,6.646153,27.39439,359.1266,0.05451411,0.2368149,-0.02111849,17.6799996048212,18
17.3049,0.4833332,-27.64273,0.9656254083560613,0.3662413718750759,-2.3458523147892265,13.28183,26.74478,358.1718,0.1088318,0.231493,-0.04215997,17.6999996043742,18
17.37245,0.6833332,-27.54665,0.2143887917936169,0.1428723067163541,-3.233563378895713,19.904,25.95572,357.1041,0.1627655,0.2253802,-0.06305224,17.7199996039271,18
17.77188,0.283333,-27.01508,-0.5327592052862933,-0.113950121442142,-3.984384505604851,6.551993,31.34636,357.946,0.05017806,0.2706512,-0.03266423,17.7399996034801,18
17.86278,0.4833332,-26.9363,-1.6952188916282438,-0.138517121740082,-5.018332857079027,13.08042,30.49273,355.7741,0.1001844,0.2651326,-0.06527238,17.7599996030331,18
17.95365,0.6833333,-26.85754,-2.8666574380193275,-0.1176083776619002,-5.919268848311607,19.57163,29.34903,353.425,0.1498348,0.2586598,-0.09765445,17.779999602586,18
18.04449,0.8833328,-26.77882,-4.027446374784191,-0.1045400717328514,-6.672812982946656,26.0105,27.85562,350.8179,0.1989511,0.251256,-0.1296902,17.799999602139,18
18.58895,0.2833333,-26.13492,-5.280698073141412,-0.7929425529285316,-7.206042692827722,7.264329,38.53555,358.0717,0.05425226,0.3302804,-0.03675452,17.819999601692,18
18.69483,0.4833333,-26.05718,-6.644088950537451,-0.5585950994623823,-7.853340784778691,14.51305,37.66441,356.0101,0.1083308,0.3241799,-0.07343211,17.8399996012449,18
18.80068,0.6833333,-25.97947,-7.907518891454405,-0.3075218537054386,-8.292084897808653,21.72238,36.47789,353.7442,0.161925,0.3166812,-0.1097822,17.8599996007979,18
18.9065,0.8833331,-25.90178,-9.04556121143032,-0.091992959332014,-8.499616804620803,28.87585,34.89607,351.1711,0.2148035,0.3078178,-0.1456473,17.8799996003509,18
19.29704,0.2833337,-25.46216,-10.318726497864308,0.6421788074298523,-8.896824808286837,7.727118,42.35318,358.648,0.05857408,0.3611388,-0.03531518,17.8999995999038,18
19.40573,0.4833337,-25.37888,-11.629786753606693,0.3796754523577769,-9.089949280136551,15.43627,41.57862,357.1795,0.1168616,0.3547007,-0.0704533,17.9199995994568,18
19.51437,0.6833338,-25.29563,-12.778739913971044,0.1385687138132988,-9.04400369725908,23.12216,40.5536,355.5282,0.1746034,0.3466006,-0.105255,17.9399995990098,18
19.90629,0.283333,-24.79595,-13.741352064782046,-0.1355034274670188,-8.734037098137623,7.925495,46.33067,359.9396,0.06332925,0.3924786,-0.02766907,17.9599995985627,18
20.00736,0.4833329,-24.70152,-15.05949375106481,-0.1768321513513477,-8.754263534140257,15.84788,45.82601,359.8087,0.1263369,0.3858272,-0.05519609,17.9799995981157,18
20.1084,0.6833325,-24.60711,-16.18333336238108,-0.1721979252080613,-8.58959919815915,23.76651,45.2764,359.5953,0.1887215,0.3773307,-0.0824495,17.9999995976686,18
20.2094,0.8833321,-24.51273,-17.092250107598836,-0.1749166114053253,-8.220448385439365,31.68044,44.65145,359.2773,0.2501847,0.3670318,-0.1092986,18.0199995972216,18
20.28584,0.2833332,-24.43763,-18.08756582169292,0.4819838822899827,-8.16992849388344,7.641413,53.21197,1.013349,0.06352764,0.4463128,-0.02195222,18.0399995967746,18
20.38224,0.4833337,-24.34387,-19.128841902517145,0.254258129637684,-7.807257207662165,15.28644,52.93249,1.998209,0.1267487,0.4395677,-0.04379627,18.0599995963275,18
20.47861,0.6833333,-24.25013,-19.91727356836213,0.0479284512931955,-7.247831469297274,22.93283,52.78253,2.989413,0.1893777,0.4308338,-0.06543367,18.0799995958805,18
20.57496,0.8833331,-24.15641,-20.43122994336493,-0.1913665322154502,-6.471246312738298,30.57815,52.77633,4.027786,0.2511338,0.4201542,-0.08675825,18.0999995954335,18
20.56935,0.283333,-24.13139,-21.274974134800587,-0.1979178940373916,-5.914011381029752,7.522071,39.80714,0.4806121,0.06310133,0.3394433,-0.01839586,18.1199995949864,18
20.64716,0.4833327,-24.02536,-21.860432503924837,-0.1585061805566446,-5.242133239352228,15.04446,39.42113,0.9279726,0.1259442,0.3333574,-0.03659279,18.1399995945394,18
20.72495,0.6833326,-23.91937,-22.17076202615456,-0.1264468524422332,-4.441187264445681,22.56732,39.08129,1.340977,0.1882226,0.32583,-0.05462632,18.1599995940924,18
20.80272,0.8833326,-23.8134,-22.189883663198437,-0.1550563425953351,-3.496739171710761,30.09007,38.78154,1.730266,0.2496671,0.316895,-0.07241833,18.1799995936453,18
20.75628,0.2833332,-23.73117,-22.29203525823415,0.5489026693694001,-3.066313907265481,7.81319,18.16774,359.9599,0.06722052,0.1575368,-0.01110128,18.1999995931983,18
20.79967,0.4833331,-23.60184,-22.40721241182414,0.2566745435472253,-2.436880197642345,15.62955,17.6763,359.8639,0.1341757,0.1523763,-0.02205378,18.2199995927513,18
20.84306,0.683333,-23.47254,-22.21554375306892,-0.0136693936793371,-1.722061071152904,23.44203,17.14774,359.6935,0.200485,0.1465126,-0.03287596,18.2399995923042,18
20.7711,0.2833333,-23.33208,-22.10532224792118,0.4037976073155499,-1.4305858656862007,8.035265,357.9074,359.2231,0.07017368,-0.01774038,-0.005482612,18.2599995918572,18
20.77972,0.4833336,-23.19138,-22.022345396803363,0.177221599495872,-0.9479750477740544,16.06004,357.2535,358.3471,0.1399796,-0.02171324,-0.0109311,18.2799995914102,18
20.78833,0.6833336,-23.05071,-21.65441675655192,-0.0274704674034577,-0.4063332299439857,24.0711,356.4323,357.3261,0.209071,-0.02557335,-0.01631877,18.2999995909631,18
20.68233,0.2833336,-22.85548,-20.99992608074605,-0.2646395855296678,0.2109734866468535,7.229886,335.9795,357.4892,0.06620572,-0.2062719,-0.008269786,18.3199995905161,18
20.67102,0.4833342,-22.72234,-20.602867013287383,0.371735714111244,0.2420440919571831,14.42264,335.0113,354.8374,0.1320983,-0.2088949,-0.0164926,18.3399995900691,18
20.65971,0.6833336,-22.58924,-20.43781286971413,0.1239725581376741,0.4993631182613782,21.55964,333.6481,351.9474,0.1973845,-0.2105798,-0.02463179,18.359999589622,18
20.64837,0.8833333,-22.45618,-20.039939801764124,-0.1019067338403678,0.7588509975929583,28.61563,331.7979,348.6945,0.2617722,-0.2113191,-0.03265129,18.379999589175,18
20.63703,0.9766696,-22.32315,-19.41597771184825,-0.360263382827978,1.0375859807007757,35.55445,329.3143,344.9072,0.3249749,-0.2111101,-0.04051601,18.399999588728,18
20.46006,0.2833333,-22.21392,-19.33846325468658,-0.3853894773296393,1.1155760911135637,5.97877,314.293,356.3898,0.06025036,-0.3861412,-0.008743341,18.4199995882809,18
20.42916,0.4833335,-22.09599,-19.059285165453726,-0.364064249386503,1.1564630874215425,11.90246,313.2447,352.6527,0.1202616,-0.3877426,-0.01744105,18.4399995878339,18
20.39826,0.6833333,-21.97808,-18.590822720969427,-0.3496042314751295,1.1764722521904396,17.74269,311.7662,348.7019,0.179811,-0.3878962,-0.02606119,18.4599995873868,18
20.21344,0.2833336,-21.82261,-18.28671691318908,0.3249638249491914,0.6916764906346522,5.684249,308.9988,356.378,0.05832002,-0.4283615,-0.007152332,18.4799995869398,18
20.176,0.4833336,-21.71114,-18.19945943545192,0.1153941335022182,0.3312346128675507,11.33276,307.9814,352.6512,0.1165194,-0.4297902,-0.01410632,18.4999995864928,18
20.13857,0.6833336,-21.59968,-17.955474825642774,-0.0722915294712471,-0.0984791710495471,16.89957,306.5596,348.7326,0.1742775,-0.4297204,-0.02098174,18.5199995860457,18
20.10117,0.8833331,-21.48824,-17.574510076898537,-0.2924542074306774,-0.5849525731825622,22.35475,304.6828,344.5338,0.231412,-0.4281521,-0.02775605,18.5399995855987,18
19.80293,0.2833334,-21.26589,-17.048085652266472,0.3609267431788912,-1.092820387942865,6.831941,306.0077,357.2285,0.06403484,-0.4517078,0.005528986,18.5599995851517,18
19.7351,0.4833334,-21.15647,-16.939769983473607,0.1301691534085843,-1.3607374067097524,13.63726,305.0291,354.3347,0.1278438,-0.4524938,0.01119753,18.5799995847046,18
19.66731,0.6833335,-21.04707,-16.679053859578353,-0.078704553548802,-1.6685883555073264,20.38161,303.6517,351.2148,0.1910977,-0.4513938,0.0168405,18.5999995842576,18
19.34431,0.2833337,-20.80673,-16.29355082527308,-0.3200557619566973,-2.0044517168171083,7.712959,310.8076,358.9576,0.06492996,-0.4147048,0.01974003,18.6199995838106,18
19.25454,0.4833337,-20.7047,-16.179593579094508,-0.328174310159723,-2.036928382374599,15.41237,310.1154,357.8126,0.1295413,-0.4154994,0.03938618,18.6399995833635,18
19.16478,0.6833335,-20.6027,-15.890687017921303,-0.2898416659844903,-2.1022346093647,23.09361,309.2242,356.5126,0.1935357,-0.4143699,0.05884743,18.6599995829165,18
19.07505,0.8833331,-20.50073,-15.458851624838085,-0.2583735173897845,-2.189897706533893,30.74982,308.0691,354.9834,0.2566179,-0.4113232,0.07803375,18.6799995824695,18
18.98534,0.97667,-20.3988,-14.917090987346423,-0.2870864716861617,-2.2896519652766543,38.37031,306.5444,353.1119,0.3184973,-0.4063746,0.09685677,18.6999995820224,18
18.63027,0.2833333,-20.20272,-14.85058355708833,-0.3226641718518609,-2.0349769486807965,7.588492,314.9791,0.3321801,0.06002427,-0.3821882,0.02800669,18.7199995815754,18
18.53251,0.4833335,-20.11307,-14.595875732013395,-0.3117903008520812,-1.8212392387928364,15.17711,314.5751,0.6139063,0.1197657,-0.3833719,0.05588644,18.7399995811284,18
18.43478,0.6833335,-20.02345,-14.18752905807521,-0.3077812658883141,-1.6422015656684827,22.76538,314.1933,0.851529,0.1789617,-0.3828637,0.08351699,18.7599995806813,18
18.07521,0.2833335,-19.82404,-13.522402476237806,0.3563345343650334,-1.5053361083099208,7.251313,308.4073,0.2304201,0.0560622,-0.4344159,0.02932597,18.7799995802343,18
17.97355,0.4833336,-19.74853,-13.231042370511773,0.1363108343770521,-1.213551713855605,14.50706,307.9848,0.4192954,0.1118821,-0.4353936,0.05862566,18.7999995797873,18
17.87192,0.6833334,-19.67303,-12.775073666629552,-0.0618290089332783,-0.9760852149192836,21.7609,307.5714,0.5618764,0.167217,-0.4346139,0.08769994,18.8199995793402,18
17.77032,0.883333,-19.59753,-12.0508547279655,0.4278419755998746,-0.8544733829587337,29.01308,307.1549,0.6569203,0.2218501,-0.4320802,0.1164335,18.8399995788932,18
17.25851,0.2833333,-19.33974,-11.190768586106632,0.9137833090563388,-0.7780857567907944,7.596886,297.2092,0.263371,0.05535294,-0.5199254,0.03646812,18.8599995784461,18
17.13856,0.4833332,-19.28295,-10.917632362095905,0.4910201825285092,-0.5161065761489887,15.19742,296.7974,0.4891875,0.1104074,-0.5198798,0.07289474,18.8799995779991,18
17.01865,0.683333,-19.22618,-10.499844225070255,0.0645283036289033,-0.3316028588421407,22.79717,296.3992,0.666477,0.164959,-0.5175363,0.1089889,18.8999995775521,18
16.50261,0.283333,-18.98432,-9.972481622554596,-0.2930513944041596,-0.2182857700328195,8.142052,291.9034,0.350383,0.0571145,-0.5586559,0.04227528,18.919999577105,18
16.36854,0.4833332,-18.93658,-9.724800823093934,-0.3911166332718407,-0.2558110384856267,16.28416,291.5114,0.6483437,0.1139228,-0.5577041,0.0843261,18.939999576658,18
16.23452,0.683333,-18.88886,-9.29057996348726,-0.4728737335284901,-0.4761534018461777,24.42712,291.1455,0.9033127,0.1701397,-0.5539215,0.1259564,18.959999576211,18
16.10068,0.8833328,-18.84118,-8.712137576953461,-0.555603283287436,-0.784787224025294,32.56363,290.7967,1.120827,0.2254291,-0.5473236,0.1669288,18.9799995757639,18
15.64135,0.2833336,-18.62062,-7.842569350824007,0.0345258468261545,-1.1972831164316895,8.074484,285.5082,359.3798,0.05931233,-0.603423,0.03831315,18.9999995753169,18
15.50868,0.4833332,-18.57196,-7.676913363320061,-0.1294663658208799,-1.4332391447065491,16.14049,284.9137,358.6692,0.1183111,-0.6019907,0.07642344,19.0199995748699,18
15.37604,0.683333,-18.5233,-7.386935248126131,-0.2741185881031174,-1.6991909303555983,24.19559,284.1789,357.8297,0.1767014,-0.5975454,0.1141399,19.0399995744228,18
15.24344,0.8833324,-18.47466,-7.012356400621863,-0.4537914695343567,-1.9831412681104297,32.23618,283.2481,356.803,0.2341922,-0.590112,0.1512744,19.0599995739758,18
14.62289,0.2833331,-18.17389,-6.280157344802024,0.2375364557431633,-2.406753528689604,7.600197,281.7519,358.2523,0.06101145,-0.6287568,0.03000997,19.0799995735288,18
14.49964,0.4833326,-18.11635,-5.999334559374252,0.042182312257031,-2.6320731020923187,15.17673,280.9383,356.3811,0.1217227,-0.6273886,0.05986973,19.0999995730817,18
14.37642,0.6833322,-18.05881,-5.629240040289281,-0.133831834853194,-2.856774332366808,22.71915,279.8206,354.3073,0.1818524,-0.6231088,0.08944108,19.1199995726347,18
13.79413,0.2833333,-17.77899,-4.899883439303383,0.3754202006489682,-3.230279351210404,7.096892,286.3709,358.3683,0.05806047,-0.5973119,0.02570679,19.1399995721877,18
13.68382,0.483333,-17.71613,-4.092654748697849,0.8783996856795606,-3.5972633058953427,14.16699,285.6065,356.6233,0.1158621,-0.5967852,0.05122872,19.1599995717406,18
13.57353,0.6833331,-17.65331,-3.89566684932892,0.4701301331851185,-3.673007194161862,21.20657,284.5813,354.7054,0.1731859,-0.593847,0.07651326,19.1799995712936,18
13.46326,0.8833327,-17.5905,-3.617019894175249,0.0555884769580362,-3.7458506072891247,28.20464,283.2307,352.5334,0.229798,-0.5885102,0.101472,19.1999995708466,18
12.69682,0.2833333,-17.22035,-3.293306185179209,-0.2925857493072196,-3.808950276765122,7.287415,291.9984,358.2041,0.06142599,-0.5571797,0.02256787,19.2199995703995,18
12.59106,0.4833336,-17.14308,-3.148781934259558,-0.3109517844295423,-3.696496331471524,14.5516,291.1939,356.2844,0.1226082,-0.5567793,0.04498518,19.2399995699525,18
12.48533,0.6833335,-17.06583,-2.911329764422009,-0.2858985846881072,-3.577113977659208,21.78158,290.095,354.1745,0.1832461,-0.5539825,0.06720227,19.2599995695055,18
12.37964,0.8833333,-16.98861,-2.6198379979038924,-0.2707420129737895,-3.4440416543903343,28.96304,288.6267,351.7778,0.2430794,-0.5488035,0.08912363,19.2799995690584,18
11.79266,0.283333,-16.73032,-1.9989099570213047,0.4014900896786021,-3.422480855905487,7.730799,296.2035,358.703,0.06319614,-0.5265285,0.02603214,19.2999995686114,18
11.68193,0.4833329,-16.64994,-1.994157906709008,0.1865512443000985,-2.988828120500772,15.44537,295.482,357.2967,0.126081,-0.5260787,0.05193748,19.3199995681643,18
11.57124,0.683333,-16.56959,-1.9123493449678255,-0.0095351772932147,-2.5540328380917607,23.13908,294.521,355.7173,0.1883756,-0.5231586,0.07759905,19.3399995677173,18
11.46058,0.8833327,-16.48927,-1.7963638413323215,-0.241130382777443,-2.1098479188410764,30.80029,293.2471,353.8773,0.24977,-0.5177847,0.1028891,19.3599995672703,18
10.70249,0.2833335,-16.19658,-1.196068056254732,0.3977873215176348,-1.86712796003029,7.895519,301.1492,0.2383702,0.05894571,-0.4902477,0.03563122,19.3799995668232,18
10.58258,0.4833331,-16.12857,-0.9871255695357108,0.149534754336912,-1.299775776776796,15.79028,300.7507,0.423936,0.1175929,-0.4900685,0.07108444,19.3999995663762,18
10.46271,0.683333,-16.06058,-0.7237882128222131,-0.0798652860856449,-0.717749021226993,23.68383,300.3604,0.5594112,0.1756626,-0.4875542,0.1061907,19.4199995659292,18
9.82522,0.2150823,-16.09957,0.0280588975750046,0.3755135209088573,-0.334295105553366,7.094112,301.2559,358.5132,0.06026248,-0.4887988,0.01905717,19.4399995654821,18
9.739277,0.3791044,-16.17991,0.8233009258814286,0.8241315383044997,0.0673947314844998,14.22417,307.6206,357.2105,0.1217271,-0.4351144,0.03295325,19.4599995650351,18
9.651445,0.5729096,-16.19598,1.0760274219951809,0.3610128403463564,0.931250642499041,18.46387,314.7778,0.03112213,0.1479968,-0.3795345,0.0619292,19.4799995645881,18
9.565932,0.7729096,-16.19999,1.3731682649798205,-0.1088661044681503,1.8010735411795338,21.48641,322.9459,4.130554,0.1653814,-0.3183499,0.09276441,19.499999564141,18
8.732203,0.2833332,-15.99937,2.065478190982275,0.3194709322623669,2.4785808285647004,6.285563,299.0361,1.854308,0.03904504,-0.507202,0.04173074,19.519999563694,18
8.621818,0.4833331,-15.98129,2.326011731249004,0.1007348167130967,3.554375776442249,12.17235,305.5117,4.381418,0.07679285,-0.4584733,0.08229417,19.539999563247,18
8.512193,0.6833331,-15.96333,2.609287487124747,-0.0991490626151249,4.602861368066337,17.69757,312.2533,7.625238,0.113764,-0.4083675,0.1221995,19.5599995627999,18
8.403379,0.8833327,-15.94551,2.874756353045719,-0.3345413249191776,5.635422354725122,22.76892,319.3761,11.62356,0.1497063,-0.3572971,0.1612642,19.5799995623529,18
7.800685,0.2833332,-15.73411,3.6680305660691728,0.3005789129292341,6.3611014710741,7.305839,302.9438,1.563391,0.04946892,-0.4773389,0.04238743,19.5999995619059,18
7.679352,0.4833332,-15.69445,4.0427379895321485,0.0485298046647341,7.377931271208933,14.2649,308.4333,3.807185,0.09740375,-0.4350792,0.08365689,19.6199995614588,18
7.559021,0.6833328,-15.65511,4.378562267284026,-0.1846667266618772,8.322342696156232,20.92032,314.2474,6.80264,0.1442969,-0.3915331,0.1242071,19.6399995610118,18
7.439729,0.8833327,-15.61611,5.187369286172945,0.266914457684147,8.939957024906546,27.18477,320.5655,10.64948,0.1898473,-0.3470447,0.1638589,19.6599995605648,18
6.707416,0.2833332,-15.31766,5.927181862292051,0.7117353747882923,9.473188860456387,7.776558,297.192,0.3122735,0.05646094,-0.5200253,0.03765472,19.6799995601177,18
6.581815,0.4833331,-15.2653,6.084771807704279,0.2448192077699569,10.428396783974062,15.49975,301.9742,1.278654,0.112557,-0.4818621,0.07506717,19.6999995596707,18
6.456245,0.6833328,-15.21294,6.143444053961396,-0.2288569068558712,11.248029104246145,23.11058,307.1219,2.984941,0.1679398,-0.4407452,0.1120072,19.7199995592237,18
5.856514,0.2833334,-14.90543,6.85251410955995,0.1956831685356844,11.578628926177725,7.43026,298.0552,359.3648,0.05840267,-0.5132276,0.02860235,19.7399995587766,18
5.744528,0.4833335,-14.8387,7.09902198934476,-0.0268513903096276,12.213672066801136,14.88549,302.6191,359.3207,0.1164517,-0.4753502,0.0570296,19.7599995583296,18
5.632574,0.6833335,-14.77197,7.254858368337691,-0.2305338507538942,12.641545428337292,22.31783,307.3765,359.9133,0.173809,-0.4347436,0.08511844,19.7799995578825,18
5.52065,0.8833335,-14.70525,7.28466113458216,-0.4697254225640454,12.87637478243004,29.67241,312.5263,1.248635,0.2301414,-0.3916475,0.1127079,19.7999995574355,18
4.815375,0.2833333,-14.2791,7.730520496236939,0.1615968514834636,12.715507058272182,6.806151,304.5972,359.1233,0.05610504,-0.4636286,0.02083151,19.8199995569885,18
4.723384,0.4833333,-14.20217,7.5699427625310625,-0.0942504494398125,12.979972571037418,13.65811,309.089,358.7782,0.1119078,-0.4255917,0.04154619,19.8399995565414,18
4.631465,0.6833332,-14.12527,7.29961398820577,-0.3312457105921718,12.998907480269574,20.51283,313.6931,358.9882,0.1671222,-0.3854513,0.06201867,19.8599995560944,18
4.540078,0.8833328,-14.04866,6.885503624263472,-0.6037499246435423,12.788962539448468,27.29874,318.4874,359.8043,0.2212515,-0.344008,0.08207762,19.8799995556474,18
4.055918,0.2833329,-13.68933,7.071201555482487,-0.0057416641550165,12.111632549397212,6.970316,315.4903,359.1776,0.0589732,-0.377613,0.01639233,19.8999995552003,18
3.978113,0.4833329,-13.59589,6.854581606690299,-0.2949028046634724,11.640184452306348,13.92625,319.6682,358.8521,0.117221,-0.3410394,0.0324572,19.9199995547533,18
3.900663,0.6833327,-13.50288,6.54487187156266,-0.5652115857666307,10.93185700260358,20.85606,323.8976,359.0507,0.1746102,-0.3033125,0.04833754,19.9399995543063,18
3.823398,0.8833324,-13.4101,6.731608565659814,-0.0688078578313281,10.134254538395794,27.7356,328.3545,359.8316,0.2309897,-0.2643751,0.06397935,19.9599995538592,18
3.232218,0.283333,-12.91088,6.461844128273951,-0.1668337611099106,9.778105873124057,7.537264,323.8626,359.1274,0.06484103,-0.3090015,0.01316202,19.9799995534122,18
3.164326,0.4833328,-12.80015,6.0875428716901085,-0.2237766149423013,9.328949806343138,14.96512,327.6163,358.7643,0.1280329,-0.2751151,0.02604408,19.9999995529652,18
3.097128,0.6833326,-12.69055,5.569555473770219,-0.3000318264027926,8.806996287054307,22.32601,331.3471,358.8991,0.1899038,-0.2409517,0.03877168,20.0199995525181,18
2.618187,0.2833334,-12.20871,5.76948515054668,0.378439275564853,8.000273199851303,7.750863,334.1884,0.2297555,0.06543319,-0.2229702,0.01704546,20.0399995520711,18
2.55193,0.4833332,-12.09058,5.440241162966235,0.1717965980584344,7.7216819241537085,15.46914,337.9268,0.9696013,0.1304852,-0.1908051,0.03399252,20.0599995516241,18
2.485692,0.6833332,-11.97248,5.066470767609346,-0.0139380051297219,7.342261672453484,23.11884,341.9492,2.28824,0.1947949,-0.1576118,0.05074866,20.079999551177,18
2.419473,0.8833328,-11.85442,4.614096939471506,-0.2331255138632619,6.8964870578179935,30.65337,346.4503,4.316099,0.2580062,-0.1235755,0.06722275,20.09999955073,18
1.999873,0.2833333,-11.42823,4.265336966338653,-0.2200577877887981,6.703122720791362,7.509432,340.1966,1.357332,0.06247286,-0.1723414,0.02290316,20.119999550283,18
1.929508,0.4833331,-11.31506,3.9132563562717753,-0.1615148417860114,6.413170945596476,14.9107,344.1385,3.24219,0.1245908,-0.1403902,0.04567791,20.1399995498359,18
1.859161,0.683333,-11.20192,3.525273409537278,-0.110812245333787,6.059454009765412,22.15696,348.5091,5.751831,0.1860181,-0.107712,0.06820279,20.1599995493889,18
1.788833,0.8833327,-11.08882,3.068993091488506,-0.1212663405567811,5.675344508199829,29.18366,353.5033,9.038152,0.246424,-0.07448368,0.09035811,20.1799995489419,18
1.273312,0.2833333,-10.51177,2.893825072524837,-0.1395608776749679,5.4044606481244735,7.290233,331.6226,1.120674,0.05924166,-0.2452115,0.02504491,20.1999995484948,18
1.192773,0.4833332,-10.41224,2.7262577686222147,-0.1123799665296678,5.075133593064339,14.45014,335.4172,2.735852,0.1178076,-0.2140668,0.0499063,20.2199995480478,18
1.112517,0.683333,-10.31307,2.538615535938201,-0.0930394156503892,4.718366954042899,21.45966,339.5357,4.910808,0.1755717,-0.1822203,0.07446504,20.2399995476007,18
0.6835594,0.2833332,-9.775056,2.8726735788942297,0.5854316954646033,4.059941962275414,7.666327,328.4503,1.148158,0.06161264,-0.2718807,0.02779365,20.2599995471537,18
0.5946493,0.483333,-9.675707,2.7014303816444296,0.3787886327242645,3.942844494260525,15.13292,332.0114,2.773847,0.1219283,-0.2427416,0.05511438,20.2799995467067,18
0.5065784,0.6833328,-9.577295,2.522801417489904,0.1930534751198558,3.772625093873261,22.41351,335.8431,4.941354,0.1810224,-0.2132628,0.08198011,20.2999995462596,18
0.419019,0.8833326,-9.479456,2.309979664928285,-0.0261351194471461,3.583132975400201,29.49002,340.1555,7.776345,0.2388342,-0.1832544,0.1083509,20.3199995458126,18
-0.1194662,0.2833333,-8.803444,2.355663033312008,-0.0130676408737142,3.4431556050615897,8.070397,322.516,0.5563481,0.06508108,-0.3208306,0.02719611,20.3399995453656,18
-0.2157746,0.4833332,-8.700052,2.409450230338932,0.045474922160209,3.223893226089578,16.09597,325.7587,1.576922,0.1297747,-0.2932988,0.05423214,20.3599995449185,18
-0.3120586,0.683333,-8.596687,2.445115638040553,0.0961768662760276,2.9601555588890425,24.04627,329.3234,3.14407,0.1937138,-0.2641287,0.08095624,20.3799995444715,18
-0.4080468,0.8833327,-8.493632,2.436048091776839,0.0857224080340949,2.6872398747633683,31.85839,333.374,5.398485,0.2563498,-0.2337605,0.1071955,20.3999995440245,18
-0.7774336,0.2833333,-8.000742,2.4795215249237685,0.067427850530397,2.489578269918119,7.867742,319.61,359.5046,0.0658756,-0.3441218,0.01963593,20.4199995435774,18
-0.8624876,0.4833333,-7.892514,2.4926222805816804,0.0946085518965749,2.2386263753720748,15.74813,322.4639,359.3994,0.1313803,-0.3180201,0.03916096,20.4399995431304,18
-0.9475165,0.6833332,-7.784314,2.449185831110821,0.1139487041258275,1.970066125727829,23.6214,325.4433,359.7155,0.1961634,-0.2902402,0.05847194,20.4599995426834,18
-1.342538,0.2833334,-7.257398,2.323194184989454,0.0721325258693286,1.719463130974016,7.478644,317.9484,358.7019,0.06492659,-0.3573121,0.01284675,20.4799995422363,18
-1.415673,0.4833333,-7.146922,2.2521364342259407,0.0224757087447987,1.580044174276529,15.00827,320.6281,357.7459,0.1295102,-0.3314957,0.02562377,20.4999995417893,18
-1.488782,0.683333,-7.036473,2.1450377653825763,0.0182943840523689,1.3808534584835903,22.5712,323.292,357.1268,0.1934278,-0.3040446,0.03826831,20.5199995413423,18
-1.561867,0.8833327,-6.926051,1.9769946315543676,0.0062725308698749,1.1567507593196242,30.15118,326.0391,356.8712,0.2563602,-0.2750979,0.0507185,20.5399995408952,18
-2.052677,0.2833333,-6.264839,1.853837351225757,0.0130676225785471,0.9641998771669428,6.996334,323.5433,358.8367,0.06112107,-0.3116175,0.009461516,20.5599995404482,18
-2.111303,0.4833332,-6.155872,1.714987914963669,0.0653380375369849,0.7029610633249259,14.03663,326.2426,357.9876,0.1219653,-0.2860729,0.01879296,20.5799995400012,18
-2.169929,0.683333,-6.046942,1.535817693667675,0.1097675259651576,0.4058783340357005,21.10565,328.934,357.4572,0.1822508,-0.2592843,0.0280161,20.5999995395541,18
-2.5825,0.2833333,-5.454211,0.9119747253628532,-0.5472727835984423,0.6090113496279085,7.367315,328.2307,358.4297,0.06553132,-0.2722634,0.004430568,20.6199995391071,18
-2.629739,0.4833332,-5.331611,0.6806477894797203,-0.2815643159443248,0.4157080281134259,14.79338,330.8271,357.1781,0.1307007,-0.2466014,0.008780386,20.63999953866,18
-2.676942,0.683333,-5.209106,0.4430451170610459,0.0008707027075542,0.1936319685458019,22.26113,333.3564,356.2346,0.195177,-0.2197927,0.01308993,20.659999538213,18
-2.724121,0.8833327,-5.086662,0.1729729403239401,0.2477614468136164,-0.0235910148305251,29.75751,335.906,355.6085,0.2586637,-0.1919463,0.017339,20.679999537766,18
-3.104485,0.2833333,-4.569196,-0.1558431985553374,0.2930082772148619,-0.202341315246887,7.780801,334.991,359.028,0.06806868,-0.2154478,0.00642756,20.6999995373189,18
-3.149564,0.4833333,-4.440156,-0.4355720951066386,0.2188533314629737,-0.3359401555900728,15.5851,337.6708,358.4155,0.1356606,-0.1899825,0.01281103,20.7199995368719,18
-3.194195,0.6833332,-4.312429,-0.6887968568835587,0.1906615988337834,-0.4743231751376453,23.3306,340.2915,358.1635,0.2018715,-0.1643933,0.0191367,20.7399995364249,18
-3.238534,0.8833329,-4.185536,-0.942489830154071,0.1551173764713982,-0.5816457306621128,31.02903,342.9973,358.3002,0.2666273,-0.138506,0.02540237,20.7599995359778,18
-3.732447,0.2833334,-3.537834,-1.1488900500387595,0.1388782967466205,-0.7061211539403947,7.819197,340.7589,0.5210391,0.0664647,-0.1670373,0.01586722,20.7799995355308,18
-3.789015,0.4833332,-3.413275,-1.297502779833076,0.1686025650896613,-0.8400053990231502,15.60291,343.5457,1.429039,0.1325653,-0.1434374,0.03165048,20.7999995350838,18
-3.84557,0.683333,-3.288752,-1.4158932741729655,0.1909741595329533,-0.9470111704406778,23.32919,346.6002,2.790969,0.1979592,-0.1191162,0.04726904,20.8199995346367,18
-4.270482,0.2833334,-2.727482,-1.9045166228157,-0.4876363623536022,-0.499104291096871,7.516101,338.8646,0.9901189,0.06284802,-0.183553,0.02049553,20.8399995341897,18
-4.336804,0.4833332,-2.612992,-1.8202873576698015,-0.2430104504503767,-0.692874134041404,14.97381,341.7274,2.365348,0.1253697,-0.1600519,0.04088957,20.8599995337427,18
-4.403016,0.6833331,-2.498773,-1.6608987208506951,0.0188297629354173,-0.8845527935633788,22.33445,344.8901,4.200679,0.1871356,-0.1359375,0.06109008,20.8799995332956,18
-4.469065,0.8833328,-2.384881,-1.4519435904965858,0.2456137857462845,-1.0413212259349844,29.55935,348.498,6.613477,0.2478074,-0.1113693,0.08101238,20.8999995328486,18
-4.861331,0.2833333,-1.907177,-1.5702652697923316,-0.4686802352873909,-0.7371044534147462,7.476176,330.5092,0.7809881,0.06131607,-0.2544071,0.0231704,20.9199995324016,18
-4.93997,0.4833332,-1.802188,-1.3197130451578358,-0.2597376993470311,-0.8416152362882481,14.90442,333.28,1.942701,0.1222869,-0.2312236,0.04631952,20.9399995319545,18
-5.018586,0.683333,-1.697229,-1.030320249868386,-0.0335808593105795,-0.912601822185398,22.26328,336.3327,3.540859,0.1826541,-0.2069547,0.0692423,20.9599995315075,18
-5.09718,0.8833328,-1.5923,-1.1080238162005038,-0.4827939883648197,-0.4957706222628424,29.52221,339.8117,5.687089,0.2421288,-0.1817174,0.09183004,20.9799995310605,18
-5.600817,0.2833333,-0.9759999,-0.7921028440379825,-0.2222082199790869,-0.5402013700105401,7.893118,323.6569,0.7564299,0.06333826,-0.3115485,0.02772078,20.9999995306134,18
