pX,pY,pZ,aX,aY,aZ,reX,reY,reZ,rtX,rtY,rtZ,t,ID
-42.00077,0.23,-38.99958,3.9503576089542136,0.5790169998447994,5.25536145083791,0.02428855,359.6646,0.04320062,0.0002108531,-0.002927321,0.0003776153,0.339999992400408,1
-42.00153,0.43,-38.99915,4.258144735415847,0.2598998578414025,5.41350049745806,0.04861722,359.6646,0.08644719,0.0004220552,-0.00292732,0.0007556326,0.359999991953373,1
-42.00115,0.08333334,-38.99937,4.5210203646225295,0.1739438466241396,5.526458696702882,-1.109855e-10,2.688401,2.101011e-09,-5.381567e-13,0.02345857,1.835245e-11,0.369975399552965,1
-42.00304,0.2833333,-38.99848,4.815982520747696,-0.1310604791816604,5.633928122789683,0.04606042,2.409134,0.1094706,0.0004219466,0.02102172,0.0009466503,0.379999991506338,1
-42.00493,0.4833333,-38.99759,5.05718951733445,-0.2013003648659818,5.6912510345378,0.0921083,2.409266,0.2189333,0.0008437834,0.02102169,0.001893231,0.399999991059303,1
-41.99721,0.2833334,-38.97052,5.245285789224866,-0.0621093881559957,5.699640988487509,0.6661532,5.863837,0.4050302,0.005986392,0.05112761,0.00323252,0.419999990612268,1
-42.0031,0.4833333,-38.95811,5.471248882735097,-0.3780905626228851,5.748296921107226,1.332258,5.870903,0.8101687,0.01197237,0.05112405,0.006464886,0.439999990165234,1
-42.00898,0.6833335,-38.94571,5.671284818735074,-0.4553350551542993,5.802740414034247,2.000447,5.882708,1.216192,0.01797684,0.05111804,0.009701787,0.459999989718199,1
-41.97579,0.2833333,-38.89915,6.143172682734011,-0.7460519920132296,6.192268376162467,1.375839,10.09582,0.1152943,0.01204812,0.08797029,-5.424842e-05,0.479999989271164,1
-41.97347,0.4833333,-38.87502,6.50880477301574,-0.7964289781110092,6.46996868124819,2.751663,10.09997,0.2304586,0.02409421,0.08795109,-0.0001107672,0.499999988824129,1
-41.91995,0.2833333,-38.79083,6.871383819147937,-1.058676031359019,6.741803908807974,2.458807,14.8109,359.9943,0.02127006,0.1288613,-0.002815111,0.519999988377094,1
-41.90878,0.4833332,-38.7491,7.126194399403246,-1.078979836794114,6.902587409436066,4.919072,14.81045,359.9872,0.0425415,0.128772,-0.005641728,0.539999987930059,1
-41.89762,0.6833332,-38.7074,7.27839354321177,-0.8826746508764945,6.958898572507984,7.381568,14.80966,359.9798,0.0638123,0.1286231,-0.008470386,0.559999987483025,1
-41.82354,0.2833337,-38.61134,7.416032717894659,-1.1343628068762004,6.992931149254119,3.6797,20.75768,0.003834732,0.03158663,0.1800619,-0.005751168,0.57999998703599,1
-41.8007,0.4833336,-38.55096,7.452782099795456,-1.1401355100997286,6.928300423233658,7.362823,20.75792,0.006386809,0.06316797,0.1797827,-0.01151297,0.599999986588955,1
-41.68721,0.2833333,-38.41703,7.394744632268448,-0.9253265501441916,6.772481518022865,4.736783,27.2792,0.06818088,0.04029921,0.2355884,-0.009167158,0.61999998614192,1
-41.65018,0.4833332,-38.34269,7.37773862812508,-1.1545388066810631,6.655194429021705,9.476561,27.28751,0.1353873,0.08055104,0.2349832,-0.01834085,0.639999985694885,1
-41.61317,0.683333,-38.26838,7.262392910737972,-1.1338627929548204,6.4480458221188925,14.21802,27.30166,0.2042677,0.1206789,0.2339753,-0.02748837,0.65999998524785,1
-41.50581,0.2833333,-38.20228,7.0561931710453365,-0.888633072776473,6.159733063052947,3.63197,33.85861,0.1909105,0.03080117,0.2909944,-0.007634723,0.679999984800816,1
-41.47323,0.4833332,-38.14785,6.841641347412995,-1.083451395118475,5.866100922243035,7.262348,33.87682,0.3826998,0.06155672,0.2905548,-0.01526333,0.699999984353781,1
-41.44068,0.6833335,-38.09342,6.5422933614841625,-1.0244091941451992,5.500913314544008,10.891,33.90728,0.5756876,0.09223185,0.2898222,-0.02288818,0.719999983906746,1
-41.33308,0.2833332,-38.04631,6.262306786302652,-1.1637160491310277,5.163924995268417,3.659474,39.4316,0.2281776,0.03072906,0.3371224,-0.008898014,0.739999983459711,1
-41.29555,0.4833335,-37.9945,5.902751469255584,-1.0475593254139643,4.764020423860757,7.317777,39.45361,0.4580995,0.06141717,0.3366048,-0.01778471,0.759999983012676,1
-41.17331,0.2833328,-37.92167,5.473087865062063,-0.7012731343163328,4.311854254054531,3.619175,42.79398,0.2810006,0.03029558,0.3645728,-0.009238468,0.779999982565641,1
-41.13393,0.483333,-37.87206,5.0608952202248005,-0.7894593581875955,3.88975100056156,7.237137,42.82077,0.5640489,0.060551,0.3640241,-0.01846578,0.799999982118607,1
-41.09457,0.6833329,-37.82245,4.587504952651656,-0.6182094439984066,3.4291488003200925,10.8539,42.86599,0.8514842,0.09073682,0.3631107,-0.02767287,0.819999981671572,1
-41.00733,0.2833335,-37.77273,4.162598856686564,-0.6397329833067298,3.035030621844072,3.576551,46.41551,0.323226,0.02979196,0.3937919,-0.009706105,0.839999981224537,1
-40.96595,0.4833332,-37.72568,3.686442301176001,-0.6403134983458367,2.6142209685196534,7.152017,46.44596,0.6487389,0.05954605,0.3932119,-0.01940132,0.859999980777502,1
-40.85232,0.2833333,-37.6418,3.1693227218493902,-0.0167256707619662,2.179973045838139,3.529574,49.119,0.426546,0.02955652,0.4153337,-0.009416148,0.879999980330467,1
-40.81056,0.4833333,-37.59594,2.709573280708355,-0.0428611400730588,1.818685482917438,7.057929,49.15864,0.8560749,0.05907551,0.4147341,-0.01882169,0.899999979883432,1
-40.76881,0.6833335,-37.55009,2.229936256087392,-0.0517472036131339,1.4639840696961317,10.58484,49.22551,1.291908,0.08852833,0.4137359,-0.02820769,0.919999979436398,1
-40.64263,0.2833333,-37.42203,1.82960479984726,-0.0433841014782295,1.1886184807899198,6.411483,49.87206,1.568085,0.05646385,0.4202131,-0.01118599,0.939999978989363,1
-40.56712,0.483333,-37.31801,1.425476942608512,-0.0177716074240046,0.9138298802989482,13.22578,49.8059,3.254868,0.1162904,0.4151458,-0.02288427,0.959999978542328,1
-40.21017,0.2833334,-36.90067,1.0320550513556483,-0.0282260245464416,0.6481213791916431,2.526145,48.91755,359.5505,0.01844088,0.4140134,-0.01269648,0.979999978095293,1
-40.17171,0.4833334,-36.86026,0.6907905571689952,-0.0480886020593042,0.4364251564354831,5.704133,48.40969,359.8353,0.04479452,0.4095571,-0.02170952,0.999999977648258,1
-40.0407,0.2833333,-36.72599,0.3622779678081755,-0.0507016136790477,0.2320778761590247,3.270639,47.91552,0.2504937,0.02696638,0.4058397,-0.00959131,1.01999997720122,1
-40.00105,0.4833336,-36.68465,0.0958528636590614,-0.0360660567276723,0.0679671897944658,6.54492,47.40724,0.4722575,0.05392198,0.4011313,-0.01918057,1.03999997675419,1
-39.96141,0.6833335,-36.64332,-0.1609526132486749,-0.0041810908690504,-0.1063652195117654,9.820155,46.90815,0.6664095,0.08082531,0.3960899,-0.02875086,1.05999997630715,1
-39.8443,0.2833336,-36.53135,-0.3949633757540312,-0.0083627785804205,-0.2813198748137395,3.342864,46.06609,0.1587742,0.02738443,0.3910579,-0.01013769,1.07999997586012,1
-39.80402,0.4833336,-36.48906,-0.6684069941303505,0.6183604393860185,-0.5121755872003178,6.686642,45.55168,0.2878212,0.05474205,0.3863317,-0.0202648,1.09999997541308,1
-39.76375,0.6833336,-36.44678,-0.808243744505404,0.3317427489426394,-0.6470036258178204,10.03049,45.04102,0.3875403,0.0820442,0.3812725,-0.03037114,1.11999997496605,1
-39.60214,0.2833333,-36.29017,-1.0304507376075236,0.5179996238261209,-0.8808502326753924,3.326719,43.89994,0.07799583,0.02717718,0.3736209,-0.01021917,1.13999997451901,1
-39.56269,0.4833335,-36.24758,-1.152559871536873,0.2711089296384289,-1.059926376921272,6.652894,43.38003,0.1262639,0.05432303,0.3689025,-0.02042297,1.15999997407198,1
-39.52324,0.683333,-36.205,-1.2672345396625744,0.0169006588700298,-1.2763948830464926,9.978518,42.85905,0.1443172,0.08141494,0.36387,-0.03060677,1.17999997362494,1
-39.41369,0.2833332,-36.09972,-1.4485725959299884,0.4213008706528609,-1.5156523102554509,3.289211,42.11523,359.9802,0.02672131,0.3591632,-0.01047291,1.19999997317791,1
-39.37476,0.4833331,-36.05756,-1.5343866486920064,0.1524560853366992,-1.69130090931775,6.577112,41.58838,359.9301,0.05341193,0.3544602,-0.02093407,1.21999997273088,1
-39.24623,0.2833333,-35.93107,-1.5939250300823176,-0.1237070408426581,-1.869521471853432,3.254946,40.7398,359.9144,0.02636494,0.347959,-0.01058588,1.23999997228384,1
-39.20784,0.4833333,-35.88919,-1.615600240079182,-0.1681367603937588,-1.9469519215370248,6.508003,40.20845,359.7985,0.05270023,0.3432679,-0.02115992,1.25999997183681,1
-39.16947,0.683333,-35.84733,-1.6159159280380706,-0.1942723848612547,-2.016540212586321,9.758817,39.66663,359.6511,0.07898388,0.3382974,-0.03171253,1.27999997138977,1
-39.05811,0.2833333,-35.73854,-1.686587386752116,0.2247637136129742,-2.095953179514897,3.216524,38.32832,359.843,0.0260608,0.3281825,-0.01050698,1.29999997094274,1
-39.02097,0.4833333,-35.69638,-1.660465286242875,-0.0294454306833541,-2.088660279771517,6.430513,37.79264,359.6557,0.05209287,0.3235048,-0.0210023,1.3199999704957,1
-38.89101,0.2833336,-35.56676,-1.6059589379851928,-0.2909721482499205,-2.057394339433216,3.194211,36.60024,359.7682,0.02582666,0.3139253,-0.01067094,1.33999997004867,1
-38.85436,0.4833336,-35.52459,-1.4805526041890644,-0.3207667565431662,-1.9083393299111933,6.385242,36.05946,359.506,0.05162558,0.3092554,-0.02132991,1.35999996960163,1
-38.81772,0.6833336,-35.48243,-1.3269613825045354,-0.3322663164251733,-1.7256375089796805,9.572669,35.50017,359.2114,0.07737537,0.3043423,-0.03196897,1.3799999691546,1
-38.70246,0.2833332,-35.37005,-1.2219451089413411,0.1014047462524427,-1.5443782679828608,3.538539,37.20549,359.765,0.02860757,0.318912,-0.01179195,1.39999996870756,1
-38.6616,0.4833333,-35.32349,-0.942148389092381,-0.138168778106505,-1.1792325638376084,7.073772,36.66327,359.4961,0.05717945,0.314172,-0.02356886,1.41999996826053,1
-38.52849,0.2833333,-35.19138,-0.6325160339732179,-0.3850607022201315,-0.7713750899338407,3.513355,38.44603,359.8059,0.02838835,0.3291398,-0.01169162,1.43999996781349,1
-38.48796,0.4833333,-35.14819,-0.3841218025507658,0.0266565325112114,-0.4100008972958875,6.891733,37.89568,359.5081,0.05545691,0.3243612,-0.02356877,1.45999996736646,1
-38.44672,0.6833333,-35.10876,-0.0545527209267149,-0.2348699985366253,0.0101023631663572,10.1207,37.56969,359.0181,0.08075513,0.3214639,-0.03648292,1.47999996691942,1
-38.33572,0.2833336,-35.00112,-0.0699735946463491,-0.0235227494483085,0.0275023216984031,3.204032,39.40389,359.7086,0.02546312,0.3370613,-0.0118182,1.49999996647239,1
-38.29619,0.4833339,-34.96227,-0.081627783172351,0.181552040206307,0.0522270475829067,6.354494,38.90237,359.3537,0.05038545,0.3327813,-0.0237667,1.51999996602535,1
-38.16562,0.2833333,-34.83634,-0.1279728872517651,0.1679618405850945,0.0315133978268562,3.1099,40.35857,359.7609,0.02475053,0.3448842,-0.01131822,1.53999996557832,1
-38.12725,0.4833333,-34.79858,-0.1750159773470301,0.1758019030832439,0.0131771692861555,6.173689,39.67941,359.4662,0.04907401,0.3391297,-0.0226515,1.55999996513128,1
-38.08888,0.6833333,-34.76128,-0.131983362269132,-0.2751187317599587,0.0806660487276147,9.218591,38.99873,359.1181,0.07318862,0.33329,-0.03405472,1.57999996468425,1
-38.05051,0.8833333,-34.72409,-0.1760233440092093,-0.0397272379200386,0.0714138572850018,12.25493,38.2989,358.7255,0.09720044,0.3272606,-0.04545904,1.59999996423721,1
-37.91207,0.283333,-34.58707,-0.1143396923193975,-0.2374844637131163,0.1679923493494506,3.319706,40.78234,359.9259,0.02692559,0.3482989,-0.01069811,1.61999996379018,1
-37.87294,0.483333,-34.54484,-0.0534519032413811,-0.4425595815396401,0.2644617266503282,6.611929,40.21758,359.7929,0.05353212,0.3433289,-0.02152093,1.63999996334314,1
-37.74846,0.2833338,-34.4225,-0.1300190700210635,0.0109747281494073,0.2316697564515202,3.30988,41.43089,359.944,0.02684023,0.3535926,-0.01067253,1.65999996289611,1
-37.70977,0.4833339,-34.38119,-0.1215228761879956,-0.2087360440259371,0.278982762931264,6.548118,40.65953,359.826,0.0530278,0.3469367,-0.02126322,1.67999996244907,1
-37.67104,0.6833339,-34.34003,-0.1136560197212404,-0.4357643112399372,0.3236078001739919,9.781315,39.8972,359.6517,0.07910554,0.3401769,-0.03193334,1.69999996200204,1
-37.56499,0.2833335,-34.23656,-0.1816964318222318,-0.0041838590300224,0.2982058048330422,3.362324,41.32525,359.9476,0.02728911,0.3527252,-0.01077999,1.719999961555,1
-37.52569,0.4833334,-34.19454,-0.1115314746927467,-0.2458473174758115,0.4101109703824406,6.655872,40.54184,359.8249,0.05392692,0.3459581,-0.02154296,1.73999996110797,1
-37.40131,0.2833337,-34.07095,-0.1491607963779415,-0.0146369133722243,0.4176438790466825,3.382946,41.72548,359.9839,0.02753217,0.3559791,-0.01064337,1.75999996066093,1
-37.3615,0.4833335,-34.02732,-0.189453154249982,0.2103012348043215,0.4190557500358629,6.767558,40.95271,359.925,0.05506596,0.349247,-0.02125956,1.7799999602139,1
-37.32195,0.6833336,-33.98411,-0.1461845028126873,-0.2636177976853125,0.4961929532480376,10.11955,40.146,359.8116,0.08227557,0.3420154,-0.03180806,1.79999995976686,1
-37.21764,0.2833332,-33.88136,-0.1860505246931865,-0.0512249837527715,0.4942333392138174,3.380555,42.64006,0.08382564,0.02774384,0.3633985,-0.01004313,1.81999995931983,1
-37.17869,0.4833333,-33.83791,-0.1205467673122555,-0.271980517025588,0.5930843019500003,6.723597,41.859,0.1076805,0.05510678,0.3565526,-0.02007141,1.8399999588728,1
-37.05544,0.2833333,-33.71432,-0.1608608610193656,-0.0198622107480673,0.5861398899326851,3.324772,43.47288,0.1327329,0.02737612,0.3701502,-0.009668,1.85999995842576,1
-37.01687,0.4833333,-33.67081,-0.1985794172372266,0.2259835882682035,0.5743399014321824,6.650136,42.70169,0.2208134,0.05472042,0.3633603,-0.01932509,1.87999995797873,1
-36.97831,0.6833332,-33.6273,-0.224846263598458,0.4132865470424264,0.5653214900037113,9.975573,41.92984,0.2637526,0.08200789,0.3562536,-0.02896677,1.89999995753169,1
-36.81127,0.2833332,-33.45665,-0.2182241953226835,0.3563120210055963,0.5823481497241936,3.359943,43.31292,0.2233444,0.02796637,0.3688282,-0.009008389,1.91999995708466,1
-36.77357,0.4833329,-33.41153,-0.2094435887404842,0.3218136142118181,0.5919583072849797,6.721678,42.55214,0.402367,0.05590001,0.362044,-0.01800597,1.93999995663762,1
-36.73588,0.6833329,-33.36642,-0.2117418897735064,0.3097914467091132,0.5864050584092375,10.08648,41.79632,0.5385135,0.08379351,0.3549372,-0.02698371,1.95999995619059,1
-36.62041,0.2833333,-33.248,-0.2198519610880609,0.3202456380227942,0.5660653434231122,3.398807,42.60844,0.2489895,0.02841831,0.3630992,-0.00875106,1.97999995574355,1
-36.58316,0.4833333,-33.20166,-0.2269100266944974,0.2998601246302091,0.5406608303841445,6.799957,41.85248,0.453949,0.0568062,0.3563149,-0.01748827,1.99999995529652,1
-36.54591,0.6833333,-33.15532,-0.2406120009530852,0.2752926435303662,0.504775524157143,10.20253,41.10291,0.6151747,0.0851333,0.3492059,-0.02620665,2.01999995484948,1
-36.44889,0.2833333,-33.06015,-0.2551618470163461,0.2732011302632302,0.4647692865386865,3.38455,41.436,0.1829631,0.02818632,0.3535699,-0.008954545,2.03999995440245,1
-36.4119,0.483333,-33.01401,-0.3713020941166078,0.7204628483612149,0.3246378522522768,6.770194,40.67638,0.3213121,0.05633823,0.3467977,-0.01789766,2.05999995395541,1
-36.29787,0.2833333,-32.89674,-0.3619390804061666,0.498661921255973,0.3095528690572138,3.354183,40.38177,0.1348666,0.02787412,0.3449685,-0.00899719,2.07999995350838,1
-36.26144,0.4833333,-32.85088,-0.35119890334839,0.2737249513446393,0.2964552991148501,6.708658,39.61939,0.2253419,0.05571337,0.3382076,-0.01798211,2.09999995306134,1
-36.12915,0.2833332,-32.71064,-0.2264222205417638,-0.4355863207113623,0.4019392198238734,3.315311,38.80548,0.03899542,0.02739763,0.3320579,-0.009289061,2.11999995261431,1
-36.09313,0.4833332,-32.66539,-0.2139984789116056,-0.2451470002807212,0.393844376661594,6.62985,38.03623,0.03349727,0.05476288,0.3253058,-0.01856706,2.13999995216727,1
-36.05712,0.6833334,-32.62014,-0.1998644885955443,-0.0609801801419237,0.3811769845958253,9.942741,37.26092,359.9828,0.08206919,0.3182736,-0.02782573,2.15999995172024,1
-35.9427,0.2833332,-32.49973,-0.2782291348895462,0.5448346173881256,0.2762390732920821,3.279976,36.98138,359.9369,0.02696725,0.3170356,-0.009598611,2.1799999512732,1
-35.90709,0.483333,-32.45491,-0.2389824405660654,0.2414908092698083,0.2847795838358742,6.557832,36.20568,359.8292,0.05390304,0.3102956,-0.01918657,2.19999995082617,1
-35.8715,0.683333,-32.41011,-0.1969616002996552,-0.064989101243022,0.2932408957916372,9.832734,35.4181,359.6758,0.08078261,0.3032942,-0.02875432,2.21999995037913,1
-35.71394,0.2833335,-32.24136,-0.1295708413836642,-0.1355545687943392,0.3315511720065416,3.236572,34.67638,359.8579,0.02658818,0.2979256,-0.009598852,2.2399999499321,1
-35.67949,0.4833334,-32.19656,-0.0639740772788322,-0.1836439220683064,0.3647135312898975,6.46999,33.89645,359.6716,0.05314613,0.2911964,-0.01918704,2.25999994948506,1
-35.64504,0.6833336,-32.15177,-0.0940946828506419,0.2176187434333129,0.3035658095015598,9.69957,33.10036,359.4392,0.07965115,0.2842283,-0.02875642,2.27999994903803,1
-35.53817,0.2833333,-32.03779,-0.047534694559264,-0.0501807989380659,0.3129138651243828,3.195924,32.21577,359.7887,0.02627984,0.2773879,-0.009507797,2.29999994859099,1
-35.50504,0.4833332,-31.99279,0.0006294854813901,-0.3211168426153368,0.3211764270431665,6.387774,31.43257,359.5334,0.05253036,0.2706695,-0.01900519,2.31999994814396,1
-35.37812,0.2833334,-31.8533,-0.019291890906711,0.0707382787655844,0.2655217558858531,3.436646,32.34433,359.7516,0.02819569,0.2784612,-0.01043305,2.33999994769692,1
-35.34203,0.4833334,-31.80516,0.0918944326793287,-0.2064698236045397,0.3413132451956038,6.86868,31.55736,359.4555,0.05635706,0.2717047,-0.02085338,2.35999994724989,1
-35.30596,0.6833334,-31.75703,0.1042999580244661,-0.006621884632141,0.3217002388900489,10.29534,30.74602,359.1091,0.08445732,0.2646974,-0.03125129,2.37999994680285,1
-35.2699,0.8833336,-31.70893,0.1163230372125703,0.1911355108659734,0.3007680546955171,13.71749,29.90382,358.7086,0.1124845,0.2574458,-0.04161983,2.39999994635582,1
-35.13361,0.2833334,-31.56725,0.202588184780911,-0.305783134386038,0.350541444457729,3.554962,33.66513,359.7932,0.02916671,0.2894897,-0.0107081,2.41999994590878,1
-35.09587,0.4833333,-31.51786,0.1415725506608645,-0.1122078739480451,0.2556956774136729,7.105922,32.88401,359.5375,0.0582962,0.2827383,-0.02140421,2.43999994546175,1
-34.97441,0.2833332,-31.38615,0.0791796050937563,0.0792769266485389,0.1583334233682443,3.570155,34.93726,359.8492,0.02931897,0.3000767,-0.01060548,2.45999994501472,1
-34.93777,0.4833332,-31.3398,0.138791043282751,-0.4239137768607366,0.182246945235704,6.94388,34.20545,359.6269,0.0569256,0.2937329,-0.02091597,2.47999994456768,1
-34.90165,0.6833331,-31.29604,0.1051839487759096,-0.2366107967427082,0.1173930762569774,10.17569,33.6267,359.3089,0.0831527,0.2886219,-0.03140228,2.49999994412065,1
-34.80197,0.2833331,-31.18891,0.1718725051852594,-0.478275005357942,0.1541227521621593,3.201242,36.01955,359.9419,0.02640712,0.3090721,-0.009118319,2.51999994367361,1
-34.76825,0.4833331,-31.14505,0.2325850746833175,-0.7230757731251392,0.1821360445618225,6.364614,35.4388,359.8421,0.05246073,0.3039588,-0.01820636,2.53999994322658,1
-34.73465,0.6833332,-31.10156,0.2242817417391123,-0.3050856732535463,0.151717679828355,9.509185,34.8688,359.7026,0.07830504,0.2987868,-0.027302,2.55999994277954,1
-34.58827,0.2833335,-30.94339,0.3056496270644295,-0.5561583085776358,0.2113415496956001,3.425759,37.44474,0.05663714,0.02846782,0.3208253,-0.009126582,2.57999994233251,1
-34.55246,0.4833337,-30.89546,0.2955719094751892,-0.3301755201356951,0.1858210134694999,6.853175,36.90014,0.08121021,0.05692129,0.3158721,-0.0182447,2.59999994188547,1
-34.41914,0.2833332,-30.74669,0.2854666714438458,-0.1062834279722676,0.1601836525744033,3.571835,38.29127,0.07113545,0.02964477,0.3277928,-0.009635072,2.61999994143844,1
-34.38173,0.4833331,-30.69942,0.3036072861803376,-0.0968743618204076,0.1697245690860924,7.023292,37.91865,0.057331,0.05809073,0.3242578,-0.01942811,2.6399999409914,1
-34.34448,0.683333,-30.65266,0.3098674419115781,-0.0618525351216578,0.1667442071298914,10.44776,37.57673,0.00906996,0.08622152,0.3207289,-0.0292494,2.65999994054437,1
-34.30724,0.8833328,-30.60591,0.3131044086867476,-0.0545344884545136,0.1604368162490743,13.87197,37.22692,359.9395,0.1142763,0.3169065,-0.03904154,2.67999994009733,1
-34.16628,0.2833333,-30.45509,0.3073860371581247,-0.0482618824890513,0.1500588043767052,3.593163,39.39478,0.08451216,0.02976509,0.3368648,-0.009872953,2.6999999396503,1
-34.1278,0.4833335,-30.40608,0.2955760475599334,-0.0163766847234415,0.1349297919587968,7.161911,39.04819,0.1531332,0.05931316,0.3334717,-0.01961687,2.71999993920326,1
-34.00013,0.2833332,-30.26694,0.2867000036735518,-0.0121946102971548,0.1243337596417255,3.539568,40.5812,0.1119689,0.02930585,0.3465879,-0.009793838,2.73999993875623,1
-33.96127,0.4833329,-30.21886,0.2717149356259618,-0.0090586260340741,0.112588524537486,7.078768,40.24035,0.2030337,0.05857538,0.343231,-0.01957558,2.75999993830919,1
-33.92241,0.6833328,-30.17079,0.2458859073528039,0.0196900188520385,0.090585700185624,10.61744,39.90226,0.2735338,0.08778006,0.3395464,-0.02933602,2.77999993786216,1
-33.81379,0.2833333,-30.0559,0.2184790142617281,0.0207352341805504,0.0676287205867502,3.530432,42.27345,0.1893255,0.02932699,0.3603757,-0.00956744,2.79999993741512,1
-33.77465,0.4833332,-30.00821,0.1903607364716428,0.0207351176172336,0.0468767042505469,7.060912,41.94083,0.3584298,0.05861744,0.3570251,-0.01912301,2.81999993696809,1
-33.73551,0.6833334,-29.96054,0.1642317885208548,0.0463476872895139,0.0279350172707673,10.59124,41.61594,0.5082484,0.0878427,0.3533347,-0.02865779,2.83999993652105,1
-33.58238,0.2833333,-29.79693,0.0366208573560058,0.5244486107358229,-0.0937719296589669,3.499825,43.55561,0.2605193,0.02920055,0.3707697,-0.009219223,2.85999993607402,1
-33.54346,0.4833335,-29.74967,0.0377019690458482,0.3366228912753226,-0.0866270339648274,7.000024,43.23048,0.5015549,0.05836448,0.3674329,-0.01842692,2.87999993562698,1
-33.50454,0.6833338,-29.70241,0.0382500605611078,0.148797689990162,-0.083066381837586,10.50035,42.91759,0.7246146,0.0874635,0.3637514,-0.02761426,2.89999993517995,1
-33.40323,0.2833333,-29.59576,0.1544954150163313,-0.5202658526983288,0.0380289474406971,3.456096,43.73405,0.2860218,0.02891503,0.3722134,-0.008916146,2.91999993473291,1
-33.36501,0.4833333,-29.54885,0.1547550689504717,-0.2864423229380916,0.046507395423621,6.912476,43.41205,0.5531491,0.05779286,0.3688971,-0.01781955,2.93999993428588,1
-33.32681,0.6833333,-29.50196,0.1525628335657387,-0.0557547462528426,0.0492058187697601,10.36928,43.1038,0.8029376,0.08660901,0.365243,-0.02670407,2.95999993383884,1
-33.18041,0.2833333,-29.34674,0.0557925782936905,0.5997180779421549,-0.0443507736785875,3.412455,43.35056,0.2527442,0.02848377,0.3691202,-0.008948459,2.97999993339181,1
-33.14261,0.4833335,-29.30054,0.0767540601287635,0.349167973662414,-0.0164762508651286,6.824971,43.02631,0.4864211,0.05693045,0.3658262,-0.01788601,2.99999993294477,1
-33.00936,0.2833333,-29.15583,0.0962893314216728,0.0986176494107947,0.0128991248294632,3.369842,42.09547,0.1614322,0.02794715,0.3589513,-0.009245809,3.01999993249774,1
-32.9719,0.483333,-29.11043,0.1462311368810525,0.087117987165635,0.080969165617784,6.739299,41.76357,0.3034149,0.05585889,0.355678,-0.01848106,3.0399999320507,1
-32.93445,0.6833333,-29.06504,0.1937747610070772,0.1012309276974345,0.1470612541222422,10.10846,41.43758,0.4268158,0.08371314,0.3520966,-0.02769722,3.05999993160367,1
-32.81625,0.2833332,-28.93769,0.2485383936008034,0.0876402890036404,0.2210117661121344,3.331059,40.80348,0.09023789,0.02751607,0.3484317,-0.009394263,3.07999993115664,1
-32.77933,0.4833331,-28.89278,0.184641572172687,0.7133179899534037,0.1746052789890484,6.661322,40.46626,0.161001,0.05499824,0.3451797,-0.01877666,3.0999999307096,1
-32.74242,0.6833332,-28.84788,0.2388959938251602,0.4340182965201493,0.2431129287832973,9.990949,40.13068,0.2124421,0.08242515,0.3416361,-0.02814058,3.11999993026257,1
-32.57926,0.2833335,-28.67201,0.1810397657026108,0.635956643498999,0.1920434472896346,3.287777,39.14854,359.9683,0.02693677,0.3348981,-0.009871651,3.13999992981553,1
-32.54248,0.4833337,-28.62799,0.2157697970474394,0.4131098313924414,0.2341755628353787,6.574333,38.80175,359.9166,0.05384315,0.3316683,-0.0197323,3.1599999293685,1
-32.50571,0.6833336,-28.58398,0.2469490641098204,0.1913083707791673,0.2707758081584224,9.859289,38.44939,359.8442,0.08069416,0.3281657,-0.02957454,3.17999992892146,1
-32.3946,0.2833334,-28.46474,0.2833807630593803,-0.0838085180953994,0.310728607855868,3.243309,37.66698,359.9112,0.0265343,0.3227104,-0.009868498,3.19999992847443,1
-32.35867,0.4833332,-28.421,0.2093538750907662,0.4937810068001962,0.237973967538231,6.485102,37.31643,359.8024,0.05303947,0.3195019,-0.01972661,3.21999992802739,1
-32.32275,0.6833334,-28.37728,0.2439267550409383,0.1663925935248672,0.2692525137897661,9.725144,36.95716,359.6727,0.07949345,0.3160377,-0.02956545,3.23999992758036,1
-32.16655,0.2833333,-28.20815,0.1744508369524737,0.3202420370177944,0.1915506928581791,3.20248,35.06479,359.7993,0.02611778,0.3011735,-0.01008715,3.25999992713332,1
-32.13146,0.4833333,-28.16454,0.1899803898475092,0.0493068037082123,0.1976978570939316,6.402728,34.70597,359.5782,0.05220713,0.2979864,-0.02016361,3.27999992668629,1
-32.09638,0.6833335,-28.12093,0.2018496106853113,-0.2205830483138766,0.1974807252484751,9.600531,34.33218,359.3353,0.07824722,0.2945663,-0.03022094,3.29999992623925,1
-31.98772,0.2833333,-28.00523,0.1349327975158516,0.1764986569952474,0.1194618921709071,3.43149,35.21071,359.7842,0.02796932,0.3023766,-0.01084962,3.31999992579222,1
-31.94995,0.4833333,-27.95856,0.2091462913313577,-0.0913004841996967,0.1871911551387413,6.860666,34.85009,359.5465,0.05590567,0.2991449,-0.02168666,3.33999992534518,1
-31.91219,0.6833332,-27.9119,0.2778083657402526,-0.358054430277405,0.2480375285211664,10.28731,34.4721,359.2849,0.0837836,0.2956445,-0.03250121,3.35999992489815,1
-31.75733,0.2833333,-27.74702,0.2130909490202199,0.0421638997832161,0.1721036193986513,3.554369,37.06479,359.8212,0.02890892,0.3177333,-0.01133551,3.37999992445111,1
-31.71729,0.4833338,-27.69952,0.2257874906266188,-0.2224990167912545,0.1731254214431707,7.106617,36.70779,359.6198,0.05778145,0.3144734,-0.02265825,3.39999992400408,1
-31.57642,0.2833333,-27.54649,0.2332565943784388,-0.486117044989475,0.1688816891170681,3.570127,38.20049,359.864,0.02904727,0.3270979,-0.01131351,3.41999992355704,1
-31.53589,0.4833336,-27.49912,0.1696029877978944,-0.082762397876634,0.0972305322828326,7.138423,37.8481,359.7057,0.0580578,0.3238356,-0.02261466,3.43999992311001,1
-31.49537,0.6833338,-27.45177,0.2440356520101971,-0.3442893175559743,0.1665266048481513,10.70466,37.48256,359.5235,0.0870032,0.320259,-0.0338907,3.45999992266297,1
-31.45486,0.8833337,-27.40443,0.3157868198212838,-0.6047708158737392,0.2330044064187078,14.26866,37.10062,359.3154,0.1158555,0.3163719,-0.04513038,3.47999992221594,1
-31.30783,0.2833336,-27.24627,0.2644416983183681,-0.1982801447722012,0.1762442480737185,3.594409,39.47604,0.00430904,0.02953206,0.3375527,-0.01055619,3.4999999217689,1
-31.26788,0.4833333,-27.19791,0.2912963530974863,-0.4566710404628462,0.1953644825245888,7.188037,39.13823,359.9879,0.0590301,0.3342912,-0.02109583,3.51999992132187,1
-31.1349,0.2833333,-27.05198,0.2044917909242585,-0.2338242255685274,0.0982568121705078,3.548774,40.16072,0.06960675,0.02929015,0.3431554,-0.01006085,3.53999992087483,1
-31.09576,0.4833333,-27.00399,0.1152270545507683,-0.0088862193065142,5.196564545784099e-05,7.096528,39.82972,0.1189717,0.05854126,0.3399098,-0.02010667,3.5599999204278,1
-31.05663,0.6833332,-26.95601,0.1603284506968521,-0.474442640046077,0.0365215171815229,10.6435,39.49894,0.147964,0.08772741,0.3363385,-0.03013043,3.57999991998076,1
-31.01752,0.8833331,-26.90805,0.108614743443308,-0.2453233561351216,-0.0244484673290159,14.18958,39.16581,0.1562543,0.1168204,0.3324452,-0.04012242,3.59999991953373,1
-30.87521,0.2833333,-26.75766,0.1688912459166118,-0.4409888813582772,0.0241907038692659,3.622837,41.06828,0.09194962,0.02988287,0.3505663,-0.01033662,3.61999991908669,1
-30.83474,0.4833333,-26.70906,0.2241309412140602,-0.6356090914161774,0.068233246866086,7.245109,40.7408,0.1633053,0.05972703,0.3473075,-0.02066002,3.63999991863966,1
-30.7062,0.2833333,-26.57038,0.1325955636377571,-0.1632575973497489,-0.0393439523735317,3.642195,41.50897,0.09685501,0.03001594,0.35416,-0.01047129,3.65999991819263,1
-30.6652,0.4833331,-26.52179,0.0383416472671562,0.2845263778949267,-0.1482049597663959,7.283865,41.18265,0.1731023,0.05999288,0.3508995,-0.02092904,3.67999991774559,1
-30.62421,0.6833333,-26.47321,0.0733736891113316,-0.1972336634510803,-0.1315277547770819,10.92478,40.85825,0.2289913,0.08989936,0.3472844,-0.03136254,3.69999991729856,1
-30.58324,0.8833334,-26.42465,0.0192118908652361,0.0167273158898587,-0.2013744626910067,14.56514,40.53311,0.264225,0.1197071,0.3433187,-0.04176343,3.71999991685152,1
-30.44711,0.2833331,-26.28236,-0.0342866725659618,0.2338244167911811,-0.2673390197766316,3.604354,42.83474,0.1498607,0.02975433,0.3649398,-0.01026691,3.73999991640449,1
-30.40613,0.4833331,-26.23459,0.0603503956139306,-0.2385272870543694,-0.1858589792844043,7.208405,42.51474,0.2798172,0.05946995,0.3616967,-0.02052045,3.75999991595745,1
-30.28444,0.2833333,-26.10497,0.0146117953841944,-0.015157891284448,-0.2463214952051693,3.559886,44.21874,0.2241386,0.02951264,0.3761371,-0.009879259,3.77999991551042,1
-30.24379,0.4833331,-26.05785,-0.0325123837504115,0.2113478768573552,-0.3050414243960411,7.119943,43.90625,0.4291718,0.0589879,0.3729082,-0.01974631,3.79999991506338,1
-30.20315,0.683333,-26.01076,0.0124451028726859,-0.2515946426177854,-0.2767835319792944,10.67996,43.60398,0.6163819,0.0883965,0.369318,-0.02959148,3.81999991461635,1
-30.03364,0.2833333,-25.82937,-0.0188084754818085,-0.0188158100107198,-0.3197640855940804,3.497757,44.77286,0.2676102,0.02910785,0.380607,-0.00946482,3.83999991416931,1
-29.99384,0.4833333,-25.78288,-0.0416629351176709,0.2170991975598009,-0.3513984897186155,6.995902,44.46508,0.5168472,0.05817969,0.377403,-0.01891775,3.85999991372228,1
-29.95406,0.6833333,-25.73639,0.082021763725546,-0.2364347570380095,-0.2401253099096933,10.49386,44.17019,0.7493399,0.08718492,0.3738457,-0.02834831,3.87999991327524,1
-29.83891,0.2833336,-25.61415,0.0770845929211105,0.0057521525879633,-0.2568447756350664,3.443166,44.58971,0.2803989,0.02872469,0.3791326,-0.009134388,3.89999991282821,1
-29.8001,0.4833335,-25.56804,0.1872330935404171,-0.1758014138313488,-0.1552030274990308,6.886452,44.28377,0.5430394,0.05741253,0.3759532,-0.01825475,3.91999991238117,1
-29.76129,0.6833335,-25.52194,0.1739336983106305,0.1249284613988618,-0.1780191118428682,10.33008,43.99138,0.7893043,0.08603947,0.3724323,-0.0273562,3.93999991193414,1
-29.59775,0.2833333,-25.34868,0.1528618297954267,0.4287945387732147,-0.2037413862388213,3.401964,43.63383,0.2161555,0.02825801,0.3714255,-0.00928113,3.9599999114871,1
-29.55939,0.4833333,-25.30323,0.1326541066480615,0.6835260995542773,-0.223566785193757,6.803753,43.32283,0.4140373,0.0564796,0.3682689,-0.01855108,3.97999991104007,1
-29.52104,0.6833333,-25.25779,0.2407658854669279,-0.0169000701298597,-0.112805969982368,10.20558,43.02133,0.594913,0.08464281,0.3647867,-0.02780177,3.99999991059303,1
-29.41108,0.2833333,-25.14337,0.2239462345296452,0.1918328785213012,-0.124986557747281,3.358881,42.44328,0.1511541,0.02779738,0.3617848,-0.009379555,4.019999910146,1
-29.37335,0.4833333,-25.09845,0.310610685505992,-0.0231734972655908,-0.0316571679362809,6.717244,42.12734,0.2840261,0.05555997,0.3586513,-0.01874684,4.03999990969896,1
-29.33563,0.6833333,-25.05355,0.2804722992370685,0.2441030287294258,-0.056736714994674,10.07532,41.81689,0.3992295,0.08326636,0.3552092,-0.02809529,4.05999990925193,1
-29.17813,0.2833331,-24.89003,0.2426237200375105,0.5145157905830833,-0.0870648781901977,3.313442,41.22583,0.0428568,0.02719192,0.3518953,-0.009828357,4.07999990880489,1
-29.14047,0.4833331,-24.84617,0.2060268810116667,0.7357940428128589,-0.1139833553053506,6.626059,40.9013,0.06698135,0.05435256,0.3487848,-0.01964545,4.09999990835786,1
-28.99712,0.2833334,-24.69969,0.293700711066144,0.0019159049684526,-0.0204313975119987,3.268725,40.23126,359.9467,0.02662132,0.3437884,-0.01024583,4.11999990791082,1
-28.95945,0.4833334,-24.65687,0.2641674260539979,0.1771965504051492,-0.041186724316276,6.536129,39.8991,359.8742,0.0532128,0.3406963,-0.02048065,4.13999990746379,1
-28.92179,0.6833333,-24.61406,0.3323165870246072,-0.071262926854554,0.0352459764852461,9.801809,39.56031,359.7817,0.07974944,0.3373272,-0.03069754,4.15999990701675,1
-28.88414,0.8833332,-24.57126,0.2917832619382956,0.1625608199155653,0.002329166800564,13.06594,39.2125,359.6683,0.106213,0.3336843,-0.04088648,4.17999990656972,1
-28.73143,0.2833336,-24.41866,0.2446861328108625,0.3995208995933033,-0.0352415247561843,3.225322,37.87644,359.8461,0.02618332,0.3244554,-0.0104037,4.19999990612268,1
-28.69464,0.4833335,-24.37599,0.3485827887156105,-0.0529680655718683,0.0792030397169192,6.448782,37.53716,359.6728,0.05233821,0.3213879,-0.02079631,4.21999990567565,1
-28.65787,0.6833332,-24.33334,0.4454128327796915,-0.530024392137334,0.1876898858341036,9.670236,37.18562,359.4789,0.07844374,0.3180658,-0.03116949,4.23999990522861,1
-28.49197,0.2833331,-24.16542,0.43040313659343,-0.1266699057564201,0.1870143064587388,3.282579,36.68996,359.7895,0.02660847,0.314658,-0.01075735,4.25999990478158,1
-28.45467,0.4833331,-24.12179,0.5029348604585913,-0.3881969354652588,0.2740171482339555,6.562897,36.34647,359.5591,0.05318694,0.3115867,-0.02150266,4.27999990433455,1
-28.41738,0.6833332,-24.07816,0.4748537034674776,-0.1684869765324813,0.2614157825787124,9.840778,35.9871,359.3068,0.07971328,0.3082594,-0.03222718,4.29999990388751,1
-28.30167,0.2833336,-23.96378,0.441775220985857,0.0533140094642417,0.2462937744140738,3.548269,37.7473,359.7861,0.02869141,0.3233813,-0.0117802,4.31999990344048,1
-28.26064,0.4833338,-23.91719,0.5536201970024024,-0.4153782522299908,0.3788883013395043,7.094261,37.40269,359.5504,0.05734712,0.3202484,-0.02354616,4.33999990299344,1
-28.21963,0.6833338,-23.87062,0.5060066348866563,-0.1893952557512809,0.3487369084165905,10.63929,37.04016,359.2904,0.08595052,0.3168073,-0.03529452,4.35999990254641,1
-28.05762,0.2833333,-23.70916,0.4467627718841811,0.0386786985329022,0.3089046358848613,3.565723,39.73382,359.8463,0.02880461,0.3397108,-0.0118335,4.37999990209937,1
-28.01565,0.4833333,-23.66315,0.38534211944323,0.2165731581164462,0.2684890502020174,7.129574,39.39567,359.6708,0.05757208,0.3365743,-0.02365673,4.39999990165234,1
-27.86822,0.2833333,-23.512,0.3532771715482248,0.1585527453359494,0.2543090530942891,3.591984,40.82135,359.9397,0.02918959,0.3485908,-0.01142334,4.4199999012053,1
-27.82632,0.4833333,-23.46537,0.3142689528761515,0.1313720354322495,0.2342058971729805,7.182761,40.49262,359.8588,0.05834441,0.3454492,-0.02283094,4.43999990075827,1
-27.78444,0.6833336,-23.41875,0.3754261182095959,-0.345161156189834,0.3126820713871474,10.77194,40.1558,359.7562,0.08743282,0.3419685,-0.03421254,4.45999990031123,1
-27.74256,0.8833337,-23.37215,0.2874016312013907,-0.1259731764986794,0.2390831397971915,14.35944,39.80792,359.6305,0.1164263,0.3381523,-0.04555773,4.4799998998642,1
-27.58935,0.2833331,-23.21697,0.193561610432507,0.0963510348694697,0.1591066005601504,3.576053,41.84456,0.05902692,0.02932846,0.3569123,-0.01066132,4.49999989941716,1
-27.54836,0.4833331,-23.16991,0.252304225040028,-0.3707732482835661,0.2310075670425604,7.151219,41.52844,0.09887202,0.05862011,0.3537826,-0.02130485,4.51999989897013,1
-27.40872,0.2833333,-23.02663,0.2203697008673657,-0.1421767869994845,0.2139139313298983,3.576672,42.53036,0.07159317,0.02930891,0.3624901,-0.01073646,4.53999989852309,1
-27.36732,0.4833333,-22.97991,0.185134108807663,0.0895557181360985,0.1917957981549705,7.152687,42.216,0.1233809,0.05858001,0.3593629,-0.02146165,4.55999989807606,1
-27.32593,0.6833333,-22.93321,0.2482278020178547,-0.3681597941936578,0.2624827550857276,10.72791,41.90213,0.1556996,0.08778517,0.3558857,-0.03216302,4.57999989762902,1
-27.28456,0.883333,-22.88652,0.1737575030129008,-0.1301537915313424,0.1939280182416816,14.30227,41.58629,0.1682856,0.1168961,0.3520624,-0.04283,4.59999989718199,1
-27.13636,0.2833335,-22.73827,0.0997824325783227,0.1109883222372459,0.1236807872739156,3.649098,43.1235,0.09969808,0.02993054,0.3672915,-0.01089221,4.61999989673495,1
-27.09396,0.4833335,-22.69071,0.0510724957733543,0.1428734463013866,0.0801457651372565,7.297668,42.81321,0.1797701,0.05982211,0.3641508,-0.02177036,4.63999989628792,1
-26.96021,0.2833333,-22.55467,-0.0093639632805206,0.2055980720878402,0.0244188560861928,3.600385,43.74685,0.1069473,0.02950011,0.3723461,-0.01083788,4.65999989584088,1
-26.91798,0.4833336,-22.50812,-0.0710838384585557,0.2458464823663218,-0.0333521187768965,7.200224,43.43779,0.1946022,0.05896197,0.3692234,-0.02166197,4.67999989539385,1
-26.87576,0.6833335,-22.46157,-0.0395167326612266,-0.4300113404435063,-0.0011208808536444,10.79949,43.13157,0.2633539,0.08835701,0.3657361,-0.03246177,4.69999989494681,1
-26.69408,0.2833332,-22.27623,-0.1376891191775264,-0.1977560228738059,-0.0921661785082221,3.567195,45.47239,0.1951403,0.02936386,0.386252,-0.01045947,4.71999989449978,1
-26.65197,0.4833331,-22.23028,-0.2313914331946804,0.0365900872393279,-0.1791789081284669,7.134311,45.17253,0.37192,0.05869022,0.3831414,-0.02090547,4.73999989405274,1
-26.60987,0.6833333,-22.18434,-0.1700650681058313,-0.419557364397355,-0.11447526469723,10.70121,44.88122,0.5313589,0.08795015,0.3796586,-0.03132838,4.75999989360571,1
-26.48451,0.2833331,-22.05684,-0.2514323523200339,-0.1810289120585077,-0.1894737836985136,3.51897,46.03097,0.2389825,0.02907487,0.3907357,-0.01008601,4.77999989315867,1
-26.4431,0.4833328,-22.01133,-0.3282755685615406,0.0595902660917119,-0.2620510526322555,7.038114,45.73593,0.4601999,0.05811344,0.3876458,-0.02015945,4.79999989271164,1
-26.4017,0.6833327,-21.96583,-0.3120990805497747,-0.3902844483804399,-0.2504422262279746,10.55726,45.45219,0.6650361,0.08708771,0.3841889,-0.03021088,4.8199998922646,1
-26.2284,0.2833331,-21.78806,-0.3729626335181706,-0.1454840955542553,-0.3101844104746867,3.465061,46.09714,0.2790167,0.02877306,0.3912635,-0.009597336,4.83999989181757,1
-26.1881,0.4833331,-21.74273,-0.4219082233652109,0.1014067841067559,-0.3599238592295535,6.930144,45.80645,0.5411538,0.05750905,0.3881971,-0.01917936,4.85999989137053,1
-26.14782,0.6833332,-21.69742,-0.3219256207450947,-0.3421964309673779,-0.2657443586920855,10.39542,45.52948,0.7877992,0.08618297,0.3847737,-0.02874068,4.8799998909235,1
-26.10754,0.8833334,-21.65213,-0.3513656202572157,-0.0911236774247377,-0.2965100350642551,13.86081,45.26454,1.020345,0.1147688,0.3809967,-0.03827301,4.89999989047647,1
-25.96177,0.2833333,-21.50504,-0.3730520945566553,0.1620400111856862,-0.3199042316399243,3.415229,45.29866,0.2441363,0.02832095,0.3848596,-0.009509993,4.91999989002943,1
-25.92229,0.4833333,-21.46021,-0.3638385658941132,0.2049021856055282,-0.3104029362015268,6.830317,45.00576,0.4712605,0.05660551,0.3818206,-0.01900656,4.9399998895824,1
-25.79166,0.2833333,-21.32623,-0.3609421591458357,0.2775585256742132,-0.3064558653559111,3.370578,44.06826,0.1601083,0.02778546,0.3749582,-0.009738665,4.95999988913536,1
-25.75265,0.4833333,-21.28214,-0.355019139720337,0.3266929299729451,-0.299011433301473,6.740615,43.76827,0.302666,0.05553526,0.3719408,-0.01946573,4.97999988868833,1
-25.71365,0.6833333,-21.23807,-0.2545116014365618,-0.3413252044216053,-0.2008606258087333,10.11039,43.47447,0.4285397,0.08322874,0.3686013,-0.02917308,4.99999988824129,1
-25.53541,0.2833333,-21.05445,-0.2761240083732055,-0.1022742785360076,-0.2213918339379077,3.325834,42.33643,0.0634742,0.02726114,0.3609402,-0.009962756,5.01999988779426,1
-25.49703,0.4833331,-21.01092,-0.2907983541637478,0.1378222567980122,-0.2363298759181233,6.650689,42.02879,0.1092095,0.05448885,0.3579469,-0.0199128,5.03999988734722,1
-25.45867,0.6833329,-20.9674,-0.2719284259312253,0.1665706353656948,-0.2185562439690365,9.974792,41.72152,0.1372188,0.08166251,0.3546524,-0.02984321,5.05999988690019,1
-25.33476,0.2833333,-20.84142,-0.2566472888030446,0.2240676153478196,-0.205583121483464,3.283523,40.98664,359.9613,0.0267189,0.3499635,-0.01034648,5.07999988645315,1
-25.29656,0.4833336,-20.79873,-0.2357122210168469,0.2569974789913907,-0.1884098777303045,6.565784,40.67107,359.9045,0.05340752,0.3469917,-0.02068122,5.09999988600612,1
-25.25837,0.6833335,-20.75604,-0.0505417667684326,-0.4282692320762085,-0.0088364053805811,9.846477,40.34988,359.8287,0.08004157,0.3437353,-0.03099669,5.11999988555908,1
-25.08762,0.2833333,-20.58052,0.0128868325376458,-0.2075138236428749,0.0527251684506637,3.238495,38.97149,359.8789,0.02628653,0.333467,-0.0104219,5.13999988511205,1
-25.05033,0.4833332,-20.53802,0.0767226106805694,0.01324156989335,0.1128544160858169,6.475341,38.64992,359.7394,0.0525444,0.3305176,-0.02083222,5.15999988466501,1
-25.01305,0.6833332,-20.49554,0.1294297196488862,0.0216046444119831,0.1604390116076466,9.710368,38.31809,359.5805,0.07875191,0.3273044,-0.03122279,5.17999988421798,1
-24.89695,0.2833333,-20.37634,0.1776996342910628,0.0576707446982519,0.2026730547168362,3.197696,36.84615,359.8093,0.02594575,0.3159518,-0.01039613,5.19999988377094,1
-24.86073,0.4833333,-20.33379,0.2307958451992107,0.0681241396701747,0.2488705467760112,6.393333,36.51983,359.6001,0.05186335,0.3130235,-0.02078112,5.21999988332391,1
-24.82451,0.6833332,-20.29124,0.2718387035617589,0.0796234056174811,0.2817138553621241,9.586776,36.17944,359.3709,0.07773253,0.3098513,-0.03114681,5.23999988287687,1
-24.65707,0.2833332,-20.11969,0.2994155543309951,0.1188260938045138,0.3011620613498884,3.449142,37.4682,359.7939,0.02792291,0.3210819,-0.01136858,5.25999988242984,1
-24.61744,0.4833334,-20.07418,0.3228629448981763,0.132415807745243,0.316665235043061,6.896115,37.13987,359.5676,0.05581245,0.3180983,-0.02272359,5.2799998819828,1
-24.57783,0.6833333,-20.02869,0.2515412231760621,0.7873652912251441,0.2397509569951204,10.34116,36.795,359.319,0.08364563,0.314826,-0.03405846,5.29999988153577,1
-24.46469,0.2833334,-19.9155,0.295572588988076,0.5394290908233541,0.2742504926583997,3.551825,38.73103,359.8157,0.02870401,0.3314807,-0.01179309,5.31999988108873,1
-24.42326,0.4833334,-19.86927,0.3378768662867664,0.2946291013645781,0.3087699782465378,7.101906,38.40496,359.6104,0.05737361,0.3284731,-0.02357601,5.3399998806417,1
-24.38185,0.6833334,-19.82306,0.2297630924752667,0.7188919390976449,0.1941615978841504,10.6502,38.06311,359.3825,0.08598313,0.3251495,-0.03533453,5.35999988019466,1
-24.22078,0.2833333,-19.65985,0.2502297116337466,0.480364295209898,0.2030027686050495,3.571899,40.37182,359.8864,0.02890957,0.3449286,-0.01168394,5.37999987974763,1
-24.17877,0.4833332,-19.61376,0.2644684259874772,0.2449727982337475,0.2066336723452799,7.142269,40.05324,359.7525,0.05778312,0.3419173,-0.0233559,5.39999987930059,1
-24.13677,0.6833333,-19.56769,0.2822945898346027,-0.0416442658342661,0.2147376454293983,10.71077,39.72335,359.5972,0.08659164,0.338574,-0.03500124,5.41999987885356,1
-23.96296,0.2833336,-19.38799,0.3298341281462704,-0.1137772929783602,0.2517495474324818,3.591763,41.69871,0.04536452,0.02942765,0.3557257,-0.01078412,5.43999987840652,1
-23.92174,0.4833336,-19.34077,0.3692603195226773,-0.1582070584404241,0.2817413758039464,7.182895,41.3961,0.07238282,0.05882122,0.3527117,-0.02155048,5.45999987795949,1
-23.88053,0.6833338,-19.29356,0.3012735021541282,0.251942678377384,0.2076449244511877,10.77307,41.09249,0.08040813,0.08814809,0.3493517,-0.03229229,5.47999987751245,1
-23.76227,0.2833334,-19.17314,0.3182140897099472,-0.0017434116464379,0.2107751286373513,3.557272,42.18401,0.06623372,0.02916653,0.3596765,-0.01063055,5.49999987706542,1
-23.72133,0.4833336,-19.12649,0.3345090314892509,-0.2533388066985111,0.2148786103783564,7.113542,41.8842,0.1138673,0.05829389,0.3566781,-0.02124745,5.51999987661839,1
-23.68039,0.6833338,-19.07984,0.1931835375760506,0.1630833613269041,0.0624880953914797,10.669,41.58477,0.1430292,0.08735637,0.3533365,-0.03184095,5.53999987617135,1
-23.51226,0.2833332,-18.90787,0.190239834695749,-0.0843301635895955,0.0389130601523959,3.634682,43.04028,0.09692703,0.0298126,0.3666187,-0.01084683,5.55999987572432,1
-23.47008,0.483333,-18.86047,0.1815158371141336,-0.3296526056869018,0.0110239364331867,7.268786,42.74439,0.1752132,0.05958649,0.3636014,-0.02167971,5.57999987527728,1
-23.4279,0.683333,-18.81308,0.0745372140248896,0.0930421982724227,-0.1100186780000971,10.90286,42.45081,0.2350257,0.08929632,0.3602181,-0.03249103,5.59999987483025,1
-23.2458,0.2833333,-18.62589,0.1206570843241365,-0.148099407339347,-0.0849566241510597,3.628329,43.67603,0.1121736,0.02975,0.3717684,-0.010868,5.61999987438321,1
-23.20337,0.4833332,-18.57887,0.161470684074569,-0.3871499023414138,-0.063926284584225,7.25615,43.3825,0.2059245,0.05946142,0.3687578,-0.02172195,5.63999987393618,1
-23.16095,0.6833332,-18.53186,0.0485603907845373,0.0418172478858801,-0.1961673842171336,10.88334,43.09232,0.2816944,0.08910409,0.3653777,-0.03255097,5.65999987348914,1
-23.03525,0.2833333,-18.40429,-0.0657177616956552,0.4472629686705698,-0.329594824859635,3.584126,44.95107,0.1702444,0.02946459,0.3820586,-0.0105829,5.67999987304211,1
-22.99305,0.4833333,-18.35805,-0.0490533804134116,-0.0757907804343034,-0.3384275974461381,7.168015,44.66385,0.3227916,0.05889144,0.3790641,-0.02115215,5.69999987259507,1
-22.95086,0.6833331,-18.31182,-0.1224801328270679,0.0979217320017323,-0.4295343652621941,10.75158,44.38378,0.4585151,0.08825163,0.3756983,-0.03169786,5.71999987214804,1
-22.77629,0.2833332,-18.13443,-0.0837833856231,-0.151060127331263,-0.4123742588394314,3.526651,46.20728,0.2461349,0.02914541,0.392148,-0.01009964,5.739999871701,1
-22.73474,0.4833331,-18.08886,-0.040831127796963,-0.3969055415492038,-0.385719033614416,7.053452,45.92782,0.4754224,0.05825429,0.389174,-0.0201868,5.75999987125397,1
-22.69319,0.6833329,-18.0433,-0.1402040293523576,0.0263121189257312,-0.4941726966471567,10.58026,45.66031,0.6893659,0.08729879,0.3858299,-0.03025175,5.77999987080693,1
-22.65165,0.8833328,-17.99775,-0.2358132338470042,0.4270531807495942,-0.5942180674805897,14.10663,45.40303,0.8891711,0.1162484,0.3821194,-0.04028399,5.7999998703599,1
-22.50558,0.2833332,-17.8517,-0.2040112677776129,-0.0996598239878657,-0.5784430433925714,3.466808,46.36349,0.2829893,0.02877832,0.3933991,-0.009638335,5.81999986991286,1
-22.4651,0.483333,-17.80649,-0.2497453117580583,0.0714389551464299,-0.629202560552196,6.933629,46.0883,0.5499685,0.05751967,0.3904524,-0.01926197,5.83999986946583,1
-22.42463,0.6833332,-17.76129,-0.2866202997794325,0.2477644579455211,-0.6661429825846028,10.40052,45.82725,0.8024198,0.0861982,0.3871464,-0.02886474,5.85999986901879,1
-22.26427,0.2833332,-17.60153,-0.1797772839083293,-0.2632674702974801,-0.5653302801451243,3.415639,45.91437,0.2518097,0.02829884,0.3898087,-0.009601787,5.87999986857176,1
-22.22441,0.4833332,-17.55702,-0.203850666527078,-0.0764873915606156,-0.58704272419393,6.831095,45.63692,0.4873872,0.05656066,0.3868867,-0.01919118,5.89999986812472,1
-22.18456,0.683333,-17.51252,-0.2224243165966548,0.1155198612389096,-0.597586233324753,10.24667,45.37152,0.7082288,0.08476371,0.3836193,-0.02876076,5.91999986767769,1
-22.01077,0.2833334,-17.33967,-0.0871410363760922,-0.3798307710604589,-0.4575009277947153,3.367196,44.4294,0.1526398,0.02770269,0.3778786,-0.009875341,5.93999986723065,1
-21.97143,0.4833333,-17.29596,-0.1038662518614295,-0.1773699699620803,-0.4649911924056553,6.733782,44.14377,0.2886062,0.05537,0.3749827,-0.01973874,5.95999986678362,1
-21.93211,0.6833333,-17.25226,-0.1215429132371959,0.0303177496831091,-0.4701350583701256,10.10001,43.86404,0.4087067,0.08298106,0.3717628,-0.02958209,5.97999986633658,1
-21.8133,0.2833334,-17.13754,-0.0505430212630031,-0.4493521408275273,-0.3921812062922569,3.318745,43.28967,0.061425,0.02711325,0.3686829,-0.01018299,5.99999986588955,1
-21.77427,0.4833333,-17.09476,-0.0634788138674515,-0.2312098577023745,-0.3919037977962816,6.636783,42.99682,0.1059651,0.05419563,0.365811,-0.02035429,6.01999986544251,1
-21.73525,0.6833333,-17.052,-0.0682622657098193,-0.0078406873927363,-0.3814412470285049,9.953692,42.70438,0.1334819,0.08122088,0.3626327,-0.03050597,6.03999986499548,1
-21.56767,0.2833333,-16.89081,0.0760565532546273,-0.4718298234825911,-0.2280467368296861,3.275542,41.9486,359.951,0.02653372,0.3578143,-0.01062994,6.05999986454844,1
-21.52872,0.4833333,-16.84899,0.0783923932509793,-0.2380065228415785,-0.2122821581390308,6.549816,41.64709,359.8846,0.0530377,0.3549642,-0.02124811,6.07999986410141,1
-21.48978,0.6833334,-16.80717,0.0827954374875616,0.0010441948330139,-0.1919284259350391,9.822433,41.3395,359.7999,0.07948697,0.3518243,-0.03184707,6.09999986365438,1
-21.31022,0.2833333,-16.63365,0.2441525028100493,-0.4472628352939907,-0.0197216506269697,3.227821,39.71446,359.85,0.02604516,0.3395772,-0.01079772,6.11999986320734,1
-21.27143,0.4833335,-16.59421,0.2388138245229569,-0.1977585065958911,-0.0112243678242052,6.380111,39.03904,359.5938,0.05126705,0.3337941,-0.02192944,6.13999986276031,1
-21.23251,0.6833334,-16.55532,0.2257461010620147,0.0569731206558832,-0.0073883718873677,9.508281,38.23938,359.262,0.07620437,0.3269132,-0.03321039,6.15999986231327,1
-21.19365,0.8833336,-16.51649,0.2141233358456169,0.2646612743208354,2.506373357391567e-05,12.63208,37.39441,358.8594,0.1010302,0.3196424,-0.04463563,6.17999986186624,1
-21.0402,0.2833333,-16.36936,0.2256947975216583,0.2395712698429913,0.0276126473882154,3.259247,37.12181,359.7153,0.02616855,0.3182499,-0.01140691,6.1999998614192,1
-21.00084,0.4833333,-16.3263,0.2305353810699841,0.2484568970111291,0.052540836370591,6.586477,36.56058,359.3841,0.05286309,0.3134366,-0.02311411,6.21999986097217,1
-20.86152,0.2833334,-16.19049,0.3376411261256216,-0.1888732284207613,0.1785784676785038,3.47194,38.10911,359.7871,0.02802772,0.3263711,-0.01164486,6.23999986052513,1
-20.82094,0.4833335,-16.14525,0.2842304991751874,0.0726537349916034,0.1495399756488389,6.941905,37.54884,359.538,0.05602551,0.3214811,-0.02329535,6.2599998600781,1
-20.78012,0.6833336,-16.09974,0.2217158067960838,0.3404535017778566,0.1147434300349434,10.43607,37.03666,359.2456,0.08415299,0.3168527,-0.03510105,6.27999985963106,1
-20.73916,0.8833336,-16.05411,0.1595633144493007,0.5622552084982835,0.0827037288133443,13.9401,36.53552,358.917,0.1122889,0.3122168,-0.04694489,6.29999985918403,1
-20.59129,0.2833332,-15.91616,0.2152718504035817,-0.1679637825233887,0.1593346395230419,3.553563,39.80442,359.8353,0.02866486,0.3402937,-0.01190554,6.31999985873699,1
-20.54886,0.4833333,-15.87016,0.1512407807913405,0.0141120627348907,0.122390828616874,7.138225,39.43721,359.637,0.05753513,0.3369305,-0.02397992,6.33999985828996,1
-20.50589,0.683333,-15.82412,0.0898273155503268,0.2024606252948952,0.0881633088716853,10.73797,39.08383,359.3979,0.08642862,0.3334875,-0.03622767,6.35999985784292,1
-20.34522,0.2833332,-15.67026,0.163678496080621,-0.2955030595694777,0.1796657647161321,3.615019,41.77069,359.9601,0.02934515,0.3563319,-0.01157006,6.37999985739589,1
-20.30182,0.4833333,-15.62403,0.1005284116637099,-0.0946096712707592,0.1392282950983308,7.240797,41.43764,359.8694,0.05865961,0.3531432,-0.02340374,6.39999985694885,1
-20.25818,0.6833333,-15.57788,0.038934717582201,0.1125561850862985,0.0986501915782103,10.8757,41.09175,359.7359,0.08793247,0.3495814,-0.03540739,6.41999985650182,1
-20.08404,0.2833332,-15.40932,0.1254718549334548,-0.3665901889930918,0.1972441574663896,3.567167,42.91754,0.03307395,0.0290724,0.365646,-0.01111779,6.43999985605478,1
-20.04109,0.4833332,-15.36343,0.0549624697569619,-0.1468797936012596,0.1428843409708609,7.160709,42.58391,0.02142242,0.05825349,0.3624008,-0.02250241,6.45999985560775,1
-19.99788,0.6833331,-15.31762,-0.0190030264560228,0.0791031909423426,0.0823590916838572,10.76657,42.24338,359.9669,0.08741128,0.3587859,-0.03407563,6.47999985516071,1
-19.87937,0.2833334,-15.20424,-0.086476581915921,0.2590880053035025,0.0246393855139874,3.636208,43.62641,0.04356432,0.02959615,0.3713835,-0.01143624,6.49999985471368,1
-19.83558,0.4833334,-15.15913,-0.1237756670072656,0.207340297366916,-0.0067907540309839,7.232396,43.06044,0.004515248,0.05868615,0.3662589,-0.02311058,6.51999985426664,1
-19.79147,0.6833335,-15.11366,-0.1590555496423924,0.1906139503114018,-0.0392916992567062,10.85788,42.56606,359.9232,0.08791622,0.3614061,-0.03496359,6.53999985381961,1
-19.62391,0.2833332,-14.95195,-0.1821042292014638,0.1555927949406896,-0.0634839538073102,3.654224,43.9372,0.06271147,0.02977323,0.3738919,-0.01142038,6.55999985337257,1
-19.57986,0.4833332,-14.90636,-0.2141656488346015,0.1289349294432569,-0.0958622549100276,7.287735,43.27979,0.03364474,0.05918333,0.368009,-0.02316479,6.57999985292554,1
-19.53527,0.6833333,-14.86006,-0.2472015569569805,0.1372984386785911,-0.1309420458976298,10.97243,42.76949,359.9729,0.08893822,0.3629797,-0.03508009,6.5999998524785,1
-19.35398,0.2833332,-14.68367,-0.2710372654058268,0.1273671267924424,-0.1592912810924875,3.617931,44.76796,0.1129359,0.02956376,0.3805932,-0.0111103,6.61999985203147,1
-19.31061,0.4833331,-14.63799,-0.3072955829563959,0.1257989852542611,-0.1978526562957352,7.235042,44.19869,0.1626093,0.05899299,0.3753808,-0.02242528,6.63999985158443,1
-19.26651,0.6833332,-14.5914,-0.3508525325867389,0.1592519916817948,-0.2420390652569981,10.91222,43.82294,0.1963516,0.088851,0.3713311,-0.0339,6.6599998511374,1
-19.2223,0.8833332,-14.54494,-0.3916106907121666,0.1744104021867819,-0.2813557672644204,14.59482,43.41895,0.1895407,0.1186171,0.3667086,-0.0454603,6.67999985069036,1
-19.0725,0.2833333,-14.40016,-0.3326682109626269,-0.5223562676742042,-0.2269068991830565,3.56831,46.03505,0.2063009,0.02935915,0.3907709,-0.01051772,6.69999985024333,1
-19.02967,0.4833331,-14.35386,-0.3935643197690748,-0.306827365982901,-0.2830938587274634,7.179865,45.78257,0.4024306,0.05904689,0.3880156,-0.02112719,6.7199998497963,1
-18.89351,0.2833333,-14.21839,-0.4431838076223382,-0.0850259993694904,-0.3301965372445146,3.508816,46.677,0.2883127,0.02910666,0.3959049,-0.00981958,6.73999984934926,1
-18.85227,0.4833333,-14.17279,-0.4608423398305827,-0.0693449372494295,-0.3481085206155079,7.020921,46.47784,0.5634576,0.05819875,0.3935444,-0.01964963,6.75999984890223,1
-18.81105,0.6833335,-14.12711,-0.4782497382036403,-0.0196881550590501,-0.3701854210419117,10.54662,46.3125,0.8238851,0.08731551,0.390958,-0.02955799,6.77999984845519,1
-18.76984,0.8833333,-14.08147,-0.4864717207557714,0.0106285899843958,-0.3881913694300234,14.06673,46.1531,1.075534,0.1162955,0.3879367,-0.03942275,6.79999984800816,1
-18.62742,0.2833333,-13.94461,-0.3311945649007164,-0.6720252932815455,-0.2537755886039239,3.443047,46.80802,0.2768394,0.0285292,0.3969651,-0.009716789,6.81999984756112,1
-18.58679,0.4833333,-13.90002,-0.2941001712651729,-0.4434288867073019,-0.2258614360053066,6.893858,46.5789,0.5363619,0.05707169,0.3943983,-0.01947987,6.83999984711409,1
-18.54616,0.6833333,-13.85544,-0.2535132601582788,-0.2096054169710728,-0.1976971862706218,10.34362,46.36326,0.7850982,0.08554865,0.3914677,-0.02921112,6.85999984666705,1
-18.39031,0.2833335,-13.70374,-0.2009243261812265,-0.0228251893502693,-0.1606883943649233,3.396083,45.6106,0.186467,0.02794606,0.3873856,-0.009986034,6.87999984622002,1
-18.34996,0.4833334,-13.6599,-0.1555351632591524,-0.0688232075125434,-0.1272658584420174,6.803346,45.40358,0.3601469,0.05594909,0.3850809,-0.02000526,6.89999984577298,1
-18.30943,0.6833334,-13.61608,-0.1112793390136808,-0.0808452675992777,-0.0953106525570888,10.21837,45.20501,0.5149509,0.08393347,0.3824353,-0.03009413,6.91999984532595,1
-18.1407,0.2833332,-13.45,-0.0593661412237409,-0.1122074582229882,-0.0562470793774689,3.347909,44.18859,0.1018344,0.02740083,0.3759473,-0.01016445,6.93999984487891,1
-18.10102,0.4833332,-13.40687,-0.0167260953650441,-0.1362518935878461,-0.0244550795587183,6.703223,43.99399,0.1903443,0.0548284,0.3738267,-0.02036035,6.95999984443188,1
-18.06115,0.6833332,-13.36375,0.0195154433403672,-0.1263203549346481,-0.0001875205757748,10.06569,43.80218,0.2597162,0.08223739,0.3713819,-0.03062771,6.97999984398484,1
-18.02124,0.8833331,-13.32065,0.0580431911593333,-0.1357285840608416,0.0251495895948004,13.43046,43.61155,0.3148542,0.1095811,0.3686134,-0.04090306,6.99999984353781,1
-17.87898,0.2833334,-13.18407,0.1635245070528874,-0.1378196273286566,0.1202439727761852,3.29834,42.6127,359.9717,0.02672267,0.3632106,-0.01068727,7.01999984309077,1
-17.83951,0.4833334,-13.14203,0.2614632703666117,-0.1059349335382237,0.2083758583315642,6.602296,42.42962,359.9337,0.05347264,0.3612961,-0.02137591,7.03999984264374,1
-17.79995,0.6833333,-13.09999,0.360590883676025,-0.0933904600158673,0.2979941352503914,9.908364,42.24332,359.8808,0.0801838,0.3590869,-0.03208607,7.0599998421967,1
-17.64514,0.2833333,-12.94895,0.3217820422874897,0.5667863107795409,0.2584032829442968,3.252604,40.83312,359.887,0.02625367,0.3487285,-0.0108245,7.07999984174967,1
-17.60644,0.4833334,-12.90736,0.3989602430307641,0.330349459609462,0.329614234668929,6.504961,40.66121,359.763,0.05248408,0.3469862,-0.0216482,7.09999984130263,1
-17.56773,0.6833334,-12.86582,0.4725338234062626,0.1033210675559759,0.3973790328958699,9.754585,40.47344,359.6267,0.07865071,0.3449052,-0.03245412,7.1199998408556,1
-17.40061,0.2833332,-12.7009,0.3873377043199415,0.5516282300145778,0.3142885543241345,3.20033,38.43508,359.7867,0.0257561,0.3290759,-0.01094806,7.13999984040856,1
-17.36289,0.4833333,-12.6595,0.4277540392138661,0.3434173585251975,0.3530045545122817,6.401189,38.25397,359.5626,0.05150049,0.3273508,-0.02189463,7.15999983996153,1
-17.32515,0.6833333,-12.61806,0.4563876435989513,0.1446150954719325,0.3797787213633192,9.603766,38.06983,359.3274,0.07722428,0.3254584,-0.03283053,7.17999983951449,1
-17.20624,0.2833333,-12.50264,0.4820940887313938,-0.0991398190918637,0.4035036598147314,3.541461,39.4469,359.7853,0.02845529,0.3373733,-0.01219095,7.19999983906746,1
-17.16397,0.4833333,-12.45732,0.5309844634589354,-0.1221388990431483,0.456817394597417,7.081357,39.27494,359.5596,0.05687573,0.3356471,-0.02436711,7.21999983862042,1
-17.12172,0.6833333,-12.41201,0.5634943208125804,-0.1111617729822735,0.4937806327228493,10.62058,39.08725,359.3206,0.08524107,0.3336,-0.03652249,7.23999983817339,1
-16.95645,0.2833333,-12.25166,0.4770286721437848,0.3606671076265795,0.4163005870035032,3.575555,41.33451,359.8376,0.02868991,0.3528094,-0.01233611,7.25999983772635,1
-16.91305,0.4833333,-12.20675,0.3820641115734933,0.8152465950093455,0.3288676806043522,7.149849,41.16768,359.664,0.05734396,0.3510631,-0.02466144,7.27999983727932,1
-16.86966,0.6833335,-12.16185,0.4018167586409547,0.3475991935523861,0.3512042175412819,10.72256,40.98835,359.4782,0.08593355,0.3489754,-0.03695918,7.29999983683228,1
-16.69015,0.2833332,-11.9858,0.4167027391579978,-0.1372971619709614,0.3670005593000027,3.589221,42.88567,359.9334,0.02893668,0.3654103,-0.01198933,7.31999983638525,1
-16.64662,0.4833332,-11.94076,0.3151000806780892,0.265534357603491,0.2758852888086256,7.177315,42.72833,359.8568,0.0578374,0.3636526,-0.02396375,7.33999983593822,1
-16.6031,0.6833333,-11.89574,0.3448686789736115,0.0108025421777534,0.3121339667993421,10.76414,42.5647,359.7694,0.08667289,0.3615391,-0.03591131,7.35999983549118,1
-16.55959,0.8833332,-11.85072,0.3693687721894161,-0.2355659802384727,0.3416388662917775,14.3497,42.39329,359.6703,0.1154152,0.3590723,-0.04782021,7.37999983504415,1
-16.4102,0.2833333,-11.70415,0.2604475229930365,0.1923554050355245,0.245284316053679,3.575239,44.00484,0.06263425,0.02912748,0.3744476,-0.01118046,7.39999983459711,1
-16.36759,0.4833335,-11.65857,0.2953146512666755,-0.0372865852003397,0.2900932489155856,7.149492,43.86035,0.1168143,0.05821885,0.3726906,-0.02234267,7.41999983415008,1
-16.325,0.6833335,-11.613,0.3208964834189132,-0.2585653096073771,0.3244263333830179,10.72289,43.71802,0.1623466,0.08724548,0.3705718,-0.03348017,7.43999983370304,1
-16.15997,0.2833333,-11.45117,0.1936500260550886,0.1944463266872055,0.2112960934785945,3.597039,44.94221,0.09053432,0.02930377,0.3820061,-0.01126615,7.45999983325601,1
-16.11668,0.4833334,-11.40569,0.0611073602224259,0.6302084630366678,0.0911444513993711,7.193237,44.8008,0.1723264,0.05856998,0.3802387,-0.02251792,7.47999983280897,1
-16.07341,0.6833336,-11.36022,0.0493158482619602,0.143743964494141,0.0862097451511125,10.78881,44.6633,0.2456236,0.08777091,0.3780971,-0.03374713,7.49999983236194,1
-15.89326,0.2833333,-11.18236,0.0371830444873388,-0.3599695660850056,0.0783442860501324,3.642704,45.47536,0.1069955,0.02967387,0.3862899,-0.01142391,7.5199998319149,1
-15.84919,0.4833332,-11.13651,-0.0877481413396914,0.0240447682408926,-0.0347913481745916,7.284635,45.33607,0.2053069,0.05930931,0.3845072,-0.02283305,7.53999983146787,1
-15.80513,0.6833332,-11.09068,-0.0758111343163445,-0.2495046017248051,-0.01325101360821,10.92572,45.20185,0.295581,0.08887601,0.3823368,-0.03421589,7.55999983102083,1
-15.76108,0.8833331,-11.04486,-0.0639649909243118,-0.514690568303022,0.0073434514636598,14.56642,45.07173,0.3781856,0.1183475,0.3797808,-0.04556363,7.5799998305738,1
-15.61052,0.2833335,-10.89798,-0.179892915069324,-0.1055864901550672,-0.0936941998813623,3.604521,46.69624,0.1545864,0.0294092,0.3960814,-0.01122628,7.59999983012676,1
-15.56655,0.4833334,-10.85295,-0.2894923920154113,0.2862680906612987,-0.1899067719929625,7.208371,46.56199,0.3009667,0.05878074,0.394306,-0.02243829,7.61999982967973,1
-15.52258,0.6833334,-10.80793,-0.2065948875855721,-0.244103868978877,-0.0960843986314774,10.81148,46.43588,0.4401653,0.08808525,0.3921409,-0.03362496,7.63999982923269,1
-15.35791,0.2833333,-10.64578,-0.2710374309309582,-0.0714366520195249,-0.1453643561878124,3.544013,48.17217,0.2365983,0.02907226,0.4078544,-0.01073564,7.65999982878566,1
-15.31454,0.4833333,-10.60153,-0.3343645382615641,0.1116845628524945,-0.1962563007740954,7.087524,48.04579,0.4657539,0.05810802,0.4060904,-0.0214578,7.67999982833862,1
-15.27118,0.6833333,-10.55729,-0.3862289937680589,0.2529892307864316,-0.2391355592990187,10.63046,47.93274,0.689095,0.08707925,0.4039374,-0.03215642,7.69999982789159,1
-15.09299,0.2833333,-10.38007,-0.4005516894646845,0.1667428006033258,-0.2445668348572018,3.482625,48.3786,0.2766645,0.02870763,0.4094953,-0.01024975,7.71999982744455,1
-15.05073,0.4833334,-10.33615,-0.4098086026799041,0.1196992888590048,-0.2485621531587138,6.964827,48.25599,0.546303,0.05737996,0.4077526,-0.02048684,7.73999982699752,1
-15.00848,0.6833334,-10.29225,-0.4044569351624041,0.0585426325535207,-0.2420384310429115,10.44615,48.14904,0.811043,0.08598819,0.4056323,-0.03069876,7.75999982655048,1
-14.96623,0.8833333,-10.24836,-0.3994377954310675,0.0099310360716771,-0.2323881976549442,13.92692,48.05738,1.072526,0.1145084,0.4031364,-0.04087928,7.77999982610345,1
-14.81715,0.2833333,-10.10024,-0.3931550936711918,0.0005223575059086,-0.2239347114709504,3.427608,47.80061,0.2672077,0.02828682,0.4049003,-0.009985787,7.79999982565641,1
-14.77593,0.4833334,-10.05667,-0.3763423250223621,-0.0229995995207329,-0.2075627603683516,6.854401,47.67737,0.527642,0.0565373,0.4031841,-0.01995654,7.81999982520938,1
-14.73472,0.6833332,-10.01311,-0.3666081643044006,-0.0339761776120569,-0.1923177857457148,10.28077,47.56898,0.7828804,0.08472906,0.4011061,-0.02990664,7.83999982476234,1
-14.57189,0.2833333,-9.850541,-0.3640477264863886,-0.005749944506333,-0.1846017568087719,3.380646,46.12993,0.1676328,0.02771227,0.391564,-0.01021098,7.85999982431531,1
-14.53135,0.4833333,-9.807608,-0.3593869971729013,0.0083631440382299,-0.1754696778524174,6.76032,45.99794,0.3277196,0.05538926,0.389878,-0.02040873,7.87999982386827,1
-14.49081,0.6833334,-9.764688,-0.3433334669073993,-0.0449527482112684,-0.1559895598255281,10.13936,45.87452,0.4812541,0.08300978,0.3878531,-0.03058588,7.89999982342124,1
-14.31501,0.2833334,-9.587874,-0.3263595917260318,-0.1123816649739117,-0.1345164495365152,3.328793,44.34672,0.06827473,0.02712188,0.3772349,-0.01041041,7.91999982297421,1
-14.27521,0.4833334,-9.54556,-0.3059398331114291,-0.1406079033938091,-0.112539633265734,6.656386,44.20626,0.1285113,0.05420991,0.3755797,-0.02080742,7.93999982252717,1
-14.23543,0.6833335,-9.503258,-0.2727104455654565,-0.1829469939211672,-0.0811325720377862,9.983151,44.06829,0.180984,0.08124432,0.3736085,-0.03118381,7.95999982208014,1
-14.19566,0.8833333,-9.460967,-0.2407774023917337,-0.2127411718535878,-0.0481822412524,13.30911,43.93194,0.2258525,0.1082027,0.3713233,-0.04153109,7.9799998216331,1
-14.04677,0.2833333,-9.312803,-0.2086822246980819,-0.2033325524406569,-0.0177421424262629,3.278258,42.52628,359.9479,0.02649234,0.3625154,-0.01079666,7.99999982118607,1
-14.00739,0.4833334,-9.271321,-0.1673442381246488,-0.2080372258630017,0.0190175690054577,6.555388,42.37594,359.8872,0.05295499,0.3608899,-0.02158133,8.01999982073903,1
-13.96801,0.6833335,-9.229849,-0.1348889599321303,-0.200196641966161,0.0494857998391049,9.831056,42.22098,359.8171,0.07936344,0.35897,-0.03234508,8.039999820292,1
-13.80678,0.2833333,-9.067015,-0.1113441457801158,-0.1531530227187516,0.0679188952833405,3.228498,40.02201,359.8477,0.02601476,0.3420997,-0.01088846,8.05999981984496,1
-13.76847,0.4833333,-9.025635,-0.0877747906069768,-0.1202225373170442,0.0831995367126072,6.455619,39.86369,359.6862,0.05200109,0.3405049,-0.02176499,8.07999981939793,1
-13.73018,0.6833333,-8.984266,-0.0552695069260735,-0.1547210086649444,0.1042009053297059,9.681334,39.69504,359.5145,0.07793853,0.3386404,-0.03262095,8.09999981895089,1
-13.6919,0.8833332,-8.942909,-0.0270971901038414,-0.2033327339065666,0.1235971901135046,12.9053,39.51479,359.3315,0.1038051,0.3365081,-0.04344423,8.11999981850386,1
-13.48872,0.2833333,-8.737117,9.76588599854722e-06,-0.2127414509783005,0.1399177941170508,3.338576,38.66436,359.7829,0.026861,0.3309554,-0.01143031,8.13999981805682,1
-13.4493,0.4833334,-8.694029,0.0349972296668923,-0.2362632234028009,0.1622422121280653,6.675591,38.50043,359.556,0.05369142,0.3293454,-0.02284763,8.15999981760979,1
-13.40989,0.6833334,-8.650952,0.0625426048561124,-0.2472398467952635,0.1814742750547893,10.011,38.32184,359.3174,0.08046868,0.3274558,-0.03424219,8.17999981716275,1
-13.37049,0.8833333,-8.607894,0.084311684040685,-0.2190136759786065,0.1944133537341388,13.34567,38.12701,359.0655,0.1071781,0.3252882,-0.04560667,8.19999981671572,1
-13.22508,0.2833333,-8.463122,0.1093937575086965,-0.2049005471857246,0.2102973802039249,3.527267,40.29211,359.8204,0.02835391,0.3442962,-0.01207024,8.21999981626868,1
-13.1828,0.4833333,-8.418238,0.1209616212289077,-0.1782424822761595,0.2177090804427548,7.053167,40.13105,359.6305,0.05667346,0.3426294,-0.02412713,8.23999981582165,1
-13.14054,0.6833332,-8.373371,0.1191180739405179,-0.1123816231574763,0.2115764482897031,10.57891,39.95667,359.4284,0.08494163,0.3406378,-0.0361646,8.25999981537461,1
-12.98284,0.2833333,-8.214541,0.1132163634740308,-0.0606338199142617,0.2012183776303455,3.565029,41.82284,359.8892,0.02871179,0.3567794,-0.01200554,8.27999981492758,1
-12.93986,0.4833333,-8.169529,0.1125803441896522,-0.0763150160211511,0.1959473078090692,7.129011,41.66846,359.7683,0.05738914,0.3550941,-0.02399854,8.29999981448054,1
-12.89688,0.6833333,-8.12453,0.1061193824464439,-0.1061091356719148,0.1870793266542989,10.69163,41.50507,359.6365,0.08600264,0.3530658,-0.03596496,8.31999981403351,1
-12.72595,0.2833334,-7.949023,0.0964731582092799,-0.0967004626816739,0.1742902470166196,3.589714,43.10144,0.04867245,0.02928741,0.3671321,-0.01111013,8.33999981358647,1
-12.68372,0.4833333,-7.902751,0.0931493526347466,-0.1014046070389811,0.1670168450578151,7.178725,42.96257,0.08937333,0.05854152,0.3654335,-0.02220153,8.35999981313944,1
-12.64151,0.6833333,-7.856493,0.081798254866122,-0.0935638168477227,0.1552579438195005,10.7668,42.82506,0.1215973,0.08772971,0.3633772,-0.03326825,8.3799998126924,1
-12.5993,0.8833332,-7.810249,0.0641168978530917,-0.0465201267737255,0.1368083343675445,14.35392,42.68784,0.145391,0.1168234,0.3609657,-0.04429922,8.39999981224537,1
-12.45649,0.2833333,-7.665992,0.049731015778839,-0.0135896126232163,0.1212471830564938,3.568059,43.84774,0.07937201,0.02913919,0.3731732,-0.01098169,8.41999981179833,1
-12.4143,0.4833333,-7.620189,0.0232540505370018,0.0318857037442605,0.0962307152211394,7.135138,43.71224,0.1502856,0.05824016,0.3714796,-0.02195028,8.4399998113513,1
-12.37213,0.6833335,-7.574399,-0.0152654559593727,0.1165639199944779,0.0577756574360046,10.70134,43.58005,0.2132944,0.08727616,0.3694269,-0.03289451,8.45999981090426,1
-12.21422,0.2833333,-7.413589,-0.0560818608958495,0.1871288525567641,0.0156549420961207,3.646685,44.49796,0.1069906,0.02980235,0.3784128,-0.01118358,8.47999981045723,1
-12.17088,0.4833333,-7.366938,-0.0894724333803225,0.190265010445173,-0.0203609011062111,7.292576,44.36568,0.205744,0.05956601,0.3766929,-0.02235259,8.49999981001019,1
-12.12756,0.6833333,-7.320299,-0.0570189585216489,0.1792883494179183,0.016691971421598,10.93764,44.23859,0.2969064,0.08926076,0.3745923,-0.03349594,8.51999980956316,1
-11.95576,0.2833333,-7.144835,-0.0350309877164427,0.2075143594155307,0.0433469074162538,3.619023,45.30407,0.1278093,0.02957021,0.3849089,-0.01113244,8.53999980911613,1
-11.91239,0.4833333,-7.098897,-0.0132952310045393,0.2216271903534211,0.0698637455012578,7.237275,45.17414,0.2476004,0.05910213,0.3831944,-0.02225064,8.55999980866909,1
-11.86902,0.6833332,-7.05297,-0.1278834697834092,0.8885992402474076,-0.0391971775617694,10.85472,45.05074,0.3602359,0.08856636,0.3810985,-0.03334332,8.57999980822206,1
-11.82567,0.8833331,-7.007056,-0.1201634761256364,0.6641842697018578,-0.0256397392018437,14.47122,44.93299,0.4661534,0.1179318,0.3786234,-0.04440118,8.59999980777502,1
-11.6833,0.2833333,-6.862644,-0.1120679778392172,0.4544050646671538,-0.0117997558935964,3.559619,47.06438,0.2216439,0.02924742,0.3990158,-0.01062805,8.61999980732799,1
-11.64042,0.4833333,-6.817564,-0.0933277206333382,0.2049003774802303,0.0124174909470307,7.118679,46.94365,0.4361317,0.05845788,0.3973101,-0.02124275,8.63999980688095,1
-11.59754,0.6833333,-6.772498,-0.1167397432072672,0.1813786937414239,-0.0052183950474367,10.67711,46.83542,0.6450361,0.08760305,0.3952208,-0.03183374,8.65999980643392,1
-11.44162,0.2833334,-6.61271,-0.1454310577592465,0.1970597979392708,-0.0305417781017203,3.497614,47.52858,0.269307,0.02887666,0.4027205,-0.01014796,8.67999980598688,1
-11.39973,0.4833333,-6.568091,-0.1699800204503372,0.1986279467082127,-0.0542124170394746,6.994783,47.41233,0.5319386,0.05771785,0.4010339,-0.0202834,8.69999980553985,1
-11.35786,0.6833333,-6.523483,-0.0356612189094214,-0.5075469970574009,0.0806920324035784,10.491,47.31143,0.7899346,0.08649375,0.3989728,-0.03039411,8.71999980509281,1
-11.18861,0.2833333,-6.348645,-0.0221022106907824,-0.2972449529306035,0.0960743635653074,3.439601,47.24681,0.2865025,0.02849802,0.4004729,-0.009736688,8.73999980464578,1
-11.1479,0.4833333,-6.304283,-0.0101095102724446,-0.0764888263870965,0.1078802290173976,6.87837,47.13218,0.5668281,0.05695935,0.3988097,-0.01945795,8.75999980419874,1
-11.10719,0.6833333,-6.259933,0.0094766873415128,0.1024508515740759,0.1254819640510094,10.31667,47.03372,0.8426518,0.08536088,0.3967859,-0.02915878,8.77999980375171,1
-11.06649,0.8833332,-6.215596,0.0207484000904702,0.053839197333279,0.1381605193627901,13.75444,46.95115,1.115868,0.113677,0.3944036,-0.03883058,8.79999980330467,1
-10.92475,0.2833333,-6.070881,0.0269741922941015,0.0444304542133885,0.1465600170428067,3.393636,45.67557,0.1859575,0.027919,0.3879085,-0.009997688,8.81999980285764,1
-10.88461,0.4833333,-6.027239,0.0372074417622396,0.0209087726525202,0.1598783063323772,6.786326,45.55215,0.3648182,0.05580217,0.3862762,-0.01998284,8.8399998024106,1
-10.84447,0.6833333,-5.983609,0.0356245119284199,0.0099318912177986,0.161871208863443,10.17841,45.43853,0.5378055,0.0836283,0.3843054,-0.02994756,8.85999980196357,1
-10.68986,0.2833334,-5.824324,0.0233805356731409,0.0381580148167309,0.1515876463818308,3.341214,44.00685,0.1021318,0.02736374,0.3744785,-0.01009669,8.87999980151653,1
-10.65059,0.4833334,-5.781205,0.0096678982233449,0.0522709742530452,0.1380697994752409,6.681284,43.87626,0.1969019,0.05469335,0.3728769,-0.02017959,8.8999998010695,1
-10.61134,0.6833334,-5.738098,0.149059378472911,-0.6413591274828669,0.2790197608821301,10.0206,43.75029,0.2847337,0.0819685,0.370959,-0.0302425,8.91999980062246,1
-10.44339,0.2833333,-5.564918,0.1684529129548835,-0.418512436731093,0.3000676485422371,3.291014,42.22982,359.9741,0.02670631,0.3600971,-0.010555,8.93999980017543,1
-10.40441,0.4833333,-5.52276,0.1844170144154464,-0.1852116332456903,0.3154983526090165,6.580984,42.08844,359.9401,0.05338262,0.3585243,-0.02109832,8.95999979972839,1
-10.36544,0.6833332,-5.480611,0.206174009521149,0.0062724975038547,0.3345520527537777,9.869554,41.944,359.8973,0.08000369,0.3566568,-0.0316216,8.97999979928136,1
-10.32649,0.8833332,-5.438474,0.2179916410730129,-0.029794369939786,0.342678469067716,13.15705,41.79549,359.8456,0.106551,0.3544965,-0.04211589,8.99999979883432,1
-10.11917,0.2833334,-5.22365,0.2231768573946349,-0.0266582062145003,0.3418752441492736,3.234485,39.20992,359.8398,0.02611751,0.3354363,-0.0107858,9.01999979838729,1
-10.08129,0.4833333,-5.181736,0.2307251745443981,-0.0376351943682523,0.3412899203245016,6.467607,39.05772,359.6708,0.05220655,0.3339007,-0.02155978,9.03999979794025,1
-10.04342,0.6833333,-5.139834,0.2237996321939057,-0.0360671300162396,0.3259065629176425,9.699296,38.89478,359.4919,0.07824622,0.3320995,-0.03231313,9.05999979749322,1
-10.00556,0.8833332,-5.097944,0.2036566252088132,0.004703844933973,0.2953983163678946,12.92919,38.71986,359.3018,0.104214,0.3300346,-0.0430343,9.07999979704618,1
-9.857376,0.2833332,-4.944608,0.1792524109831443,0.0313618942494896,0.2590895638392791,3.283712,37.6963,359.7862,0.02651297,0.3229786,-0.01102121,9.09999979659915,1
-9.819334,0.4833332,-4.901587,0.1595662694728092,-0.0094090312179392,0.2263129864448569,6.565907,37.53979,359.5632,0.05299644,0.3214446,-0.02203006,9.11999979615211,1
-9.781302,0.6833332,-4.858577,0.2062717075260884,-0.0642930947127153,0.2648272319107687,9.846516,37.36919,359.3293,0.07942861,0.3196467,-0.03301755,9.13999979570508,1
-9.61687,0.2833333,-4.689004,0.2408483474708411,-0.0799742465638769,0.2911041542907382,3.534789,39.26483,359.8086,0.02848809,0.3358727,-0.01193482,9.15999979525805,1
-9.57515,0.4833333,-4.643387,0.2727582156270589,-0.1097684430523402,0.3150105037680766,7.068102,39.10928,359.6073,0.05694112,0.3342662,-0.02385512,9.17999979481101,1
-9.533454,0.6833334,-4.597791,0.1757550401914134,0.5132962480200308,0.208675765808997,10.60182,38.93966,359.3937,0.08534641,0.3323411,-0.03575963,9.19999979436398,1
-9.355642,0.2833334,-4.413951,0.1861457825550632,0.2449742403780732,0.2119361114566715,3.564491,40.88834,359.8688,0.02874228,0.3491587,-0.01193584,9.21999979391694,1
-9.313137,0.4833335,-4.368484,0.1934015867635228,-0.0087121325165163,0.2132179350714009,7.127826,40.73866,359.7277,0.05744919,0.3475346,-0.02385992,9.23999979346991,1
-9.270644,0.6833335,-4.32303,0.0542666860688241,0.418163997442004,0.0660758785390229,10.68977,40.57872,359.5758,0.08609234,0.3455748,-0.03575753,9.25999979302287,1
-9.228164,0.8833334,-4.277588,0.0367986982931105,0.1937491341381897,0.04230721054931,14.25025,40.40699,359.4117,0.1146439,0.3432816,-0.04761717,9.27999979257584,1
-9.079311,0.2833333,-4.122775,0.0132627405137517,-0.0160299743702398,0.0122664717573992,3.592892,42.21282,0.0105777,0.0292789,0.3599215,-0.01120265,9.2999997921288,1
-9.037275,0.4833333,-4.07626,-0.006523878923593,-0.2655345752236446,-0.014075221668929,7.185006,42.07707,0.01312783,0.05852401,0.3582836,-0.02238793,9.31999979168177,1
-8.995252,0.6833334,-4.029758,0.0018670751357898,-0.289056289018018,-0.0076502612639022,10.77608,41.94027,0.007055786,0.08770312,0.3562946,-0.03354798,9.33999979123473,1
-8.832619,0.2833334,-3.860297,0.0030892676412097,-0.2733750911687755,-0.0079787990651425,3.561988,43.11277,0.07812759,0.02915578,0.3672194,-0.01078522,9.3599997907877,1
-8.791086,0.4833334,-3.814044,0.0072648565995523,-0.271807044675868,-0.0047716665750185,7.122923,42.98374,0.1484304,0.05827363,0.3655865,-0.02155564,9.37999979034066,1
-8.749566,0.6833333,-3.767804,-0.1129071570535833,0.3826199021841605,-0.126591932562442,10.68299,42.85802,0.2112644,0.08732684,0.3636012,-0.03230209,9.39999978989363,1
-8.57181,0.2833333,-3.58228,-0.1158565591656959,0.1456600425654191,-0.1313396287381729,3.63593,43.89091,0.1028193,0.02976057,0.373509,-0.01102423,9.41999978944659,1
-8.52905,0.4833333,-3.535358,-0.1140991877120534,-0.0766640776777467,-0.1316381101046384,7.271041,43.76476,0.1977872,0.05948257,0.3718503,-0.0220343,9.43999978899956,1
-8.486307,0.6833333,-3.488451,-0.2519368484657951,0.3815744090377001,-0.2732369563195003,10.90595,43.64355,0.2853669,0.08914071,0.3698176,-0.03302267,9.45999978855252,1
-8.443576,0.8833333,-3.441558,-0.2599551501261237,0.1885218998772854,-0.2815200614338558,14.54002,43.52647,0.3662425,0.1187006,0.3674137,-0.04397483,9.47999978810549,1
-8.294029,0.2833332,-3.28758,-0.2663942462290194,0.0101052629467488,-0.2868750472598682,3.628353,44.48743,0.1168911,0.02968807,0.3783273,-0.01104038,9.49999978765845,1
-8.251063,0.4833333,-3.24104,-0.2609569830799731,-0.2080369751386186,-0.2787931602235247,7.255883,44.36316,0.2260891,0.05933749,0.3766701,-0.02206651,9.51999978721142,1
-8.20811,0.6833332,-3.194511,-0.2994607805351403,-0.2001964483037902,-0.3136768591312726,10.8826,44.24478,0.3283636,0.08891887,0.3746361,-0.0330674,9.53999978676438,1
-8.044829,0.2833333,-3.025709,-0.3449825817084599,-0.1531529057198486,-0.3546264494173505,3.575006,46.28901,0.2036164,0.02938027,0.3928087,-0.01062726,9.55999978631735,1
-8.002146,0.4833333,-2.980094,-0.387183254430429,-0.1202224103867355,-0.3913149021569742,7.149388,46.17317,0.4003271,0.05872319,0.391156,-0.02124106,9.57999978587031,1
-7.959475,0.6833333,-2.934493,-0.4157242972626642,-0.1547209052563826,-0.4134111339733918,10.72309,46.06879,0.591567,0.08800009,0.3891226,-0.03183109,9.59999978542328,1
-7.916815,0.8833332,-2.888902,-0.4366211770596102,-0.2033323139998517,-0.4301783430050722,14.29577,45.97533,0.7784853,0.1171795,0.3867107,-0.04238778,9.61999978497624,1
-7.71338,0.2833333,-2.67776,-0.447470435776208,-0.2127407998615417,-0.4383178645031195,3.507465,47.19426,0.2743077,0.02900234,0.4000474,-0.0100581,9.63999978452921,1
-7.671692,0.4833333,-2.632715,-0.438612806803019,-0.2362623185996597,-0.4281445233524675,7.014441,47.08514,0.5423621,0.05796872,0.3984124,-0.02010371,9.65999978408217,1
-7.630014,0.6833333,-2.587681,-0.5521167375480527,0.3930750625066356,-0.5419101192279986,10.52043,46.99183,0.8062258,0.08686896,0.3964033,-0.03012498,9.67999978363514,1
-7.588347,0.8833332,-2.54266,-0.5205855477136847,0.1310256376568654,-0.5256194268698302,14.0258,46.91399,1.067669,0.1156791,0.394022,-0.04011511,9.6999997831881,1
-7.447718,0.2833334,-2.396811,-0.4775006917103441,-0.1163882730162595,-0.497421720501382,3.442142,46.92292,0.288238,0.02855178,0.397882,-0.009651039,9.71999978274107,1
-7.407242,0.4833333,-2.352165,-0.5772291200918849,0.316760304789324,-0.6139807477117343,6.883387,46.81519,0.5706861,0.0570664,0.3962738,-0.01928684,9.73999978229403,1
-7.366778,0.6833333,-2.307532,-0.5392585362125182,0.0986177543874474,-0.5860548196046714,10.32414,46.72383,0.8490626,0.08552105,0.3943066,-0.02890244,9.759999781847,1
-7.212254,0.2833333,-2.147368,-0.4989858791090711,-0.1048890704905469,-0.5528332094802506,3.394518,45.43067,0.1880171,0.02795433,0.3859382,-0.009924401,9.77999978139997,1
-7.172315,0.4833333,-2.103516,-0.4474890284094437,-0.3481214180304357,-0.5051953372051016,6.788049,45.31401,0.3692936,0.05587244,0.3843599,-0.01983663,9.79999978095293,1
-7.132388,0.6833333,-2.059677,-0.3604956824498853,-0.3653706697775802,-0.4179448873735306,10.18096,45.20733,0.5451156,0.08373339,0.3824444,-0.02972863,9.8199997805059,1
-6.96511,0.2833333,-1.885028,-0.2763882176933538,-0.3434170145854589,-0.3323489544663007,3.341541,43.75334,0.1027106,0.02739053,0.3724272,-0.01003251,9.83999978005886,1
-6.926041,0.4833333,-1.841722,-0.1859680522396845,-0.3355766355020406,-0.2392428755064464,6.681915,43.62935,0.1984448,0.0547468,0.3708798,-0.02005126,9.85999977961183,1
-6.886983,0.6833332,-1.798429,-0.2248403936290843,0.3251227454404743,-0.277086370210602,10.02153,43.51008,0.287633,0.08204862,0.3690179,-0.03005022,9.87999977916479,1
-6.847936,0.8833331,-1.755147,-0.1399137649224888,0.0944354213961959,-0.1902292867502577,13.36037,43.39482,0.3707415,0.1092728,0.3668433,-0.04002083,9.89999977871776,1
-6.706904,0.2833333,-1.610313,-0.0503216677062718,-0.1216161679768574,-0.0987917714132339,3.290852,41.97637,359.9745,0.02672936,0.3580337,-0.01049253,9.91999977827072,1
-6.668123,0.4833333,-1.567979,-0.1105804574341258,0.3428947387080294,-0.1609737876972807,6.580662,41.84167,359.9412,0.05342872,0.3565165,-0.02097335,9.93999977782369,1
-6.629352,0.6833333,-1.525653,-0.0400137907094055,0.1561146453354097,-0.0902414443390734,9.869079,41.70401,359.8996,0.08007281,0.3547064,-0.03143433,9.95999977737665,1
-6.476069,0.2833333,-1.366255,0.0259789654641622,-0.0160297000369935,-0.0248044054655064,3.240973,39.95645,359.8862,0.02623811,0.3415526,-0.01059486,9.97999977692962,1
-6.438191,0.4833333,-1.32423,0.0961841299682451,-0.2278996645975655,0.0442357074039946,6.480708,39.81467,359.7642,0.05244747,0.3400642,-0.02117809,9.99999977648258,1
-6.400324,0.6833333,-1.282216,0.1941515767437449,-0.2137865226499299,0.1437981227735885,9.719171,39.6649,359.6332,0.0786071,0.3383045,-0.03174119,10.0199997760355,1
-6.234997,0.2833333,-1.108645,0.2813374133425146,-0.1604705825728822,0.231818350289819,3.195076,37.38888,359.7871,0.02581259,0.320445,-0.01069473,10.0399997755885,1
-6.198156,0.4833333,-1.066649,0.366686641567858,-0.1212675738802901,0.3175068471979806,6.388668,37.23933,359.5656,0.05159741,0.3189864,-0.02137786,10.0599997751415,1
-6.161325,0.6833333,-1.024665,0.3146806931797545,0.5707943294296636,0.2632751197261207,9.580718,37.07623,359.334,0.07733446,0.3172797,-0.03204106,10.0799997746944,1
-6.124502,0.8833332,-0.9826926,0.3743998235023946,0.3714693148374677,0.3240018176214974,12.77092,36.89833,359.091,0.1030028,0.3153269,-0.04267266,10.0999997742474,1
-5.978894,0.2833333,-0.8337169,0.4278097212785989,0.186780048768192,0.3793217006225602,3.530027,39.07903,359.7991,0.02844048,0.3343486,-0.01195298,10.1199997738004,1
-5.937235,0.4833333,-0.7881202,0.4839277046112515,-0.0376348226375566,0.4385545355329766,7.058612,38.92906,359.5886,0.05684631,0.3327976,-0.02389163,10.1399997733533,1
-5.895596,0.6833333,-0.7425399,0.3587482964183075,0.6042473803742796,0.3122647283764079,10.58689,38.76453,359.3661,0.08519869,0.3309302,-0.03581266,10.1599997729063,1
-5.853975,0.8833332,-0.6969802,0.3888519724315076,0.3547426649612611,0.3468174612198739,14.11495,38.58377,359.1302,0.1134736,0.3287484,-0.04770133,10.1799997724593,1
-5.692526,0.2833334,-0.5455378,0.4068517110787644,0.1198736975484577,0.3706449670436533,3.563268,41.22168,359.8727,0.02870942,0.3518806,-0.01198384,10.1999997720122,1
-5.649823,0.4833333,-0.5002884,0.4219770610735729,-0.1547207690044931,0.3930909272970933,7.125443,41.07891,359.7358,0.05738337,0.3503075,-0.0239572,10.2199997715652,1
-5.607132,0.6833333,-0.4550518,0.4598879293395685,-0.2033324753416031,0.4410156776964979,10.68623,40.92624,359.5886,0.08599351,0.3483963,-0.03590396,10.2399997711182,1
-5.444616,0.2833333,-0.285219,0.4842215068924629,-0.2127411706339426,0.4752155547735637,3.592808,42.54853,0.01176817,0.02924903,0.3626514,-0.01127844,10.2599997706711,1
-5.402327,0.4833333,-0.2389359,0.504579353659592,-0.2362629178814621,0.5053434864628938,7.18485,42.4193,0.01589895,0.05846436,0.3610626,-0.02253963,10.2799997702241,1
-5.36005,0.6833333,-0.1926659,0.3936257890697203,0.3930743351619968,0.4023422948860875,10.77588,42.28918,0.01183192,0.0876139,0.35912,-0.03377553,10.2999997697771,1
-5.18373,0.2833333,-0.00830787,0.3894583447334629,0.1310246692578964,0.4074869065594571,3.56199,43.33648,0.07657916,0.0291297,0.369034,-0.01085467,10.31999976933,1
-5.142001,0.4833333,0.03776632,0.3806689889330541,-0.1163892491686958,0.408418929359837,7.122903,43.2137,0.1457594,0.05822152,0.3674508,-0.0216941,10.339999768883,1
-5.100284,0.6833332,0.08382741,0.2240774240051579,0.3167592212209176,0.257835776069456,10.68294,43.09422,0.2078466,0.08724876,0.3655137,-0.03250948,10.359999768436,1
-5.058579,0.8833331,0.1298753,0.1876195000518126,0.0986168105556328,0.2282799400281807,14.24207,42.97719,0.263123,0.1161834,0.3632246,-0.04329044,10.3799997679889,1
-4.908906,0.2833334,0.2842541,0.1436067608486739,-0.1048897331068271,0.1898207215250733,3.635609,44.03584,0.1010777,0.02973831,0.3746818,-0.01107489,10.3999997675419,1
-4.866014,0.4833333,0.3310461,0.1018312131840222,-0.3481217631031525,0.1523246642748497,7.270391,43.91603,0.1947101,0.05943816,0.3730742,-0.02213554,10.4199997670949,1
-4.823137,0.6833333,0.3778222,0.0849288101327756,-0.3653710195546462,0.1434276926037081,10.90498,43.80114,0.2813809,0.08907446,0.3710917,-0.0331742,10.4399997666478,1
-4.659916,0.2833333,0.5467963,0.05882512279423,-0.343417371157696,0.1252122240940676,3.628609,44.65783,0.1169974,0.02967403,0.3797024,-0.0110845,10.4599997662008,1
-4.616813,0.4833333,0.5932163,0.0335924962167411,-0.3355767741932207,0.1078443971896829,7.2564,44.53991,0.2267067,0.05930958,0.3780948,-0.02215474,10.4799997657537,1
-4.573721,0.6833333,0.6396232,-0.1181768469342157,0.3251228235849407,-0.0390574902823241,10.88335,44.42799,0.329899,0.08887695,0.3761087,-0.03319963,10.4999997653067,1
-4.39664,0.2833333,0.8233777,-0.0849142249042977,0.0944355029382471,0.0047565464324716,3.575156,46.39162,0.2024993,0.0293681,0.3936318,-0.01066303,10.5199997648597,1
-4.353863,0.4833333,0.8689061,-0.0573917355021955,-0.1216160697082321,0.0422010537041432,7.149657,46.28201,0.3984803,0.05869882,0.3920289,-0.02131253,10.5399997644126,1
-4.311098,0.6833333,0.9144215,-0.1781582804365782,0.3428948537032301,-0.074271314256141,10.72346,46.18387,0.5893767,0.0879636,0.3900443,-0.03193824,10.5599997639656,1
-4.268344,0.8833332,0.9599264,-0.3001613731105657,0.7964288511628859,-0.1945443199519214,14.29622,46.09671,0.7763783,0.1171309,0.3876803,-0.04253019,10.5799997635186,1
-4.120616,0.2833333,1.112935,-0.2934703094572775,0.3340087733494614,-0.189126662944306,3.512822,47.13168,0.2594263,0.02899877,0.3995502,-0.01017992,10.5999997630715,1
-4.078734,0.4833333,1.157901,-0.2785183556714501,-0.1393880041714214,-0.179322457796391,7.025106,47.02754,0.5128752,0.05796158,0.3979645,-0.02034719,10.6199997626245,1
-4.036862,0.6833332,1.202856,-0.3758483195873718,0.2812156679215134,-0.2836576045634049,10.53643,46.93832,0.7622754,0.08685865,0.3960041,-0.03049029,10.6399997621775,1
-3.995001,0.8833332,1.247798,-0.3366454628278799,0.050528339956943,-0.2520151049511123,14.04706,46.86377,1.009333,0.1156651,0.393671,-0.04060161,10.6599997617304,1
-3.807275,0.2833333,1.443213,-0.2955395792553077,-0.1655232400074118,-0.2221102175157661,3.449128,46.97605,0.2891438,0.02860634,0.398306,-0.00968132,10.6799997612834,1
-3.766683,0.4833333,1.487919,-0.2431094989503686,-0.4213003191119133,-0.184341699176679,6.897338,46.87474,0.5729373,0.05717564,0.3967451,-0.01934686,10.6999997608364,1
-3.726102,0.6833333,1.532612,-0.1716153915832028,-0.451094638000576,-0.107746324440467,10.34502,46.78995,0.8530614,0.08568463,0.3948235,-0.02899204,10.7199997603893,1
-3.558799,0.2833333,1.70714,-0.105340486846305,-0.4416859458444666,-0.0351047620913207,3.396644,45.45046,0.1878349,0.02796911,0.3860972,-0.009937857,10.7399997599423,1
-3.518819,0.4833333,1.751003,-0.0348846746230497,-0.4463903056435381,0.0432634019231663,6.79225,45.34004,0.3693149,0.05590177,0.3845683,-0.01986327,10.7599997594953,1
-3.478852,0.6833333,1.794854,-0.0947108349856256,0.2017643348483696,-0.0125401370889965,10.18721,45.23969,0.5457142,0.08377714,0.3827016,-0.02976839,10.7799997590482,1
-3.438895,0.8833332,1.838692,-0.1477046775154178,0.6984546850958762,-0.0617691881695483,13.5815,45.14894,0.7181706,0.1115708,0.380499,-0.03964453,10.7999997586012,1
-3.298919,0.2833333,1.983731,-0.0441090450679779,0.1676293783984431,0.0474054528450307,3.341838,43.74369,0.1022802,0.02739238,0.3723491,-0.01003465,10.8199997581542,1
-3.259851,0.4833333,2.027044,-0.0941254205587165,0.3466032453036991,-0.0021572695443965,6.682493,43.62602,0.1979585,0.05475048,0.370853,-0.02005548,10.8399997577071,1
-3.220793,0.6833332,2.070345,-0.1452172738457642,0.5427915596134599,-0.0539448024356725,10.02239,43.51312,0.2874749,0.0820542,0.3690423,-0.03005643,10.8599997572601,1
-3.067459,0.2833333,2.22913,-0.06705398153324,0.0636097151775657,0.02422116713063,3.291237,42.02102,359.9755,0.02673147,0.3583971,-0.01049619,10.879999756813,1
-3.028655,0.4833333,2.271452,0.0146247967995498,-0.4260609370020345,0.1041512214745452,6.581441,41.89261,359.9435,0.05343294,0.3569299,-0.02098072,10.899999756366,1
-2.989861,0.6833333,2.313766,-0.0204518657958603,-0.0212434871773985,0.0652450290701232,9.870255,41.76138,359.9036,0.08007901,0.3551693,-0.03144554,10.919999755919,1
-2.824308,0.2833333,2.486973,0.0850752303836519,-0.2672290520564729,0.1691490775980626,3.241062,39.94768,359.8857,0.02623813,0.3414808,-0.01059732,10.9399997554719,1
-2.786431,0.4833333,2.529002,0.1890418202706701,-0.4980909903005701,0.2693059048281956,6.480899,39.81205,359.7635,0.05244752,0.340043,-0.02118298,10.9599997550249,1
-2.748565,0.6833333,2.571018,0.1562519528287443,-0.0479025538519632,0.2285885739190121,9.719478,39.66846,359.6327,0.07860719,0.3383339,-0.03174852,10.9799997545779,1
-2.710707,0.8833332,2.613024,0.1235107802784103,0.3917969419986308,0.1867654834055594,12.95647,39.51583,359.4923,0.1046946,0.3363554,-0.04228285,10.9999997541308,1
-2.505285,0.2833333,2.828749,0.2029165612264657,-0.0839697715953751,0.2577979644095336,3.267549,37.46423,359.7801,0.02638452,0.3210646,-0.0109729,11.0199997536838,1
-2.467512,0.4833333,2.871636,0.1259357360661739,0.1500626766524317,0.1673098861883728,6.533623,37.31994,359.5516,0.05273995,0.31964,-0.02193357,11.0399997532368,1
-2.429749,0.6833333,2.914512,0.0444147136368507,0.4013094543475469,0.0718210715623417,9.798149,37.16138,359.313,0.07904474,0.3179554,-0.03287315,11.0599997527897,1
-2.391998,0.8833332,2.957373,0.0852545304634049,-0.0228139379411576,0.1028202572743222,13.06139,36.98724,359.0628,0.1052811,0.3160125,-0.04378157,11.0799997523427,1
-2.241834,0.2833333,3.112448,0.1234222255239792,-0.4574262692597583,0.1316808796074093,3.529907,38.96845,359.8059,0.02847082,0.3334378,-0.01186921,11.0999997518957,1
-2.200372,0.4833333,3.158192,0.0421220767271256,0.002449729761048,0.0390201293856522,7.058395,38.8254,359.6026,0.05690683,0.3319392,-0.02372408,11.1199997514486,1
-2.158934,0.6833333,3.203914,-0.0369054139208382,0.4518366835556312,-0.0506790553681044,10.58734,38.66831,359.388,0.08529554,0.3301252,-0.03556282,11.1399997510016,1
-1.996627,0.2833333,3.372256,0.056757465018806,-0.0142423304302294,0.0397175726589891,3.563187,40.67657,359.8697,0.02875638,0.3474272,-0.0118713,11.1599997505546,1
-1.954322,0.4833333,3.417878,0.1496378364271368,-0.4908103891196037,0.1309959969459235,7.125286,40.53967,359.7303,0.05747766,0.3459086,-0.02373116,11.1799997501075,1
-1.912029,0.6833333,3.463487,0.0763532826302663,-0.0728901164241617,0.0525681677590679,10.68602,40.39276,359.581,0.08613507,0.3440561,-0.03556474,11.1999997496605,1
-1.736516,0.2833333,3.648226,0.1441152549120218,-0.3057729620152319,0.1208008744846829,3.592747,42.06765,0.01218029,0.0292969,0.3587396,-0.01115205,11.2199997492135,1
-1.694625,0.4833333,3.694869,0.2033760733755161,-0.523532177835091,0.1804484751794985,7.184735,41.94458,0.01710778,0.05856006,0.3572044,-0.02228704,11.2399997487664,1
-1.652746,0.6833333,3.741498,0.1119091053066896,-0.0602410158260136,0.0857554879700588,10.77569,41.82071,0.01423953,0.08775723,0.3553191,-0.03339697,11.2599997483194,1
-1.610879,0.8833332,3.788114,0.014906947802439,0.3925611020022564,-0.0142943964249466,14.36562,41.69505,0.003328346,0.1168598,0.353086,-0.044471,11.2799997478724,1
-1.569024,0.9766704,3.834717,0.034535445023356,-0.0701029736715612,0.0050102397981559,17.95448,41.56648,359.9839,0.1458393,0.3505073,-0.05549828,11.2999997474253,1
-1.39512,0.2833333,4.015224,0.0530108184362613,-0.5432558672818418,0.0235772994231391,3.569839,43.20723,0.08600765,0.02923586,0.3679827,-0.01077056,11.3199997469783,1
-1.353522,0.4833333,4.061606,-0.0397810093750205,-0.1219204295073079,-0.0698906674443371,7.138689,43.09169,0.1649634,0.05843388,0.3664494,-0.02152702,11.3399997465312,1
-1.311935,0.6833333,4.107976,0.0008061583846528,-0.3513880033002515,-0.0265336543924297,10.70667,42.98012,0.237359,0.08756682,0.3645613,-0.03225954,11.3599997460842,1
-1.15659,0.2833333,4.269798,0.0413237797150009,-0.5657319467992805,0.0162298754026259,3.647057,43.90065,0.1101553,0.02987356,0.3735847,-0.01100369,11.3799997456372,1
-1.113785,0.4833333,4.316948,-0.0452018438038082,-0.0990256181429931,-0.0697473694866532,7.293293,43.78793,0.2133055,0.0597083,0.3720245,-0.0219932,11.3999997451901,1
-1.070992,0.6833333,4.364084,-0.1268990209408855,0.357191667377896,-0.1501698452984916,10.93868,43.68085,0.3101873,0.08947399,0.3700883,-0.03295736,11.4199997447431,1
-0.9019202,0.2833333,4.540555,-0.0250516312857767,-0.1020572395578873,-0.0388452809299719,3.619188,44.75142,0.1299468,0.02963198,0.3804551,-0.010973,11.4399997442961,1
-0.859021,0.4833333,4.586945,-0.0726782278329899,0.1484930318133633,-0.0803344391477134,7.237567,44.64088,0.2531121,0.05922563,0.3788991,-0.02193193,11.459999743849,1
-0.8161339,0.6833333,4.633322,-0.1234509446320784,0.416257755293471,-0.1244015074845199,10.85512,44.53727,0.370378,0.08875145,0.3769657,-0.03286589,11.479999743402,1
-0.7732596,0.8833333,4.679688,-0.1672812240538983,0.6489662787899546,-0.1607826974060975,14.47168,44.43987,0.4822562,0.1181781,0.3746572,-0.0437657,11.499999742955,1
-0.6334443,0.2833334,4.824399,-0.0843661992332636,-0.0594038378779113,-0.0675007396302804,3.559602,46.55801,0.2233924,0.02929999,0.3949619,-0.01048463,11.5199997425079,1
-0.5909863,0.4833334,4.869884,-0.1870103887845846,0.155463177317139,-0.1655637256374911,7.118572,46.45656,0.4408317,0.05856292,0.3934124,-0.02095608,11.5399997420609,1
-0.5485404,0.6833333,4.915356,-0.2867575396696478,0.3875446446210451,-0.2610325349319273,10.67685,46.36795,0.6539278,0.08776052,0.3914829,-0.03140421,11.5599997416139,1
-0.3951908,0.2833334,5.07557,-0.2507676049843361,-0.0557440554453444,-0.2198854865625445,3.497597,47.05785,0.2708231,0.02892325,0.3989588,-0.01001706,11.5799997411668,1
-0.3537001,0.4833333,5.120558,-0.2046273817116075,-0.5095216919281007,-0.1705071872021939,6.994652,46.96079,0.5361388,0.05781084,0.3974271,-0.02002179,11.5999997407198,1
-0.3122184,0.6833333,5.165534,-0.2734706981287746,-0.0688109954579248,-0.2376708889673935,10.49068,46.8794,0.7980064,0.08663304,0.3955242,-0.03000232,11.6199997402728,1
-0.2707484,0.8833332,5.210497,-0.1982980124742839,-0.2789034157061422,-0.1570608812488148,13.98605,46.81348,1.058175,0.1153659,0.3932521,-0.03995201,11.6399997398257,1
-0.0778423,0.2833334,5.412812,-0.1199244359885669,-0.4738723113340615,-0.0748712968519695,3.435142,46.54296,0.2724067,0.02847299,0.3948442,-0.009659046,11.6599997393787,1
-0.03756741,0.4833333,5.457445,-0.1741080623299931,0.0122091852413525,-0.1286373182097477,6.869311,46.44613,0.5396763,0.05690911,0.3933399,-0.01930283,11.6799997389317,1
0.002696037,0.6833333,5.502066,-0.2241849179265473,0.4878016514876526,-0.1783537060711708,10.30291,46.36479,0.8034093,0.08528569,0.3914811,-0.02892646,11.6999997384846,1
0.1751325,0.2833333,5.683703,-0.0862765892938168,0.0479280442798883,-0.0300998262899767,3.382925,44.88244,0.1698973,0.0278477,0.3815282,-0.009898029,11.7199997380376,1
0.2147244,0.4833333,5.727573,-0.1088331345392341,0.3178536143337481,-0.0478284332625298,6.76476,44.77645,0.3337498,0.05565941,0.3800564,-0.01978332,11.7399997375906,1
0.254305,0.6833333,5.77143,-0.1403322655022461,0.6049936354510516,-0.0752043490860927,10.14591,44.67947,0.4926572,0.08341455,0.3782537,-0.02964852,11.7599997371435,1
0.2938744,0.8833332,5.815275,-0.1718394118380297,0.857077562258352,-0.103248204944867,13.52636,44.59103,0.6476159,0.111089,0.3761219,-0.03948512,11.7799997366965,1
0.4391646,0.2833333,5.967014,-0.0828306048879934,0.1680828350496088,-0.0092922219711528,3.329245,43.12795,0.07011294,0.02724063,0.3673682,-0.0101079,11.7999997362494,1
0.4780234,0.4833333,6.010201,0.0112390513904516,-0.4300122286072099,0.088408070046924,6.657246,43.01348,0.1337027,0.05444709,0.3659289,-0.02020271,11.8199997358024,1
0.5168711,0.6833333,6.053376,-0.0387562913100856,-0.0344982966773949,0.0386252593899749,9.984428,42.90191,0.1910735,0.08159991,0.3641818,-0.03027767,11.8399997353554,1
0.675096,0.2833334,6.218886,0.043236902502969,-0.2902753729070191,0.1238575435953475,3.278758,41.4287,359.9511,0.02660851,0.3535757,-0.01051778,11.8599997349083,1
0.7136313,0.4833333,6.261166,0.1255635060473983,-0.5314167087156556,0.2073016602840649,6.556442,41.30425,359.8951,0.0531874,0.3521648,-0.02102389,11.8799997344613,1
0.7521566,0.6833333,6.303437,0.0809311954270377,-0.091995555522879,0.1598005451790749,9.832693,41.17562,359.8312,0.07971164,0.3504665,-0.03151005,11.8999997340143,1
0.7906709,0.8833332,6.345695,0.0379593713774979,0.3364486651842763,0.1124702493451703,13.10786,41.04187,359.759,0.1061631,0.3484827,-0.04196751,11.9199997335672,1
0.9875881,0.2833333,6.553022,0.1727527579364456,-0.1510613021117921,0.2483908381902599,3.22311,38.0525,359.8022,0.02602438,0.3259177,-0.01079917,11.9399997331202,1
1.025003,0.4833333,6.595139,0.1544962565826071,0.0707400334006463,0.2249105981987238,6.444807,37.91599,359.5965,0.05202036,0.3245464,-0.02158656,11.9599997326732,1
1.062407,0.6833333,6.637243,0.1265191112922341,0.3092679455234077,0.1899820842677178,9.665033,37.7668,359.3815,0.0779674,0.3229184,-0.03235351,11.9799997322261,1
1.099803,0.8833332,6.679336,0.0975169900567709,0.5122516754449861,0.1527553903971075,12.88345,37.60375,359.1558,0.1038437,0.3210356,-0.04308804,11.9999997317791,1
1.240001,0.2833333,6.826098,0.1773413247406905,-0.2263310040999891,0.2270976474740615,3.372726,37.6687,359.7894,0.02725956,0.322744,-0.01123897,12.0199997313321,1
1.278938,0.4833333,6.87042,0.1442514850134721,-0.0421645611802953,0.1859724055049501,6.744021,37.53069,359.5704,0.05448781,0.3213427,-0.02246505,12.039999730885,1
1.317863,0.6833333,6.914729,0.1109636420751036,0.1587284439753251,0.1446263901757074,10.11383,37.37852,359.3413,0.08166117,0.319663,-0.03366845,12.059999730438,1
1.472292,0.2833334,7.075697,0.2022154357710661,-0.3162365953059954,0.2345190116655082,3.537798,39.41067,359.825,0.02854586,0.3370662,-0.01184514,12.079999729991,1
1.51392,0.4833333,7.121425,0.1626525572660773,-0.0818904533949456,0.1902131000410118,7.074307,39.27533,359.6413,0.05705695,0.3356108,-0.02367699,12.0999997295439,1
1.555529,0.6833333,7.167134,0.1207254673249877,0.1691823697546375,0.1441362867322215,10.61057,39.12721,359.4468,0.08551411,0.3338354,-0.03549,12.1199997290969,1
1.722905,0.2833333,7.342749,0.2168023383256079,-0.2556028520554282,0.2437695914328657,3.567901,40.90902,359.8904,0.0288338,0.349322,-0.011775,12.1399997286499,1
1.765172,0.4833332,7.388501,0.3121896376153921,-0.6913648878712106,0.3434057248412081,7.134767,40.78002,359.7723,0.05763258,0.3478487,-0.02353775,12.1599997282028,1
1.807428,0.6833332,7.434241,0.2348913739967031,-0.2331265883714344,0.2643671552769024,10.70033,40.64241,359.6449,0.08636719,0.346039,-0.03527429,12.1799997277558,1
1.849671,0.8833331,7.479967,0.1569563384344059,0.2141350038416528,0.1843727220899538,14.26455,40.49484,359.507,0.1150098,0.3438949,-0.04697336,12.1999997273088,1
2.05613,0.2833333,7.698903,0.2650561244518274,-0.2545574867975684,0.2947085943198004,3.577722,42.42742,0.05572214,0.02927699,0.3616571,-0.0108425,12.2199997268617,1
2.097569,0.4833333,7.745604,0.2101513334207259,-0.0139386890026863,0.2359223311933576,7.154622,42.31452,0.1050495,0.05851964,0.3601722,-0.02166699,12.2399997264147,1
2.138997,0.6833333,7.792291,0.1435307130390137,0.2434066715508277,0.1648483640157003,10.73059,42.20376,0.1476899,0.08769691,0.3583373,-0.0324673,12.2599997259676,1
2.180413,0.8833333,7.838964,0.0747253976472217,0.4652079432931994,0.0913150511259317,14.30562,42.09431,0.1837849,0.1167803,0.3561544,-0.04323297,12.2799997255206,1
2.32638,0.2833334,7.992151,0.1271427680205947,-0.2545573134335941,0.1388664775019581,3.597241,43.23329,0.08683063,0.02945826,0.3681909,-0.01085859,12.2999997250736,1
2.368323,0.4833334,8.038877,0.055435688497885,-0.0515734327986084,0.0594140820299404,7.193602,43.12378,0.1669115,0.05887887,0.3666968,-0.02170341,12.3199997246265,1
2.410252,0.6833334,8.08559,-0.0171449057136987,0.1681370254921129,-0.0211728804764348,10.78931,43.01838,0.2406233,0.08823436,0.364842,-0.03252577,12.3399997241795,1
2.570342,0.2833334,8.254581,0.0463960066163569,-0.2880106647596107,0.0373075973460075,3.642875,43.77266,0.1067851,0.02984104,0.3725504,-0.010984,12.3599997237325,1
2.613025,0.4833334,8.301731,-0.0308128036712087,-0.0348471712054361,-0.048386426562601,7.284907,43.6655,0.206936,0.05964334,0.3710402,-0.02195373,12.3799997232854,1
2.655697,0.6833334,8.348867,-0.1112516087143129,0.2350428994817666,-0.136531885036284,10.92607,43.56385,0.3011417,0.08937669,0.3691558,-0.03289827,12.3999997228384,1
2.698354,0.8833333,8.395989,-0.1847793945166076,0.4693889080158082,-0.2170645062125213,14.5668,43.46699,0.3899179,0.1190146,0.3668992,-0.04380877,12.4199997223914,1
2.898017,0.2833333,8.606444,-0.0725629193634453,-0.2378314795877173,-0.1042776367477902,3.598258,45.59518,0.1908335,0.02958784,0.3872371,-0.01063055,12.4399997219443,1
2.940586,0.4833333,8.652703,-0.1455453708346299,-0.0223026113495643,-0.1827693997810264,7.195805,45.49636,0.3757598,0.05913772,0.3857277,-0.0212476,12.4599997214973,1
2.983142,0.6833333,8.698949,-0.2234705751689407,0.20995283297621,-0.2659702963951584,10.79259,45.40846,0.556161,0.08862038,0.383838,-0.03184063,12.4799997210503,1
3.025687,0.8833331,8.745184,-0.2962896877196543,0.4066640945780945,-0.343594364019351,14.38837,45.33106,0.7331212,0.1180044,0.3815702,-0.0424004,12.4999997206032,1
3.163006,0.2833334,8.889532,-0.2378870024075432,-0.3381910404802911,-0.289097218862306,3.530459,46.65918,0.2524815,0.02915778,0.3957685,-0.01017682,12.5199997201562,1
3.20482,0.4833333,8.934966,-0.2872099925615385,-0.1602969202197044,-0.3436096270186812,7.060329,46.56623,0.4996403,0.05827927,0.3942745,-0.02034094,12.5399997197092,1
3.246622,0.6833333,8.980387,-0.3268586552196719,0.0343237756057975,-0.3883577195793961,10.58951,46.48798,0.7432774,0.08733646,0.3924054,-0.03048272,12.5599997192621,1
3.397022,0.2833333,9.140197,-0.224395758595171,-0.4469135724829345,-0.2891417080659497,3.468175,46.69046,0.2864315,0.02877354,0.3960182,-0.009697566,12.5799997188151,1
3.437661,0.4833333,9.185301,-0.2460470225840962,-0.2188398583819075,-0.3163409311514709,6.935496,46.60059,0.5681326,0.05751046,0.3945457,-0.01938004,12.5999997183681,1
3.478289,0.6833333,9.230392,-0.2625168964553097,0.0259606447220944,-0.3376616057203119,10.40209,46.52732,0.8468227,0.08618501,0.3927106,-0.02904163,12.619999717921,1
3.641925,0.2833334,9.404786,-0.2648615518791946,0.2352170584922487,-0.3437569585203821,3.416021,46.10995,0.2545824,0.02829494,0.3913783,-0.009629123,12.639999717474,1
3.681838,0.4833333,9.449267,-0.2306573552513704,0.2231948317495926,-0.3084387136607702,6.831105,46.01718,0.5040415,0.05655342,0.3899298,-0.01924525,12.6599997170269,1
3.721739,0.6833333,9.493735,-0.2027879845713407,0.2566481010979712,-0.2769543329709449,10.24558,45.93877,0.7500492,0.08475325,0.388134,-0.02884157,12.6799997165799,1
3.761629,0.8833333,9.538191,-0.1722018000249932,0.2822608040601442,-0.2399153260764741,13.65938,45.87455,0.9943113,0.1128693,0.3859929,-0.0384094,12.6999997161329,1
3.967829,0.2833334,9.753016,0.0121923747711569,-0.3935970758988152,-0.037290429964246,3.362343,44.0099,0.1290679,0.02762238,0.3744946,-0.009948635,12.7199997156858,1
4.007008,0.4833334,9.796732,0.0024254682988251,-0.1467056979252701,-0.0363054377090215,6.723503,43.90613,0.2522155,0.0552093,0.373083,-0.01988443,12.7399997152388,1
4.046176,0.6833334,9.840435,-0.0162378370814151,0.1169122454204306,-0.043997895243601,10.08392,43.8089,0.3702269,0.08274081,0.3713509,-0.0298003,12.7599997147918,1
4.085333,0.8833333,9.884126,-0.0342929136839442,0.3449861025685181,-0.0512677837505552,13.44357,43.71768,0.483808,0.1101932,0.3693,-0.03968766,12.7799997143447,1
4.231185,0.2833334,10.03436,0.0706624167791263,-0.3685066861870518,0.0698401470850189,3.305822,42.29318,0.007995661,0.02692751,0.3606034,-0.01034084,12.7999997138977,1
4.269936,0.4833333,10.07707,0.0559920844952506,-0.1592503488190098,0.0682948128409979,6.610693,42.17916,0.009413758,0.05382476,0.3592241,-0.0206701,12.8199997134507,1
4.308677,0.6833333,10.11977,0.0416314003086277,0.066732767881954,0.0665851199652483,9.914191,42.06435,0.004003364,0.08066553,0.357547,-0.03097929,12.8399997130036,1
4.466705,0.2833333,10.28443,0.1631956216429868,-0.3831424085747003,0.2082792858754114,3.254209,40.4745,359.9077,0.02636307,0.3457901,-0.01057759,12.8599997125566,1
4.504824,0.4833333,10.32653,0.1460620277119133,-0.1237061990255646,0.2047261319577895,6.507255,40.35223,359.8083,0.05269701,0.3444397,-0.02114355,12.8799997121096,1
4.542931,0.6833332,10.36862,0.1242679414271474,0.1524565508058644,0.1949723645581969,9.759118,40.22337,359.701,0.07898064,0.3428122,-0.03168939,12.8999997116625,1
4.581346,0.8833331,10.41055,0.1065473858609031,0.3930752960688504,0.1880544859408424,13.01217,40.0555,359.568,0.105173,0.3406685,-0.04232441,12.9199997112155,1
4.778177,0.2833333,10.61688,0.270863680157996,-0.3078727358580063,0.3676891688415296,3.196814,37.19696,359.7528,0.02574944,0.3188663,-0.01093973,12.9399997107685,1
4.81547,0.4833333,10.65864,0.2476634395392132,-0.0860714128033829,0.3505864145322004,6.392442,36.99035,359.4923,0.05147211,0.3169625,-0.02188201,12.9599997103214,1
4.85275,0.6833333,10.70038,0.2134249316541678,0.1524564792823366,0.3212098653639064,9.586423,36.76754,359.2177,0.07714804,0.3148113,-0.03280802,12.9799997098744,1
4.890015,0.8833331,10.74211,0.1769666034752628,0.355440288829379,0.2887247075852261,12.77936,36.52778,358.9266,0.1027614,0.3124235,-0.04371623,12.9999997094274,1
5.036025,0.2833333,10.89277,0.2495031371017475,-0.3831424104912877,0.367306422128788,3.530358,38.34882,359.7782,0.02845909,0.3283447,-0.01194413,13.0199997089803,1
5.077401,0.4833333,10.93866,0.2106974598235291,-0.1989759661777103,0.3293674053028486,7.05899,38.14346,359.5435,0.05688338,0.3263611,-0.02387378,13.0399997085333,1
5.11876,0.6833333,10.98453,0.1714210566642782,0.0019172621731396,0.2899767727072468,10.58701,37.92158,359.2934,0.0852553,0.3240671,-0.03578269,13.0599997080863,1
5.275426,0.2833334,11.14725,0.2586087837144308,-0.4730477840775889,0.3712053404768447,3.561008,40.049,359.8416,0.02871934,0.3422966,-0.01193695,13.0799997076392,1
5.317603,0.4833333,11.19297,0.2173759863864717,-0.2387015319628057,0.3189672098108946,7.12066,39.84991,359.6703,0.05740337,0.3402978,-0.02386241,13.0999997071922,1
5.359767,0.6833334,11.23867,0.1745443289048678,0.0123712928420098,0.2649214094877958,10.67865,39.63823,359.4848,0.08602346,0.3379709,-0.03576136,13.1199997067451,1
5.401919,0.8833333,11.28436,0.1394720047647109,0.2279001454861188,0.2186528991809027,14.23491,39.41195,359.2832,0.1145521,0.3353182,-0.04762232,13.1399997062981,1
5.59818,0.2833333,11.49197,0.1315755518438957,0.2221501284981905,0.2056197091268981,3.589865,41.64943,359.9939,0.02925729,0.3553373,-0.01118497,13.1599997058511,1
5.639959,0.4833333,11.53864,0.1141631233020676,0.2618756047264181,0.1810449613758109,7.178896,41.4654,359.9767,0.05848059,0.3533261,-0.02235311,13.179999705404,1
5.681726,0.6833333,11.58531,0.0969289312216945,0.2937605111708555,0.1548602590478367,10.76685,41.27863,359.9476,0.08763821,0.3509693,-0.03349618,13.199999704957,1
5.856575,0.2833333,11.77313,0.2277076856842752,-0.3758252892741505,0.2757299781981714,3.561182,42.28206,0.06739417,0.02919288,0.3604736,-0.01065836,13.21999970451,1
5.897578,0.4833334,11.81983,0.1608973946592673,-0.1226618367523528,0.1927005246169795,7.121315,42.10549,0.1241733,0.05834816,0.3584708,-0.02130053,13.2399997040629,1
5.938643,0.6833334,11.86659,0.0843345907277921,0.1472281884594752,0.0982926026673567,10.68606,41.94666,0.1713192,0.08748169,0.3562478,-0.0319402,13.2599997036159,1
5.980093,0.8833333,11.91335,0.0075733347014015,0.3815742404651875,0.0024120417346509,14.26262,41.7861,0.1951019,0.1165833,0.3536679,-0.04269431,13.2799997031689,1
6.127763,0.2833334,12.07148,0.0567656528477735,-0.3256462409639671,0.0257709295568098,3.64162,42.83014,0.0901616,0.02986724,0.3649139,-0.01086918,13.2999997027218,1
6.169965,0.4833333,12.11905,-0.0178443348338008,-0.1101173770816935,-0.074758231309346,7.280342,42.66121,0.16797,0.05967301,0.3629279,-0.02173183,13.3199997022748,1
6.212211,0.6833335,12.1665,-0.092265865419967,0.1221380461616269,-0.1742758525813759,10.91935,42.47402,0.2259525,0.08939467,0.3604079,-0.03263448,13.3399997018278,1
6.373206,0.2833334,12.34001,-0.1567934808203004,0.3188493905252096,-0.2626435479904927,3.636049,43.56275,0.1067389,0.02980567,0.3708516,-0.0109076,13.3599997013807,1
6.415722,0.4833335,12.38726,-0.1876578718597699,0.2942819981110591,-0.3176457433534434,7.275429,43.39253,0.2039036,0.05960901,0.3688359,-0.0218056,13.3799997009337,1
6.458236,0.6833335,12.43451,-0.2252635890378309,0.3151898982812862,-0.3764485300705136,10.91478,43.22963,0.2913621,0.08934986,0.3664692,-0.0326803,13.3999997004867,1
6.500729,0.8833335,12.48176,-0.2593338955348931,0.3282572670865738,-0.4288087107175151,14.55461,43.07063,0.3682638,0.1189985,0.3637371,-0.04353245,13.4199997000396,1
6.701768,0.2833334,12.69269,-0.1451623758385194,-0.3601455800900404,-0.321442031099437,3.579455,45.76995,0.2273114,0.02954422,0.3886348,-0.01031874,13.4399996995926,1
6.743965,0.4833334,12.73938,-0.2130111092361275,-0.1257992692580126,-0.3983000747523206,7.178102,45.69933,0.4569344,0.0592323,0.3873198,-0.02064084,13.4599996991456,1
6.786185,0.6833334,12.78609,-0.2827332163663918,0.1252736265476279,-0.4738241131050138,10.77775,45.64911,0.6850761,0.08886843,0.3856718,-0.03094406,13.4799996986985,1
6.828408,0.8833333,12.83274,-0.3444191601198341,0.3408024552344025,-0.5380764526475303,14.37801,45.60069,0.9061406,0.1184009,0.3835505,-0.0412617,13.4999996982515,1
6.966586,0.2833333,12.97772,-0.2800108287176446,-0.3852351033303971,-0.4606672160937535,3.512237,47.01361,0.2794644,0.02907427,0.3986009,-0.00998772,13.5199996978045,1
7.00818,0.4833334,13.02296,-0.3287844841885743,-0.1885233966448166,-0.4952788895004225,7.022695,46.92083,0.5503591,0.05809114,0.3970936,-0.0199853,13.5399996973574,1
7.049744,0.6833335,13.06819,-0.3698675438275511,0.0249148827307948,-0.5210987094458641,10.53683,46.84389,0.813761,0.0870645,0.3952118,-0.03000945,13.5599996969104,1
7.201819,0.2833334,13.21887,-0.2735380459906906,-0.4375048841600006,-0.3965038061725447,3.444764,46.48615,0.2837266,0.02859385,0.3943849,-0.009587328,13.5799996964633,1
7.242061,0.4833334,13.26387,-0.3036376562266873,-0.1906135906905045,-0.4005729374535409,6.893728,46.40756,0.5637802,0.05719374,0.3930132,-0.01917453,13.5999996960163,1
7.282648,0.6833334,13.30859,-0.328688721936043,0.0730044904751998,-0.3990806220949263,10.34214,46.28512,0.8185707,0.0856709,0.3908187,-0.02888015,13.6199996955693,1
7.323304,0.8833334,13.3533,-0.3398107161619172,0.3010783614749819,-0.3827074225974236,13.7954,46.17431,1.063225,0.1140856,0.3882509,-0.03861834,13.6399996951222,1
7.511845,0.2833333,13.55834,-0.1656576418698456,-0.4124146307872426,-0.1725847000686844,3.393908,44.86262,0.1674993,0.02792999,0.3813678,-0.009949106,13.6599996946752,1
7.55186,0.4833333,13.60233,-0.1640165314343935,-0.2031581284185147,-0.1442127794572254,6.794997,44.71356,0.3190506,0.05586517,0.3795502,-0.01997144,13.6799996942282,1
7.591973,0.6833333,13.64632,-0.1609560605116602,0.0228249620600605,-0.116569562518805,10.20182,44.57139,0.4572382,0.08377545,0.377392,-0.03003921,13.6999996937811,1
7.761638,0.2833333,13.82031,7.605799609855524e-05,-0.4270498721116407,0.0182977922604745,3.348404,43.4812,0.07374105,0.0273763,0.3702294,-0.01022434,13.7199996933341,1
7.801123,0.4833333,13.8634,0.0055835605616785,-0.1676134175878817,-0.0135898800798806,6.695089,43.32732,0.1287387,0.05468199,0.3684663,-0.02051366,13.7399996928871,1
7.840647,0.6833333,13.90649,0.0068719415163496,0.1085495871495758,-0.0523122398510658,10.04406,43.17427,0.1716619,0.08194765,0.3663811,-0.03081924,13.75999969244,1
7.880164,0.8833333,13.94956,0.0123690518263401,0.3491685844437052,-0.0886412968731011,13.39285,43.02188,0.2052307,0.1091388,0.3639825,-0.04110305,13.779999691993,1
8.028927,0.2833334,14.09644,0.154164853456086,-0.3517794112422394,-0.083657274236506,3.285001,41.73994,359.9465,0.02661637,0.3561144,-0.01064707,13.799999691546,1
8.067835,0.4833335,14.13852,0.1792325307446596,-0.1299780414925956,-0.1996496740992253,6.568868,41.57563,359.8835,0.05320295,0.3543794,-0.02128234,13.8199996910989,1
8.106734,0.6833334,14.1806,0.2080019984736765,0.1085500139385787,-0.3093929386038976,9.85113,41.40645,359.8104,0.07973403,0.3523543,-0.03189631,13.8399996906519,1
8.145622,0.8833333,14.22266,0.2483429026147074,0.3115337566664408,-0.4035293072297357,13.13223,41.23115,359.7265,0.1061919,0.350041,-0.04248125,13.8599996902049,1
8.331871,0.2833332,14.41322,0.3445012179001523,0.2932389679526961,-0.6187549504624243,3.224484,38.11077,359.7959,0.02601229,0.3263997,-0.01086819,13.8799996897578,1
8.369442,0.4833331,14.45523,0.4348331410903068,0.3204193303443888,-0.8271719544193488,6.447399,37.93444,359.5817,0.05199624,0.3247049,-0.02172442,13.8999996893108,1
8.407154,0.683333,14.49711,0.5270382419985769,0.3397591127595313,-1.0191968108060383,9.666752,37.71455,359.345,0.07789382,0.322513,-0.03262239,13.9199996888638,1
8.571351,0.2833333,14.67271,0.7919187689553127,-0.3423717167566097,-1.215739880864266,3.371682,37.028,359.7719,0.02726465,0.3174538,-0.01122888,13.9399996884167,1
8.610044,0.4833333,14.71724,0.8663116038831511,-0.1017530793451809,-1.5769142519190176,6.741617,36.82025,359.5311,0.05449806,0.315496,-0.02244473,13.9599996879697,1
8.648726,0.6833333,14.76177,0.9273891202307284,0.1555920245599532,-1.9182108750675455,10.10968,36.59652,359.276,0.08167637,0.3132649,-0.03363784,13.9799996875226,1
8.687393,0.8833332,14.80627,0.9828824844849606,0.3773930618689292,-2.230520205185691,13.47704,36.3549,359.0046,0.1087874,0.3107626,-0.04479913,13.9999996870756,1
8.827372,0.2833333,14.9636,1.170817887673774,-0.3423723019253643,-2.589669205860055,3.537089,38.29655,359.8103,0.02861181,0.3279055,-0.01168603,14.0199996866286,1
8.868319,0.4833334,15.00994,1.239958924930482,-0.1393882953183636,-3.019032515770375,7.072605,38.09202,359.6076,0.05718863,0.3259037,-0.02335885,14.0399996861815,1
8.909406,0.6833334,15.05607,1.301350015764429,0.0803222818878478,-3.403036152058036,10.60799,37.82748,359.3718,0.08567815,0.323231,-0.03512767,14.0599996857345,1
9.063559,0.2833335,15.22621,1.3630884931582743,0.2644886442237845,-3.73266440393938,3.567522,39.8631,359.8809,0.02890879,0.3407623,-0.01158791,14.0799996852875,1
9.105288,0.4833334,15.27249,1.488649438871791,0.2273763595130942,-4.246580051475643,7.134235,39.60261,359.7377,0.05776493,0.3382362,-0.02322626,14.0999996848404,1
9.147449,0.6833335,15.31883,1.5953958169585487,0.2357394565951763,-4.700441189544822,10.71484,39.3274,359.5621,0.0866427,0.3353623,-0.0350007,14.1199996843934,1
9.189692,0.8833334,15.36517,1.691690259554127,0.2362618714246788,-5.085101326458828,14.30088,39.03558,359.3597,0.1154681,0.3321515,-0.04681224,14.1399996839464,1
9.384263,0.2833332,15.57039,1.9564216508043688,-0.4646862011860865,-5.490941767134441,3.584495,44.35219,0.09612247,0.02927846,0.3772454,-0.01102868,14.1599996834993,1
9.426991,0.4833333,15.61624,2.029562677606915,-0.2428849086226144,-5.998795468847371,7.173172,44.11769,0.175692,0.05855222,0.3747338,-0.02207556,14.1799996830523,1
9.470019,0.6833333,15.66213,2.078894599054694,-0.0043571312707412,-6.428907240696898,10.77374,43.88442,0.2320296,0.08783273,0.3718438,-0.03321038,14.1999996826053,1
9.651562,0.2833335,15.80054,2.3038448009061003,-0.4416872628879812,-6.869550220675565,3.598902,49.51089,0.171726,0.02914271,0.4184964,-0.0117889,14.2199996821582,1
9.697497,0.4833335,15.84347,2.3438759044941,-0.1697059844549783,-7.36758591971574,7.197433,49.28414,0.3294124,0.05824785,0.4159604,-0.02356325,14.2399996817112,1
9.743411,0.6833336,15.88639,2.347968204694249,0.1190017515857421,-7.776517544615364,10.79569,49.06512,0.4722007,0.08728128,0.4130129,-0.03532675,14.2599996812642,1
9.789311,0.8833336,15.9293,2.326231665666405,0.3721654131897187,-8.089807234947264,14.39344,48.85249,0.6027772,0.1162199,0.4096581,-0.04705212,14.2799996808171,1
9.951419,0.2833333,15.99998,2.2889066639675715,0.4236852822694266,-8.301200758975172,3.630457,56.24951,0.2409166,0.02892666,0.4710967,-0.01307879,14.2999996803701,1
10.00189,0.4833334,16.03852,2.3030709685863187,0.355802751434159,-8.638382810315312,7.26079,56.03046,0.4682407,0.05781527,0.4685314,-0.02614141,14.3199996799231,1
10.05234,0.6833334,16.07704,2.2838500279603977,0.3338833429450741,-8.866074360084733,10.89092,55.82406,0.6835912,0.08663686,0.4654942,-0.03917486,14.339999679476,1
10.10277,0.8833333,16.11556,2.2423780066409496,0.3046112195238611,-8.979312372270757,14.52139,55.62851,0.8862544,0.1153588,0.4619868,-0.05218435,14.359999679029,1
10.32076,0.2833333,16.15919,2.3509737802188546,-0.4256435168844986,-9.058985637803396,3.561757,67.67928,0.4006438,0.02775856,0.5565078,-0.01440326,14.379999678582,1
10.37571,0.4833332,16.18905,2.262471428044268,-0.2326608930947785,-9.184779522846531,7.123993,67.4758,0.7891044,0.05548121,0.5539528,-0.02878963,14.3999996781349,1
10.43065,0.6833332,16.2189,2.1472725455885247,-0.0224636817283713,-9.195026161414935,10.68647,67.29508,1.168241,0.08314055,0.5508559,-0.04314477,14.4199996776879,1
10.63833,0.2833333,16.22025,2.2039057666562734,-0.4876365946090575,-9.179703887367449,3.463728,76.95058,0.5777771,0.0267955,0.6217657,-0.01485778,14.4399996772408,1
10.69504,0.4833333,16.24345,2.088305026505324,-0.2430106446354523,-9.197431660624732,6.928524,76.76301,1.144847,0.05355689,0.619256,-0.02969909,14.4599996767938,1
10.75172,0.6833332,16.26664,1.9458969616828237,0.0188296554323286,-9.107003512587632,10.39401,76.60873,1.705261,0.08025903,0.6161646,-0.04450984,14.4799996763468,1
10.80839,0.8833331,16.28984,1.788269695101237,0.2456137730271195,-8.907434579063574,13.86041,76.487,2.260706,0.1068684,0.6124933,-0.05929447,14.4999996758997,1
10.98705,0.2833333,16.23349,1.8662411196651971,-0.4686806258354828,-8.714584248800847,3.400434,85.41862,0.5745789,0.02520088,0.6778626,-0.01644153,14.5199996754527,1
11.04545,0.4833333,16.24798,1.801855601742476,-0.2597377824572005,-8.535872918114766,6.802233,85.23079,1.138397,0.05037098,0.6754141,-0.0328681,14.5399996750057,1
11.10383,0.6833334,16.26247,1.7131012018692804,-0.0335807228844569,-8.253927547804016,10.20506,85.07507,1.692935,0.07547374,0.6723523,-0.04927999,14.5599996745586,1
11.16219,0.8833333,16.27699,1.6121829834933177,0.1575202337536431,-7.869936691664749,13.60845,84.95094,2.242246,0.1004875,0.6686803,-0.06565972,14.5799996741116,1
11.39668,0.2833332,16.17824,1.5261298583245324,0.1278304023784227,-7.61048963562898,3.351293,94.81947,0.4853758,0.02290598,0.7358069,-0.01866238,14.5999996736646,1
11.45567,0.4833332,16.18156,1.4190212802052429,0.1441039057420323,-7.261338605115172,6.704079,94.6236,0.9549054,0.04575703,0.7334408,-0.03733749,14.6199996732175,1
