pX,pY,pZ,aX,aY,aZ,reX,reY,reZ,rtX,rtY,rtZ,t,ID
-44.06891,0.23,-36.00148,1.1866405459325904,0.6126451293433226,6.421375211928982,359.5466,359.2495,3.586418,-0.004159873,-0.006421773,0.03126547,2.97999993339181,11
-44.12622,0.43,-35.96687,1.554474593920439,0.2104174274352656,6.742885569337524,1.430532,357.7251,6.426597,0.01134873,-0.02051762,0.05628525,2.99999993294477,11
-44.38707,0.2833333,-35.85965,1.865066148394156,0.048669093646012,6.992591103220128,0.01723699,356.9624,359.7338,0.0002119358,-0.02650483,-0.002318054,3.01999993249774,11
-44.38258,0.4833333,-35.85924,2.2400411108029203,-0.3248097842621985,7.270123314943738,0.01790279,353.3974,359.4674,0.0004236248,-0.05758541,-0.004631137,3.0399999320507,11
-44.37807,0.6833333,-35.85883,2.5487907645104926,-0.4562061186159734,7.466293922519082,0.002065078,349.836,359.2054,0.000632178,-0.08857898,-0.006905211,3.05999993160367,11
-44.37818,0.2833334,-35.82684,2.7942645534455366,-0.3708540468729099,7.583637742485394,0.9811379,352.1669,0.4706902,0.00826132,-0.06833585,0.0046826,3.07999993115664,11
-44.38832,0.4833335,-35.8105,2.979332627119149,-0.0930418292427519,7.6250186954471,1.989548,348.6231,0.879973,0.01651418,-0.09923351,0.009360941,3.0999999307096,11
-44.39845,0.6833335,-35.79417,3.2726165415558626,-0.4997648896134985,7.684350268424605,3.022973,345.0876,1.228572,0.02476204,-0.1299957,0.01404949,3.11999993026257,11
-44.36798,0.2833333,-35.72828,3.488440168539256,-0.6570181440647767,7.661396965187496,1.521957,350.3264,0.01111862,0.01322571,-0.08431132,0.00121651,3.13999992981553,11
-44.37182,0.4833333,-35.70178,3.753240407938321,-1.017011065674646,7.648234623327582,3.041908,346.7794,359.9275,0.02643892,-0.1150589,0.00242683,3.1599999293685,11
-44.37566,0.6833332,-35.67531,3.933219273214476,-1.1259310331101011,7.550608978004092,4.556091,343.2273,359.7483,0.03964392,-0.1456457,0.003625768,3.17999992892146,11
-44.33627,0.2833332,-35.59267,4.0325760057478135,-1.0091118503426564,7.374195190428093,2.885151,348.3547,359.8925,0.0251403,-0.1013942,0.001620721,3.19999992847443,11
-44.3431,0.4833331,-35.54242,4.0554158906132685,-0.6908419099136532,7.124948600645652,5.760005,344.7993,359.6056,0.05025728,-0.1319228,0.003238307,3.21999992802739,11
-44.34993,0.6833332,-35.4922,4.179777031295934,-1.048116860910024,6.893628708392523,8.613603,341.2106,359.137,0.07531358,-0.1622116,0.00484914,3.23999992758036,11
-44.28157,0.2833333,-35.3508,4.213984026140366,-1.1469316050369975,6.591112770232034,4.284714,347.6878,359.9166,0.03724489,-0.1071353,0.003285666,3.25999992713332,11
-44.2939,0.4833336,-35.27663,4.289726555372688,-1.4394957082399675,6.302605303384603,8.560135,344.1246,359.5663,0.07443741,-0.1374302,0.006568279,3.27999992668629,11
-44.30622,0.6833336,-35.2025,4.2701211544313225,-1.4719964163316246,5.947940775744804,12.80712,340.4879,358.9394,0.1114715,-0.1673722,0.009834237,3.29999992623925,11
-44.23017,0.2833333,-35.11561,4.160289857616547,-1.2697675209999078,5.535613011547685,4.00422,346.5027,359.9607,0.03473454,-0.1174299,0.003764866,3.31999992579222,11
-44.24375,0.4833332,-35.04695,4.124121410557102,-1.497411263692925,5.208916457744639,7.998706,342.9595,359.6741,0.06939552,-0.147601,0.007527662,3.33999992534518,11
-44.25732,0.6833329,-34.97833,3.9883019390819774,-1.4610190903359208,4.825329295739088,11.96926,339.3559,359.1324,0.1039207,-0.1774229,0.01127289,3.35999992489815,11
-44.13721,0.2833333,-34.82464,3.75845258279368,-1.1859247910487154,4.3950045301288725,3.766929,346.4826,359.9777,0.03266119,-0.1176179,0.003675129,3.37999992445111,11
-44.15022,0.4833333,-34.76025,3.568751622583733,-1.3367311393064534,3.9968412909580335,7.524239,342.9551,359.7233,0.06524654,-0.1477207,0.00734107,3.39999992400408,11
-44.0552,0.2833333,-34.5934,3.279127717869457,-1.2195289818396935,3.563586857108966,3.716568,345.9565,359.9729,0.03221317,-0.1221746,0.003729608,3.41999992355704,11
-44.06855,0.4833333,-34.52996,2.8957563635221817,-0.8596518963756061,3.106722044420369,7.423379,342.4361,359.7173,0.06435271,-0.1521956,0.007450078,3.43999992311001,11
-44.08189,0.6833333,-34.46655,2.585993924439137,-0.921702896485376,2.762187984061807,11.10625,338.8653,359.2279,0.09635521,-0.1818853,0.01115338,3.45999992266297,11
-44.09523,0.8833331,-34.40314,2.1729824527967665,-0.7117727221805304,2.4013703943263813,14.74898,335.213,358.496,0.1281457,-0.2111856,0.0148329,3.47999992221594,11
-43.95704,0.2833332,-34.24632,1.6636181061873572,-0.2551951774325809,2.037404357984336,3.614815,344.2141,0.005642182,0.03123443,-0.1372558,0.004379898,3.4999999217689,11
-43.97246,0.4833332,-34.18517,1.2669799560071553,-0.4566691941800661,1.7049852248738695,7.222165,340.7123,359.7902,0.06239945,-0.1670768,0.008749907,3.51999992132187,11
-43.87631,0.2833332,-34.03192,1.0893203086937788,-0.2338226083178535,1.2560749960508062,3.571039,345.2777,0.06773471,0.03082565,-0.1280789,0.004578011,3.53999992087483,11
-43.89148,0.4833334,-33.97149,0.8561447249625544,-0.0088850790245662,0.8180508488011498,7.138523,341.7893,359.918,0.0615836,-0.1578995,0.009146704,3.5599999204278,11
-43.90665,0.6833333,-33.91108,0.7431799309172575,-0.4744413458273731,0.5242835537844037,10.68914,338.2607,359.5464,0.09221636,-0.1873921,0.01369477,3.57999991998076,11
-43.92182,0.8833333,-33.85068,0.5742260736123512,-0.2453220891842222,0.2202709095393658,14.20831,334.6638,358.9469,0.1226576,-0.216501,0.01822375,3.59999991953373,11
-43.7816,0.2833331,-33.70527,0.4883434854535693,-0.4409885021354686,0.0424775019005245,3.49473,343.4437,0.1197346,0.03002444,-0.1439436,0.0054238,3.61999991908669,11
-43.79926,0.483333,-33.64687,0.3646127362599358,-0.6356095292691117,-0.1175548448552845,6.989282,339.9747,0.02779689,0.05998469,-0.1735568,0.01083644,3.63999991863966,11
-43.70197,0.2833333,-33.50643,0.1661615735015118,-0.1632580767577683,-0.3062863258366448,3.439811,344.2689,0.1887509,0.02950579,-0.1368364,0.00573825,3.65999991819263,11
-43.7197,0.4833334,-33.44899,-0.0596605463478425,0.2845265273015692,-0.4700514951845456,6.88334,340.8136,0.1699756,0.05894604,-0.166439,0.01146443,3.67999991774559,11
-43.73742,0.6833335,-33.39156,-0.1290417850552501,-0.1972337575380636,-0.4945273261556089,10.31845,337.3291,359.9404,0.0882715,-0.1957109,0.01716697,3.69999991729856,11
-43.75513,0.8833336,-33.33416,-0.281732350396112,0.0167270402498499,-0.5517250325240042,13.73225,333.7893,359.4938,0.1174294,-0.2245997,0.02283561,3.71999991685152,11
-43.60976,0.2833333,-33.19761,-0.4565228413383977,0.2338241955125371,-0.5977368073357496,3.395496,341.353,0.06433135,0.02914465,-0.1619539,0.005353559,3.73999991640449,11
-43.62809,0.4833331,-33.14125,-0.4744108412408536,-0.2385273498661415,-0.5012689545923337,6.787438,337.9008,359.9243,0.0582259,-0.1912844,0.01069844,3.75999991595745,11
-43.52747,0.2833332,-33.01202,-0.6035260838545256,-0.015158036248094,-0.5010485035673078,3.344537,341.4217,0.04772731,0.02873256,-0.16136,0.005121397,3.77999991551042,11
-43.5452,0.4833332,-32.95641,-0.7448484328231686,0.2113471567434742,-0.5187333975538166,6.684551,337.9754,359.894,0.05740344,-0.1906417,0.01023025,3.79999991506338,11
-43.56291,0.6833332,-32.90081,-0.7379382667248038,-0.251596071781614,-0.4861219436835853,10.00827,334.4939,359.5357,0.0859661,-0.2195611,0.01531854,3.81999991461635,11
-43.43174,0.2833335,-32.71918,-0.8430922383281256,-0.0188179236573399,-0.4807963243211546,3.297935,338.2044,359.8911,0.02843658,-0.1889527,0.004507476,3.83999991416931,11
-43.44971,0.4833335,-32.66449,-0.9514693250117504,0.217096449087408,-0.4761210550843202,6.582481,334.7553,359.5836,0.05681626,-0.2179582,0.009005471,3.85999991372228,11
-43.46769,0.6833335,-32.6098,-0.8733029496082096,-0.2364374119461256,-0.3500478885173166,9.84124,331.2634,359.0742,0.0850873,-0.24656,0.01348706,3.87999991327524,11
-43.36513,0.2833333,-32.49096,-0.954806032699345,0.0057491607090623,-0.3261112020866434,3.251775,334.8801,359.7978,0.02807779,-0.2173242,0.004448497,3.89999991282821,11
-43.38446,0.4833333,-32.43749,-0.9210209569852807,-0.1758039198555279,-0.1951582316386364,6.484669,331.4341,359.4,0.05609982,-0.2460257,0.008887799,3.91999991238117,11
-43.40377,0.6833335,-32.38404,-1.0225019470591192,0.1249257865408216,-0.192301210746244,9.686625,327.9412,358.8033,0.08401746,-0.274282,0.0133112,3.93999991193414,11
-43.27193,0.2833333,-32.21425,-1.1307946865061425,0.4287916273038356,-0.1995595335237716,3.201977,330.3669,359.6842,0.02771432,-0.2555502,0.00448129,3.9599999114871,11
-43.29325,0.4833334,-32.16232,-1.2332488495936855,0.6835230698663504,-0.2092995572546954,6.378393,326.9224,359.1759,0.0553741,-0.2838331,0.008953297,3.97999991104007,11
-43.31457,0.6833335,-32.1104,-1.1342008704602549,-0.0169019929889882,-0.1110071488545045,9.517488,323.4263,358.4717,0.08293384,-0.3116144,0.01340914,3.99999991059303,11
-43.2108,0.2833333,-31.99961,-1.2096019075079596,0.1918317582763959,-0.1266538574653672,3.295311,327.5077,359.6556,0.02844529,-0.2795649,0.005159641,4.019999910146,11
-43.23511,0.4833332,-31.94713,-1.1556027316400943,-0.0231743560706514,-0.0495750927228932,6.563321,324.0692,359.1135,0.05683408,-0.3075065,0.01030901,4.03999990969896,11
-43.25941,0.6833333,-31.89466,-1.235082822660701,0.2441024509656653,-0.0911025164646446,9.791775,320.5748,358.3694,0.08511758,-0.3348943,0.01543831,4.05999990925193,11
-43.127,0.2833334,-31.73003,-1.31666685540295,0.5145152738887413,-0.1441737681873718,3.53008,327.1326,359.6654,0.03036823,-0.2826839,0.005914087,4.07999990880489,11
-43.15392,0.4833335,-31.67426,-1.387880499060678,0.735794113726566,-0.2008377138818637,7.033025,323.7004,359.1191,0.06067276,-0.3104584,0.01181491,4.09999990835786,11
-43.07119,0.2833333,-31.5176,-1.2454103324744352,0.0019157315173589,-0.1581098535069145,3.553432,326.8552,359.7039,0.03045324,-0.2850116,0.006367746,4.11999990791082,11
-43.09914,0.4833333,-31.462,-1.2787943972760232,0.1771967129665444,-0.2189712895182438,7.082264,323.433,359.1959,0.0608428,-0.3127007,0.01272589,4.13999990746379,11
-43.12709,0.6833334,-31.40642,-1.172174332704472,-0.071262380453119,-0.1931954465250029,10.57322,319.9498,358.47,0.09111224,-0.3397887,0.01905739,4.15999990701675,11
-43.15503,0.8833337,-31.35086,-1.2008232000887702,0.1625611320578383,-0.2710638885318097,14.01245,316.3786,357.5178,0.1212063,-0.3662272,0.02535011,4.17999990656972,11
-43.02066,0.2833333,-31.19927,-1.2294950839367402,0.3995207841625149,-0.3556117744496809,3.585554,324.2591,359.7871,0.03034502,-0.3066595,0.007833198,4.19999990612268,11
-43.05265,0.4833334,-31.14536,-1.0857691436333567,-0.0529681647116705,-0.2995644382437845,7.151802,320.8578,359.3632,0.0606243,-0.3339925,0.01566659,4.21999990567565,11
-43.08464,0.6833334,-31.09147,-0.9367413235065882,-0.5300244990305993,-0.2513942819374968,10.68544,317.3999,358.721,0.09078381,-0.3606832,0.02346791,4.23999990522861,11
-42.95991,0.2833333,-30.92338,-0.9652031843032134,-0.1266703656501023,-0.297058753822025,3.553129,323.8793,359.9263,0.0296737,-0.3098507,0.009000223,4.25999990478158,11
-42.99393,0.4833333,-30.87153,-0.8443700789275397,-0.3881968556655601,-0.2631097489661975,7.094607,320.5016,359.6443,0.05928003,-0.3370742,0.01799055,4.27999990433455,11
-43.02795,0.6833333,-30.8197,-0.8623046693094736,-0.1684859562985524,-0.3185605649965097,10.61221,317.0769,359.148,0.08877084,-0.3636587,0.02694435,4.29999990388751,11
-42.92361,0.2833334,-30.7101,-0.8807296880833491,0.0533156675730598,-0.3759282029079891,3.614365,323.2644,359.9434,0.03008508,-0.3149439,0.009468615,4.31999990344048,11
-42.95905,0.4833335,-30.6579,-0.7203340784607022,-0.4153766963972078,-0.2956529026573591,7.218198,319.8975,359.6742,0.06010612,-0.3420113,0.01891696,4.33999990299344,11
-42.99448,0.6833334,-30.60571,-0.7360235269540993,-0.1893937291900048,-0.3678784169559819,10.7995,316.4831,359.1881,0.09001204,-0.3684207,0.02833194,4.35999990254641,11
-42.86432,0.2833333,-30.44586,-0.7568317602618961,0.0386800420601551,-0.4481321817420607,3.64866,323.5552,359.9875,0.03027262,-0.3125448,0.009851838,4.37999990209937,11
-42.90046,0.4833332,-30.39344,-0.7710800401254474,0.2165743910914956,-0.5274586931884713,7.289343,320.2021,359.7613,0.06048055,-0.3395491,0.01968187,4.39999990165234,11
-42.82427,0.2833334,-30.24145,-0.7187367777113707,0.1585542069946328,-0.575524926938904,3.604899,323.8261,0.001352813,0.0298956,-0.3103065,0.009776256,4.4199999012053,11
-42.85994,0.4833333,-30.18962,-0.6768766258133425,0.1313734395933324,-0.6269533328440993,7.202742,320.4815,359.7921,0.05972817,-0.3372929,0.01953105,4.43999990075827,11
-42.89559,0.6833332,-30.13782,-0.4980484443230608,-0.3451597755504966,-0.5832586938854476,10.78113,317.0937,359.3678,0.08944326,-0.3636352,0.02924643,4.45999990031123,11
-42.93124,0.8833331,-30.08602,-0.5035012379224426,-0.1259718120632129,-0.6752003181404795,14.32717,313.6347,358.7206,0.118987,-0.3892864,0.03890516,4.4799998998642,11
-42.7953,0.2833334,-29.93773,-0.5177483416986277,0.0963524838089868,-0.7675973495219957,3.55976,322.9527,0.06701533,0.02926493,-0.31756,0.01042182,4.49999989941716,11
-42.83224,0.4833333,-29.88779,-0.3725920004973631,-0.3707718670344048,-0.7092895125992058,7.116417,319.6281,359.9274,0.05846876,-0.3443655,0.02082213,4.51999989897013,11
-42.75012,0.2833333,-29.74734,-0.387288395746495,-0.1421750653819566,-0.7175173320289119,3.517105,324.0048,0.1197158,0.02886349,-0.3088616,0.01047492,4.53999989852309,11
-42.78648,0.4833333,-29.69787,-0.4121725293705793,0.0895577500664318,-0.7208697731505573,7.034208,320.6922,0.03592463,0.0576673,-0.3357221,0.02092781,4.55999989807606,11
-42.82283,0.6833333,-29.6484,-0.2907225357303105,-0.3681581202294416,-0.6308684054045912,10.53903,317.3463,359.7459,0.08635443,-0.3619603,0.03134436,4.57999989762902,11
-42.85916,0.8833335,-29.59895,-0.3615615825245655,-0.1301531181995993,-0.6637899542854626,14.01992,313.9408,359.2422,0.1148807,-0.3875311,0.04170197,4.59999989718199,11
-42.71654,0.2833334,-29.46041,-0.4414922630696267,0.1109879083416444,-0.6948453575788882,3.459275,322.4398,0.1524392,0.02814827,-0.3218277,0.01097598,4.61999989673495,11
-42.75412,0.4833335,-29.4131,-0.4800397343080291,0.1428730944334986,-0.7076871938780478,6.920237,319.144,0.106789,0.0562335,-0.3484462,0.02193696,4.63999989628792,11
-42.66554,0.2833332,-29.28237,-0.5380731160204206,0.205597904909213,-0.7328096027835649,3.4133,323.0591,0.1639631,0.02779495,-0.3167146,0.010792,4.65999989584088,11
-42.70229,0.4833332,-29.23541,-0.6021088464229223,0.2458466903159746,-0.7614634097345245,6.829051,319.7712,0.131678,0.05553227,-0.3433493,0.02155933,4.67999989539385,11
-42.73903,0.6833332,-29.18847,-0.503574887120898,-0.4300119520960042,-0.7122744046695786,10.23633,316.4551,359.9004,0.08316728,-0.3693704,0.03228594,4.69999989494681,11
-42.6258,0.2833332,-29.01137,-0.6001196733952625,-0.1977565444467304,-0.776182777888323,3.367656,320.2491,0.04210986,0.02750893,-0.3398401,0.01033535,4.71999989449978,11
-42.66265,0.4833331,-28.96559,-0.7003294873644776,0.0365897927819226,-0.840051895927381,6.730925,316.9606,359.8912,0.05495999,-0.3661365,0.02065253,4.73999989405274,11
-42.6995,0.683333,-28.91983,-0.6088485147141682,-0.4195579067042629,-0.7712620026116035,10.07894,313.6378,359.5436,0.08231129,-0.391792,0.03093035,4.75999989360571,11
-42.60519,0.2833334,-28.79993,-0.7037201643899493,-0.1810301643736569,-0.8376024284771795,3.317106,317.0814,359.9337,0.02714831,-0.3656715,0.01005039,4.77999989315867,11
-42.64252,0.4833334,-28.75568,-0.8015942777507732,0.0595881057500716,-0.9060406368519978,6.624021,313.7938,359.677,0.05424395,-0.3915804,0.02008086,4.79999989271164,11
-42.67984,0.6833333,-28.71145,-0.7218172638974139,-0.3902869314055809,-0.8962055242874456,9.909521,310.4669,359.2271,0.0812385,-0.4168177,0.03007913,4.8199998922646,11
-42.56023,0.2833332,-28.54478,-0.8053725757174348,-0.1454869706084867,-0.9483224639515448,3.270374,314.1395,359.8271,0.02686824,-0.3894112,0.009728647,4.83999989181757,11
-42.59789,0.4833333,-28.50179,-0.8889326877157799,0.101404046349825,-0.9924310943413416,6.524567,310.8532,359.4666,0.05368486,-0.4149393,0.01943841,4.85999989137053,11
-42.63552,0.6833333,-28.45882,-0.765574357445935,-0.3421985282358927,-0.902062055579254,9.751512,307.5229,358.9154,0.08040355,-0.4397686,0.02911646,4.8799998909235,11
-42.67315,0.8833336,-28.41586,-0.8356987090734975,-0.0911255754553584,-0.929766063161992,12.93993,304.1265,358.1669,0.1069846,-0.4638607,0.03874253,4.89999989047647,11
-42.52977,0.2833333,-28.28066,-0.9078373497256678,0.1620386320273476,-0.9524684590695855,3.215133,308.8969,359.7057,0.02641699,-0.4310872,0.009784342,4.91999989002943,11
-42.5691,0.4833331,-28.24033,-0.928436892881308,0.2049007399764797,-0.9521572663777532,6.407381,305.6142,359.2273,0.05278444,-0.455928,0.01955022,4.9399998895824,11
-42.48156,0.2833333,-28.11658,-0.9596938601091553,0.277557014619865,-0.95948241704766,3.184409,307.1275,359.6422,0.02626964,-0.44495,0.009575137,4.95999988913536,11
-42.52101,0.4833333,-28.07696,-0.9877809410954796,0.3266916340990067,-0.9659939244082808,6.342366,303.8466,359.1021,0.05249006,-0.4695354,0.0191323,4.97999988868833,11
-42.56045,0.6833335,-28.03736,-0.8380996868811508,-0.3413255237946383,-0.8875879843834298,9.463111,300.514,358.376,0.07861995,-0.4933554,0.02865611,4.99999988824129,11
-42.45346,0.2833335,-27.8649,-0.8828344487105113,-0.1022750573671343,-0.9178979748528704,3.513633,305.2161,359.6009,0.02882149,-0.459761,0.0110139,5.01999988779426,11
-42.49843,0.4833335,-27.82255,-0.9238689786326972,0.1378209266868677,-0.943545275863233,6.998016,301.9346,359.0005,0.05758536,-0.4839202,0.02200576,5.03999988734722,11
-42.54338,0.6833332,-27.78021,-0.9067346067417574,0.166569672280895,-0.942332520804829,10.4427,298.589,358.1942,0.08624872,-0.5072105,0.03297027,5.05999988690019,11
-42.45369,0.2833331,-27.66354,-0.8976319177707097,0.2240675379874117,-0.9473877969066428,3.546235,303.6129,359.6563,0.02868707,-0.4721416,0.01197608,5.07999988645315,11
-42.5008,0.4833331,-27.62296,-0.8830501169804492,0.2569981022305269,-0.9502289885357555,7.066699,300.3456,359.1114,0.05731358,-0.4960109,0.02393801,5.09999988600612,11
-42.54789,0.683333,-27.58239,-0.6836326809207023,-0.4282693179741391,-0.8082138370469174,10.54914,297.0166,358.3585,0.08583192,-0.5189867,0.03585342,5.11999988555908,11
-42.43655,0.2833333,-27.42102,-0.6862024490311001,-0.2075136176969272,-0.7712325133128104,3.576503,303.1447,359.7766,0.02837045,-0.4757627,0.013142,5.13999988511205,11
-42.48562,0.4833333,-27.38225,-0.6851934794054344,0.0132419492032751,-0.7331052014302166,7.134059,299.8977,359.3515,0.05668073,-0.4994897,0.02626654,5.15999988466501,11
-42.53468,0.6833337,-27.3435,-0.6672629748378682,0.0216053058957345,-0.7026865492087779,10.6606,296.5957,358.7183,0.08488322,-0.5223141,0.03934012,5.17999988421798,11
-42.43829,0.2833332,-27.23664,-0.6558384630882585,0.0576720516361209,-0.6759831305409278,3.585126,302.2633,359.9131,0.02775955,-0.4825413,0.01443894,5.19999988377094,11
-42.48941,0.4833332,-27.20054,-0.6379305219727556,0.06812623118893,-0.6442204370745976,7.158937,299.0388,359.6258,0.05545748,-0.5060787,0.02886019,5.21999988332391,11
-42.54051,0.6833334,-27.16445,-0.6053185105500702,0.0796258237400286,-0.6270790870659297,10.70976,295.7676,359.132,0.08305029,-0.5287036,0.04322556,5.23999988287687,11
-42.42144,0.2833333,-27.01237,-0.5817784530174492,0.1188289285233071,-0.6206279434734583,3.567518,302.3937,359.9615,0.02743793,-0.4815589,0.01470338,5.25999988242984,11
-42.47269,0.4833331,-26.97701,-0.5544772335458106,0.1324197108739838,-0.6161063757753134,7.126241,299.1835,359.7233,0.05481859,-0.5050487,0.02937844,5.2799998819828,11
-42.52392,0.6833328,-26.94167,-0.6681169622965726,0.7873698388497115,-0.6938490722734443,10.66494,295.9302,359.2807,0.08209661,-0.5276353,0.04399709,5.29999988153577,11
-42.41882,0.2833333,-26.8394,-0.5595289465386699,0.5394329284396792,-0.6589322434228535,3.651832,302.0809,359.9813,0.02795761,-0.4839416,0.01528526,5.31999988108873,11
-42.4717,0.4833329,-26.80379,-0.4525055014566135,0.2946320456772822,-0.6229749345196076,7.295954,298.8811,359.7584,0.05585817,-0.5072852,0.03053794,5.3399998806417,11
-42.52456,0.6833332,-26.76819,-0.5224899596812165,0.7188938836490497,-0.7240243789708636,10.92095,295.6375,359.327,0.08365171,-0.5297008,0.04573295,5.35999988019466,11
-42.39667,0.2833334,-26.62218,-0.3962797484559601,0.4803659435615479,-0.7048486680479478,3.634261,302.9868,0.0191698,0.02778538,-0.477025,0.01528066,5.37999987974763,11
-42.44908,0.4833333,-26.58647,-0.2782290042104449,0.244974239855388,-0.6894982114647803,7.262982,299.8004,359.8361,0.0555138,-0.5004219,0.03053004,5.39999987930059,11
-42.50147,0.6833336,-26.55076,-0.1554131115253909,-0.0416430615209006,-0.6689687543989642,10.87472,296.5731,359.4464,0.08313626,-0.5229104,0.04571933,5.41999987885356,11
-42.39033,0.2833336,-26.39398,-0.0584678457557217,-0.1137762365035208,-0.6179138650992471,3.580208,304.1443,0.09673195,0.02720489,-0.4681538,0.01537613,5.43999987840652,11
-42.44203,0.4833335,-26.35887,0.0230262293779404,-0.1582060198246877,-0.5700860895768969,7.159286,300.9753,-0.00477331,0.05435532,-0.4916474,0.03072042,5.45999987795949,11
-42.49371,0.6833335,-26.32378,-0.0501349973769364,0.2519434966727727,-0.616222416386357,10.72616,297.7719,359.6919,0.08140384,-0.5142643,0.04600606,5.47999987751245,11
-42.39466,0.2833335,-26.21771,0.0268596117874793,-0.001742695975554,-0.5755027555176113,3.526486,304.1184,0.1381861,0.02661801,-0.4683697,0.01548216,5.49999987706542,11
-42.44605,0.4833333,-26.18377,0.0854344118091248,-0.2533381154205486,-0.5299761646200487,7.054207,300.9633,0.08195277,0.05318345,-0.4918076,0.03093256,5.51999987661839,11
-42.49742,0.6833333,-26.14985,-0.0365235644149137,0.163083747344883,-0.6299794402409375,10.57239,297.7775,359.8281,0.07965086,-0.5143847,0.04632502,5.53999987617135,11
-42.37649,0.2833333,-26.00115,0.023650235148537,-0.0843305771367272,-0.60605210152616,3.470821,304.7783,0.1998439,0.02602718,-0.4632977,0.01558017,5.55999987572432,11
-42.42734,0.4833336,-25.96807,0.0694335354061763,-0.3296538483320016,-0.5881278345770014,6.946009,301.6387,0.2096048,0.05199978,-0.4867656,0.03112986,5.57999987527728,11
-42.47817,0.6833335,-25.935,-0.0464085692148898,0.0930406017557304,-0.6569063503374153,10.41549,298.4736,0.0261174,0.07787909,-0.5093974,0.04662162,5.59999987483025,11
-42.37349,0.2833331,-25.77617,0.0023040333877659,-0.1481007224662672,-0.5930665299390192,3.420488,303.6303,0.1554575,0.02566569,-0.4721425,0.01529152,5.61999987438321,11
-42.42382,0.4833333,-25.74399,0.0415853569477064,-0.3871512853329276,-0.5361044679008877,6.842892,300.4964,0.1238365,0.05127784,-0.4954147,0.03055235,5.63999987393618,11
-42.47414,0.6833333,-25.71182,-0.1039320343340293,0.0418155416881627,-0.6219748595990211,10.25749,297.3355,359.9022,0.07679953,-0.5178524,0.04575844,5.65999987348914,11
-42.38239,0.2833334,-25.60231,-0.2488365708946247,0.4472608563307149,-0.71124313294602,3.373219,301.1323,0.0537139,0.02540333,-0.4912172,0.01487179,5.67999987304211,11
-42.43244,0.4833334,-25.57131,-0.1700432015874753,-0.0757932232982421,-0.6841536963006973,6.743048,297.9992,359.9232,0.05075436,-0.5141189,0.02971674,5.69999987259507,11
-42.48247,0.6833334,-25.54032,-0.2626858435499102,0.0979199002675861,-0.7421479099512744,10.0997,294.834,359.605,0.0760172,-0.5361714,0.04450873,5.71999987214804,11
-42.36819,0.2833334,-25.38949,-0.2186212685181985,-0.1510621501142527,-0.7048710485536454,3.325681,299.0594,359.9692,0.02514662,-0.5068716,0.01448316,5.739999871701,11
-42.41786,0.4833334,-25.35948,-0.1766547199250112,-0.3969079706485648,-0.669409395096956,6.643488,295.9286,359.7569,0.05024267,-0.5294505,0.02894003,5.75999987125397,11
-42.46751,0.6833335,-25.32948,-0.3256883333703442,0.026309280635118,-0.765434734114919,9.943729,292.7621,359.3595,0.07525264,-0.5511712,0.04334636,5.77999987080693,11
-42.51715,0.8833337,-25.29948,-0.4694902750468372,0.4270504228685031,-0.8594101878669811,13.216,289.538,358.7711,0.1001376,-0.5720012,0.05767904,5.7999998703599,11
-42.36942,0.2833333,-25.17035,-0.3730522078025302,-0.0996623043123623,-0.8310060598877804,3.272661,295.5076,359.8302,0.02494162,-0.5333045,0.01398297,5.81999986991286,11
-42.41893,0.483333,-25.14174,-0.4578202311221417,0.0714362707925734,-0.8774290732149836,6.530331,292.378,359.4814,0.04983797,-0.555332,0.02793972,5.83999986946583,11
-42.46843,0.6833326,-25.11314,-0.5402584604051199,0.2477624342042366,-0.9185007587833738,9.762843,289.2061,358.9508,0.07464602,-0.5764778,0.04185144,5.85999986901879,11
-42.33683,0.2833333,-24.97505,-0.4032267740005935,-0.2632688998968973,-0.8248064247363516,3.221613,292.895,359.753,0.02461725,-0.5524304,0.01374086,5.87999986857176,11
-42.38623,0.4833333,-24.94788,-0.4745072455505763,-0.0764889983571804,-0.854447465477616,6.424153,289.769,359.3302,0.04918981,-0.5740452,0.02745704,5.89999986812472,11
-42.43561,0.6833332,-24.92072,-0.5469920653129279,0.1155176778111126,-0.8809686341774174,9.597801,286.5976,358.728,0.07368097,-0.5947654,0.04112644,5.91999986767769,11
-42.32211,0.2833335,-24.77441,-0.4250557813655362,-0.3798329470832645,-0.7691352535102922,3.272414,289.6316,359.6722,0.02498435,-0.5759029,0.01411541,5.93999986723065,11
-42.37331,0.4833333,-24.74846,-0.4921021122345763,-0.177371502186,-0.7976082305094572,6.521357,286.5071,359.1658,0.04992344,-0.5969588,0.02820467,5.95999986678362,11
-42.4245,0.6833333,-24.72252,-0.559948417665268,0.0303172596467475,-0.8279481197307703,9.736736,283.3315,358.4768,0.0747785,-0.6170712,0.04224546,5.97999986633658,11
-42.32866,0.2833335,-24.61971,-0.444573202267172,-0.4493521599062742,-0.7697161709280138,3.536992,288.3877,359.6515,0.02680675,-0.5846873,0.01558981,5.99999986588955,11
-42.38467,0.4833337,-24.59295,-0.5020199429370393,-0.2312100422173978,-0.7922437915554887,7.048973,285.2656,359.11,0.05356133,-0.6053756,0.03114859,6.01999986544251,11
-42.44065,0.6833335,-24.56619,-0.5575405924161245,-0.0078406348608388,-0.8099109135566636,10.52672,282.0834,358.3703,0.08022914,-0.6250257,0.04666057,6.03999986499548,11
-42.32143,0.2833333,-24.42457,-0.4055518636880819,-0.4718288779955425,-0.6915556672491938,3.557619,288.817,359.7186,0.02667088,-0.5816579,0.01606968,6.05999986454844,11
-42.37793,0.4833332,-24.39838,-0.4523124053503196,-0.2380048928717372,-0.7039135479921867,7.094065,285.71,359.2442,0.05328921,-0.602339,0.03211004,6.07999986410141,11
-42.43442,0.6833332,-24.3722,-0.500547882414871,0.00104575554438,-0.7150132331492998,10.59844,282.5466,358.5716,0.07981066,-0.6219856,0.04809168,6.09999986365438,11
-42.3351,0.2833333,-24.22438,-0.3651867277934144,-0.4472615388973479,-0.5868173597346242,3.591534,288.351,359.8364,0.02624342,-0.58498,0.01718483,6.11999986320734,11
-42.39308,0.4833331,-24.2004,-0.4097922942579899,-0.1977569113859633,-0.6068919498029182,7.168529,285.2638,359.4803,0.05243202,-0.6055146,0.03434526,6.13999986276031,11
-42.45105,0.6833332,-24.17643,-0.4552590005341201,0.0569743910914893,-0.631636163889187,10.71997,282.1268,358.9255,0.07852459,-0.6250035,0.05144188,6.15999986231327,11
-42.50899,0.8833334,-24.15246,-0.4879276470928531,0.2646622740821333,-0.6526502473164442,14.23459,278.9144,358.1638,0.1044779,-0.6434155,0.06844474,6.17999986186624,11
-42.37113,0.2833336,-24.02428,-0.4540076436779756,0.2395720504164691,-0.6411200358124418,3.553346,286.7096,359.9242,0.02527037,-0.5965543,0.01797447,6.1999998614192,11
-42.42962,0.4833339,-24.00365,-0.4248674157434848,0.248457613988777,-0.6337337373162839,7.096442,283.6435,359.6596,0.05048248,-0.616778,0.03592311,6.21999986097217,11
-42.36061,0.2833333,-23.89353,-0.2475386496941922,-0.1888724615247424,-0.5282379250581002,3.615129,287.8061,359.9807,0.02558658,-0.5888562,0.01844718,6.23999986052513,11
-42.42004,0.4833335,-23.87233,-0.2604589876407104,0.0726546370940989,-0.5642744673964515,7.223056,284.7505,359.7683,0.05112267,-0.6091731,0.03685697,6.2599998600781,11
-42.47945,0.6833335,-23.85113,-0.2753300536288208,0.340454183124416,-0.6044392590025573,10.81397,281.6537,359.3585,0.07657,-0.6284366,0.05520011,6.27999985963106,11
-42.53884,0.8833335,-23.82994,-0.2788692312736529,0.5622555106220353,-0.6403020192009627,14.37643,278.4901,358.7437,0.1018815,-0.6466162,0.07344314,6.29999985918403,11
-42.39149,0.283333,-23.70437,-0.0381507377806045,-0.167964301308549,-0.5530914804136131,3.648397,286.8131,359.9816,0.0256538,-0.5958267,0.01884785,6.31999985873699,11
-42.45184,0.483333,-23.68406,-0.0225720941313909,0.0141117706296601,-0.5786236032772862,7.289626,283.7695,359.7693,0.05125613,-0.6158952,0.03765785,6.33999985828996,11
-42.51217,0.683333,-23.66375,-0.0084261077253344,0.202460634180888,-0.6010129596004461,10.91332,280.6841,359.3586,0.07676402,-0.6348915,0.05639755,6.35999985784292,11
-42.38295,0.2833334,-23.53058,0.2179364808514421,-0.2955024876425917,-0.4942822208608248,3.608284,288.8093,0.06894518,0.02525031,-0.5817839,0.0188139,6.37999985739589,11
-42.44241,0.4833331,-23.50984,0.2280744576677307,-0.0946089524636435,-0.514222405933463,7.214159,285.7834,359.9471,0.05045174,-0.6021048,0.03758967,6.39999985694885,11
-42.50185,0.6833327,-23.4891,0.2282697839840253,0.1125570215021434,-0.5336685298111021,10.80746,282.7225,359.6306,0.07556181,-0.6213925,0.0562956,6.41999985650182,11
-42.39167,0.2833333,-23.34976,0.4079163392679774,-0.3665888506928937,-0.4187779320626603,3.548667,290.3346,0.1501326,0.02466717,-0.5709409,0.01876038,6.43999985605478,11
-42.45012,0.4833336,-23.32916,0.3822573383672321,-0.1468780472423396,-0.4437396177529003,7.099234,287.326,0.1137781,0.04928643,-0.5914462,0.03748374,6.45999985560775,11
-42.50854,0.6833338,-23.30856,0.3409591209669571,0.0791059205973397,-0.4713680334152812,10.6419,284.2888,359.8878,0.07381804,-0.6109569,0.05613879,6.47999985516071,11
-42.40793,0.2833334,-23.21122,0.2978694003182625,0.2590916984788862,-0.4929520225987787,3.495303,290.3495,0.1781903,0.02414772,-0.5708479,0.01869228,6.49999985471368,11
-42.4657,0.4833332,-23.19141,0.3117203282074783,0.2073436327504154,-0.4799829859275313,6.994138,287.3528,0.1734192,0.0482499,-0.5913156,0.03734853,6.51999985426664,11
-42.52345,0.6833332,-23.17161,0.3080591511096031,0.190616233488824,-0.4697720481416496,10.48652,284.3306,359.9831,0.07226423,-0.6108079,0.05593766,6.53999985381961,11
-42.40179,0.2833332,-23.03697,0.3018208096193646,0.1555939286017021,-0.4536235858540784,3.44192,291.1891,0.2194439,0.0236965,-0.5648366,0.01854863,6.55999985337257,11
-42.45868,0.4833336,-23.01735,0.3009878174964413,0.1289357330157737,-0.4426835000955655,6.889187,288.2055,0.2595372,0.04734596,-0.5853826,0.03706013,6.57999985292554,11
-42.51555,0.6833336,-22.99772,0.2785914220733119,0.1372987178033033,-0.4387091178898181,10.33288,285.2001,0.1177788,0.0709147,-0.6049811,0.05550687,6.5999998524785,11
-42.412,0.2833333,-22.85672,0.2497522899036397,0.1273671662567048,-0.4330309162753742,3.396146,289.7087,0.1082128,0.02368696,-0.5754266,0.01783005,6.61999985203147,11
-42.46793,0.483333,-22.83705,0.225447601410039,0.1257990298584591,-0.4409586592158838,6.792002,286.7243,0.0391737,0.04732928,-0.5957232,0.03562362,6.63999985158443,11
-42.52385,0.6833328,-22.81739,0.1828599132141946,0.1592522872717289,-0.4608092264383572,10.17863,283.7123,359.7902,0.07089195,-0.6150742,0.05335565,6.6599998511374,11
-42.57974,0.8833328,-22.79773,0.1373599018889351,0.1744105563848918,-0.4836098038536924,13.54649,280.6507,359.3559,0.09433854,-0.6334515,0.07099898,6.67999985069036,11
-42.43816,0.2833329,-22.67187,0.2772458301354987,-0.5223559802733225,-0.4152723818021826,3.341692,286.6851,-0.002349845,0.02340305,-0.5967754,0.01739153,6.69999985024333,11
-42.49355,0.4833328,-22.65366,0.1889196636746533,-0.3068275100753704,-0.4678300579931935,6.677361,283.7034,359.8218,0.04675791,-0.6165788,0.03475287,6.7199998497963,11
-42.41845,0.2833333,-22.54779,0.0971551755862805,-0.085026861049429,-0.5173537949190639,3.292583,286.101,359.9281,0.02333631,-0.6008479,0.0167684,6.73999984934926,11
-42.47283,0.4833333,-22.52923,0.0574830774292181,-0.0693457647792815,-0.5399596732645513,6.576008,283.1197,359.6847,0.04663139,-0.6205473,0.03350569,6.75999984890223,11
-42.5272,0.6833333,-22.51068,0.0037320995344387,-0.0196888492990116,-0.5685412858805634,9.840938,280.1025,359.2663,0.06984973,-0.6393014,0.05018354,6.77999984845519,11
-42.58156,0.8833333,-22.49213,-0.0483521536152906,0.010627796256164,-0.5940755344131432,13.07835,277.0291,358.6676,0.09295817,-0.6570839,0.06678084,6.79999984800816,11
-42.43008,0.2833333,-22.37012,0.0906843085748008,-0.6720257384523566,-0.481706380655897,3.244799,282.6533,359.8003,0.0231927,-0.6245896,0.01633173,6.81999984756112,11
-42.48413,0.4833335,-22.35293,-0.0056462642930696,-0.4434287860865029,-0.4886745496360873,6.473931,279.6736,359.4317,0.04634451,-0.6437165,0.03263424,6.83999984711409,11
-42.53817,0.6833335,-22.33575,-0.1001311990506792,-0.2096048898226233,-0.4935875453134244,9.678519,276.6519,358.8907,0.0694225,-0.6618808,0.04888354,6.85999984666705,11
-42.40435,0.2833333,-22.20856,-0.1772476595681169,-0.0228246852879784,-0.4874117368187569,3.197387,279.9027,359.7133,0.02296555,-0.6431319,0.01603677,6.87999984622002,11
-42.45806,0.4833335,-22.19266,-0.2308365029428856,-0.0688229749957345,-0.4815629764147715,6.374717,276.9252,359.2604,0.04589125,-0.6618004,0.03204511,6.89999984577298,11
-42.51176,0.6833335,-22.17677,-0.2887020352226415,-0.0808450748952017,-0.477581450567822,9.523195,273.9023,358.6376,0.06874475,-0.6794962,0.04800218,6.91999984532595,11
-42.40023,0.2833338,-22.04367,-0.3354911427378724,-0.1122067791414859,-0.4665206634082999,3.441866,278.6959,359.6786,0.02461075,-0.6511031,0.01743709,6.93999984487891,11
-42.45842,0.4833337,-22.02754,-0.362878617321364,-0.1362513592957536,-0.461093133905976,6.861691,275.72,359.178,0.04917746,-0.6694065,0.03484159,6.95999984443188,11
-42.51658,0.6833342,-22.01142,-0.3956697337679671,-0.1263202230386383,-0.4614528772227189,10.25017,272.6901,358.494,0.07366143,-0.686645,0.05219062,6.97999984398484,11
-42.57471,0.8833342,-21.9953,-0.4187593934343354,-0.1357294866860424,-0.4588244354251856,13.59837,269.584,357.6183,0.09803714,-0.7027927,0.06946011,6.99999984353781,11
-42.42533,0.2833335,-21.8741,-0.4329770514700399,-0.1378206929508408,-0.4121975059886793,3.538884,277.8524,359.6965,0.02501702,-0.656653,0.0182916,7.01999984309077,11
-42.48543,0.4833332,-21.85888,-0.450079259551984,-0.105935810376622,-0.3700253860522053,7.057412,274.8882,359.21,0.04999025,-0.6746986,0.0365564,7.03999984264374,11
-42.54551,0.6833328,-21.84366,-0.4551511402637871,-0.0933912210750073,-0.3232897774401131,10.54492,271.8684,358.535,0.07487652,-0.6916406,0.05475692,7.0599998421967,11
-42.41501,0.2833333,-21.71777,-0.6486438755291104,0.5667853672961964,-0.400887388327714,3.5775,279.2578,359.8283,0.02475126,-0.647384,0.01907776,7.07999984174967,11
-42.4758,0.4833331,-21.70322,-0.6091320824228319,0.3303476620254062,-0.3562830502209237,7.140865,276.3139,359.4729,0.04945584,-0.6655769,0.03812283,7.09999984130263,11
-42.53658,0.6833332,-21.68867,-0.564978203164344,0.1033184213596164,-0.3107587243802925,10.6801,273.3219,358.9286,0.07407359,-0.6826728,0.05709975,7.1199998408556,11
-42.42595,0.2833334,-21.55969,-0.6939684146335949,0.5516248842640874,-0.4011602928451374,3.572798,279.7172,359.9591,0.02406052,-0.6443545,0.01982436,7.13999984040856,11
-42.48698,0.4833333,-21.54692,-0.6158504156197182,0.3434140332473357,-0.3698984818798259,7.137901,276.7945,359.7366,0.04807145,-0.6625655,0.03961565,7.15999983996153,11
-42.548,0.6833331,-21.53416,-0.5355656805356546,0.14461217773009,-0.3428815009220365,10.68597,273.8322,359.3275,0.07199897,-0.6796902,0.05933691,7.17999983951449,11
-42.44693,0.2833333,-21.44159,-0.4385220328877324,-0.0991422603005678,-0.3114577732306998,3.575642,279.5111,359.9692,0.02398705,-0.6457288,0.01995062,7.19999983906746,11
-42.50808,0.4833333,-21.4292,-0.3714287630688986,-0.1221407926307719,-0.2707547692424334,7.144172,276.5981,359.7566,0.04792823,-0.66385,0.03986458,7.21999983862042,11
-42.56923,0.6833334,-21.41682,-0.3064248950486856,-0.1111630590990417,-0.2360027319979316,10.69619,273.646,359.3579,0.07178617,-0.6808844,0.05970784,7.23999983817339,11
-42.44918,0.2833334,-21.28994,-0.3859204842857622,0.3606661174482152,-0.3036734083962962,3.649996,280.5164,0.01888023,0.02438281,-0.6390086,0.02048723,7.25999983772635,11
-42.51157,0.4833336,-21.27706,-0.4583182561666845,0.8152461233547924,-0.3723755307546668,7.295218,277.616,359.8528,0.04871882,-0.6571881,0.040934,7.27999983727932,11
-42.57395,0.6833335,-21.26418,-0.2948439985390791,0.3475994645751649,-0.3212834335385324,10.92629,274.6781,359.4976,0.0729688,-0.6742672,0.06130672,7.29999983683228,11
-42.47353,0.2833336,-21.13336,-0.1228838269522043,-0.13729626831887,-0.2703458480543936,3.621323,280.9362,0.03383323,0.02418179,-0.6361971,0.02033917,7.31999983638525,11
-42.53538,0.4833337,-21.12039,-0.1751752456967779,0.2655358493177392,-0.3348490600793994,7.238736,278.0462,359.8848,0.04831783,-0.6543985,0.04063889,7.33999983593822,11
-42.59721,0.6833336,-21.10743,-0.0236358258651137,0.0108042626627535,-0.2767706821389133,10.84292,275.1204,359.549,0.07236914,-0.6715168,0.06086548,7.35999983549118,11
-42.65902,0.8833334,-21.09447,0.1264683493319438,-0.2355638528272769,-0.2209027123095417,14.42404,272.1343,359.0193,0.09629663,-0.6875263,0.0809848,7.37999983504415,11
-42.51637,0.2833335,-20.97368,0.0637296079716378,0.1923579323163941,-0.2901213983325625,3.564215,281.601,0.1143595,0.02346942,-0.631741,0.02042804,7.39999983459711,11
-42.57741,0.4833335,-20.96161,0.1704465734226019,-0.0372841838043673,-0.2341691596723656,7.128661,278.7306,0.05002165,0.04689502,-0.649995,0.04081731,7.41999983415008,11
-42.63843,0.6833335,-20.94954,0.2639461474178475,-0.2585630006431524,-0.1815926051026331,10.68432,275.8309,359.8038,0.07023965,-0.667196,0.06113498,7.43999983370304,11
-42.51522,0.2833334,-20.82431,0.160541444462531,0.1944481888253838,-0.2638422248345371,3.501643,283.3843,0.2035681,0.02287382,-0.6196389,0.0203326,7.45999983325601,11
-42.57519,0.4833336,-20.81212,0.0557512671433073,0.6302103617642285,-0.3475116955256503,7.007998,280.5312,0.2326521,0.04570539,-0.6381288,0.04062688,7.47999983280897,11
-42.63515,0.6833336,-20.79994,0.1823790590439529,0.1437451960753081,-0.3097211627668095,10.51002,277.6557,0.08454135,0.06845836,-0.6556072,0.06084798,7.49999983236194,11
-42.53116,0.2833334,-20.6712,0.3092801387791084,-0.3599694011714361,-0.2715083449837188,3.444194,283.6443,0.2194613,0.02244028,-0.6178693,0.0200799,7.5199998319149,11
-42.59019,0.4833334,-20.65928,0.2028007865157732,0.0240452107110582,-0.3498138907142589,6.893618,280.8015,0.2679698,0.04483721,-0.6363672,0.04012099,7.53999983146787,11
-42.6492,0.6833332,-20.64736,0.2983286406183225,-0.2495040284040403,-0.3050405967813958,10.34022,277.9385,0.1431355,0.06716073,-0.6538776,0.06009435,7.55999983102083,11
-42.70819,0.8833331,-20.63544,0.3887733932653958,-0.5146900216402337,-0.2618012952552924,13.77524,275.0336,359.8399,0.08937666,-0.6703755,0.07996915,7.5799998305738,11
-42.56381,0.2833333,-20.51535,0.2610127679702074,-0.1055864462478095,-0.3435657920554504,3.396734,281.6306,0.1018492,0.02241128,-0.6315651,0.01941441,7.59999983012676,11
-42.62195,0.4833331,-20.5037,0.1339385072063663,0.2862681551283044,-0.4226497855948778,6.793022,278.7889,0.03515632,0.0447804,-0.6497184,0.03879238,7.61999982967973,11
-42.68007,0.683333,-20.49206,0.2538034749640587,-0.2441037131255349,-0.3411467896214617,10.18078,275.9208,359.7972,0.06707665,-0.6668853,0.05810625,7.63999982923269,11
-42.55429,0.2833333,-20.36805,0.1705583539838713,-0.0714369331479416,-0.3963994828613586,3.342077,281.0135,0.04028595,0.02228002,-0.6357251,0.01881721,7.65999982878566,11
-42.61139,0.4833333,-20.35618,0.0823567830798168,0.1116841018262843,-0.4550744158243525,6.680679,278.1752,359.9147,0.0445197,-0.6537586,0.03759758,7.67999982833862,11
-42.66847,0.6833333,-20.34432,0.0041159918432356,0.2529889798006958,-0.507887024176938,10.00798,275.3081,359.6206,0.06668847,-0.670821,0.05631748,7.69999982789159,11
-42.56086,0.2833333,-20.21651,-0.0135608089205589,0.166742577059628,-0.5247298048305176,3.28912,278.9515,359.8967,0.02240049,-0.6494822,0.01796286,7.71999982744455,11
-42.61699,0.4833335,-20.20441,-0.0428201440045299,0.119699123596963,-0.5422878730505474,6.568115,276.1099,359.6301,0.04476254,-0.6671792,0.035894,7.73999982699752,11
-42.6731,0.6833335,-20.19231,-0.0682593733971899,0.0585425430837709,-0.5511515810882024,9.828498,273.2321,359.1968,0.0670535,-0.6839058,0.053765,7.75999982655048,11
-42.72919,0.8833336,-20.18022,-0.0811947652607258,0.009930919856831,-0.5595206529549799,13.06205,270.2988,358.5914,0.08924337,-0.6996396,0.07155319,7.77999982610345,11
-42.58344,0.2833336,-20.0626,-0.1083000485932927,0.0005219914378555,-0.5700393597120197,3.234314,275.1674,359.7807,0.02212488,-0.6742024,0.01762299,7.79999982565641,11
-42.63906,0.4833338,-20.05236,-0.133992128037633,-0.022999866536101,-0.5736876172734107,6.452923,272.3279,359.4009,0.04421262,-0.6912777,0.03521556,7.81999982520938,11
-42.69467,0.6833336,-20.04212,-0.1488995569015614,-0.0339771171751098,-0.5823360839169744,9.647782,269.4471,358.8572,0.06623279,-0.7073685,0.05275368,7.83999982476234,11
-42.56708,0.2833336,-19.92164,-0.1761622268463227,-0.0057517716232461,-0.5959872860524591,3.187115,272.2989,359.6991,0.021873,-0.6924568,0.01737268,7.85999982431531,11
-42.62223,0.4833338,-19.91282,-0.2003670524630294,0.0083606765200169,-0.6058946887812588,6.354617,269.4617,359.2402,0.04370971,-0.7090545,0.03471598,7.87999982386827,11
-42.67738,0.6833335,-19.90401,-0.2060957387126905,-0.0449551724320447,-0.6033441388080796,9.494496,266.5799,358.6197,0.06548114,-0.7246601,0.05200563,7.89999982342124,11
-42.57409,0.2833333,-19.78019,-0.1899364215750623,-0.1123841763993822,-0.5946468166281349,3.521313,271.7256,359.6762,0.02401677,-0.6959849,0.01936886,7.91999982297421,11
-42.6352,0.4833333,-19.7712,-0.1806768686973825,-0.1406102734274535,-0.5837456288671383,7.021533,268.889,359.1778,0.04799044,-0.7122632,0.03870238,7.93999982252717,11
-42.6963,0.6833336,-19.76221,-0.1630779249107448,-0.1829494208425883,-0.561920550504933,10.49293,265.9977,358.4996,0.07189126,-0.7274246,0.05797859,7.95999982208014,11
-42.75736,0.8833338,-19.75322,-0.1318589670808094,-0.2127435215017198,-0.5388706077410994,13.92598,263.0291,357.633,0.09568577,-0.7414467,0.07716586,7.9799998216331,11
-42.61367,0.2833338,-19.6371,-0.1127432627439901,-0.203334944602165,-0.5163218175429272,3.551402,270.9727,359.7107,0.02386517,-0.7006844,0.01992488,7.99999982118607,11
-42.67538,0.4833338,-19.62951,-0.0906902151097597,-0.208039754711987,-0.4857939111700098,7.083751,268.15,359.2467,0.0476854,-0.7167596,0.03981842,8.01999982073903,11
-42.73708,0.6833342,-19.62192,-0.0580116545709685,-0.2001992698678288,-0.4591360985529213,10.58773,265.2741,358.6024,0.07142473,-0.7317046,0.05964369,8.039999820292,11
-42.61397,0.2833336,-19.50398,-0.0377205076332742,-0.1531556335453761,-0.4363985245683359,3.592361,272.3367,359.8735,0.02337516,-0.6921762,0.02091108,8.05999981984496,11
-42.67639,0.4833331,-19.49771,-0.0150027354735442,-0.1202251227053344,-0.409327304207931,7.173726,269.537,359.5717,0.04670641,-0.7083976,0.04178914,8.07999981939793,11
-42.73879,0.6833331,-19.49145,0.0249632625365805,-0.154723427920019,-0.3696845472502872,10.73489,266.6934,359.0897,0.06995814,-0.7234923,0.06259455,8.09999981895089,11
-42.80117,0.8833331,-19.48519,0.0840410881515723,-0.2033342999321056,-0.3275295546291907,14.26667,263.7825,358.4197,0.09309472,-0.7374383,0.08329495,8.11999981850386,11
-42.64658,0.2833333,-19.33923,0.1341099981539955,-0.2127421543656056,-0.2842206810072376,3.565304,272.4178,359.9717,0.0226269,-0.6916904,0.02134947,8.13999981805682,11
-42.70863,0.4833333,-19.33463,0.1898162777631071,-0.2362627053145781,-0.2315511981196749,7.12391,269.6389,359.771,0.04520691,-0.7078726,0.04266335,8.15999981760979,11
-42.77065,0.6833333,-19.33003,0.2551985409731898,-0.2472393182529315,-0.1807358211706748,10.66752,266.8229,359.3934,0.06771141,-0.7229436,0.06390432,8.17999981716275,11
-42.83266,0.8833333,-19.32543,0.304841402471844,-0.2190129756404158,-0.1324302318812549,14.18725,263.9473,358.8318,0.09010601,-0.7368819,0.08503936,8.19999981671572,11
-42.67889,0.2833333,-19.21149,0.353156679235667,-0.2048995280843246,-0.0787128465236826,3.637574,272.441,-0.001152569,0.0229224,-0.6915359,0.02195212,8.21999981626868,11
-42.74224,0.4833333,-19.20725,0.4061802515093262,-0.1782407978578354,-0.0338902963135048,7.269844,269.6749,359.8219,0.04580242,-0.7076131,0.04386279,8.23999981582165,11
-42.80556,0.6833333,-19.20301,0.441003934248009,-0.1123794060151772,0.0020341431284869,10.88891,266.8721,359.4653,0.06860702,-0.7225543,0.0657024,8.25999981537461,11
-42.6713,0.2833333,-19.08642,0.4718738293759301,-0.0606308819611406,0.0368392872470373,3.629675,274.4364,0.05394954,0.02292415,-0.6788783,0.02185561,8.27999981492758,11
-42.73441,0.4833333,-19.08093,0.5130326412315256,-0.0763115410752941,0.0783207477557681,7.256716,271.6839,359.9333,0.04580596,-0.695217,0.04367005,8.29999981448054,11
-42.79749,0.6833333,-19.07545,0.5649242077275218,-0.106105426554014,0.1146088159583555,10.87267,268.8985,359.6346,0.06861006,-0.7104447,0.06540829,8.31999981403351,11
-42.68323,0.2833331,-18.95685,0.6001275053019981,-0.0966969156024641,0.1461939289585352,3.577561,276.8341,0.1389628,0.02254423,-0.6634081,0.02162416,8.33999981358647,11
-42.74535,0.4833329,-18.95033,0.6328284986165968,-0.1014014864003041,0.1812601296042686,7.156616,274.0983,0.1069309,0.04504763,-0.6800848,0.04320782,8.35999981313944,11
-42.80746,0.6833329,-18.94382,0.66089491531406,-0.0935607093638019,0.2096006356179742,10.72893,271.3362,359.901,0.06747564,-0.695695,0.06471718,8.3799998126924,11
-42.86955,0.8833333,-18.93731,0.6599045714259972,-0.0465173266406084,0.2314866788596248,14.28568,268.5251,359.5146,0.08979432,-0.7102171,0.08611412,8.39999981224537,11
-42.71289,0.2833333,-18.82355,0.6445929954168221,-0.0135865085368788,0.2551760472049302,3.516789,277.8105,0.1889443,0.02204159,-0.6570337,0.02141141,8.41999981179833,11
-42.77399,0.4833333,-18.81702,0.6273129629393637,0.0318888709037219,0.2674133746467468,7.037537,275.0907,0.2108665,0.04404371,-0.6738161,0.04278392,8.4399998113513,11
-42.83508,0.6833333,-18.8105,0.586065447968231,0.1165677102188399,0.2684839625335478,10.55393,272.3489,0.0631735,0.06597196,-0.6895663,0.06408218,8.45999981090426,11
-42.69827,0.2833333,-18.69393,0.5365987730545498,0.1871327751998415,0.2665202713966828,3.455616,279.9725,0.2512704,0.02168335,-0.6427283,0.02106506,8.47999981045723,11
-42.75825,0.4833333,-18.68637,0.494656033694639,0.190268869405302,0.269663229595956,6.91783,277.2667,0.3387761,0.04332909,-0.659802,0.04208697,8.49999981001019,11
-42.81821,0.683333,-18.67882,0.4529540350432555,0.1792915889720853,0.3023792332688302,10.37934,274.5441,0.2610162,0.06490591,-0.6758865,0.06304022,8.51999980956316,11
-42.70062,0.2833331,-18.55918,0.3950236698635621,0.2075171292317305,0.3242307169682021,3.406547,280.1946,0.1782564,0.02180436,-0.6412368,0.02025989,8.53999980911613,11
-42.75947,0.4833333,-18.55032,0.3368477899326123,0.221629052665834,0.3439245858074784,6.816272,277.4906,0.1949791,0.04357218,-0.6583163,0.04047739,8.55999980866909,11
-42.81831,0.683333,-18.54146,0.0725447392493237,0.8886006622675942,0.237724698014901,10.22205,274.7661,0.04857292,0.06527223,-0.6744293,0.06063025,8.57999980822206,11
-42.87713,0.883333,-18.5326,0.0390494949976414,0.6641854523229469,0.2411031350210102,13.616,272.001,359.7342,0.08687279,-0.6895542,0.08068891,8.59999980777502,11
-42.71932,0.2833336,-18.41919,0.0010205562814462,0.4544058234612392,0.2390497911870532,3.35536,278.6473,0.06457113,0.02183655,-0.6515185,0.01950939,8.61999980732799,11
-42.77717,0.4833335,-18.41014,-0.0253842843194291,0.2049007553091565,0.2407371976445631,6.708696,275.9443,359.9705,0.04363497,-0.6683332,0.03898191,8.63999980688095,11
-42.835,0.6833337,-18.40108,-0.0840130362556692,0.1813786006127359,0.2029229514816464,10.05285,273.2151,359.7155,0.06536608,-0.6841893,0.0583932,8.65999980643392,11
-42.6959,0.2833331,-18.28378,-0.1544601497890454,0.1970593706275624,0.1571864682090904,3.302551,278.4665,359.9628,0.02203664,-0.6527032,0.01857055,8.67999980598688,11
-42.75256,0.4833331,-18.27331,-0.2206092828819947,0.1986272157917533,0.1126450638388654,6.598688,275.7632,359.7696,0.04403668,-0.669466,0.03710916,8.69999980553985,11
-42.80921,0.6833332,-18.26284,-0.0865637430405712,-0.5075482272446845,0.1953539935646304,9.880612,273.0287,359.4167,0.06597154,-0.6852893,0.05558379,8.71999980509281,11
-42.68846,0.2833335,-18.14275,-0.196828266847163,-0.2972467585294758,0.1529983081845145,3.250614,276.8272,359.8458,0.0221071,-0.6634524,0.01782,8.73999980464578,11
-42.74422,0.4833335,-18.13202,-0.3036194303371999,-0.0764909510976481,0.1117539555813031,6.48947,274.1226,359.538,0.04417826,-0.6799511,0.03561051,8.75999980419874,11
-42.79996,0.6833337,-18.1213,-0.3908986003507735,0.1024486240647846,0.0807827949834987,9.709126,271.3812,359.0733,0.06618363,-0.6955142,0.05334673,8.77999980375171,11
-42.85568,0.8833337,-18.11058,-0.4540116946450538,0.0538364174114424,0.044314062352555,12.90158,268.5851,358.4462,0.088093,-0.7101226,0.07100221,8.79999980330467,11
-42.69728,0.2833336,-17.99956,-0.5193856642619252,0.0444271647408515,0.0063790799415919,3.19787,272.9323,359.7129,0.0219538,-0.6884617,0.01740342,8.81999980285764,11
-42.75255,0.4833334,-17.99042,-0.571049705785569,0.0209048020076583,-0.0240340141785164,6.377879,270.2279,359.2747,0.04387267,-0.7043424,0.03477878,8.8399998024106,11
-42.80781,0.6833332,-17.98129,-0.6020783639832885,0.0099279860853542,-0.0601700447881476,9.5326,267.4807,358.6818,0.06572742,-0.7192733,0.05210224,8.85999980196357,11
-42.67228,0.2833336,-17.86539,-0.6363272623815277,0.0381541492356644,-0.100140450947741,3.444947,273.4214,359.712,0.02360208,-0.6853154,0.01878164,8.87999980151653,11
-42.73182,0.4833336,-17.85539,-0.6580030125074643,0.0522672561620357,-0.1352174454610715,6.871734,270.7209,359.2613,0.04716416,-0.7010915,0.03753074,8.8999998010695,11
-42.79134,0.6833338,-17.84539,-0.4694927927446812,-0.6413628697054456,-0.041113101256089,10.27271,267.9715,358.6432,0.07065488,-0.7158367,0.0562209,8.91999980062246,11
-42.67482,0.2833333,-17.72617,-0.5200958641618669,-0.4185160817304566,-0.066740617865145,3.543274,274.3833,359.7435,0.02420104,-0.6791707,0.01936767,8.93999980017543,11
-42.7359,0.4833338,-17.71556,-0.5621266793906514,-0.185215166386087,-0.0889923371304064,7.070406,271.6922,359.3201,0.04836474,-0.6949881,0.03870348,8.95999979972839,11
-42.79698,0.6833335,-17.70495,-0.5802763543551492,0.0062693309542162,-0.0991295473120317,10.5727,268.9515,358.725,0.07245086,-0.7097499,0.05797523,8.97999979928136,11
-42.85803,0.8833338,-17.69434,-0.5723247586224645,-0.0297972609365329,-0.1127328783396564,14.04138,266.1396,357.9504,0.09642214,-0.7234358,0.07715376,8.99999979883432,11
-42.71034,0.2833336,-17.54793,-0.5645656665965291,-0.026660925502505,-0.1258715416424465,3.582643,274.5309,359.8488,0.02385538,-0.6782402,0.0202437,9.01999979838729,11
-42.77227,0.4833336,-17.53894,-0.5418986578482219,-0.0376375790376484,-0.1299855210514113,7.153799,271.8597,359.5309,0.0476664,-0.693994,0.04045761,9.03999979794025,11
-42.83418,0.6833336,-17.52996,-0.4990667529527073,-0.0360688965864378,-0.139081031534257,10.70514,269.1449,359.0413,0.07139945,-0.7086846,0.06060382,9.05999979749322,11
-42.89608,0.8833336,-17.52097,-0.4601800807221323,0.0047023812715846,-0.1511257681517666,14.22822,266.3643,358.3723,0.09501888,-0.7222913,0.08065213,9.07999979704618,11
-42.74823,0.2833333,-17.41081,-0.4103650487587771,0.0313613120427327,-0.1579349388446687,3.552558,274.2895,359.9622,0.02294733,-0.6798145,0.02084081,9.09999979659915,11
-42.80986,0.4833331,-17.40411,-0.3347681539776062,-0.0094084175617379,-0.1512737547774634,7.098462,271.6399,359.761,0.04584715,-0.6954845,0.04165009,9.11999979615211,11
-42.87147,0.6833332,-17.39742,-0.2406392948867335,-0.0642925673029106,-0.1070008816223975,10.63018,268.9548,359.3915,0.06867268,-0.7101046,0.06239077,9.13999979570508,11
-42.74524,0.2833333,-17.28271,-0.1493949248600827,-0.0799737018176752,-0.0635171717379261,3.624604,276.1511,0.02618853,0.02337748,-0.6678212,0.02130043,9.15999979525805,11
-42.80803,0.4833333,-17.27494,-0.0464354014280417,-0.1097682319664558,-0.0125573277132033,7.245567,273.5148,359.8854,0.04671288,-0.6836736,0.04256222,9.17999979481101,11
-42.87079,0.6833334,-17.26717,-0.153521170423744,0.5132969456575753,-0.0757771584612374,10.85572,270.8453,359.5736,0.06997778,-0.6984686,0.06375286,9.19999979436398,11
-42.76507,0.2833333,-17.14984,-0.0157069155490603,0.2449753787434332,-0.0296160728368697,3.638798,276.8931,0.03509264,0.02355605,-0.6629912,0.02128885,9.21999979391694,11
-42.82801,0.4833333,-17.14137,0.1208914828813831,-0.0087102918963791,0.0190015106261149,7.274333,274.2654,359.9031,0.04706964,-0.6788927,0.04253852,9.23999979346991,11
-42.89093,0.6833335,-17.13292,0.0578075294162729,0.4181661898429114,-0.0534053127709253,10.89887,271.6051,359.6005,0.07050502,-0.693741,0.06371621,9.25999979302287,11
-42.95383,0.8833337,-17.12446,0.2089716031734383,0.1937516480029505,-0.0163822597180551,14.50451,268.8895,359.1201,0.09383012,-0.7075151,0.08478814,9.27999979257584,11
-42.80515,0.2833331,-17.01299,0.3509739135316323,-0.0160274094545779,0.0183567186018631,3.592888,278.1592,0.09911905,0.02312144,-0.6547081,0.02118699,9.2999997921288,11
-42.86726,0.4833331,-17.00439,0.4981851666830295,-0.2655318171683175,0.0588917250572116,7.185468,275.5485,0.0343789,0.04620158,-0.6707467,0.04233526,9.31999979168177,11
-42.92936,0.683333,-16.99579,0.595171787165782,-0.2890537426584001,0.1048303733757602,10.77028,272.9102,359.8027,0.06920643,-0.6857638,0.06341313,9.33999979123473,11
-42.80047,0.2833333,-16.88078,0.6689944279783475,-0.273372536010283,0.1485296731247345,3.530498,281.0872,0.2058752,0.02264322,-0.6352309,0.02096247,9.3599997907877,11
-42.8614,0.4833331,-16.87107,0.7343211450221503,-0.2718038072125226,0.1982165986931505,7.065671,278.4946,0.2519309,0.04524712,-0.6516558,0.04188778,9.37999979034066,11
-42.92232,0.683333,-16.86135,0.5767920869548391,0.3826236577357276,0.1339430460209598,10.59821,275.8826,0.1359316,0.0677785,-0.6671097,0.06274479,9.39999978989363,11
-42.81285,0.2833333,-16.74334,0.6516111176148698,0.1456637005453017,0.1773739887899257,3.470356,282.3861,0.2425945,0.02226983,-0.6264592,0.0206253,9.41999978944659,11
-42.87268,0.4833333,-16.73312,0.7104266844802822,-0.076661093465195,0.2232533187512189,6.946796,279.8049,0.3284897,0.04450136,-0.6430379,0.04121093,9.43999978899956,11
-42.9325,0.6833333,-16.72292,0.5574817706657313,0.3815771939252396,0.1485296905481181,10.42245,277.2076,0.256118,0.06666282,-0.6586799,0.06173052,9.45999978855252,11
-42.99229,0.8833333,-16.71271,0.6115100873625039,0.1885244653156532,0.1819390891406325,13.89023,274.5741,0.02083385,0.08872384,-0.6733645,0.08215474,9.47999978810549,11
-42.84171,0.2833333,-16.60149,0.6467995267957605,0.0101079746555253,0.2133892221691375,3.419007,282.0607,0.1940064,0.02212947,-0.6286671,0.0200773,9.49999978765845,11
-42.90054,0.4833333,-16.59101,0.6792701376815558,-0.2080345640725951,0.2508126675995648,6.841903,279.4856,0.2340561,0.04422065,-0.6451599,0.04011673,9.51999978721142,11
-42.95934,0.683333,-16.58053,0.6678521249031277,-0.2001947320004341,0.2478384648560467,10.26218,276.8923,0.1183246,0.0662447,-0.6607342,0.06009373,9.53999978676438,11
-42.82763,0.2833334,-16.46511,0.634410675754566,-0.1531523071349859,0.2362051148541848,3.367871,282.2962,0.1184881,0.02223655,-0.627062,0.019239,9.55999978631735,11
-42.88523,0.4833333,-16.4533,0.5948643143943357,-0.1202226763566939,0.2240340316168119,6.736293,279.7223,0.08486315,0.04443794,-0.6435617,0.03843878,9.57999978587031,11
-42.94281,0.6833336,-16.44151,0.5651435697830536,-0.1547220391787448,0.2194470037722808,10.09878,277.1266,359.8976,0.06657247,-0.659165,0.05757987,9.59999978542328,11
-43.00038,0.8833339,-16.42971,0.546137137021212,-0.2033339755933706,0.2093347353525381,13.44836,274.4902,359.5519,0.08861081,-0.6738525,0.07663573,9.61999978497624,11
-42.83499,0.2833333,-16.2854,0.5106859463854221,-0.2127427304741352,0.2005575873380198,3.310134,280.6482,359.9576,0.02246574,-0.6381696,0.01815536,9.63999978452921,11
-42.89133,0.4833333,-16.27273,0.474786274470155,-0.2362643801499698,0.2015235992870323,6.614059,278.071,359.7662,0.04489525,-0.6544093,0.03628065,9.65999978408217,11
-42.94767,0.6833332,-16.26006,0.2289465568703832,0.3930729814419891,0.0909927396282395,9.904611,275.4635,359.4224,0.06725889,-0.6697609,0.05434637,9.67999978363514,11
-43.00399,0.8833331,-16.2474,0.2620863788370187,0.1310234222569184,0.1218109914572096,13.1751,272.8078,358.9214,0.08952755,-0.6842054,0.07233302,9.6999997831881,11
-42.84237,0.2833333,-16.13917,0.2843605831486826,-0.1163906175244551,0.1571670758357797,3.252256,278.4931,359.8383,0.02241774,-0.6525113,0.01745611,9.71999978274107,11
-42.89781,0.4833335,-16.12676,0.1101005337006597,0.316758276605045,0.0737620156985343,6.493018,275.9166,359.5301,0.04479966,-0.6684186,0.03488379,9.73999978229403,11
-42.95323,0.6833335,-16.11435,0.1418332935679345,0.0986158230779139,0.1024119023585843,9.715649,273.3042,359.0722,0.06711757,-0.68344,0.05226031,9.759999781847,11
-42.80988,0.2833335,-16.0024,0.1650554329317941,-0.1048911100001094,0.1330544031904832,3.202237,276.7563,359.7487,0.02234315,-0.6639046,0.01692018,9.77999978139997,11
-42.86459,0.4833335,-15.99025,0.1963069378877762,-0.3481237040827381,0.1736269486092627,6.389132,274.1805,359.3533,0.04465147,-0.6795462,0.0338138,9.79999978095293,11
-42.91929,0.6833338,-15.97811,0.1833333449674512,-0.3653727676559178,0.2197739908803679,9.553962,271.565,358.8103,0.06689655,-0.6943044,0.05065845,9.8199997805059,11
-42.79855,0.2833333,-15.8611,0.160517408723571,-0.343418688114086,0.2652344508263198,3.445535,276.6913,359.716,0.02410871,-0.6642774,0.01813037,9.83999978005886,11
-42.85745,0.4833333,-15.84785,0.1439681533174024,-0.3355773257345927,0.3179576329874223,6.87403,274.1165,359.2769,0.04817738,-0.6797383,0.03623017,9.85999977961183,11
-42.91634,0.6833336,-15.8346,-0.079457788902765,0.3251223487941529,0.2581830758496082,10.27857,271.4945,358.6779,0.07217553,-0.6942329,0.05427463,9.87999977916479,11
-42.9752,0.8833337,-15.82136,-0.0654096355338964,0.0944351242381463,0.3019782397787551,13.65269,268.8055,357.9117,0.09607907,-0.7077413,0.07224475,9.89999977871776,11
-42.81589,0.2833334,-15.71342,-0.0517713877819829,-0.1216161852261368,0.3489481598222319,3.542812,277.1279,359.7383,0.02468488,-0.6614128,0.0187459,9.91999977827072,11
-42.8764,0.4833331,-15.69987,-0.2270965802682738,0.342894596445028,0.2769944088007534,7.070284,274.5638,359.3177,0.049333,-0.6768188,0.03746312,9.93999977782369,11
-42.93689,0.6833331,-15.68633,-0.1894668665539711,0.1561148396947218,0.3125198933051507,10.57423,271.9516,358.7333,0.07390311,-0.6912307,0.05611997,9.95999977737665,11
-42.79651,0.2833336,-15.57404,-0.1533356971052057,-0.0160293994813584,0.3480115064960714,3.579402,279.5429,359.8671,0.02459294,-0.6454951,0.01928502,9.97999977692962,11
-42.85743,0.4833338,-15.56005,-0.102912828393201,-0.2278992476528489,0.3911887803083385,7.148653,276.998,359.5747,0.04914594,-0.6611663,0.03853612,9.99999977648258,11
-42.91834,0.6833338,-15.54606,-0.0889675695929028,-0.2137860986486883,0.4386472208688854,10.70032,274.4122,359.1187,0.07362115,-0.6758574,0.05772487,10.0199997760355,11
-42.79786,0.2833331,-15.43021,-0.0801566025355242,-0.1604702475186873,0.4831435593171669,3.573894,281.1438,-0.0003437788,0.02408839,-0.6348004,0.01980233,10.0399997755885,11
-42.85877,0.4833328,-15.41682,-0.0611426079681862,-0.1212670508263658,0.5323991396334371,7.143278,278.6191,359.8419,0.04813364,-0.6506401,0.03957139,10.0599997751415,11
-42.91966,0.683333,-15.40343,-0.2452404444903564,0.5707948510897056,0.4682279326890768,10.70112,276.0621,359.523,0.07210229,-0.6655197,0.05927642,10.0799997746944,11
-42.98053,0.883333,-15.39004,-0.1914391213485515,0.3714700720634357,0.5017596095107333,14.24017,273.452,359.0366,0.09596091,-0.6794191,0.0788888,10.0999997742474,11
-42.81954,0.2833331,-15.28277,-0.1360089870306993,0.1867803719743977,0.5359889500132908,3.597019,281.956,0.0171774,0.02428861,-0.6293125,0.01987684,10.1199997738004,11
-42.88072,0.4833331,-15.26872,-0.06371676680439,-0.0376351921031948,0.5785308666347753,7.190272,279.4427,359.8763,0.04853507,-0.645181,0.03971798,10.1399997733533,11
-42.94188,0.6833333,-15.25467,-0.2269917952482174,0.604246656165873,0.478001522821728,10.77301,276.898,359.5739,0.0727069,-0.6600916,0.05949442,10.1599997729063,11
-43.00303,0.8833333,-15.24062,-0.1145265333816212,0.354742402040418,0.5059268090465121,14.33777,274.3007,359.1036,0.09676715,-0.674024,0.07917728,10.1799997724593,11
-42.80928,0.2833334,-15.10386,-0.0030015750673797,0.1198739932255096,0.5311195305473095,3.637046,284.4438,0.07161578,0.02469944,-0.6123123,0.01993406,10.1999997720122,11
-42.87073,0.4833333,-15.08788,0.1226282065985415,-0.1547199220474244,0.5611269790999742,7.272723,281.9454,359.9845,0.04935585,-0.6284159,0.03983223,10.2199997715652,11
-42.93215,0.6833336,-15.0719,0.210846643465338,-0.2033314024886575,0.5915279638770805,10.90003,279.4185,359.7354,0.07393252,-0.643574,0.05966493,10.2399997711182,11
-42.79976,0.2833333,-14.95562,0.2893792263097978,-0.2127403034655938,0.6161416322762054,3.590092,287.8432,0.1516569,0.02453768,-0.5886359,0.01951574,10.2599997706711,11
-42.85981,0.4833333,-14.93762,0.3729569709054345,-0.2362621426221567,0.6427875010736095,7.182324,285.3602,0.1476206,0.04903304,-0.6051375,0.03899676,10.2799997702241,11
-42.91985,0.6833335,-14.91962,0.2377205163817066,0.3930750111943846,0.5598413501894512,10.76989,282.8549,359.9854,0.07345051,-0.6207443,0.05841444,10.2999997697771,11
-42.80637,0.2833334,-14.79732,0.3354297510189639,0.1310253444191078,0.5700583426468064,3.529431,290.2733,0.2179252,0.02418142,-0.5713967,0.01916284,10.31999976933,11
-42.86504,0.4833336,-14.77826,0.4214041349670268,-0.1163891706757587,0.5830523733504371,7.063893,287.8044,0.2836905,0.04832168,-0.5881681,0.03829204,10.339999768883,11
-42.9237,0.6833338,-14.7592,0.3003442451185236,0.3167596914815915,0.4807207672682416,10.59684,285.3182,0.1952656,0.07238726,-0.604089,0.05736021,10.359999768436,11
-42.98235,0.8833334,-14.74016,0.3931809676159261,0.0986174353628858,0.476903048598766,14.12123,282.7949,359.9472,0.09634588,-0.6191387,0.07633366,10.3799997679889,11
-42.82849,0.2833333,-14.63085,0.4738833182223487,-0.1048894305474866,0.4734378860460104,3.470184,291.1129,0.2403717,0.02378422,-0.5653858,0.01885436,10.3999997675419,11
-42.88608,0.4833333,-14.61171,0.558567673822246,-0.3481218609361902,0.4778131659112361,6.946155,288.656,0.3317531,0.04752755,-0.582213,0.03767399,10.4199997670949,11
-42.94366,0.6833332,-14.59258,0.5971120523865139,-0.3653713440676142,0.4861671315904097,10.42177,286.1844,0.2725694,0.07119861,-0.5982183,0.05643504,10.4399997666478,11
-42.80795,0.2833336,-14.47596,0.6198823128855295,-0.3434176691869205,0.4923512511017218,3.416109,292.8572,0.2324855,0.02371348,-0.5527789,0.01817202,10.4599997662008,11
-42.86402,0.4833334,-14.45532,0.6431400310671549,-0.3355766720043041,0.5039468443462631,6.837749,290.4071,0.3179351,0.04739085,-0.5697805,0.03630576,10.4799997657537,11
-42.92007,0.6833334,-14.43469,0.4420449718533419,0.3251229548711276,0.4100453272807716,10.25887,287.9426,0.2556167,0.07099766,-0.585995,0.05438443,10.4999997653067,11
-42.80187,0.2833334,-14.31093,0.4789681358939432,0.0944348125314601,0.4539253872873399,3.367561,292.6029,0.1235322,0.02384809,-0.5546097,0.01719901,10.5199997648597,11
-42.85649,0.4833332,-14.28915,0.5089310673655945,-0.1216176220563113,0.4947454947207301,6.735994,290.1506,0.1020736,0.04765935,-0.5715529,0.03436269,10.5399997644126,11
-42.91109,0.6833332,-14.26738,0.330706183798128,0.3428932363654371,0.4182552876073693,10.0994,287.6782,359.9343,0.07140101,-0.5877241,0.05147537,10.5599997639656,11
-42.96567,0.8833332,-14.24561,0.1534693355029688,0.7964276861395454,0.3414483558360981,13.45147,285.1676,359.6156,0.09504274,-0.6031034,0.06851399,10.5799997635186,11
-42.80965,0.2833334,-14.13629,0.2188552140923363,0.3340076868190583,0.3601221649823465,3.315438,291.0853,359.9865,0.02391979,-0.5655531,0.01627029,10.5999997630715,11
-42.86308,0.4833331,-14.11411,0.2883568231540323,-0.1393890520216223,0.3843868926441214,6.626328,288.6312,359.8307,0.04780239,-0.5822749,0.03251424,10.6199997626245,11
-42.91648,0.6833332,-14.09194,0.1125063813807116,0.2812147256578168,0.3096793202101668,9.926085,286.1498,359.5298,0.07161554,-0.5982294,0.04870646,10.6399997621775,11
-42.96988,0.8833328,-14.06977,0.152174393723719,0.0505281037811949,0.340246211698231,13.20878,283.6237,359.0791,0.09533095,-0.613397,0.06483005,10.6599997617304,11
-42.77894,0.2833336,-13.93131,0.190718545782154,-0.1655234341924875,0.3768130909898755,3.257869,290.0851,359.8602,0.02399662,-0.5727072,0.01528763,10.6799997612834,11
-42.831,0.4833336,-13.90837,0.2448633996597635,-0.4213002421870956,0.4274048719692658,6.505882,287.6306,359.5805,0.04795668,-0.5892676,0.03055091,10.6999997608364,11
-42.88305,0.6833336,-13.88544,0.2141159395726433,-0.4510941937009399,0.4583531642033929,9.737892,285.1425,359.1579,0.07184982,-0.6050698,0.04577021,10.7199997603893,11
-42.75234,0.2833333,-13.76627,0.1765241394273289,-0.4416848234216222,0.4889906035042166,3.20361,287.8211,359.7486,0.0238807,-0.5887661,0.0146934,10.7399997599423,11
-42.80375,0.4833332,-13.7439,0.1482870158407294,-0.4463886985856203,0.5269919346607708,6.392656,285.3651,359.3596,0.0477253,-0.6050302,0.0293638,10.7599997594953,11
-42.85514,0.6833333,-13.72153,-0.0869890771798864,0.2017665686301264,0.4597048456596742,9.561057,282.8705,358.8297,0.07150421,-0.6205323,0.04399335,10.7799997590482,11
-42.90652,0.8833332,-13.69916,-0.3088297931470904,0.6984568504032175,0.3990228892776919,12.70213,280.3213,358.1537,0.09518629,-0.6352545,0.05856285,10.7999997586012,11
-42.74542,0.2833334,-13.59357,-0.2174164324471945,0.1676314736632543,0.4562604083781867,3.445014,287.2599,359.7106,0.02570017,-0.5926673,0.01579249,10.8199997581542,11
-42.80088,0.4833332,-13.56972,-0.3233180732195819,0.346605148909843,0.3970247344278981,6.87371,284.8066,359.2734,0.05135899,-0.6086887,0.03155921,10.8399997577071,11
-42.85633,0.6833335,-13.54587,-0.4275317412703501,0.5427930427030674,0.3384679590326396,10.27978,282.3072,358.6839,0.07694373,-0.6238703,0.04728003,10.8599997572601,11
-42.71099,0.2833334,-13.43211,-0.2961463714473922,0.0636105073376814,0.3761770107229534,3.545196,289.7607,359.7757,0.02642712,-0.5749598,0.01619464,10.879999756813,11
-42.76736,0.4833334,-13.4063,-0.156577760258429,-0.4260606552637959,0.4195006943328199,7.077418,287.3191,359.3992,0.05281887,-0.5911832,0.03235986,10.899999756366,11
-42.82372,0.6833336,-13.3805,-0.2477596669835264,-0.0212431501194984,0.367481396047463,10.58923,284.833,358.8666,0.07912928,-0.6065617,0.04847433,10.919999755919,11
-42.69676,0.2833333,-13.25887,-0.1296272151638717,-0.2672291867402455,0.4221570573133757,3.579497,291.6501,359.8708,0.02647185,-0.5614184,0.01661151,10.9399997554719,11
-42.75345,0.4833332,-13.23253,-0.0083558909591729,-0.4980914183963349,0.4816701136244141,7.149594,289.2242,359.5896,0.05290154,-0.5777961,0.03319433,10.9599997550249,11
-42.81012,0.6833335,-13.2062,-0.1002756225674303,-0.0479041118626857,0.4363829218245918,10.70346,286.7593,359.1525,0.07924893,-0.59334,0.04972475,10.9799997545779,11
-42.86677,0.8833336,-13.17988,-0.1861716791031611,0.3917947729452335,0.395469781532169,14.23419,284.235,358.5524,0.1054779,-0.6080295,0.06617917,10.9999997541308,11
-42.7058,0.2833332,-13.03059,-0.0173369725064773,-0.0839720626133792,0.4396541170951256,3.564829,292.783,-0.002877449,0.02591851,-0.5532466,0.01719562,11.0199997536838,11
-42.76262,0.4833332,-13.00527,-0.0489133998845261,0.1500604849484642,0.3700324600142437,7.125316,290.3789,359.845,0.0517905,-0.569692,0.03436489,11.0399997532368,11
-42.81942,0.6833332,-12.97996,-0.0820005854117837,0.4013079033933481,0.3019571311889972,10.67523,287.9441,359.5397,0.07758307,-0.5853224,0.05148037,11.0599997527897,11
-42.8762,0.8833332,-12.95465,0.1144644534339605,-0.0228153045545678,0.3275019732186237,14.20792,285.4589,359.0753,0.1032604,-0.6001171,0.06851772,11.0799997523427,11
-42.72115,0.2833331,-12.8468,0.3148124358780038,-0.4574276539936223,0.3592436190786987,3.627917,293.6639,0.02402766,0.02638215,-0.5468279,0.01749336,11.0999997518957,11
-42.77878,0.4833331,-12.82056,0.2815544999025192,0.0024482306418045,0.2989875979474501,7.252621,291.2714,359.8964,0.05271907,-0.5632753,0.034956,11.1199997514486,11
-42.83639,0.6833331,-12.79433,0.2523463725295443,0.4518355463227987,0.2461933452681322,10.86831,288.8488,359.6135,0.07897874,-0.578899,0.05236366,11.1399997510016,11
-42.69907,0.2833336,-12.67709,0.4947150645637279,-0.0142433087606023,0.3221379524287879,3.638838,295.9582,0.06863954,0.02660153,-0.5299775,0.01734211,11.1599997505546,11
-42.75611,0.4833332,-12.64917,0.740609047701362,-0.4908106111823032,0.4054851403605521,7.27641,293.577,359.9859,0.05315815,-0.5466205,0.03465383,11.1799997501075,11
-42.81314,0.6833335,-12.62125,0.7119863852836374,-0.0728902627816889,0.3637918621784486,10.90623,291.1686,359.7487,0.07963058,-0.5624617,0.05190977,11.1999997496605,11
-42.69329,0.2833335,-12.49443,0.8713564729413577,-0.3057731934866311,0.4265141296049908,3.591199,298.8632,0.1442429,0.02633941,-0.5083507,0.0170187,11.2199997492135,11
-42.74878,0.4833338,-12.46522,1.0210308710024236,-0.5235325362367955,0.4878897074122843,7.184217,296.4966,0.1401122,0.05263399,-0.5252697,0.03400812,11.2399997487664,11
-42.80426,0.683334,-12.43602,0.9564445575219622,-0.060241183875816,0.4396252376185039,10.77292,294.1086,359.9851,0.07884748,-0.5414318,0.05094342,11.2599997483194,11
-42.85972,0.8833338,-12.40682,0.8857773152985828,0.3925613487192295,0.3918764254666165,14.3507,291.6794,359.6731,0.1049452,-0.5568159,0.06779383,11.2799997478724,11
-42.91516,0.9766704,-12.37764,1.0384063059368671,-0.0701025397389151,0.4310240148361952,17.9111,289.1879,359.1966,0.130889,-0.571401,0.08454242,11.2999997474253,11
-42.7038,0.2833335,-12.2508,1.181922205765673,-0.5432553531139104,0.4790978278156217,3.522811,301.1091,0.2229147,0.02581105,-0.4914134,0.01680356,11.3199997469783,11
-42.75783,0.4833333,-12.22125,1.0768425280310223,-0.1219202622415622,0.443158003409815,7.050776,298.7621,0.3014091,0.05158003,-0.5085,0.03357806,11.3399997465312,11
-42.81185,0.6833333,-12.19171,1.176523555739557,-0.3513875850487714,0.5039355277721871,10.57782,296.3997,0.2337498,0.07727069,-0.5248731,0.05030002,11.3599997460842,11
-42.66101,0.2833334,-12.0792,1.26438233640706,-0.5657317329256306,0.5717883844445719,3.454726,304.2069,0.2856338,0.02547494,-0.467729,0.01630541,11.3799997456372,11
-42.71303,0.4833333,-12.04835,1.1154313801174922,-0.099025398606702,0.5455985587319567,6.916811,301.8727,0.4295461,0.05090996,-0.4850907,0.03257453,11.3999997451901,11
-42.76503,0.6833334,-12.01751,0.96009993258928,0.3571923155326599,0.5254065777305907,10.38085,299.5281,0.4314453,0.07627028,-0.5017882,0.04879452,11.4199997447431,11
-42.63012,0.283333,-11.89408,1.0583649076651014,-0.1020572055820312,0.6342184246754332,3.404275,305.4916,0.2145329,0.02554895,-0.4577855,0.01526595,11.4399997442961,11
-42.67999,0.483333,-11.86161,0.930531434653048,0.1484928195949494,0.6325929413906408,6.81309,303.1581,0.2892943,0.05105914,-0.4752352,0.03049716,11.459999743849,11
-42.72985,0.6833326,-11.82914,0.7882268960016532,0.41625746318824,0.6286201273012786,10.22118,300.8106,0.2238406,0.07649629,-0.4920486,0.04568411,11.479999743402,11
-42.77969,0.8833328,-11.79668,0.6471394160168984,0.6489657119158899,0.628779491482371,13.62264,298.4318,0.01416912,0.1018268,-0.5082051,0.0608056,11.499999742955,11
-42.6101,0.2833333,-11.69498,0.75679279260698,-0.0594045963235236,0.7024367657127382,3.354089,305.1279,0.1031691,0.02555945,-0.4605845,0.01428317,11.5199997425079,11
-42.65832,0.4833335,-11.66179,0.6102821041517146,0.155462655744214,0.6380665299551591,6.708216,302.7941,0.06896894,0.05107886,-0.4779482,0.0285369,11.5399997420609,11
-42.70653,0.6833337,-11.6286,0.4558116570468442,0.3875443753406167,0.574455410616233,10.05716,300.4403,359.896,0.07652649,-0.4946875,0.04274927,11.5599997416139,11
-42.55178,0.2833334,-11.51531,0.5259181931300603,-0.0557441632097855,0.597668881781166,3.301861,305.8762,-0.002805675,0.02566705,-0.4547633,0.01308548,11.5799997411668,11
-42.59772,0.4833332,-11.48055,0.5942871953027478,-0.50952172895307,0.6282752706356245,6.599946,303.5405,359.8596,0.05129541,-0.4721612,0.02615025,11.5999997407198,11
-42.64365,0.6833332,-11.4458,0.4235199421025442,-0.0688103860704825,0.5739375933296138,9.888235,301.1795,359.5836,0.0768544,-0.4889567,0.03916762,11.6199997402728,11
-42.68956,0.8833332,-11.41106,0.4575331003411662,-0.2789023691627067,0.6194231300696522,13.1614,298.7768,359.1657,0.1023115,-0.5051292,0.05213158,11.6399997398257,11
-42.49801,0.2833334,-11.26882,0.4890170524124997,-0.4738706890305663,0.670630100521123,3.246794,304.5952,359.8487,0.02569619,-0.4646589,0.0120011,11.6599997393787,11
-42.54243,0.4833334,-11.23357,0.3007905571700107,0.0122108031889672,0.6249913823342457,6.483821,302.2566,359.5646,0.05135395,-0.4818854,0.02398385,11.6799997389317,11
-42.58684,0.6833335,-11.19833,0.1160439734856524,0.4878035909862394,0.5838991108828289,9.705527,299.8853,359.1447,0.07694215,-0.4985108,0.03593331,11.6999997384846,11
-42.45385,0.2833334,-11.06972,0.1912360938753252,0.0479301782249029,0.6751675741461742,3.193434,302.2726,359.737,0.02551004,-0.4824826,0.01144197,11.7199997380376,11
-42.49783,0.4833334,-11.0352,0.062615583261838,0.3178557889626704,0.6509453816406996,6.372637,299.9323,359.3434,0.05098238,-0.4994542,0.02286703,11.7399997375906,11
-42.54179,0.6833334,-11.00068,-0.0669570614710011,0.6049952429445582,0.6215335289460686,9.532063,297.554,358.8157,0.07638726,-0.5158162,0.03426039,11.7599997371435,11
-42.58574,0.8833334,-10.96618,-0.1816942016100853,0.8570783118179737,0.5931526360954322,12.66564,295.1227,358.1489,0.1016919,-0.5315501,0.04560947,11.7799997366965,11
-42.42771,0.2833334,-10.85724,-0.0415979192655981,0.1680826584622839,0.6362338863022998,3.524329,302.3939,359.7097,0.0281662,-0.4815028,0.01259675,11.7999997362494,11
-42.47622,0.4833333,-10.81899,0.1199539148207762,-0.430012563400053,0.6854844390632877,7.033077,300.0554,359.2751,0.05628708,-0.4982944,0.02517264,11.8199997358024,11
-42.5247,0.683333,-10.78075,-0.0004703129255219,-0.034499022715268,0.6304249464708622,10.52136,297.6701,358.6913,0.08433533,-0.514394,0.03771392,11.8399997353554,11
-42.37899,0.2833334,-10.66092,0.1046285568111073,-0.2902763779824892,0.6610679159953534,3.557482,304.9228,359.7899,0.02837021,-0.4620724,0.0127264,11.8599997349083,11
-42.42701,0.4833333,-10.62139,0.21904842345144,-0.5314179750567358,0.695097580401006,7.102767,302.5981,359.4345,0.05669772,-0.4790415,0.02542731,11.8799997344613,11
-42.47501,0.6833333,-10.58188,0.1130686033667913,-0.0919973998890731,0.6396484318010351,10.6296,300.2311,358.93,0.08494,-0.4953391,0.03808916,11.8999997340143,11
-42.52299,0.8833336,-10.54238,0.0181132337007312,0.3364464970020541,0.5880822450941263,14.13146,297.8023,358.2692,0.1130587,-0.510944,0.05069399,11.9199997335672,11
-42.34158,0.283333,-10.3935,0.1986218435306384,-0.1510632479699596,0.6579873792812911,3.589112,307.0075,359.9408,0.02825694,-0.4459062,0.01350891,11.9399997331202,11
-42.39019,0.483333,-10.354,0.168760029429194,0.0707387236750133,0.620986554277831,7.172175,304.7059,359.7373,0.05646807,-0.4629865,0.02699713,11.9599997326732,11
-42.4388,0.683333,-10.31451,0.1404473313454133,0.3092672619989087,0.580313655510146,10.74309,302.371,359.3858,0.08459374,-0.4794121,0.04044358,11.9799997322261,11
-42.48738,0.883333,-10.27503,0.1284741182576567,0.5122524116756166,0.5422078494721898,14.29567,299.9835,358.8799,0.1125956,-0.4951615,0.05382942,11.9999997317791,11
-42.31685,0.2833334,-10.1767,0.3748458019092879,-0.2263299286335183,0.5659752838770036,3.561339,308.4221,0.01993569,0.02790306,-0.4348519,0.01367534,12.0199997313321,11
-42.36498,0.4833333,-10.13739,0.3788486715621388,-0.0421635317990211,0.515905000030493,7.119478,306.1375,359.8977,0.05575915,-0.451998,0.02732721,12.039999730885,11
-42.4131,0.6833333,-10.0981,0.3874104475063333,0.1587290147696807,0.4713260323040238,10.66884,303.825,359.6302,0.08353198,-0.4685129,0.04093694,12.059999730438,11
-42.25812,0.2833333,-9.984344,0.6289463390762435,-0.3162360577905534,0.5077028175609168,3.634842,311.5736,0.08021012,0.02863764,-0.409947,0.0136453,12.079999729991,11
-42.30567,0.4833332,-9.942322,0.6377985127469117,-0.0818895643600872,0.4586965477089553,7.268987,309.301,0.01613882,0.0572274,-0.4272859,0.02726732,12.0999997295439,11
-42.35321,0.6833335,-9.900319,0.6421740888119203,0.16918368984726,0.4141388192474649,10.89725,307.0032,359.8041,0.08573715,-0.4440107,0.0408425,12.1199997290969,11
-42.2124,0.2833333,-9.7727,0.8557068371795395,-0.2556017663090838,0.4642108837771648,3.627598,314.0351,0.09662877,0.02881004,-0.3902779,0.01313421,12.1399997286499,11
-42.25821,0.4833333,-9.728981,1.0703360299308429,-0.6913637825234111,0.5208322925728535,7.255141,311.7709,0.04980795,0.05757192,-0.4077684,0.02624595,12.1599997282028,11
-42.304,0.6833333,-9.685272,1.0160469529066916,-0.2331254628994749,0.4616066746043108,10.87689,309.483,359.8567,0.08624593,-0.4246744,0.03931556,12.1799997277558,11
-42.34979,0.8833331,-9.641582,0.9583535388211644,0.2141358164743992,0.4068059813226217,14.48694,307.1519,359.5108,0.1147965,-0.440974,0.05231687,12.1999997273088,11
-42.17009,0.2833335,-9.483912,1.1506508815608996,-0.2545568813304185,0.4798313691264662,3.568846,317.6311,0.203902,0.02839195,-0.3612475,0.01291107,12.2199997268617,11
-42.2138,0.4833334,-9.439423,1.1242531758893648,-0.0139380926828808,0.4454131681740785,7.141905,315.3864,0.267982,0.05673737,-0.3789628,0.0258004,12.2399997264147,11
-42.2575,0.6833332,-9.394946,1.0822444885246156,0.2434072299744881,0.4102032113321092,10.71368,313.1259,0.1903308,0.0849982,-0.3961459,0.03864967,12.2599997259676,11
-42.30119,0.8833332,-9.350486,1.0388969521226912,0.465208755229004,0.3805109384868066,14.27815,310.8311,359.9656,0.1131361,-0.4127749,0.05143327,12.2799997255206,11
-42.13482,0.2833332,-9.245942,1.2228445892327071,-0.2545569687964635,0.4225028269692936,3.501074,319.5757,0.2453439,0.02792729,-0.3453965,0.01256242,12.2999997250736,11
-42.17681,0.4833333,-9.20138,1.1645271867999654,-0.0515733441129165,0.3896718037036546,7.00798,317.344,0.3542621,0.05580972,-0.3632007,0.02510332,12.3199997246265,11
-42.21879,0.6833333,-9.156831,1.0996070474814772,0.1681369623318696,0.3630058508203015,10.51499,315.1001,0.3248475,0.08360907,-0.3805081,0.03760084,12.3399997241795,11
-42.06498,0.2833332,-9.037422,1.2494889073371596,-0.2880102020781664,0.4214601654924328,3.438765,322.466,0.2911763,0.02759198,-0.321647,0.01205781,12.3599997237325,11
-42.10468,0.4833332,-8.992147,1.1664310455857532,-0.0348465423036606,0.3920038845765843,6.88488,320.2452,0.4481476,0.05514063,-0.3396136,0.02408712,12.3799997232854,11
-42.14436,0.683333,-8.946885,1.0725012762904669,0.2350437634267639,0.3657146193784317,10.33348,318.0159,0.4708396,0.08261086,-0.3571255,0.03608125,12.3999997228384,11
-42.18403,0.883333,-8.901635,0.9830544728957804,0.469389744431651,0.3480717282596934,13.77931,315.7614,0.3557917,0.1099677,-0.3741608,0.04802377,12.4199997223914,11
-41.98993,0.2833336,-8.752119,1.160952665554639,-0.237831385762089,0.4480301827590267,3.386182,323.1863,0.1756795,0.02755019,-0.3156668,0.01078342,12.4399997219443,11
-42.02687,0.4833336,-8.705915,1.068904383251727,-0.0223025766767691,0.4241746994916573,6.775284,320.9642,0.2187175,0.05505884,-0.3336233,0.02153822,12.4599997214973,11
-42.06381,0.6833336,-8.659726,0.9681505374464052,0.2099528659937712,0.3988349139402531,10.16253,318.7272,0.1288134,0.08249095,-0.3511442,0.0322626,12.4799997210503,11
-42.10074,0.8833337,-8.613549,0.8745389650960718,0.4066642912024626,0.3776966862253506,13.54268,316.4591,359.902,0.1098126,-0.3682083,0.0429421,12.4999997206032,11
-41.9248,0.2833332,-8.517738,1.0282336214782433,-0.338190646795966,0.4094697519102368,3.329816,322.9645,0.05469982,0.02739823,-0.3174775,0.009679954,12.5199997201562,11
-41.95965,0.4833331,-8.471245,0.93216465397839,-0.1602967746462342,0.3824418516354146,6.657853,320.7409,359.9792,0.05475421,-0.3353609,0.01933668,12.5399997197092,11
-41.99449,0.6833329,-8.424765,0.8355300059245963,0.0343236809089945,0.3652716988137658,9.979472,318.4961,359.7722,0.08203588,-0.352818,0.02896641,12.5599997192621,11
-41.82891,0.2833336,-8.313476,0.9677085202911327,-0.446913886803148,0.4253693314807112,3.277056,323.8116,359.9472,0.02732282,-0.3104407,0.008442822,12.5799997188151,11
-41.861,0.4833336,-8.266141,0.8639899762696501,-0.2188400387152883,0.412386273235616,6.548683,321.5858,359.7669,0.0546055,-0.3283366,0.01687288,12.5999997183681,11
-41.89307,0.6833336,-8.218821,0.7562612098719868,0.0259606062161263,0.4080756982073108,9.809446,319.3333,359.4557,0.08181484,-0.3458247,0.02527153,12.619999717921,11
-41.73814,0.2833331,-8.092733,0.6603413963733473,0.2352168105556292,0.4177301167236207,3.227137,322.7205,359.8298,0.02715594,-0.31945,0.00759283,12.639999717474,11
-41.76897,0.4833333,-8.045526,0.6230343835826275,0.2231944761356494,0.4349012356791331,6.444242,320.4918,359.5338,0.05427169,-0.3372319,0.01517413,12.6599997170269,11
-41.79979,0.6833333,-7.998332,0.573814059749175,0.2566475261219733,0.4528277215129268,9.646441,318.2308,359.1091,0.08131687,-0.3546033,0.02273512,12.6799997165799,11
-41.8306,0.8833331,-7.95115,0.5284137196423089,0.2822600042336823,0.4766908476051394,12.82805,315.9225,358.5503,0.1082585,-0.3715452,0.03026161,12.6999997161329,11
-41.63684,0.2833334,-7.794129,0.7002785671777758,-0.3935979865388319,0.5986185905455379,3.334179,321.2501,359.7326,0.02821815,-0.3315433,0.007451211,12.7199997156858,11
-41.6687,0.4833335,-7.745194,0.6160877936258728,-0.1467070588760368,0.5897718721774527,6.654585,319.0205,359.3352,0.0563941,-0.3491285,0.01489052,12.7399997152388,11
-41.70055,0.6833335,-7.696272,0.5294926882397561,0.1169104399086757,0.5760522583522079,9.955973,316.7509,358.8038,0.08449373,-0.3662708,0.02230881,12.7599997147918,11
-41.73238,0.8833337,-7.64737,0.4558157254372048,0.3449842168214765,0.5626561504170029,13.23362,314.4253,358.1323,0.112491,-0.3829498,0.02969786,12.7799997143447,11
-41.56339,0.2833333,-7.542495,0.624709950761634,-0.3685085146107283,0.6003843610045392,3.522845,322.2639,359.7496,0.02979239,-0.3231725,0.007873421,12.7999997138977,11
-41.59658,0.4833333,-7.490527,0.5617417678426619,-0.1592519818379645,0.5711858984554876,7.032548,320.0419,359.362,0.05953874,-0.3407067,0.01573281,12.8199997134507,11
-41.62976,0.6833333,-7.438582,0.5043942628028404,0.066731029189381,0.5443857348486407,10.52487,317.777,358.8326,0.08921108,-0.3577757,0.02357021,12.8399997130036,11
-41.46979,0.2833336,-7.317956,0.6744164429375701,-0.3831441010078416,0.5910012466556829,3.56287,325.0823,359.8463,0.03005701,-0.2998353,0.008047792,12.8599997125566,11
-41.50217,0.4833336,-7.264805,0.624077268080292,-0.1237077999852522,0.5532616114691926,7.116513,322.8754,359.5544,0.06006971,-0.3174907,0.01607782,12.8799997121096,11
-41.53453,0.6833336,-7.211669,0.5746124139238091,0.1524550998626457,0.5156086695957294,10.65519,320.6308,359.121,0.08999424,-0.3347063,0.02408336,12.8999997116625,11
-41.56689,0.8833333,-7.158548,0.5408195760339467,0.3930742937811414,0.4834456708693775,14.17313,318.3303,358.5393,0.1197914,-0.3514599,0.03205327,12.9199997112155,11
-41.3674,0.2833333,-7.008541,0.7885975290149361,-0.3078731098537581,0.5586836551777292,3.57726,327.6025,0.01524502,0.02993618,-0.2788382,0.008835026,12.9399997107685,11
-41.40007,0.4833332,-6.955348,0.7745028200136446,-0.0860719376867769,0.5135260359616414,7.151618,325.4201,359.8942,0.05982476,-0.2965735,0.01765651,12.9599997103214,11
-41.43273,0.6833332,-6.90217,0.7595100420606542,0.1524556758840541,0.4636206299675702,10.71772,323.2108,359.6337,0.08962537,-0.3138959,0.02645116,12.9799997098744,11
-41.46538,0.8833331,-6.849007,0.7581404056719379,0.355439303442481,0.414434645268865,14.27009,320.9563,359.2282,0.1192986,-0.3307828,0.03520687,12.9999997094274,11
-41.28787,0.2833334,-6.755614,0.9973949754243848,-0.3831437501853647,0.4050764448043287,3.597195,329.507,0.04902272,0.03016915,-0.2628558,0.00866627,13.0199997089803,11
-41.31943,0.4833333,-6.701342,1.0012366775623178,-0.1989770081039151,0.3435306017936614,7.192647,327.3364,359.9616,0.06028935,-0.2806258,0.01731808,13.0399997085333,11
-41.35098,0.6833332,-6.647088,1.008792759501688,0.0019164502373343,0.2879593892737775,10.78134,325.1406,359.7343,0.09032377,-0.298002,0.02593805,13.0599997080863,11
-41.1825,0.2833333,-6.5351,1.2400294196230135,-0.473047966937379,0.2972237161946536,3.641354,332.8157,0.09985083,0.03067696,-0.2349168,0.008313096,13.0799997076392,11
-41.212,0.4833334,-6.478785,1.2409882443721614,-0.2387018589150678,0.2391536118103312,7.282817,330.6562,0.06226582,0.06130345,-0.2528054,0.01661107,13.0999997071922,11
-41.24149,0.6833335,-6.422486,1.2364249560667702,0.0123706868521542,0.1875374927937292,10.91924,328.4744,359.8849,0.0918379,-0.2703313,0.02488377,13.1199997067451,11
-41.27098,0.8833334,-6.366209,1.2401985845313348,0.2278991362290046,0.1479801162872522,14.54554,326.2513,359.5608,0.1222452,-0.2874722,0.03310838,13.1399997062981,11
-41.05966,0.2833333,-6.2247,1.2919744153279709,0.2221497491011486,0.1153364080056569,3.595945,337.0894,0.1885253,0.03042377,-0.1985558,0.007842871,13.1599997058511,11
-41.08602,0.4833333,-6.16767,1.3238910978210183,0.2618754225635683,0.0846422307701377,7.195352,334.9472,0.2426052,0.06079792,-0.2165912,0.01567245,13.179999705404,11
-41.11237,0.6833333,-6.110656,1.3501354591360553,0.293760533298719,0.0617227997175566,10.79318,332.7892,0.16031,0.09108225,-0.234319,0.02347721,13.199999704957,11
-40.95356,0.2833333,-5.972264,1.582037714958446,-0.3758246027876543,0.1412110196789573,3.527269,340.5477,0.2663332,0.02994146,-0.1689291,0.007489018,13.21999970451,11
-40.97734,0.4833333,-5.915318,1.544210923864675,-0.1226608246203604,0.1041418404833063,7.060958,338.4194,0.4016998,0.05983529,-0.1870709,0.01496552,13.2399997040629,11
-41.00112,0.6833332,-5.858388,1.4918230746756649,0.1472294009618932,0.0706543723465129,10.59619,336.2812,0.4048878,0.08964288,-0.2049512,0.02241937,13.2599997036159,11
-41.0249,0.8833332,-5.801475,1.43936922521128,0.3815754208212191,0.0456208608286634,14.12753,334.1158,0.2706773,0.1193246,-0.2225486,0.02982651,13.2799997031689,11
-40.84794,0.2833334,-5.701916,1.605731160406343,-0.3256453401682367,0.0728662832356246,3.466955,342.5363,0.2818437,0.02952636,-0.1518139,0.007022217,13.2999997027218,11
-40.86972,0.4833333,-5.64527,1.5367121740017424,-0.1101163122435662,0.0473366597751838,6.940685,340.418,0.4353263,0.05900493,-0.1699687,0.01403041,13.3199997022748,11
-40.89149,0.6833333,-5.588641,1.462965264497818,0.1221392912460163,0.0299731111626697,10.41659,338.2914,0.4591608,0.08840052,-0.1878904,0.02101321,13.3399997018278,11
-40.71972,0.2833333,-5.470537,1.3994850393162963,0.318850818208037,0.0253341873783323,3.412679,345.1923,0.2674475,0.02922787,-0.128874,0.006150542,13.3599997013807,11
-40.73838,0.4833333,-5.413801,1.38094282126805,0.2942834635157989,0.0248044393397322,6.831601,343.0789,0.4077011,0.05841035,-0.1470756,0.01227897,13.3799997009337,11
-40.75703,0.6833333,-5.357081,1.345877848980173,0.3151913355470491,0.0276037265437167,10.25235,340.9572,0.4211054,0.0875124,-0.1650773,0.01838943,13.3999997004867,11
-40.77568,0.8833333,-5.300378,1.309700097763276,0.3282585959780723,0.0381787521998076,13.67027,338.8114,0.304572,0.1164985,-0.1828572,0.02447488,13.4199997000396,11
-40.55915,0.2833334,-5.153319,1.4883871574929517,-0.3601443208054854,0.1297109438863124,3.359474,345.8756,0.1391796,0.02894107,-0.1229292,0.004808743,13.4399996995926,11
-40.57475,0.4833333,-5.096766,1.3965125527888702,-0.125797894629786,0.1132001352086815,6.720426,343.7595,0.1528748,0.05783732,-0.141086,0.00959763,13.4599996991456,11
-40.59034,0.6833332,-5.040228,1.2972485133560738,0.1252751018837707,0.0964010631850698,10.07863,341.6278,0.04085959,0.08665607,-0.1590552,0.01437342,13.4799996986985,11
-40.60592,0.8833332,-4.983706,1.20613561246261,0.340804137213436,0.0838161122234968,13.42936,339.4655,359.7993,0.1153627,-0.1768155,0.01912888,13.4999996982515,11
-40.42248,0.2833334,-4.895728,1.344051638089141,-0.3852333478241296,0.1061795040243103,3.303866,345.7418,-0.003029154,0.02860809,-0.1240534,0.003551461,13.5199996978045,11
-40.43557,0.4833333,-4.839593,1.2469070647299605,-0.1885219269713172,0.0921120741495746,6.60439,343.622,359.8715,0.05717436,-0.142138,0.007096714,13.5399996973574,11
-40.44866,0.6833333,-4.783473,1.1532735387506392,0.0249161730292087,0.0875597339101097,9.896566,341.4792,359.6203,0.08566315,-0.1600388,0.01062204,13.5599996969104,11
-40.26901,0.2833333,-4.677459,1.2822305671354002,-0.4375037606917467,0.1416478254601911,3.252359,346.4831,359.9072,0.02827641,-0.1176138,0.002536021,13.5799996964633,11
-40.27965,0.4833333,-4.621698,1.1851180704675528,-0.1906125019821616,0.1391684366073908,6.498142,344.3624,359.6939,0.05651229,-0.1356715,0.005068259,13.5999996960163,11
-40.29028,0.6833332,-4.565954,1.088359306003852,0.0730052096307878,0.1435257737366773,9.732794,342.2144,359.3573,0.08467542,-0.1535562,0.007592305,13.6199996955693,11
-40.30093,0.8833331,-4.510224,1.0072236325761352,0.3010787082029319,0.1587695923090808,12.95117,340.0245,358.8919,0.1127318,-0.1712487,0.01009709,13.6399996951222,11
-40.07719,0.2833333,-4.376003,1.2086695055552994,-0.4124144474918634,0.2636488281833751,3.199354,344.666,359.7564,0.02794989,-0.1333045,0.001618425,13.6599996946752,11
-40.08684,0.4833332,-4.320859,1.1412412512345824,-0.2031581268503985,0.2753226974407603,6.386621,342.5416,359.3939,0.05586039,-0.151236,0.003234048,13.6799996942282,11
-40.09648,0.6833332,-4.265731,1.0734521646276534,0.0228247764125081,0.2880412048727319,9.557245,340.3823,358.9093,0.08370037,-0.1689807,0.004845328,13.6999996937811,11
-39.92148,0.2833334,-4.127444,1.2211079352086216,-0.427050357705007,0.3819427045146515,3.527798,346.2368,359.7436,0.03082712,-0.1196926,0.001467723,13.7199996933341,11
-39.93066,0.4833333,-4.066342,1.1548409494592278,-0.1676141968545953,0.3770407579594965,7.042842,344.1131,359.356,0.06160663,-0.1375906,0.00293224,13.7399996928871,11
-39.93984,0.6833333,-4.005266,1.0841608835286536,0.1085485327655558,0.3645601869212029,10.54119,341.9471,358.8319,0.09230968,-0.1552942,0.004386969,13.75999969244,11
-39.94902,0.8833331,-3.944217,1.0238729947883485,0.3491672991109961,0.3488472950880787,14.01759,339.7214,358.1651,0.1228983,-0.1727807,0.005834484,13.779999691993,11
-39.76678,0.2833333,-3.846767,1.1857475820687853,-0.3517805642433547,0.3664847134806566,3.557726,347.8808,359.7884,0.03106334,-0.1054546,0.001441728,13.799999691546,11
-39.77508,0.4833333,-3.785129,1.125682897268888,-0.1299792985992117,0.3333402385643891,7.104492,345.7693,359.4449,0.06207967,-0.1233304,0.002877044,13.8199996910989,11
-39.78337,0.6833333,-3.723508,1.0704445087349086,0.1085485358146722,0.2997277837130458,10.63507,343.6178,358.9655,0.0930067,-0.1410286,0.004306843,13.8399996906519,11
-39.79166,0.8833332,-3.661905,1.034822637344817,0.3115322997121044,0.2702048778888384,14.14409,341.4088,358.3437,0.1238047,-0.1585264,0.005729721,13.8599996902049,11
-39.56437,0.2833333,-3.535432,1.0495956350780773,0.2932376543067749,0.23746091992827,3.589547,351.5308,359.9733,0.03125128,-0.07379728,0.002080395,13.8799996897578,11
-39.57201,0.4833332,-3.473257,1.057568862104631,0.3204183760584643,0.2001870823816161,7.174955,349.4446,359.8153,0.06245501,-0.09170231,0.004153711,13.8999996893108,11
-39.57964,0.6833332,-3.411099,1.0733156513863875,0.3397585086862623,0.163166290029801,10.75119,347.3298,359.5233,0.09356838,-0.1094696,0.006220756,13.9199996888638,11
-39.39946,0.2833334,-3.284599,1.3113850823517126,-0.3423720849154822,0.1944261504325788,3.560787,354.342,0.05937546,0.03100529,-0.04934725,0.002050664,13.9399996884167,11
-39.40549,0.4833334,-3.222753,1.2835858726822806,-0.1017534448905299,0.1177051043943739,7.120174,352.2704,359.9892,0.06196038,-0.06726664,0.00409167,13.9599996879697,11
-39.41152,0.6833333,-3.160925,1.2516624734243609,0.1555918685323756,0.0344554837913917,10.67366,350.1761,359.7877,0.09282687,-0.08508138,0.006125998,13.9799996875226,11
-39.41755,0.8833333,-3.099114,1.2297756635478123,0.3773932165897439,-0.0504404899827677,14.21639,348.0423,359.4498,0.1235651,-0.1027687,0.00815065,13.9999996870756,11
-39.2313,0.2833334,-3.012786,1.4212714200507222,-0.3423720671434955,-0.1088846084139194,3.63468,356.6255,0.08053069,0.03167881,-0.02945083,0.001635849,14.0199996866286,11
-39.23527,0.4833333,-2.949456,1.3923750603457208,-0.1393882239690708,-0.2013186238198292,7.268875,354.5639,0.03014919,0.06330659,-0.04734277,0.003268342,14.0399996861815,11
-39.23925,0.6833333,-2.886148,1.3667141254347044,0.0803222926033091,-0.2886938418315911,10.89848,352.4799,359.8455,0.09484734,-0.06515442,0.004888513,14.0599996857345,11
-39.05256,0.2833333,-2.780829,1.358357415551957,0.2644888304811602,-0.3659360448086055,3.625751,0.3814388,0.1252943,0.0316388,0.003292418,0.0009875413,14.0799996852875,11
-39.05315,0.4833333,-2.717526,1.3894200757394586,0.227376825156534,-0.435027188087432,7.252595,358.3303,0.1206623,0.06322652,-0.01460809,0.001972332,14.0999996848404,11
-39.05374,0.6833333,-2.654242,1.409704627876586,0.2357400669409119,-0.4981206979151878,10.87587,356.26,359.9839,0.09472155,-0.03247148,0.002952943,14.1199996843934,11
-39.05434,0.8833332,-2.590976,1.4333377444033315,0.2362628396494142,-0.5499342423460696,14.49076,354.153,359.709,0.1260829,-0.05027532,0.003916549,14.1399996839464,11
-38.81926,0.2833332,-2.457777,1.6702028620032934,-0.4646849799719101,-0.5282174702962014,3.564496,5.554462,0.2455484,0.03116825,0.04836273,0.0006323284,14.1599996834993,11
-38.81636,0.4833332,-2.395508,1.636844218110305,-0.2428836577884634,-0.5835685888859161,7.134398,3.523056,0.3647474,0.06228708,0.03048196,0.001262765,14.1799996830523,11
-38.81345,0.6833332,-2.333257,1.5962263976874809,-0.0043557535062823,-0.6266770826753331,10.7052,1.481262,0.3562833,0.09331646,0.01257965,0.001889537,14.1999996826053,11
-38.62237,0.2833333,-2.199814,1.7648737405141546,-0.4416858732755319,-0.5773271336391408,3.495364,8.899064,0.298562,0.03060809,0.07746538,0.0002303198,14.2199996821582,11
-38.61696,0.4833333,-2.138851,1.7117233686093982,-0.169704924321198,-0.6126402563338298,6.998051,6.878728,0.4739143,0.06116876,0.05962788,0.0004591409,14.2399996817112,11
-38.61156,0.6833333,-2.077902,1.647258889058449,0.1190027001219048,-0.6464316148801792,10.50331,4.852053,0.5242871,0.09164023,0.04173297,0.0006775689,14.2599996812642,11
-38.60617,0.8833332,-2.016969,1.5855778160486622,0.3721662412422738,-0.6748666540918288,14.00711,2.80339,0.4472706,0.1219882,0.02380328,0.0008902599,14.2799996808171,11
-38.41637,0.2833333,-1.92587,1.5409466283050364,0.4236860076103601,-0.6941227030136201,3.437648,10.99936,0.2966749,0.03010448,0.09571943,-0.0002987848,14.2999996803701,11
-38.40894,0.4833333,-1.86613,1.528411184519392,0.3558035118834782,-0.7036946954971374,6.88225,8.98688,0.4717112,0.06015978,0.07795673,-0.0006060549,14.3199996799231,11
-38.4015,0.6833332,-1.806408,1.507972434273178,0.3338841567974642,-0.7068916566183364,10.32988,6.968722,0.5254017,0.0901333,0.06011671,-0.0009132769,14.339999679476,11
-38.39407,0.8833331,-1.746703,1.494260894504876,0.3046121055967224,-0.7000560955114865,13.77624,4.929825,0.4549029,0.1199886,0.04222116,-0.001220433,14.359999679029,11
-38.15411,0.2833333,-1.628983,1.6902749256615834,-0.4256425525800559,-0.6387796313090042,3.382926,13.20811,0.2075665,0.02952964,0.114904,-0.00159615,14.379999678582,11
-38.1431,0.4833333,-1.570884,1.6185445441039903,-0.2326600841209697,-0.6434858796167756,6.769729,11.19571,0.2946259,0.05901127,0.0972241,-0.00320497,14.3999996781349,11
-38.13209,0.6833333,-1.512801,1.5443897501108663,-0.0224631554510971,-0.642128643029865,10.15653,9.172782,0.2616817,0.08841465,0.07944658,-0.004810592,14.4199996776879,11
-37.93385,0.2833333,-1.395483,1.6809344405559372,-0.4876363727205935,-0.5710247863783778,3.32761,14.33031,0.09126653,0.02890734,0.1246543,-0.002831606,14.4399996772408,11
-37.92,0.4833333,-1.339079,1.598608314169205,-0.2430106431544539,-0.5724305977218154,6.655002,12.31395,0.06442089,0.05776858,0.1070395,-0.0056673,14.4599996767938,11
-37.90616,0.6833333,-1.28269,1.5106462991745175,0.0188295199644979,-0.5738798048038134,9.978399,10.28077,359.9182,0.08655443,0.0893187,-0.008500515,14.4799996763468,11
-37.89233,0.8833332,-1.226318,1.4317526662496434,0.2456135840690972,-0.5719126733678113,13.29356,8.216519,359.6493,0.1152324,0.07151269,-0.01132424,14.4999996758997,11
-37.70138,0.2833333,-1.148213,1.6301080955040703,-0.4686811177884313,-0.4747642225012793,3.276803,14.33793,359.9477,0.02831111,0.1247578,-0.004021082,14.5199996754527,11
-37.68534,0.4833333,-1.093331,1.6093689202983654,-0.2597388141035303,-0.4080843407808461,6.548762,12.31756,359.7795,0.0565818,0.107218,-0.008037438,14.5399996750057,11
-37.66932,0.6833333,-1.03846,1.5873743024221696,-0.0335818388605993,-0.3437868103811925,9.811405,10.27274,359.4925,0.08477682,0.08957492,-0.01205073,14.5599996745586,11
-37.6533,0.8833333,-0.9836045,1.579134974760677,0.1575188223617994,-0.2783396860714147,13.06074,8.189507,359.0828,0.112868,0.07184856,-0.01605289,14.5799996741116,11
-37.41307,0.2833334,-0.8792315,1.5513804389841257,0.1278289508253777,-0.2300254821344279,3.222377,13.82364,359.8112,0.02771428,0.1203399,-0.005018464,14.5999996736646,11
-37.39548,0.4833333,-0.8257325,1.5179461334766913,0.1441023229899176,-0.1850387065040315,6.435194,11.8002,359.5083,0.05538993,0.1028708,-0.01003084,14.6199996732175,11
-37.3779,0.6833333,-0.772249,1.4935667068148817,0.1530230892935377,-0.1397911672706613,9.634296,9.745539,359.0884,0.08299657,0.08530629,-0.01503141,14.6399996727705,11
-37.17707,0.2833333,-0.6653893,1.4931418431102583,0.1012752939780213,-0.0907374210319892,3.371093,14.94362,359.7765,0.02891072,0.1300388,-0.005758287,14.6599996723235,11
-37.15714,0.4833333,-0.6098765,1.4846680994762806,0.0421747876506718,-0.0623716965971089,6.731322,12.92142,359.4336,0.05777929,0.1126147,-0.01150908,14.6799996718764,11
-37.13721,0.6833332,-0.5543787,1.4679752568821058,0.0290376343568433,-0.0416009881134582,10.07635,10.86329,358.9677,0.08657215,0.09507619,-0.01724576,14.6999996714294,11
-36.92754,0.2833333,-0.4283626,1.4575893260219814,0.0085476526166857,-0.0246125966262673,3.534924,17.34603,359.7906,0.03021496,0.1507789,-0.006456689,14.7199996709824,11
-36.90463,0.4833333,-0.3709418,1.4385696513887964,0.0073629283351013,-0.0358261605279031,7.059483,15.32905,359.4562,0.06038422,0.1334077,-0.01290524,14.7399996705353,11
-36.88173,0.6833333,-0.3135433,1.4049312903838924,0.0521412139309074,-0.0615141835949311,10.57013,13.27378,358.992,0.09047784,0.1158857,-0.0193459,14.7599996700883,11
-36.85884,0.8833332,-0.2561615,1.3711158541948691,0.0895666865001981,-0.0976103249223194,14.06078,11.16368,358.3923,0.1204491,0.09823569,-0.02576217,14.7799996696413,11
-36.83596,0.9766704,-0.1987959,1.3517559941406034,0.0663235226163554,-0.140111476154978,17.52609,8.980936,357.6482,0.1502607,0.08047993,-0.03214557,14.7999996691942,11
-36.59719,0.2833333,-0.1035648,1.3097180352704785,0.0357279981946856,-0.1979018197031661,3.573064,19.79998,359.8849,0.03053896,0.1718761,-0.006349061,14.8199996687472,11
-36.57318,0.4833332,-0.04598781,1.26556586351645,0.051095697088467,-0.2628095056948629,7.139232,17.80133,359.6444,0.06103203,0.1546118,-0.01269295,14.8399996683002,11
-36.54917,0.6833332,0.01157282,1.2337481727243895,0.059110784110215,-0.3305550949233309,10.69377,15.7699,359.2754,0.0914388,0.1371683,-0.01901968,14.8599996678531,11
-36.34882,0.2833333,0.1073169,1.2288799032105615,0.0064572111570834,-0.3969348350603412,3.571483,23.64012,0.05736328,0.03060374,0.204724,-0.005893452,14.8799996674061,11
-36.32375,0.4833333,0.1643822,1.2123492996774488,-0.0535495041269986,-0.4772317144826796,7.141794,21.66364,359.9908,0.0611589,0.1875669,-0.01178298,14.899999666959,11
-36.29869,0.6833332,0.221431,1.191302895629498,-0.0675928457306947,-0.5638356305135652,10.70664,19.66551,359.7986,0.09162769,0.1701892,-0.01765695,14.919999666512,11
-36.08777,0.2833333,0.3349287,1.179961642146978,-0.0889889967019694,-0.6521611147130784,3.593844,26.86753,0.08952371,0.03068051,0.232183,-0.006525415,14.939999666065,11
-36.05982,0.4833333,0.3910959,1.1557544904909065,-0.0910797526560198,-0.7588752394254039,7.187616,24.89996,0.05552049,0.0613129,0.2151336,-0.0130414,14.9599996656179,11
-36.03189,0.6833333,0.4472491,1.1200934771741269,-0.0472073622194378,-0.8740262616892045,10.77724,22.91238,359.8943,0.09185714,0.1978256,-0.01955222,14.9799996651709,11
-36.00397,0.8833332,0.5033863,1.087009419167618,-0.0106874487097662,-0.9926980321710088,14.35807,20.88845,359.6027,0.1222753,0.1802822,-0.02603738,14.9999996647239,11
-35.73871,0.2833333,0.6422778,1.2718754323363086,-0.675150375476997,-1.0437943451897165,3.634661,29.8359,0.113141,0.03089824,0.2572757,-0.007210487,15.0199996642768,11
-35.70789,0.4833332,0.6977516,1.2514261147282646,-0.4163761688131957,-1.1246108054893922,7.270023,27.87831,0.1020121,0.06174736,0.2403518,-0.01441032,15.0399996638298,11
-35.67707,0.6833333,0.7532096,1.2265292183790066,-0.1403878286295135,-1.205140082997231,10.90182,25.902,359.9645,0.09250726,0.2231329,-0.02159026,15.0599996633828,11
-35.64627,0.8833331,0.8086533,1.2115691356521552,0.100544671714602,-1.2802361076741868,14.52599,23.88992,359.6945,0.1231387,0.2056403,-0.02875379,15.0799996629357,11
-35.44641,0.2833333,0.8909585,1.221051848911479,0.1403211472685407,-1.3448438281818684,3.588109,33.35354,0.1773221,0.03043405,0.2867848,-0.007502627,15.0999996624887,11
-35.41364,0.4833333,0.9443859,1.2143635102959678,0.0611832168859357,-1.401217333819274,7.179091,31.41006,0.2329141,0.0608201,0.2700308,-0.01499428,15.1199996620417,11
-35.38087,0.6833334,0.9977977,1.203888379750186,0.0284965228759663,-1.4488586300330004,10.76882,29.45272,0.1651776,0.09111968,0.2529502,-0.02246578,15.1399996615946,11
-35.34812,0.8833334,1.051199,1.204107794076144,-0.0110549977613174,-1.4828014722700638,14.3528,27.46526,359.9692,0.1212901,0.2355644,-0.02991528,15.1599996611476,11
-35.09438,0.2833334,1.157048,1.1926786825186149,-0.0308131534473948,-1.513468903564815,3.514933,38.72709,0.297994,0.02979567,0.3313286,-0.007716298,15.1799996607006,11
-35.05917,0.4833335,1.207528,1.1766983397283148,-0.0041203118114664,-1.5355031626124411,7.036861,36.80275,0.4780301,0.05954555,0.3148312,-0.01542166,15.1999996602535,11
-35.02398,0.6833334,1.257995,1.1699830382230765,0.0157078114842962,-1.5446428543469253,10.56171,34.87318,0.5393612,0.0892121,0.2979617,-0.0231074,15.2199996598065,11
-34.80492,0.2833335,1.362152,0.958770274452732,0.6956432564024753,-1.6213892390111253,3.449796,42.23844,0.3231637,0.02909438,0.3600658,-0.008215978,15.2399996593595,11
-34.7678,0.4833333,1.409869,0.9909334735494966,0.4914396517385467,-1.6197994477012991,6.907175,40.32201,0.5296304,0.05813842,0.3437685,-0.01643125,15.2599996589124,11
-34.7307,0.6833332,1.457573,1.0171256427248745,0.3091201307806699,-1.6155772625398908,10.36852,38.40253,0.620413,0.08710431,0.3270753,-0.0246255,15.2799996584654,11
-34.6936,0.8833331,1.505264,1.051330686135426,0.0943234335821944,-1.6049561264831724,13.82991,36.46561,0.5930973,0.1159573,0.3100068,-0.03278872,15.2999996580184,11
-34.49771,0.2833335,1.574879,1.3084739353074042,-0.7195798478755367,-1.516561939934849,3.400778,44.07184,0.2438063,0.02830322,0.3749632,-0.009161618,15.3199996575713,11
-34.45872,0.4833335,1.619802,1.3186824599363869,-0.5106375443648697,-1.4671640176454908,6.806531,42.15598,0.3724519,0.05655794,0.3588222,-0.01832176,15.3399996571243,11
-34.41973,0.6833335,1.664713,1.3252904238766163,-0.2844808641020519,-1.4131743707940307,10.21369,40.23268,0.3866006,0.08473837,0.3422783,-0.02745861,15.3599996566772,11
-34.38076,0.8833334,1.709611,1.3425825744087447,-0.0933802201289311,-1.3512750651211354,13.61843,38.2879,0.2834325,0.1128119,0.3253514,-0.03656181,15.3799996562302,11
-34.13026,0.2833332,1.801585,1.173280630118693,0.6168525440943298,-1.3241119288361651,3.345394,46.4202,0.1499201,0.02734282,0.3939005,-0.01030195,15.3999996557832,11
-34.08906,0.4833333,1.84301,1.2250655908373211,0.3308971585729165,-1.2374293326627428,6.692562,44.50376,0.1860669,0.05463723,0.3779451,-0.02060337,15.4199996553361,11
-34.04787,0.6833332,1.884423,1.2800504933615109,0.066825869563842,-1.1449289756549397,10.03813,42.57486,0.1089908,0.08186199,0.3615771,-0.03087912,15.4399996548891,11
-33.8307,0.2833333,1.972639,1.1298608906698142,0.4905650921614478,-1.1113193063010105,3.290427,47.2176,-0.004543269,0.02629155,0.4003257,-0.01153455,15.4599996544421,11
-33.78784,0.4833332,2.010832,1.1586468288476368,0.2702616632136698,-1.0263534327818131,6.577895,45.29386,359.8803,0.05254624,0.3844723,-0.02305339,15.479999653995,11
-33.745,0.6833334,2.049022,1.185200257185528,0.0718421040111777,-0.9395801479091088,9.858182,43.34916,359.6511,0.07872687,0.3682101,-0.03455345,15.499999653548,11
-33.51366,0.2833333,2.149307,1.2239672385789362,-0.1590547130610839,-0.8481389985321082,3.240148,46.59326,359.8798,0.02555202,0.3953604,-0.01214461,15.519999653101,11
-33.47052,0.4833333,2.185902,1.1965139379553626,-0.1567201956837408,-0.7902495268653804,6.473498,44.66574,359.6503,0.05106876,0.3795384,-0.02427305,15.5399996526539,11
-33.4274,0.683333,2.222487,1.1511981715906927,-0.107934332078502,-0.7411417988395055,9.696332,42.71155,359.309,0.0765228,0.3633232,-0.0363728,15.5599996522069,11
-33.38429,0.8833332,2.259065,1.1021342325171872,-0.0660134237732322,-0.698180050947339,12.90425,40.71749,358.8509,0.1018816,0.3467326,-0.04843397,15.5799996517599,11
-33.34119,0.9766705,2.295633,1.0635639364741714,-0.0842731859074051,-0.6588304834861223,16.09345,38.66978,358.2705,0.1271231,0.3297853,-0.06044116,15.5999996513128,11
-33.09767,0.2833333,2.381148,1.0979906418442198,-0.1093981008370934,-0.5713010320829404,3.264987,45.09824,359.7582,0.02550175,0.3833744,-0.01287253,15.6199996508658,11
-33.05371,0.4833333,2.417649,1.115023591453678,-0.0880718787953007,-0.4945242191226535,6.519115,43.16964,359.4062,0.05096808,0.3675521,-0.02572772,15.6399996504188,11
-33.00977,0.6833333,2.454141,1.1294045078259316,-0.0736105961109635,-0.4256582229419092,9.758554,41.20704,358.9406,0.07637142,0.3513449,-0.03855182,15.6599996499717,11
-32.79434,0.2833335,2.536344,1.1559990382360257,-0.119330102868674,-0.361961778907137,3.527757,48.28577,359.7874,0.02732952,0.4088712,-0.0142822,15.6799996495247,11
-32.74523,0.4833334,2.573739,1.107438638749528,-0.1719144433102222,-0.3224681524289874,7.045547,46.36226,359.4559,0.0546183,0.3931591,-0.0285436,15.6999996490777,11
-32.69616,0.6833334,2.611121,1.0464431026541874,-0.1780476750063849,-0.2915156341212475,10.55098,44.40146,359.0002,0.08184259,0.3769804,-0.04278361,15.7199996486306,11
-32.64709,0.8833335,2.648492,0.9876647349935296,-0.1910455413227222,-0.266352342679879,14.03785,42.3877,358.4154,0.1089597,0.3603562,-0.05696861,15.7399996481836,11
-32.37708,0.2833333,2.750791,0.7250818382644653,0.4560635569755294,-0.3087753804000734,3.563266,51.55573,359.8668,0.02749127,0.4347052,-0.01456668,15.7599996477365,11
-32.32632,0.4833334,2.786786,0.6910957474565187,0.2190341669902137,-0.2933617017210759,7.119347,49.64673,359.6136,0.05493841,0.4191999,-0.02912008,15.7799996472895,11
-32.27558,0.6833335,2.822771,0.647021362985722,0.0038887555600367,-0.2884087565372168,10.66395,47.70509,359.2378,0.08230948,0.4031908,-0.04363391,15.7999996468425,11
-32.03671,0.2833333,2.922199,0.6077489254185195,-0.243733803884643,-0.2909700751140218,3.59001,53.09474,0.007445002,0.02805004,0.4467165,-0.01394161,15.8199996463954,11
-31.98609,0.4833332,2.959101,0.589503081362384,-0.2581258245245393,-0.2663141599177758,7.177521,51.20457,359.8967,0.05605995,0.4313251,-0.0278602,15.8399996459484,11
-31.93548,0.683333,2.995992,0.5579496791596377,-0.2260667230900615,-0.2509356148858517,10.7584,49.29049,359.6646,0.08399157,0.4154099,-0.04174095,15.8599996455014,11
-31.88488,0.883333,3.032873,0.5281242714928851,-0.2008724574302392,-0.2414690384149365,14.32847,47.33661,359.3062,0.11181,0.3989913,-0.0555663,15.8799996450543,11
-31.8343,0.9766704,3.069743,0.51515014715525,-0.2358587586270625,-0.2346077923200047,17.8833,45.32585,358.8139,0.1394803,0.3820905,-0.06931976,15.8999996446073,11
-31.58965,0.2833333,3.153478,0.5320576735910088,-0.2777096575933246,-0.2035611704782427,3.587373,54.303,0.04565087,0.02803309,0.4561102,-0.01392957,15.9199996441603,11
-31.53868,0.4833333,3.189819,0.5334040931456201,-0.2731095310114889,-0.1816617337805173,7.173312,52.42583,359.9734,0.05602206,0.440856,-0.02784055,15.9399996437132,11
-31.48771,0.6833332,3.22615,0.5343358069051867,-0.275374108395416,-0.1650428444250868,10.75392,50.52734,359.781,0.08393306,0.4250677,-0.04171351,15.9599996432662,11
-31.27242,0.2833333,3.305848,0.3387771828749244,0.3824685429757345,-0.2060897920866091,3.640341,55.72624,0.07109825,0.0283701,0.4671076,-0.01429636,15.9799996428192,11
-31.22002,0.4833332,3.341794,0.3131939655531042,0.1561725043861297,-0.2055431606619224,7.280038,53.8569,0.02334531,0.05669589,0.4519523,-0.02857083,15.9999996423721,11
-31.16763,0.6833332,3.377728,0.2841306798614589,-0.0482397839835032,-0.2063382688358466,10.91517,51.96723,359.8543,0.08494076,0.4362364,-0.04280587,16.0199996419251,11
-30.93541,0.2833334,3.46836,0.0404016033251721,0.4351586521689048,-0.2789572766712158,3.605459,57.214,0.110591,0.02807992,0.4785353,-0.01421538,16.0399996414781,11
-30.88299,0.4833335,3.503191,-0.2030464057768988,0.9148285103589204,-0.3515166316178684,7.21153,55.35419,0.1040876,0.05611597,0.4635178,-0.02840926,16.059999641031,11
-30.83058,0.6833335,3.538012,-0.2039445792698728,0.4857928813613089,-0.3563619099324056,10.81444,53.47717,359.9785,0.08407328,0.4479342,-0.04256427,16.079999640584,11
-30.77819,0.8833334,3.572827,-0.2031419214869139,0.0530284620086571,-0.3606224777299367,14.41001,51.56721,359.7292,0.1119134,0.4318045,-0.05666529,16.099999640137,11
-30.49051,0.2833333,3.684124,-0.1854007059877069,-0.3108249599697186,-0.3601738091478674,3.54097,59.00083,0.2076202,0.02778202,0.4921452,-0.01363785,16.1199996396899,11
-30.43887,0.4833333,3.718214,-0.177733827915766,-0.3423263704903858,-0.3499703338535678,7.08574,57.15776,0.3013916,0.05552175,0.4773096,-0.02725556,16.1399996392429,11
-30.38724,0.6833333,3.752294,-0.1703655017754926,-0.327864526333275,-0.3391079055731278,10.63062,55.30459,0.2801974,0.08318543,0.461907,-0.0408364,16.1599996387959,11
-30.33562,0.8833333,3.786367,-0.1487619808315976,-0.3207552770602691,-0.323685643199413,14.17153,53.42654,0.1405755,0.1107361,0.4459572,-0.05436373,16.1799996383488,11
-30.13129,0.2833333,3.859132,-0.3042378257414455,0.3459730699534339,-0.3546971714681994,3.474365,58.53226,0.227339,0.02741483,0.4885887,-0.01309004,16.1999996379018,11
-30.08111,0.4833334,3.893362,-0.2895674786476263,0.1280749284326725,-0.347392740842567,6.952871,56.69851,0.3438362,0.0547876,0.4738089,-0.02615771,16.2199996374547,11
-30.03094,0.6833335,3.927581,-0.2663530404776892,-0.0684272486355457,-0.3358730017423141,10.43215,54.85671,0.3484426,0.08208681,0.4584841,-0.03918966,16.2399996370077,11
-29.98078,0.8833333,3.961791,-0.2208874493065877,-0.2978948289623078,-0.3164649177540157,13.9088,52.99277,0.2380367,0.1092811,0.442633,-0.05217298,16.2599996365607,11
-29.72011,0.2833334,4.054587,-0.4046548314408404,0.3456954264141628,-0.363470059433344,3.414932,58.20009,0.1870121,0.02682864,0.486077,-0.01306574,16.2799996361136,11
-29.67065,0.4833333,4.087967,-0.3555098207515925,0.1046588587246729,-0.3466265853238353,6.832669,56.3701,0.2648646,0.05361469,0.4713587,-0.02611228,16.2999996356666,11
-29.62121,0.6833334,4.121337,-0.3024418707849889,-0.1149815454486097,-0.3247254324098607,10.25015,54.53019,0.2326137,0.08033137,0.4561145,-0.03912563,16.3199996352196,11
-29.39198,0.2833332,4.209225,-0.4578598783363325,0.3527011759127981,-0.3702683543682123,3.358123,56.64103,0.08518343,0.02614635,0.4741804,-0.01324636,16.3399996347725,11
-29.34333,0.4833332,4.241909,-0.4277193402634367,0.1758531019081592,-0.3609347471953317,6.715812,54.80763,0.06278918,0.05225194,0.4594402,-0.02647311,16.3599996343255,11
-29.2947,0.6833332,4.274583,-0.4043674828296169,0.0204012489173242,-0.3506677771272066,10.0701,52.95882,359.9313,0.07829163,0.4442027,-0.03966719,16.3799996338785,11
-29.24608,0.8833333,4.307248,-0.3741109477047928,-0.1680158415473105,-0.3362179542372603,13.41741,51.08135,359.6871,0.1042362,0.4284858,-0.05281433,16.3999996334314,11
-28.96151,0.2833333,4.414937,-0.3232209109935127,-0.3157131960478943,-0.314345480429167,3.300104,54.45599,359.9315,0.0253307,0.4573579,-0.01370608,16.4199996329844,11
-28.91345,0.4833333,4.446667,-0.1320078771587205,-0.3716426883963583,-0.2326975992157445,6.595352,52.61683,359.7569,0.05062635,0.4425774,-0.02739345,16.4399996325374,11
-28.86541,0.6833333,4.478391,0.0888151312897598,-0.3820965962294482,-0.1370889461754529,9.881895,50.75394,359.4735,0.07585567,0.4273325,-0.04104764,16.4599996320903,11
-28.81738,0.8833333,4.510106,0.3475696200229308,-0.4003909943079827,-0.0261810947911023,13.15653,48.85438,359.0775,0.1009953,0.4116403,-0.05465444,16.4799996316433,11
-28.61347,0.2833333,4.581111,0.4555665081830931,0.2404455180618484,0.0493793064375998,3.241026,51.92933,359.8315,0.02478168,0.4376785,-0.01370246,16.4999996311963,11
-28.56664,0.4833333,4.61293,0.8008316156774171,-0.0038319517649811,0.1553274409889358,6.474053,50.08942,359.5587,0.04952966,0.4228438,-0.02738681,16.5199996307492,11
-28.51982,0.6833332,4.644741,1.1704961694524236,-0.2272009892203151,0.2502188646120675,9.695669,48.221,359.1788,0.07421812,0.4075787,-0.04103887,16.5399996303022,11
-28.47301,0.8833332,4.676541,1.3566498762181318,0.2362641425798709,0.2727611436426569,12.90188,46.31158,358.6877,0.09881973,0.3919002,-0.05464022,16.5599996298552,11
-28.21245,0.2833333,4.768068,1.5584887017337437,0.6950246074915306,0.2866939969000555,3.265092,50.41315,359.7459,0.02483268,0.4257664,-0.01413842,16.5799996294081,11
-28.1652,0.4833333,4.800217,2.1200262311140925,0.2441039077457338,0.3912286296210467,6.519481,48.57295,359.3866,0.04963152,0.4109053,-0.02825814,16.5999996289611,11
-28.11796,0.6833332,4.832357,2.685577641808951,-0.2115210612839734,0.4766356438055181,9.759652,46.69896,358.9188,0.07437027,0.3956212,-0.04234421,16.6199996285141,11
-27.88488,0.2833333,4.920442,2.980949511892294,0.2331268763816648,0.4566006678412337,3.527383,52.17747,359.7621,0.0267292,0.4396107,-0.0153979,16.639999628067,11
-27.83313,0.4833333,4.954113,3.600464946513004,0.032756617886392,0.5240510526395425,7.044467,50.34089,359.4109,0.05341912,0.4247893,-0.03077326,16.65999962762,11
-27.7814,0.6833334,4.98777,4.191015860637762,-0.1467054472880108,0.5665466444901952,10.5493,48.46663,358.9412,0.08004932,0.4094723,-0.0461212,16.6799996271729,11
-27.72969,0.8833333,5.021416,4.7607238425242,-0.3596212183569636,0.5895957300169794,14.03596,46.53959,358.3476,0.1065764,0.3936791,-0.06141131,16.6999996267259,11
-27.53115,0.2833334,5.086369,5.134776996441776,0.3000323701902188,0.5521955240710144,3.560384,53.56673,359.8139,0.02700099,0.4504453,-0.01544752,16.7199996262789,11
-27.47869,0.4833333,5.11983,5.965280562164125,0.0745719903924343,0.6570508940854802,7.112337,51.74179,359.5138,0.05396228,0.4357375,-0.03087533,16.7399996258318,11
-27.42626,0.6833333,5.153281,6.727203891728159,-0.1299803048943333,0.738854518873544,10.65183,49.88205,359.096,0.08084998,0.4205155,-0.04626193,16.7599996253848,11
-27.37384,0.8833334,5.186723,7.431773025622604,-0.367985750004166,0.8028966707124807,14.17483,47.97219,358.5546,0.1076315,0.4047985,-0.06158886,16.7799996249378,11
-27.11924,0.2833334,5.272663,7.837935121810705,0.2665777073091006,0.7840997731435726,3.587815,56.31334,-0.0009997005,0.02759581,0.4716531,-0.01477977,16.7999996244907,11
-27.0666,0.4833336,5.306556,8.499507672456541,0.0160275511944021,0.8751732533338883,7.173014,54.51282,359.8852,0.05515164,0.457132,-0.0295378,16.8199996240437,11
-27.01397,0.6833337,5.340441,9.065300485953417,-0.2136141788212646,0.9532226246063172,10.75183,52.68903,359.6559,0.0826322,0.4420658,-0.04425566,16.8399996235967,11
-26.79206,0.2833335,5.423416,9.333924402864149,0.2435790395981847,0.9570332806539072,3.519357,55.88345,0.1132389,0.02759044,0.4683253,-0.01351606,16.8599996231496,11
-26.7418,0.4833334,5.458734,9.91843583878822,0.0557537380406951,1.0914011511692945,7.039506,54.09934,0.1169086,0.05514012,0.4538489,-0.02701217,16.8799996227026,11
-26.69156,0.6833334,5.494042,10.372066690257896,-0.111163441109631,1.2145600963148144,10.55701,52.30021,0.009331755,0.0826162,0.4388486,-0.04047254,16.8999996222556,11
-26.64132,0.8833334,5.529335,10.712398704050322,-0.3115340779565352,1.3298144587273857,14.068,50.47209,359.7879,0.1099875,0.4233439,-0.05387126,16.9199996218085,11
-26.27346,0.2833334,5.663369,10.674145768623433,0.3606646395856432,1.3504944810991653,6.224871,52.90057,359.1732,0.04540149,0.4451033,-0.03063438,16.9399996213615,11
-26.17675,0.4833336,5.716065,11.133407116123244,0.1477493968847859,1.5567414280637104,12.41821,50.95272,358.1294,0.09064734,0.4291522,-0.06116597,16.9599996209145,11
-26.08006,0.6833336,5.768751,11.430538012022868,-0.0442579399832,1.7447116713133886,18.57013,48.82915,356.8332,0.1355909,0.4118245,-0.09149648,16.9799996204674,11
-25.98338,0.8833331,5.821427,11.585903522523182,-0.2697184863497907,1.9171743632116005,24.66756,46.46324,355.2316,0.1800864,0.3931771,-0.1215285,16.9999996200204,11
-25.69328,0.2833335,5.890695,12.000248302525064,-0.2629234118903969,2.2073361440342234,5.992044,54.21717,357.9981,0.03856836,0.4557987,-0.03934186,17.0199996195734,11
-25.58695,0.4833337,5.921771,12.232376584897406,-0.2106530270746417,2.4643799824694304,11.91271,52.09634,355.7563,0.07699576,0.4399083,-0.07862154,17.0399996191263,11
-25.48066,0.6833332,5.952852,12.30573398300902,-0.1662235837733722,2.692075205986968,17.74158,49.67714,353.222,0.1151621,0.4225854,-0.1176681,17.0599996186793,11
-25.37441,0.883333,5.983922,12.244204851762875,-0.182950869085175,2.894374011430749,23.45445,46.88812,350.3237,0.1529544,0.4038883,-0.1563402,17.0799996182323,11
-24.95298,0.2833335,6.104026,12.323393412528189,-0.2075177319115833,3.1296137311212178,6.629771,61.02655,358.0303,0.04109582,0.5076698,-0.04413759,17.0999996177852,11
-24.83447,0.4833335,6.128084,12.225782803698166,-0.1866091912529399,3.31186702895702,13.19821,58.8756,355.7911,0.08208857,0.4915681,-0.08821151,17.1199996173382,11
-24.71598,0.6833333,6.152134,11.977825693422954,-0.1735414050673476,3.447335913172499,19.67031,56.38299,353.2167,0.1227493,0.4735683,-0.1319311,17.1399996168911,11
-24.28366,0.2833336,6.274931,11.383279480162429,0.4986575962167754,3.475164964096181,7.559856,68.76849,358.6971,0.04799472,0.5640938,-0.04659051,17.1599996164441,11
-24.15193,0.4833336,6.299428,11.352241979530756,0.2857430897465483,3.643095259581542,15.0693,66.69616,357.1084,0.09575003,0.5475678,-0.09295499,17.1799996159971,11
-24.02024,0.6833331,6.323919,11.13507644568288,0.0937366615148778,3.731233494265794,22.51314,64.30735,355.155,0.1430534,0.528473,-0.1388895,17.19999961555,11
