pX,pY,pZ,aX,aY,aZ,reX,reY,reZ,rtX,rtY,rtZ,t,ID
-42.08181,0.23,-38.99975,3.3865693534489694,0.0159155135492455,5.845221722958371,0.01398474,0.008369636,3.976755,0.0001245006,6.876048e-05,0.03469676,2.2399999499321,9
-42.158,0.4299998,-38.99955,3.725743487543781,-0.1196633267241697,6.173410069414508,0.01415126,0.02373598,7.794369,0.0001372857,0.0001982632,0.06796624,2.25999994948506,9
-42.18546,0.6299999,-38.98974,4.0164025320033545,-0.0416992967870885,6.439641702851617,0.5488403,0.7110759,9.199562,0.005271625,0.005801123,0.08016303,2.27999994903803,9
-42.24255,0.2833333,-38.99033,4.353856425026443,-0.4147950916217194,6.695059144138767,0.3004714,1.785406,359.1604,0.002507567,0.01559871,-0.007366564,2.29999994859099,9
-42.23976,0.4833333,-38.98564,4.633705877143981,-0.5450418113836496,6.881689723801678,0.5676328,2.055315,359.0054,0.004796859,0.01797714,-0.008766983,2.31999994814396,9
-42.18975,0.2833334,-38.95287,4.856885773195387,-0.4577733667634253,7.001030705477383,0.8084123,3.468616,359.7158,0.00697636,0.03028141,-0.002692355,2.33999994769692,9
-42.18502,0.4833333,-38.93974,5.172264943731491,-0.8175921048827719,7.155266719186152,1.562285,3.629335,359.5984,0.01351519,0.03171125,-0.003934559,2.35999994724989,9
-42.17967,0.6833333,-38.92627,5.417651458279238,-0.9305893510962102,7.23164849976483,2.339674,3.767323,359.3649,0.0202226,0.03297592,-0.006209295,2.37999994680285,9
-42.17439,0.8833334,-38.91278,5.594926472784231,-0.8220988950008566,7.233339225401991,3.119515,3.906327,359.1264,0.02694321,0.0342763,-0.008543931,2.39999994635582,9
-42.11716,0.2833333,-38.84974,5.797024542781529,-1.156723936425271,7.202724706735346,1.36983,8.333344,359.455,0.01157644,0.07270876,-0.005612007,2.41999994590878,9
-42.10403,0.4833334,-38.82724,5.926238872925694,-1.2405553770712,7.097565952377245,2.7442,8.180289,358.92,0.02321127,0.07152737,-0.01110614,2.43999994546175,9
-42.03462,0.2833332,-38.74223,5.985197861455916,-1.0989259851693016,6.922284039902436,2.662552,10.93245,359.7021,0.0228798,0.09529302,-0.004799818,2.45999994501472,9
-42.0214,0.4833332,-38.69754,6.117631517066101,-1.3964384839278825,6.769199119432088,5.317715,10.12072,359.3923,0.04574045,0.08835397,-0.009368338,2.47999994456768,9
-42.00796,0.6833334,-38.65289,6.170486203207624,-1.439184534278359,6.542827670997859,7.960816,9.291636,359.0848,0.06853973,0.08135064,-0.0135636,2.49999994412065,9
-41.9502,0.2833336,-38.55779,6.265476733527109,-1.6793735959698035,6.329830983208026,3.976994,13.80188,359.9156,0.03435898,0.1201062,-0.004900288,2.51999994367361,9
-41.93192,0.4833333,-38.48994,6.274840078284456,-1.6631931415819547,6.044395125265417,7.989604,12.64203,359.7242,0.06897789,0.1099977,-0.01005651,2.53999994322658,9
-41.91341,0.6833334,-38.42217,6.203082472484596,-1.4159766298393746,5.693505567700733,11.99775,11.4611,359.4813,0.1035361,0.09977324,-0.01491456,2.55999994277954,9
-41.81873,0.283333,-38.29479,6.155303796427724,-1.6023271820776908,5.342327816484215,4.197014,19.1571,0.1508663,0.03632605,0.1662403,-0.004795827,2.57999994233251,9
-41.79643,0.483333,-38.22482,6.024553879624968,-1.5283349929524053,4.931947426301875,8.397272,18.02798,0.2182472,0.07260773,0.1561171,-0.009594901,2.59999994188547,9
-41.69202,0.2833339,-38.09067,5.816324039067567,-1.2193344528234338,4.470539440756312,3.734478,23.11979,0.1581328,0.03219912,0.2002415,-0.005178251,2.61999994143844,9
-41.66834,0.4833339,-38.02993,5.691578265576737,-1.339928335165923,4.061802967937915,7.470284,21.99393,0.2429448,0.06435155,0.1902158,-0.01034997,2.6399999409914,9
-41.64466,0.6833341,-37.96921,5.483475991285189,-1.1962071665533418,3.6057157928646646,11.20465,20.8625,0.2526606,0.09640692,0.1799786,-0.01551712,2.65999994054437,9
-41.621,0.8833342,-37.9085,5.198726733091426,-0.8135052034458882,3.1118563710115907,14.93736,19.71543,0.1854782,0.1283397,0.169542,-0.02067235,2.67999994009733,9
-41.48307,0.2833335,-37.78498,4.941461737107417,-0.8564248858326328,2.6336333691839897,3.663311,27.38623,0.1737324,0.03141318,0.2365531,-0.006094053,2.6999999396503,9
-41.45574,0.4833337,-37.72712,4.609989667873421,-0.6310571927757267,2.131265583172521,7.328222,26.26642,0.275916,0.06278148,0.2266009,-0.01218064,2.71999993920326,9
-41.32927,0.2833333,-37.59922,4.212087903393993,-0.1627360339203075,1.6153463882086925,3.604702,31.33869,0.2731346,0.03092626,0.2698788,-0.006200808,2.73999993875623,9
-41.30001,0.483333,-37.54335,3.911939420197896,-0.1160642889378428,1.1767589125797286,7.212998,30.23057,0.4767249,0.0618096,0.2599908,-0.01239445,2.75999993830919,9
-41.27076,0.6833332,-37.48751,3.6348471348077496,-0.0372288029872935,0.7351941066864001,10.82339,29.12546,0.611203,0.09261542,0.2498286,-0.01857398,2.77999993786216,9
-41.15252,0.2833333,-37.38418,3.341926753302438,0.0207331631344254,0.2909094465232869,3.541046,34.62933,0.3530396,0.03041279,0.2973849,-0.006255528,2.79999993741512,9
-41.12189,0.4833334,-37.33018,3.1837387988753463,0.0207337523105877,-0.0992469033896341,7.087182,33.53185,0.6385687,0.060784,0.2875767,-0.01250353,2.81999993696809,9
-41.09126,0.6833334,-37.27621,2.99900778310181,0.0463466581695941,-0.4642268750591825,10.63707,32.4428,0.8575727,0.09108162,0.2774732,-0.01873816,2.83999993652105,9
-40.92216,0.2833336,-37.12819,2.7409072772970333,0.5244485492308145,-0.8261743971738511,3.478134,38.2645,0.4078228,0.02983722,0.3274947,-0.006585622,2.85999993607402,9
-40.8896,0.4833336,-37.0765,2.621235484051581,0.3366233119660956,-1.0945769309015958,6.962463,37.17508,0.7498556,0.05963494,0.3177816,-0.01316388,2.87999993562698,9
-40.85705,0.6833336,-37.02481,2.4793681798004528,0.148797855513555,-1.327385714792495,10.45141,36.09754,1.026478,0.08935795,0.3077506,-0.01973625,2.89999993517995,9
-40.73935,0.283333,-36.93662,2.45818095890327,-0.5202651878169923,-1.4544306604922037,3.435647,39.61346,0.3307067,0.02918111,0.3386134,-0.007443676,2.91999993473291,9
-40.70508,0.4833325,-36.8871,2.3587558739200247,-0.2864420838874645,-1.590983060842749,6.875805,38.52004,0.5949703,0.05831926,0.3289638,-0.01488744,2.93999993428588,9
-40.67081,0.6833329,-36.8376,2.2381460857376823,-0.0557547147162805,-1.6832170081226965,10.31923,37.43386,0.7948406,0.08738935,0.3189941,-0.02231458,2.95999993383884,9
-40.50449,0.2833332,-36.706,2.038963440255557,0.5997181972061161,-1.7955105960949211,3.397121,40.90199,0.2529241,0.02854369,0.3491905,-0.008289615,2.97999993339181,9
-40.46854,0.483333,-36.65867,1.9729710229694248,0.3491685671944553,-1.826374976680281,6.797273,39.80477,0.4398482,0.05704585,0.3396035,-0.01657797,2.99999993294477,9
-40.32195,0.2833332,-36.53569,1.891516943514702,0.0986188098169011,-1.8251292127724736,3.357467,40.80099,0.1641844,0.027957,0.3483908,-0.00886939,3.01999993249774,9
-40.28539,0.4833331,-36.48983,1.876783183537448,0.0871186598875539,-1.795652815537263,6.716167,39.69809,0.2631921,0.05587446,0.3388328,-0.01773243,3.0399999320507,9
-40.24884,0.6833333,-36.44399,1.8424926777850457,0.1012311472337259,-1.7611325894497831,10.07515,38.59261,0.2974226,0.08373023,0.3289609,-0.02657648,3.05999993160367,9
-40.11822,0.283333,-36.34388,1.7994490858926682,0.0876400184164502,-1.716952261295308,3.31565,40.33107,0.05908806,0.02733472,0.3445753,-0.009489474,3.07999993115664,9
-40.08112,0.4833335,-36.29948,1.6674320875110595,0.7133181474619801,-1.730270700427134,6.630723,39.22238,0.05398342,0.05463483,0.3350481,-0.01896735,3.0999999307096,9
-40.04404,0.6833335,-36.2551,1.66923522095599,0.4340200388716618,-1.6952606557707526,9.943873,38.10502,359.9832,0.08187243,0.3252183,-0.02842944,3.11999993026257,9
-39.86148,0.2833333,-36.12145,1.5654376961405705,0.6359585028494161,-1.7336636425096614,3.27386,40.65397,359.9617,0.02667083,0.3472445,-0.01023676,3.13999992981553,9
-39.82333,0.4833336,-36.07893,1.5699718174813384,0.4131116969282074,-1.72659888627334,6.545356,39.5403,359.8595,0.05330905,0.3377617,-0.02046145,3.1599999293685,9
-39.78519,0.6833335,-36.03643,1.5626987369864054,0.191310181430859,-1.7120392743300563,9.813058,38.41254,359.6914,0.07988682,0.3279809,-0.03067084,3.17999992892146,9
-39.65596,0.2833335,-35.95309,1.5552186825553136,-0.0838076668695674,-1.6851974955285094,3.233518,40.16436,359.8942,0.02618178,0.3432553,-0.01055446,3.19999992847443,9
-39.61776,0.4833336,-35.91154,1.424261425922552,0.4937817885062022,-1.7194378825396868,6.463437,39.04847,359.7253,0.05233265,0.3338005,-0.02109636,3.21999992802739,9
-39.57957,0.6833336,-35.87,1.4260182476643948,0.1663932735646621,-1.703383245880918,9.6885,37.91508,359.4913,0.07842924,0.3240583,-0.03161714,3.23999992758036,9
-39.39502,0.2833333,-35.75344,1.3104251773447189,0.320242595005867,-1.7543209620414792,3.193875,39.94335,359.8087,0.02562235,0.3414662,-0.01108665,3.25999992713332,9
-39.35628,0.483333,-35.71325,1.296774585032246,0.0493076578960424,-1.7583390075760512,6.382544,38.82384,359.5547,0.05121503,0.3320435,-0.02216093,3.27999992668629,9
-39.31756,0.6833329,-35.67306,1.2763105271303417,-0.2205823194882387,-1.7461748850330814,9.564637,37.68238,359.2358,0.07675511,0.3223409,-0.03321327,3.29999992623925,9
-39.18373,0.2833337,-35.6013,1.153799964124481,0.1765002785146819,-1.7705656979620734,3.537789,42.2267,359.7906,0.02813809,0.3600945,-0.01282265,3.31999992579222,9
-39.13906,0.4833335,-35.55844,1.2054886947688956,-0.0912987618852271,-1.7163705511080067,7.069986,41.10582,359.5116,0.05623952,0.3506471,-0.02562944,3.33999992534518,9
-39.09441,0.6833339,-35.51559,1.2519010187696151,-0.3580528911711957,-1.645182467746903,10.5959,39.95763,359.1588,0.0842782,0.340841,-0.03841737,3.35999992489815,9
-38.90557,0.2833335,-35.41741,1.1390012754180106,0.0421654118829752,-1.665284238498845,3.573409,46.14856,359.8547,0.02818788,0.3917697,-0.01338529,3.37999992445111,9
-38.85843,0.4833333,-35.3765,1.12153571735157,-0.2224983749089583,-1.6461195915079934,7.142642,45.0366,359.6389,0.05633708,0.3824142,-0.02676094,3.39999992400408,9
-38.6872,0.2833333,-35.28041,1.1003821586855622,-0.4861168920110117,-1.612039274330325,3.579607,48.32363,359.8965,0.02812727,0.4091409,-0.01360747,3.41999992355704,9
-38.63896,0.4833328,-35.2407,0.984923467226274,-0.0827623402047993,-1.6027566875656198,7.155651,47.21777,359.723,0.05621453,0.3998476,-0.02720324,3.43999992311001,9
-38.59073,0.6833333,-35.201,1.053893998835271,-0.3442884942077686,-1.5073788934872177,10.72648,46.09109,359.4777,0.08423269,0.390137,-0.04076559,3.45999992266297,9
-38.54251,0.8833333,-35.1613,1.1182839580118935,-0.6047692954106902,-1.3974071805640058,14.29083,44.9341,359.1566,0.1121531,0.3800198,-0.05428204,3.47999992221594,9
-38.36148,0.2833335,-35.07382,1.031606134487724,-0.1982782855089025,-1.366912065246563,3.593824,50.63005,0.04884515,0.02852787,0.4273726,-0.01302291,3.4999999217689,9
-38.31316,0.4833336,-35.03384,1.044269179386255,-0.4566688251500158,-1.2889049233475696,7.187033,49.54296,0.02950193,0.05701804,0.4181617,-0.02602862,3.51999992132187,9
-38.14836,0.2833329,-34.9479,0.9222228572289596,-0.2338220617421844,-1.2867254158407777,3.557745,52.28996,0.07136758,0.02814031,0.4404142,-0.01311975,3.53999992087483,9
-38.09964,0.4833326,-34.90941,0.7944281776734812,-0.0088848613177435,-1.273737657602478,7.114896,51.20719,0.07483537,0.05623805,0.431273,-0.02622632,3.5599999204278,9
-38.05094,0.6833324,-34.87094,0.840088589878917,-0.4744410584264912,-1.1827738497281288,10.67043,50.11517,0.01005371,0.08426831,0.4216867,-0.03930168,3.57999991998076,9
-38.00225,0.8833323,-34.83247,0.7687943537519502,-0.2453216675351532,-1.1472938144630334,14.22306,49.00503,359.8746,0.1122016,0.4116657,-0.0523325,3.59999991953373,9
-37.827,0.2833332,-34.75566,0.8356865823414665,-0.4409875620497103,-1.0411898256976713,3.562739,54.34835,0.1320924,0.02818075,0.4564441,-0.01317177,3.61999991908669,9
-37.7785,0.4833333,-34.71939,0.8927003486607177,-0.6356079922537238,-0.9313573266603647,7.030086,53.33045,0.1731035,0.05546642,0.4478492,-0.02616732,3.63999991863966,9
-37.62042,0.2833334,-34.64953,0.7780216818384389,-0.1632558760806892,-0.92040842460316,3.434089,56.17786,0.120748,0.02693032,0.4706019,-0.01317889,3.65999991819263,9
-37.57204,0.4833336,-34.61552,0.6575866776479771,0.2845286601140544,-0.9067993263920008,6.818014,55.33046,0.1752326,0.05337387,0.463402,-0.02625708,3.67999991774559,9
-37.52376,0.6833335,-34.58163,0.6979989702863065,-0.1972321717368348,-0.8196196185147393,10.19407,54.48794,0.1773111,0.07969244,0.4558473,-0.03930017,3.69999991729856,9
-37.47353,0.8833333,-34.55031,0.6269822733317554,0.0167279702299706,-0.7783823834175578,13.55116,53.59921,359.9922,0.105278,0.4477295,-0.05325418,3.71999991685152,9
-37.30379,0.283333,-34.48499,0.5545223517723912,0.2338242371547391,-0.7337381890199524,3.497999,59.34129,0.2165174,0.02745413,0.4947319,-0.01346734,3.73999991640449,9
-37.25257,0.4833329,-34.45128,0.6660220634131377,-0.2385281002969377,-0.5986236816785038,7.002315,58.37641,0.3675549,0.0548754,0.4865962,-0.02698682,3.75999991595745,9
-37.10299,0.2833335,-34.38709,0.6063614909113326,-0.0151590064765328,-0.5495045797561247,3.431696,61.42688,0.4532385,0.02776174,0.5104098,-0.01189404,3.77999991551042,9
-37.05355,0.4833333,-34.3522,0.5438791975585247,0.2113463906315157,-0.5005814313967178,6.866687,60.52211,0.8506646,0.05545975,0.5026383,-0.02377846,3.79999991506338,9
-37.00407,0.6833338,-34.31733,0.589811660529179,-0.2515958363899241,-0.4012065784076917,10.31293,59.6333,1.185772,0.08309828,0.4943804,-0.03574474,3.81999991461635,9
-36.79366,0.2833337,-34.22782,0.5349209843747218,-0.0188181271639951,-0.3354988003763068,3.420797,62.43029,0.4448137,0.02753715,0.5179192,-0.01215025,3.83999991416931,9
-36.74252,0.4833333,-34.19333,0.4859693485679841,0.2170960033938903,-0.2694311831988578,6.916049,61.58115,0.8403602,0.05556098,0.5105758,-0.02458738,3.85999991372228,9
-36.69104,0.6833338,-34.15856,0.6132409480639751,-0.2364382257985174,-0.1214942145072335,10.4521,60.83381,1.182423,0.08374697,0.5033463,-0.03725177,3.87999991327524,9
-36.54762,0.2833332,-34.10153,0.5785210049343732,0.0057483970363949,-0.0436150570386963,3.504288,62.12391,0.3848025,0.02792329,0.5156326,-0.01290082,3.89999991282821,9
-36.49638,0.4833331,-34.06831,0.6843684934217009,-0.1758045752410498,0.0882641648968842,7.000583,61.3577,0.6634957,0.05545643,0.508961,-0.02618019,3.91999991238117,9
-36.44516,0.6833333,-34.03512,0.6356394865795245,0.1249253114015647,0.1476067234006848,10.4971,60.59514,0.8935307,0.0828971,0.5017447,-0.03944338,3.93999991193414,9
-36.22654,0.2833333,-33.94057,0.575037826466879,0.4287922057645373,0.1973979025718755,3.425891,61.27025,0.1733266,0.02649042,0.5093018,-0.01393119,3.9599999114871,9
-36.17538,0.4833336,-33.90948,0.5137498802288398,0.6835245134045778,0.2411025600515834,6.876258,60.50724,0.2823425,0.05304187,0.5027926,-0.02809034,3.97999991104007,9
-36.12429,0.6833336,-33.87846,0.6070595901795208,-0.0169006951984643,0.3556787678932593,10.32065,59.72989,0.3482483,0.07950545,0.4956997,-0.04216275,3.99999991059303,9
-35.97951,0.2833332,-33.81678,0.5438218219227373,0.191832713694848,0.4062788076188042,3.372263,60.23539,0.0983121,0.02588221,0.5015386,-0.01402267,4.019999910146,9
-35.929,0.4833332,-33.78588,0.6059392145982017,-0.0231742731347182,0.5132563591619501,6.779468,59.57822,0.1648692,0.05202787,0.4958655,-0.0281286,4.03999990969896,9
-35.87832,0.6833327,-33.7548,0.5213301634304877,0.2441024364170285,0.5496258126037041,10.20793,58.9695,0.1925644,0.078265,0.4901094,-0.0423299,4.05999990925193,9
-35.67042,0.2833333,-33.66459,0.4252281173871779,0.5145157916284929,0.5694912595081121,3.324848,58.95761,-0.005395433,0.02523175,0.4918956,-0.01431718,4.07999990880489,9
-35.62072,0.483333,-33.63501,0.3296141214258448,0.735795277443141,0.5758470180668773,6.656447,58.31651,359.9455,0.05046742,0.4864258,-0.02870087,4.09999990835786,9
-35.43665,0.2833335,-33.547,0.381513859550413,0.0019177924578474,0.6404994102284398,3.270012,57.73527,359.8497,0.02435369,0.4826236,-0.01492353,4.11999990791082,9
-35.38647,0.4833336,-33.51864,0.2888963597202654,0.177198393116108,0.6448717542312714,6.586499,57.04374,359.6529,0.04903026,0.4768564,-0.03008715,4.13999990746379,9
-35.33618,0.6833338,-33.49033,0.3182497730739086,-0.0712609866590266,0.6978477690203988,9.915505,56.33338,359.397,0.07371119,0.4706667,-0.04541539,4.15999990701675,9
-35.28593,0.8833338,-33.46204,0.2148153804488402,0.1625624262765411,0.6933926633206475,13.23477,55.5934,359.0966,0.09828605,0.4640181,-0.06066519,4.17999990656972,9
-35.09076,0.283333,-33.3713,0.1073704866713356,0.3995220455378933,0.6740649235164398,3.244032,54.22564,359.7304,0.02412323,0.4556195,-0.01499374,4.19999990612268,9
-35.04211,0.483333,-33.34302,0.1782811441127307,-0.0529671890819387,0.7514160613589524,6.460771,53.32462,359.3763,0.04791988,0.4482856,-0.03014223,4.21999990567565,9
-34.99318,0.683333,-33.31435,0.2445027503169434,-0.5300233289544412,0.8135306749838094,9.707174,52.49449,358.9781,0.07195354,0.441319,-0.04538594,4.23999990522861,9
-34.7823,0.2833329,-33.20806,0.1751024502838554,-0.1266684259772793,0.8247278272844767,3.403937,53.11907,359.705,0.02541544,0.4469972,-0.01558196,4.25999990478158,9
-34.73193,0.483333,-33.17731,0.20203883006074,-0.3881950343855235,0.889461099403146,6.772858,52.17466,359.3411,0.05052738,0.4392705,-0.03112986,4.27999990433455,9
-34.68134,0.6833327,-33.14629,0.1122217943929797,-0.1684844744285928,0.9028157533111738,10.15249,51.26971,358.933,0.07575588,0.4316615,-0.04664063,4.29999990388751,9
-34.53828,0.2833333,-33.07149,0.0247046017393053,0.0533167880793158,0.9006268109708735,3.550817,53.47531,359.7256,0.02659203,0.449755,-0.01607662,4.31999990344048,9
-34.485,0.4833332,-33.03838,0.0974797233989868,-0.4153758935216313,0.9976582360226018,7.124768,52.64444,359.4091,0.05340983,0.4428433,-0.0321647,4.33999990299344,9
-34.43162,0.6833332,-33.00535,-0.0163032005107446,-0.1893931206737394,1.0113602189928947,10.70008,51.77488,359.0272,0.08019046,0.4353991,-0.04831178,4.35999990254641,9
-34.22951,0.2833338,-32.89898,-0.1345460564339653,0.0386808734231778,1.0051137058737891,3.592502,56.11318,359.8456,0.02702835,0.4701492,-0.01593147,4.37999990209937,9
-34.17513,0.4833334,-32.86691,-0.2455156053566654,0.2165745178475672,0.9832878521651054,7.205307,55.25473,359.6043,0.05407375,0.4629924,-0.03219187,4.39999990165234,9
-33.98943,0.2833335,-32.77924,-0.3403757816479249,0.1585543942103028,1.0198267144444273,3.626783,56.45744,359.9336,0.02760692,0.4727716,-0.01547769,4.4199999012053,9
-33.93547,0.4833335,-32.74473,-0.4315870208605332,0.1313740008918723,1.038911997323947,7.304311,55.79672,359.8475,0.05567419,0.4670288,-0.03097907,4.43999990075827,9
-33.88129,0.6833337,-32.71073,-0.4141597771038654,-0.3451594032970964,1.1354252209007,10.97749,55.01373,359.674,0.08352932,0.4599768,-0.04668797,4.45999990031123,9
-33.82715,0.883334,-32.67668,-0.5825093433455883,-0.1259718307934914,1.1413826082097138,14.64551,54.22206,359.4519,0.1112909,0.4525369,-0.06230686,4.4799998998642,9
-33.63806,0.2833337,-32.57367,-0.7457475559019819,0.0963516320604496,1.1299318130875091,3.587668,56.55857,0.02935787,0.02768843,0.4735306,-0.014605,4.49999989941716,9
-33.58551,0.4833336,-32.53812,-0.7448444428425596,-0.3707735290635126,1.2563359480361918,7.223925,56.01996,0.05184951,0.05583163,0.4686673,-0.02918719,4.51999989897013,9
-33.41231,0.2833333,-32.44028,-0.8469000691570585,-0.1421772636197425,1.322750467399718,3.639003,57.30947,0.06907083,0.02815115,0.4792717,-0.01469687,4.53999989852309,9
-33.35937,0.4833333,-32.40522,-0.9386842545292496,0.0895553820364932,1.3680850163136036,7.280045,56.7701,0.1020319,0.0562771,0.4743856,-0.02939991,4.55999989807606,9
-33.30655,0.6833333,-32.37018,-0.9254703216412814,-0.3681598375782098,1.492492651646394,10.93224,56.22013,0.08623545,0.08437392,0.4689609,-0.04422122,4.57999989762902,9
-33.25332,0.8833334,-32.33561,-1.0775694022024318,-0.1301547208145199,1.5262185396793768,14.57974,55.55926,0.003131744,0.1122774,0.4623017,-0.05911552,4.59999989718199,9
-33.0731,0.2833333,-32.23705,-1.2137693684008326,0.110987540182768,1.540425909129311,3.657066,57.67899,0.0779575,0.028279,0.4820929,-0.01479567,4.61999989673495,9
-33.01971,0.4833333,-32.20207,-1.3591720519707025,0.1428722459954289,1.619364808346479,7.313704,57.05494,0.1161565,0.05652014,0.4765506,-0.02957164,4.63999989628792,9
-32.85418,0.2833333,-32.10921,-1.5007774895013275,0.205596234342582,1.6689229828498815,3.612955,57.76088,0.08724906,0.02797068,0.4827223,-0.01455908,4.65999989584088,9
-32.80149,0.4833333,-32.07458,-1.6263459055469769,0.2458434396107584,1.6962340640312623,7.225592,57.13898,0.135372,0.05590453,0.4772082,-0.02909907,4.67999989539385,9
-32.74881,0.6833335,-32.03996,-1.6593095147933958,-0.4300153995998246,1.7901204574855107,10.83745,56.51453,0.1441225,0.08377275,0.4712107,-0.04360492,4.69999989494681,9
-32.53636,0.2833331,-31.90499,-1.836203433463904,-0.1977597258063579,1.7929511862936955,3.560113,57.98648,0.1712094,0.02789376,0.4844314,-0.01375013,4.71999989449978,9
-32.4851,0.4833331,-31.8698,-1.9884039101713176,0.0365867156149175,1.7785905073342043,7.120779,57.37433,0.3046242,0.05575134,0.478954,-0.02748229,4.73999989405274,9
-32.43385,0.6833335,-31.83462,-2.0131938696965044,-0.4195605737217226,1.8952127324215908,10.68154,56.76526,0.4006417,0.08354458,0.4730047,-0.04118297,4.75999989360571,9
-32.29482,0.2833332,-31.73755,-2.19271586427093,-0.1810318196947106,1.9051705065326845,3.504085,56.9575,0.2055241,0.02772926,0.4765609,-0.01300296,4.77999989315867,9
-32.24534,0.4833335,-31.70146,-2.344508674283162,0.0595876682456057,1.895703718365908,7.009073,56.35027,0.3741809,0.05542308,0.4711069,-0.0259893,4.79999989271164,9
-32.19588,0.6833332,-31.66538,-2.4274288031475386,-0.3902863660996326,1.944282517084236,10.51432,55.74852,0.5074439,0.08305606,0.4652028,-0.03893974,4.8199998922646,9
-32.00977,0.2833337,-31.52608,-2.576837997884976,-0.1454856127939521,1.927157074744759,3.453086,54.62115,0.2207537,0.02765428,0.4585528,-0.01211278,4.83999989181757,9
-31.96268,0.4833336,-31.48829,-2.686561234059031,0.1014060834200958,1.8953695527693384,6.906975,54.01712,0.4066127,0.05527671,0.4531057,-0.02419981,4.85999989137053,9
-31.91562,0.6833336,-31.45052,-2.735590334813981,-0.3421963222446434,1.940626941646414,10.36164,53.41955,0.5572149,0.08283949,0.4472376,-0.03626042,4.8799998909235,9
-31.86856,0.8833336,-31.41275,-2.90642013843361,-0.0911238570611792,1.8882673011284368,13.81667,52.82416,0.6726364,0.1103163,0.4409546,-0.0482841,4.89999989047647,9
-31.72111,0.2833336,-31.28504,-3.031978204911318,0.1620395505079471,1.824385333246827,3.40574,50.98752,0.1458543,0.02737048,0.4301882,-0.01164189,4.91999989002943,9
-31.67634,0.4833336,-31.24588,-3.372929493990057,0.2049014891005119,1.7230040927970869,6.811512,50.37908,0.2568474,0.05470952,0.4247409,-0.02325956,4.9399998895824,9
-31.54483,0.2833333,-31.12263,-3.657266607645472,0.2775577298551591,1.6109185677306712,3.360335,48.1748,0.09697242,0.02711238,0.4079315,-0.01119424,4.95999988913536,9
-31.50207,0.4833333,-31.08249,-3.876989425655207,0.326691422751768,1.4952519353302345,6.72018,47.56317,0.159072,0.05419309,0.4024832,-0.02236683,4.97999988868833,9
-31.45931,0.6833333,-31.04237,-4.131707417351134,-0.3413270127211221,1.3541729231738664,10.07953,46.95053,0.1853136,0.0812178,0.3966823,-0.03351654,4.99999988824129,9
-31.27898,0.2833332,-30.86199,-4.4564081771906885,-0.1022767276724107,1.1445724705109548,3.312499,43.80175,359.9676,0.02671168,0.3728537,-0.01104302,5.01999988779426,9
-31.23837,0.4833332,-30.82088,-4.698341098399844,0.1378187289717868,0.9445298874399412,6.623458,43.18059,359.8992,0.05339224,0.3673997,-0.02207315,5.03999988734722,9
-31.19777,0.6833333,-30.77977,-5.081386484914351,0.1665676384339761,0.6969451873769401,9.932202,42.55095,359.795,0.08001956,0.3616341,-0.03307194,5.05999988690019,9
-31.08001,0.2833333,-30.65034,-5.376311912269763,0.2240653588283762,0.4643250043254454,3.265983,40.61921,359.8825,0.02636972,0.3469791,-0.01085262,5.07999988645315,9
-31.04115,0.4833333,-30.60862,-5.577247877367018,0.2569959338740704,0.2526239465438813,6.529547,39.99272,359.7291,0.05270967,0.341531,-0.02169262,5.09999988600612,9
-31.0023,0.6833338,-30.56691,-5.747221323929981,-0.4282707868635798,0.1038709300977593,9.789951,39.35294,359.5389,0.07899638,0.3358012,-0.03250631,5.11999988555908,9
-30.84738,0.2833333,-30.38665,-5.959513152127165,-0.2075147234803142,-0.0915926225221426,3.220476,36.14843,359.787,0.02613728,0.3101753,-0.01048404,5.13999988511205,9
-30.81103,0.4833331,-30.34365,-6.0741983614793895,0.0132413508797655,-0.2598222627091644,6.437534,35.51594,359.5383,0.05224584,0.3047286,-0.0209562,5.15999988466501,9
-30.77469,0.6833329,-30.30066,-6.292137264181303,0.0216047868492194,-0.4686746193267836,9.65068,34.86489,359.2517,0.07830402,0.299037,-0.03140774,5.17999988421798,9
-30.67817,0.2833333,-30.18118,-6.412237196752368,0.0576716228434144,-0.6448905977355288,3.182654,32.0596,359.7312,0.0260431,0.2760926,-0.009921698,5.19999988377094,9
-30.64451,0.4833333,-30.13677,-6.4309490675674255,0.0681256624853958,-0.7822588106230839,6.361254,31.42456,359.4269,0.05205772,0.2706534,-0.0198322,5.21999988332391,9
-30.61086,0.6833332,-30.09237,-6.579648619957332,0.0796257899384099,-0.9559908317334695,9.535317,30.76812,359.0847,0.07802296,0.2650017,-0.02972378,5.23999988287687,9
-30.49207,0.2833333,-29.91553,-6.638278696080761,0.118829318461575,-1.0973875181294623,3.519905,29.8243,359.6918,0.02898593,0.2572952,-0.01050094,5.25999988242984,9
-30.45658,0.4833336,-29.86504,-6.604276009374697,0.1324200271107822,-1.2002708833768525,7.035266,29.18436,359.3438,0.05793573,0.2517985,-0.02098847,5.2799998819828,9
-30.42109,0.6833336,-29.81457,-6.5806440079529445,0.7873705161017422,-1.3326604487820823,10.54693,28.51744,358.954,0.08683553,0.2460612,-0.03144582,5.29999988153577,9
-30.35719,0.2833336,-29.69753,-6.513392619734351,0.5394337616321717,-1.421388384078174,3.554755,29.17311,359.7574,0.02948345,0.2517841,-0.009858934,5.31999988108873,9
-30.32299,0.4833335,-29.6456,-6.354332905863419,0.2946339097320473,-1.4629831932645452,7.106012,28.54086,359.476,0.05893395,0.2462972,-0.01969921,5.3399998806417,9
-30.2888,0.6833335,-29.59369,-6.26575395904521,0.7188961098515775,-1.5751171121441878,10.65289,27.88535,359.1521,0.08831751,0.2405707,-0.02951702,5.35999988019466,9
-30.24444,0.2833333,-29.46219,-6.1001757596957376,0.480367877571725,-1.6150669324206568,3.581466,28.68364,359.8634,0.02998012,0.2476212,-0.008894764,5.37999987974763,9
-30.21208,0.4833333,-29.40866,-5.8551385692028255,0.2449758526630652,-1.6100772210064207,7.160511,28.06301,359.6888,0.05992604,0.2421458,-0.01776966,5.39999987930059,9
-30.17974,0.683333,-29.35516,-5.529670425486639,-0.0416414403499361,-1.5541069402962258,10.73645,27.42578,359.4732,0.08980352,0.2364323,-0.02662416,5.41999987885356,9
-30.25267,0.2833334,-29.26997,-5.221448059617266,-0.1137751711426873,-1.493938899204636,3.572724,28.00111,-0.000314747,0.03024614,0.2418138,-0.007544351,5.43999987840652,9
-30.22313,0.4833335,-29.21507,-4.845619493067176,-0.1582056501848149,-1.3920426893418316,7.144193,27.39522,359.963,0.06045614,0.2363571,-0.01506669,5.45999987795949,9
-30.1936,0.683333,-29.16019,-4.505850528877819,0.2519437211747655,-1.343315520680477,10.71415,26.78164,359.8876,0.09059788,0.2306695,-0.0225722,5.47999987751245,9
-30.26506,0.2833331,-29.132,-4.090129735480673,-0.0017427068652496,-1.236415921944122,3.575433,26.45394,0.00775669,0.03038435,0.2286957,-0.007072174,5.49999987706542,9
-30.23711,0.4833333,-29.07622,-3.616987178022288,-0.2533383062951556,-1.0858848357796411,7.149739,25.85053,359.9784,0.06073079,0.2232561,-0.01413058,5.51999987661839,9
-30.20917,0.683333,-29.02046,-3.251739406925445,0.1630834708336977,-1.0541389908524297,10.72259,25.23996,359.9108,0.09100904,0.2175987,-0.02117052,5.53999987617135,9
-30.26178,0.2833333,-28.95396,-2.788161087353778,-0.0843298721813045,-0.9153906090613368,3.64922,24.92092,0.03637391,0.03115853,0.2156466,-0.00656021,5.55999987572432,9
-30.23524,0.4833333,-28.89606,-2.289205139227061,-0.3296524383340392,-0.7467453831917226,7.297584,24.32188,0.03461856,0.06227579,0.2102126,-0.01311166,5.57999987527728,9
-30.20871,0.6833333,-28.83818,-1.8485229040688544,0.0930424029987244,-0.6483286928581329,10.94468,23.71718,359.9941,0.09331942,0.2045652,-0.0196474,5.59999987483025,9
-30.24604,0.2833334,-28.74714,-1.2896043903643282,-0.1480991490357356,-0.4189622031562834,3.620209,22.87544,0.04448645,0.03103668,0.1981916,-0.005883471,5.61999987438321,9
-30.22193,0.4833333,-28.68876,-0.7167506973631816,-0.3871504664277161,-0.1691263326688314,7.239631,22.27901,0.05132966,0.06203254,0.1927853,-0.0117591,5.63999987393618,9
-30.19782,0.6833333,-28.63039,-0.270585099048489,0.0418161166641617,-0.0589306491704739,10.85787,21.6776,0.01995867,0.09295583,0.1871868,-0.01762098,5.65999987348914,9
-30.23992,0.2833333,-28.57633,0.173779073325889,0.447261337219732,0.0634961589983085,3.567318,22.40477,0.123565,0.03074203,0.194148,-0.004989694,5.67999987304211,9
-30.21791,0.4833333,-28.51808,0.7114605348800467,-0.0757921664749309,0.281028684345209,7.134669,21.81762,0.2107702,0.06144445,0.1887671,-0.009972601,5.69999987259507,9
-30.19591,0.6833333,-28.45984,1.1643237411204268,0.0979202848045657,0.4220130258321077,10.70167,21.23084,0.2617036,0.09207664,0.1832033,-0.01494389,5.71999987214804,9
-30.21417,0.2833335,-28.36513,1.692108271478304,-0.1510617288136568,0.6533951374575473,3.512706,21.46048,0.1962276,0.03043206,0.1860459,-0.00402477,5.739999871701,9
-30.19467,0.4833335,-28.30694,2.191339058132605,-0.3969073776392265,0.8892214999328658,7.026218,20.88179,0.3572761,0.06082596,0.1806918,-0.008044185,5.75999987125397,9
-30.17516,0.6833337,-28.24876,2.557741328765072,0.0263097534221999,0.9761122126765258,10.53977,20.30827,0.4840898,0.09114946,0.1751682,-0.01205151,5.77999987080693,9
-30.15565,0.8833336,-28.1906,2.8774563236163218,0.427050108461172,1.053076304554267,14.05342,19.73579,0.5770805,0.1213772,0.1694808,-0.01604044,5.7999998703599,9
-30.17696,0.2833333,-28.13046,3.27291922285443,-0.0996630370582902,1.1981321556319813,3.454769,20.2226,0.23829,0.03004064,0.175419,-0.003245848,5.81999986991286,9
-30.15975,0.4833336,-28.07255,3.5699713296188307,0.0714354592923552,1.2525027224362262,6.910295,19.65001,0.4433129,0.06004174,0.1700984,-0.006478926,5.83999986946583,9
-30.14254,0.6833333,-28.01465,3.7977163695795895,0.2477614294772377,1.289766481350572,10.36676,19.08531,0.6150873,0.08997846,0.1646233,-0.009705416,5.85999986901879,9
-30.12727,0.2833333,-27.92977,3.9987487999683182,-0.2632704262839395,1.4371498439844572,3.405805,18.86038,0.1914355,0.02958884,0.1637243,-0.003221696,5.87999986857176,9
-30.11093,0.4833333,-27.87255,4.106381771879882,-0.0764905094115291,1.4669265877732514,6.811996,18.2851,0.3491837,0.05913917,0.1584312,-0.006436657,5.89999986812472,9
-30.0946,0.6833332,-27.81533,4.131383723313544,0.1155163733125338,1.466197614035753,10.21861,17.71479,0.473587,0.08862714,0.1529989,-0.00964505,5.91999986767769,9
-30.05764,0.2833333,-27.70653,4.109061151323939,-0.3798338117252023,1.573579208182874,3.354605,17.34118,0.1127399,0.02908399,0.1506603,-0.003440411,5.93999986723065,9
-30.04179,0.4833332,-27.65016,4.118935475509311,-0.1773728644435294,1.605125397050152,6.708812,16.76055,0.1916742,0.05813051,0.1453957,-0.006875689,5.95999986678362,9
-30.02594,0.6833332,-27.5938,4.051030322156258,0.0303149275963661,1.5972789260960916,10.06268,16.18016,0.2368225,0.08711733,0.1400078,-0.01030385,5.97999986633658,9
-29.994,0.2833333,-27.52145,3.920992974851561,-0.4493540172529873,1.6135648686297763,3.308568,17.04539,0.04179251,0.02860393,0.148129,-0.003917842,5.99999986588955,9
-29.97748,0.4833333,-27.46614,3.830910718436652,-0.2312112588143412,1.6254967531398066,6.616404,16.46029,0.04982516,0.05717475,0.1428863,-0.007831115,6.01999986544251,9
-29.96097,0.683333,-27.41084,3.6749166197812073,-0.0078413354603821,1.6078336908175466,9.922911,15.87125,0.02320663,0.0856852,0.1375257,-0.0117404,6.03999986499548,9
-29.89026,0.2833337,-27.2881,3.511927868402484,-0.4718292919782622,1.6691003106729667,3.262728,18.75301,359.9754,0.02805349,0.1628614,-0.004849887,6.05999986454844,9
-29.87125,0.4833338,-27.23445,3.373872193302283,-0.2380058622290011,1.683672528529666,6.524123,18.164,359.9171,0.05607552,0.1576327,-0.00969546,6.07999986410141,9
-29.85225,0.6833337,-27.1808,3.177305740886723,0.0010446662262146,1.6651684418441022,9.783547,17.56734,359.824,0.08404003,0.1522772,-0.01453377,6.09999986365438,9
-29.74554,0.2833333,-27.03143,3.02350404313945,-0.4472617940647279,1.7545869233150064,3.216909,19.13659,359.8721,0.02749314,0.1661884,-0.00576612,6.11999986320734,9
-29.72474,0.4833333,-26.97925,2.8798249633798,-0.19775662947349,1.7617285695235196,6.431376,18.54071,359.7105,0.05495568,0.1609789,-0.01152612,6.13999986276031,9
-29.70395,0.6833331,-26.92709,2.682659516649572,0.0569758750522724,1.7265434708106255,9.643064,17.9315,359.5138,0.08236568,0.1556434,-0.01727535,6.15999986231327,9
-29.68317,0.8833332,-26.87494,2.434009499313106,0.2646647232185364,1.6541253831110616,12.85116,17.30455,359.2789,0.109696,0.1501856,-0.02301756,6.17999986186624,9
-29.57166,0.2833333,-26.75025,2.32070139232583,0.2395749390610417,1.6544464375124406,3.3726,22.16933,359.8553,0.02863553,0.1922124,-0.006896434,6.1999998614192,9
-29.5468,0.4833333,-26.69681,2.161235954481548,0.2484612327657501,1.6140204412794006,6.742591,21.57348,359.6752,0.05723741,0.1869931,-0.01378522,6.21999986097217,9
-29.43335,0.2833333,-26.56685,2.050516441712769,-0.1888687115487007,1.6390439020424132,3.491369,26.66072,359.9218,0.02948506,0.2304785,-0.007687982,6.23999986052513,9
-29.40443,0.4833333,-26.51315,1.937500152468349,0.0726582810480523,1.5780401943184614,6.980837,26.07145,359.8073,0.05893403,0.2252395,-0.01536743,6.2599998600781,9
-29.37554,0.6833332,-26.45947,1.7859113282594097,0.3404578045149169,1.4762384896017124,10.47025,25.46971,359.6526,0.08833256,0.2197889,-0.02305867,6.27999985963106,9
-29.34666,0.8833331,-26.4058,1.5998269235250504,0.5622586337000037,1.3398964694844864,13.95686,24.85082,359.4578,0.117638,0.2141335,-0.03072822,6.29999985918403,9
-29.20045,0.2833333,-26.28298,1.497367324300818,-0.167961326330461,1.256816845762657,3.550299,28.83877,359.9009,0.0297861,0.248924,-0.008551281,6.31999985873699,9
-29.16876,0.4833332,-26.22971,1.406774942210042,0.0141142946000599,1.1364317773666173,7.098866,28.24953,359.7638,0.05953573,0.2436893,-0.01710322,6.33999985828996,9
-29.13709,0.6833335,-26.17645,1.291990854409491,0.2024620297173327,0.9880442191502574,10.64477,27.64652,359.5884,0.08921792,0.2382196,-0.02563571,6.35999985784292,9
-29.0631,0.2833334,-26.00785,1.3080115587725132,-0.295502061724766,0.922776010270116,3.588335,28.50624,359.9801,0.03030258,0.2460907,-0.007876415,6.37999985739589,9
-29.03265,0.4833332,-25.95313,1.2968249564101768,-0.094608753574217,0.7954386631396382,7.175651,27.92624,359.9247,0.06057104,0.2408643,-0.01573655,6.39999985694885,9
-29.0022,0.6833331,-25.89843,1.2632146733999503,0.1125566692857839,0.6431449619145546,10.76116,27.33754,359.8318,0.09076966,0.2354008,-0.02357888,6.41999985650182,9
-28.93677,0.2833333,-25.71755,1.376526273802121,-0.3665900391508607,0.5903434262058909,3.560059,26.17329,0.0006811851,0.03025699,0.2263149,-0.00702749,6.43999985605478,9
-28.90912,0.4833331,-25.66193,1.4365275805657376,-0.1468794392940803,0.4492961074235637,7.118797,25.59708,359.9669,0.06047686,0.2211138,-0.01403441,6.45999985560775,9
-28.88149,0.683333,-25.60632,1.472594709884767,0.0791037303743708,0.2840905012332371,10.67597,25.01367,359.8964,0.09062807,0.215699,-0.02102553,6.47999985516071,9
-28.83864,0.2833333,-25.49508,1.4916695125198736,0.2590888193301289,0.1027869522374231,3.63731,25.95883,0.04810625,0.03101959,0.2244748,-0.006719101,6.49999985471368,9
-28.81133,0.4833333,-25.43776,1.6146174580260002,0.2073409311472782,-0.0220912051213382,7.273876,25.3886,0.06003471,0.06199825,0.2192742,-0.01342948,6.51999985426664,9
-28.78403,0.6833336,-25.38047,1.7169983900794783,0.1906144163904325,-0.1603559014207682,10.90999,24.81398,0.03575883,0.09291051,0.2138524,-0.02012151,6.53999985381961,9
-28.70175,0.2833331,-25.22549,1.8064409421367136,0.1555935599201217,-0.3033865476415229,3.641535,27.40762,0.1011573,0.03107758,0.2367558,-0.006669916,6.55999985337257,9
-28.67378,0.483333,-25.16841,1.970222733517886,0.1289349685590478,-0.4274169812955115,7.282806,26.84421,0.1666314,0.06211375,0.2315645,-0.01333096,6.57999985292554,9
-28.64582,0.683333,-25.11135,2.1091782896154605,0.1372972720000183,-0.5595130650120161,10.92348,26.27983,0.196308,0.09307651,0.2261386,-0.01997676,6.5999998524785,9
-28.52395,0.2833336,-24.92637,2.23134581845574,0.1273648704472347,-0.69075653772774,3.588346,31.39359,0.2139212,0.03064625,0.2703573,-0.006674244,6.61999985203147,9
-28.49422,0.4833336,-24.87114,2.401566687645211,0.1257965520603734,-0.8192497956986067,7.177574,30.84252,0.393599,0.06125277,0.2651836,-0.01334019,6.63999985158443,9
-28.46451,0.6833338,-24.81593,2.5394653246035723,0.1592495079597154,-0.9538873604487748,10.76725,30.29797,0.5398574,0.09178811,0.2597476,-0.01999133,6.6599998511374,9
-28.43481,0.8833337,-24.76074,2.653282416026439,0.1744080219603816,-1.085676285017204,14.35689,29.75556,0.6519433,0.1222181,0.2540542,-0.02662853,6.67999985069036,9
-28.30644,0.2833333,-24.61212,2.8579787938518635,-0.5223583754839451,-1.1492395158247923,3.521892,35.6191,0.3066584,0.03007487,0.3056302,-0.006852048,6.69999985024333,9
-28.27472,0.4833335,-24.55923,2.9389560439681475,-0.3068297239943216,-1.284319507182751,7.04549,35.07867,0.580458,0.06011111,0.3004904,-0.01369597,6.7199998497963,9
-28.15689,0.2833335,-24.41235,2.9960858596098525,-0.0850285837994866,-1.4065589428699852,3.474608,37.61253,0.3681157,0.02973348,0.3221272,-0.006733712,6.73999984934926,9
-28.1247,0.4833335,-24.36059,3.098485269301154,-0.0693477115086261,-1.5067029656460136,6.951551,37.07857,0.7043093,0.0594299,0.3170107,-0.01345958,6.75999984890223,9
-28.09252,0.6833336,-24.30885,3.1569048780736004,-0.0196912698608486,-1.6014914354606802,10.42992,36.56063,1.008762,0.08905196,0.3115961,-0.02018469,6.77999984845519,9
-28.06035,0.8833333,-24.25711,3.178695614687456,0.0106252624414768,-1.6825274202465934,13.9099,36.05545,1.284803,0.1185813,0.3058897,-0.02688899,6.79999984800816,9
-27.9214,0.2833333,-24.12894,3.354566999525936,-0.6720277068739785,-1.6320741649241557,3.417441,40.883,0.3521003,0.02901321,0.3490081,-0.007536163,6.81999984756112,9
-27.88676,0.4833333,-24.08003,3.346798612054773,-0.4434310439127098,-1.6476063836171555,6.836859,40.34926,0.6711118,0.05798432,0.3439353,-0.0150767,6.83999984711409,9
-27.85213,0.6833333,-24.03113,3.2850161951692414,-0.2096069882236683,-1.646498648796129,10.25808,39.8306,0.9605747,0.08689378,0.3385502,-0.02260137,6.85999984666705,9
-27.67709,0.2833334,-23.88457,3.176745034745704,-0.0228268972903407,-1.620382594246589,3.373701,42.18215,0.2347616,0.02820169,0.3596385,-0.008682257,6.87999984622002,9
-27.64036,0.4833336,-23.8384,3.126068523212165,-0.0688249893283177,-1.6190637474045175,6.748223,41.63936,0.4363136,0.05636285,0.3545999,-0.01736593,6.89999984577298,9
-27.60363,0.6833333,-23.79224,3.021671315853194,-0.0808472083175102,-1.6041275871640046,10.1236,41.10441,0.6071152,0.08446612,0.349249,-0.02603222,6.91999984532595,9
-27.41388,0.2833333,-23.63654,2.87204926674314,-0.1122094710745718,-1.5677722903283744,3.325551,42.49262,0.1147808,0.0274074,0.3621982,-0.00958188,6.93999984487891,9
-27.37594,0.4833335,-23.59261,2.811231006202348,-0.1362537065917124,-1.5589088872022216,6.650711,41.94086,0.1966988,0.05477703,0.35719,-0.01915932,6.95999984443188,9
-27.338,0.6833335,-23.54868,2.7029456891726937,-0.1263218433384275,-1.543605404415768,9.97558,41.38975,0.2466633,0.08209109,0.3518771,-0.02871895,6.97999984398484,9
-27.30008,0.8833335,-23.50477,2.556773043046004,-0.1357299299402681,-1.5145834385903605,13.29982,40.83556,0.2644171,0.1093263,0.3462645,-0.03825112,6.99999984353781,9
-27.13744,0.2833334,-23.38242,2.5475474137521736,-0.1378203468327131,-1.4227915346008864,3.277024,42.37495,359.9815,0.02660239,0.3612772,-0.0104847,7.01999984309077,9
-27.09844,0.4833335,-23.34061,2.4970144894068085,-0.1059350219625627,-1.3263392759035249,6.552721,41.81394,359.9308,0.05317422,0.3563006,-0.02095778,7.03999984264374,9
-27.05947,0.6833335,-23.29881,2.4158621765222072,-0.0933899382687066,-1.218106020337224,9.826508,41.24582,359.8464,0.07968855,0.3510288,-0.03141626,7.0599998421967,9
-26.88503,0.2833333,-23.16689,2.2489001231957992,0.5667876362734532,-1.2083633482320693,3.229153,41.70309,359.8794,0.02595622,0.355834,-0.01101198,7.07999984174967,9
-26.84577,0.4833331,-23.12643,2.2110640627918983,0.3303514776881024,-1.1057118289887595,6.456046,41.13521,359.7267,0.05188374,0.3508796,-0.02201197,7.09999984130263,9
-26.80653,0.683333,-23.08598,2.14894787233899,0.103324242207548,-0.9951322793169516,9.680279,40.55462,359.5403,0.07776088,0.345643,-0.03299097,7.1199998408556,9
-26.61551,0.2833333,-22.94438,1.9613422727695744,0.5516317216870087,-1.023410870869629,3.284252,42.01818,359.8189,0.02618531,0.3584107,-0.01174826,7.13999984040856,9
-26.57459,0.4833333,-22.90412,1.9214822881371096,0.3434207412135404,-0.9511260033669372,6.565618,41.44646,359.6048,0.05234084,0.3534561,-0.02348347,7.15999983996153,9
-26.53368,0.6833333,-22.86387,1.8561500042800847,0.1446179549321168,-0.8790807963144935,9.843724,40.85814,359.3558,0.07844462,0.348207,-0.03519546,7.17999983951449,9
-26.39288,0.2833333,-22.77073,1.7773639528493526,-0.0991376468151158,-0.8006321861012431,3.548912,44.2178,359.8084,0.02805921,0.3762351,-0.01320271,7.19999983906746,9
-26.34704,0.4833332,-22.72889,1.7602106415973855,-0.1221366345088874,-0.7128708900008398,7.094808,43.64499,359.5809,0.05608299,0.3712277,-0.02638954,7.21999983862042,9
-26.30123,0.6833332,-22.68705,1.715011900272092,-0.1111599973518476,-0.6291685934072753,10.63867,43.05272,359.3141,0.08405186,0.3658587,-0.03956026,7.23999983817339,9
-26.09807,0.2833331,-22.5582,1.5509460620354254,0.3606685975984759,-0.6556360366981977,3.565716,47.60154,359.8728,0.02801803,0.4033936,-0.01357052,7.25999983772635,9
-26.05042,0.4833328,-22.51813,1.3715484887826257,0.8152477875618371,-0.6844545220022908,7.129093,47.03623,359.709,0.05599682,0.3984105,-0.02713358,7.27999983727932,9
-26.00278,0.6833328,-22.47807,1.3362043046647578,0.3476001954045069,-0.6267189081632765,10.68961,46.45558,359.5078,0.08391166,0.3930369,-0.04066604,7.29999983683228,9
-25.78341,0.2833333,-22.33549,1.291566905438028,-0.1372963385356357,-0.5692574359111653,3.596449,50.09623,359.9906,0.02839375,0.423173,-0.01336012,7.31999983638525,9
-25.73496,0.4833333,-22.29559,1.1226817926120134,0.265535454065298,-0.5972999736809115,7.191872,49.54364,359.9461,0.0567517,0.4182074,-0.02670633,7.33999983593822,9
-25.68653,0.6833335,-22.25571,1.118251994567906,0.0108036705245924,-0.5245427372595728,10.78564,48.98327,359.8659,0.08504409,0.4128252,-0.04002193,7.35999983549118,9
-25.63812,0.8833334,-22.21583,1.1053234588575336,-0.2355648210520113,-0.4519995661450053,14.37746,48.41037,359.7484,0.1132429,0.4070323,-0.05329396,7.37999983504415,9
-25.45171,0.2833333,-22.10064,0.9287908429082812,0.1923561804690661,-0.4900814462119918,3.555957,51.64457,0.08172765,0.02823908,0.4353515,-0.01287292,7.39999983459711,9
-25.40375,0.4833331,-22.06125,0.9309350242382556,-0.0372860499499548,-0.4173097656965012,7.111261,51.10285,0.1298632,0.05644005,0.4304271,-0.02572903,7.41999983415008,9
-25.35581,0.683333,-22.02188,0.9197154914323348,-0.2585646724294275,-0.3486117988465373,10.66582,50.55943,0.1443172,0.0845772,0.4250831,-0.03855607,7.43999983370304,9
-25.151,0.2833333,-21.89364,0.7250399782662278,0.1944467409312771,-0.4083512301779279,3.624398,53.30936,0.1043287,0.02867104,0.4483619,-0.01337344,7.45999983325601,9
-25.10117,0.4833333,-21.85463,0.5216035470899847,0.6302083145883217,-0.4704699557523177,7.24859,52.77146,0.17473,0.05730447,0.4434364,-0.02672967,7.47999983280897,9
-25.05136,0.6833333,-21.81564,0.4712880595015427,0.1437435641017624,-0.4448579286482967,10.87286,52.23308,0.2105579,0.08587335,0.4380613,-0.04006247,7.49999983236194,9
-24.82969,0.2833334,-21.67486,0.4193130866386632,-0.3599702827141824,-0.4189193674473159,3.637898,54.15834,0.1066853,0.02868537,0.4549654,-0.01362079,7.5199998319149,9
-24.77913,0.4833333,-21.63642,0.229576146869963,0.0240439229390558,-0.4796657472765133,7.275587,53.62232,0.1794277,0.05733271,0.4500534,-0.02722398,7.53999983146787,9
-24.72859,0.6833335,-21.598,0.2123724903710417,-0.2495056954859671,-0.4375841773481994,10.91271,53.08607,0.2182647,0.08591231,0.4446823,-0.04079542,7.55999983102083,9
-24.67806,0.8833334,-21.55959,0.1942530539171976,-0.514692044684576,-0.393832772577376,14.54921,52.54506,0.2221004,0.1143952,0.4388575,-0.05432535,7.5799998305738,9
-24.49034,0.2833336,-21.44576,0.0264649778739602,-0.1055884582282192,-0.4492721674935325,3.590026,56.05746,0.1774183,0.02837702,0.4696403,-0.01335346,7.59999983012676,9
-24.43993,0.4833338,-21.40847,-0.1335546148688671,0.2862660265845786,-0.4992816981562846,7.180483,55.53027,0.3220292,0.05671706,0.4647765,-0.02668977,7.61999982967973,9
-24.38953,0.6833338,-21.37118,-0.0487222029491611,-0.2441054071267934,-0.40546653203182,10.77109,55.0076,0.4344656,0.08499201,0.4594499,-0.03999555,7.63999982923269,9
-24.18548,0.2833335,-21.24515,-0.1356710753864263,-0.0714382273666441,-0.4276565459183921,3.528325,57.56386,0.2475237,0.02802174,0.4811897,-0.01293022,7.65999982878566,9
-24.13567,0.4833333,-21.20872,-0.2212426973589139,0.1116830402986242,-0.4508825010318809,7.057785,57.04465,0.4634292,0.05600837,0.4763731,-0.02584424,7.67999982833862,9
-24.08588,0.6833331,-21.17231,-0.292413061005135,0.2529879577372992,-0.4683367076783753,10.58798,56.5345,0.648827,0.08393195,0.471097,-0.03872957,7.69999982789159,9
-23.86611,0.2833333,-21.03421,-0.3129465690382282,0.1667415212817266,-0.45939008113222,3.467978,57.76774,0.2791054,0.02767086,0.4827488,-0.01248455,7.71999982744455,9
-23.81736,0.4833333,-20.99804,-0.327162990004318,0.119698107631796,-0.4491024973033539,6.93701,57.25277,0.5275841,0.05530567,0.4779689,-0.0249511,7.73999982699752,9
-23.76863,0.6833333,-20.96189,-0.3227146968991263,0.058541867748325,-0.4309362787114672,10.40701,56.74883,0.7466019,0.08287949,0.4727429,-0.03739056,7.75999982655048,9
-23.71991,0.8833332,-20.92575,-0.3193226521276635,0.0099306612918659,-0.4135352312098099,13.87779,56.25246,0.9370421,0.1103674,0.4670759,-0.04979147,7.77999982610345,9
-23.53332,0.2833332,-20.81217,-0.3146595793514031,0.0005226151996984,-0.3955837835770666,3.416408,57.02285,0.2404636,0.0271953,0.4770659,-0.01238587,7.79999982565641,9
-23.48544,0.4833332,-20.77643,-0.2967201887911592,-0.0229983170629028,-0.370434899640351,6.83346,56.50626,0.4505061,0.05435494,0.4723163,-0.02475461,7.81999982520938,9
-23.43757,0.6833334,-20.7407,-0.2862740596864626,-0.0339748739846555,-0.3520839220940317,10.25125,55.99826,0.6310788,0.08145678,0.4671394,-0.03709748,7.83999982476234,9
-23.23514,0.2833333,-20.61568,-0.2847121460966768,-0.0057485427845407,-0.3388246880666443,3.3676,55.53045,0.1443618,0.02658711,0.4656155,-0.01257408,7.85999982431531,9
-23.18796,0.4833333,-20.58057,-0.2800548753509311,0.0083644812058983,-0.324173820462704,6.735016,55.00671,0.2580473,0.05313966,0.4608847,-0.02513228,7.87999982386827,9
-23.1408,0.6833329,-20.54547,-0.2602969489583628,-0.0449514248081773,-0.3016613757170567,10.10242,54.48571,0.3414847,0.07963802,0.45575,-0.03766491,7.89999982342124,9
-22.92296,0.2833333,-20.40943,-0.2400119873685327,-0.1123805041322176,-0.2801008037379802,3.316104,53.87423,0.02927978,0.02591087,0.452816,-0.01287996,7.91999982297421,9
-22.87638,0.4833333,-20.37513,-0.2151663335773079,-0.1406064270122549,-0.2567755084529715,6.631369,53.34195,0.02775962,0.05179191,0.4481024,-0.02574511,7.93999982252717,9
-22.8298,0.6833333,-20.34083,-0.1738049907818926,-0.1829451353548078,-0.2251928783036625,9.945125,52.80558,-0.005147916,0.07761733,0.4430087,-0.03858426,7.95999982208014,9
-22.78323,0.883333,-20.30655,-0.1353744487537902,-0.2127394492777655,-0.197217743402188,13.25752,52.2614,359.9297,0.103369,0.4375395,-0.05138713,7.9799998216331,9
-22.59691,0.2833333,-20.19416,-0.0982423854786382,-0.203330830910246,-0.1704131550937084,3.265365,52.16171,359.9154,0.02526627,0.4394793,-0.01318878,7.99999982118607,9
-22.55086,0.4833335,-20.1606,-0.0508154989039404,-0.2080354504939273,-0.1383327960996432,6.528808,51.62181,359.7999,0.05050377,0.4347849,-0.02636271,8.01999982073903,9
-22.50482,0.6833334,-20.12704,-0.0141177428785219,-0.200194997970392,-0.116441621632795,9.789781,51.07136,359.6523,0.0756892,0.4297326,-0.03951075,8.039999820292,9
-22.30373,0.2833332,-20.00297,0.0103547689127516,-0.1531515095735822,-0.1027933553596227,3.215583,49.53044,359.806,0.02476838,0.4187785,-0.01328967,8.05999981984496,9
-22.2587,0.4833332,-19.96933,0.0340898478499944,-0.1202212889221852,-0.0908269461545288,6.428236,48.98309,359.5811,0.04950932,0.4140906,-0.02656452,8.07999981939793,9
-22.21369,0.6833329,-19.93571,0.0685852628519612,-0.1547198536601263,-0.0739798444691928,9.637666,48.41916,359.3234,0.07420316,0.4090714,-0.03981416,8.09999981895089,9
-22.16869,0.8833328,-19.90209,0.0970818051553408,-0.2033318216113147,-0.0611233114350717,12.84317,47.83475,359.0309,0.09882864,0.4037254,-0.05302418,8.11999981850386,9
-21.91394,0.2833333,-19.74534,0.1233344077929352,-0.2127414653527026,-0.0490907102959923,3.399443,49.71299,359.7881,0.02613667,0.4202111,-0.01414514,8.13999981805682,9
-21.8661,0.4833334,-19.71001,0.1589238975800455,-0.2362642790064646,-0.0311731775354004,6.795765,49.1649,359.5433,0.05224213,0.4154824,-0.02827369,8.15999981760979,9
-21.81828,0.6833334,-19.67469,0.18578799590437,-0.2472412758719747,-0.0187102155726996,10.18865,48.59774,359.2635,0.07829328,0.4103826,-0.0423731,8.17999981716275,9
-21.77048,0.8833335,-19.63938,0.2048892648589273,-0.2190152658743616,-0.0090748287620066,13.57911,48.00694,358.9454,0.1042773,0.4049159,-0.05643794,8.19999981671572,9
-21.58861,0.2833333,-19.5316,0.2279919747382308,-0.2049022725493094,0.0045431031713398,3.533116,51.4517,359.8262,0.02711391,0.4339009,-0.01474642,8.21999981626868,9
-21.53832,0.4833333,-19.49578,0.2361067852487295,-0.1782442115600369,0.007956587578068,7.064295,50.90823,359.6182,0.05419846,0.4291547,-0.02948154,8.23999981582165,9
-21.48804,0.6833335,-19.45997,0.2275872526170772,-0.1123832514720802,0.0028046545261588,10.59249,50.34703,359.3741,0.08122373,0.423995,-0.04418484,8.25999981537461,9
-21.29081,0.2833335,-19.34049,0.2144483192497439,-0.0606353485663606,-0.0040738356217744,3.577038,53.21265,359.9251,0.02761303,0.4476577,-0.0145616,8.27999981492758,9
-21.23987,0.4833334,-19.30439,0.2086974441536746,-0.0763162323567415,-0.0058776572955494,7.15258,52.67984,359.8168,0.05519328,0.4429204,-0.02910656,8.29999981448054,9
-21.18894,0.6833335,-19.2683,0.1959206498364807,-0.106110385722007,-0.0127271285790087,10.72591,52.13542,359.6736,0.0827105,0.4377468,-0.04361854,8.31999981403351,9
-20.97556,0.2833335,-19.13621,0.1789499718700504,-0.0967015055661729,-0.0207664342867879,3.572336,54.40334,0.05320853,0.02793436,0.4568889,-0.01383553,8.33999981358647,9
-20.92525,0.4833335,-19.09939,0.1699619818989717,-0.1014056943534431,-0.0231281220678951,7.14399,53.88422,0.07452562,0.05583474,0.4521737,-0.02765008,8.35999981313944,9
-20.87496,0.6833335,-19.06259,0.1524675095090799,-0.0935652001877056,-0.0317343279754993,10.71466,53.36187,0.06314638,0.08367155,0.4470143,-0.0414335,8.3799998126924,9
-20.82468,0.8833335,-19.02579,0.1271541998600724,-0.0465216853071527,-0.0437952423268477,14.28406,52.83204,0.0180823,0.1114175,0.4414162,-0.05517213,8.39999981224537,9
-20.64407,0.2833333,-18.91858,0.1063773027441143,-0.0135906391296098,-0.0523113860847885,3.59621,55.20022,0.07691939,0.02811783,0.4630508,-0.01394264,8.41999981179833,9
-20.59313,0.4833333,-18.8819,0.0721777825877474,0.0318846785446301,-0.0710123933381901,7.191928,54.68539,0.1215941,0.0561992,0.4583479,-0.0278674,8.4399998113513,9
-20.54222,0.6833334,-18.84523,0.0228207538546207,0.1165630190245105,-0.0982079479025941,10.78711,54.16876,0.13365,0.08421704,0.4531884,-0.0417629,8.45999981090426,9
-20.3443,0.2833332,-18.72577,-0.0292649367351138,0.1871283059810943,-0.1267456358370111,3.642599,55.94614,0.09853686,0.02847225,0.4687952,-0.01414865,8.47999981045723,9
-20.29243,0.4833332,-18.68898,-0.0716238977361491,0.1902650499965523,-0.1494672847288143,7.284853,55.43496,0.164668,0.05690657,0.4640913,-0.02827878,8.49999981001019,9
-20.24057,0.683333,-18.65221,-0.0312079287361974,0.1792883023744257,-0.1187485560181755,10.92653,54.92334,0.1984167,0.08527427,0.4589133,-0.04237596,8.51999980956316,9
-20.02595,0.2833332,-18.52146,-0.0034264474934779,0.2075142195047024,-0.0939295166462752,3.605112,57.26154,0.1456802,0.028218,0.4788907,-0.01395693,8.53999980911613,9
-19.97425,0.4833332,-18.48554,0.0247579264011683,0.221627070828107,-0.0675438680472702,7.210309,56.75637,0.2597561,0.05639907,0.474222,-0.02789581,8.55999980866909,9
-19.92257,0.6833332,-18.44964,-0.1197283151201453,0.888599267689443,-0.1408055152315555,10.8153,56.25394,0.3426012,0.08451463,0.4690784,-0.04180273,8.57999980822206,9
-19.8709,0.8833333,-18.41374,-0.1048569964911045,0.664184664605827,-0.1245240853882165,14.4196,55.75021,0.3937077,0.1125337,0.4634652,-0.05566493,8.59999980777502,9
-19.69139,0.2833332,-18.30744,-0.0875752477975062,0.45440627586281,-0.105696322062359,3.544568,58.64311,0.2242209,0.02792272,0.4894225,-0.01344018,8.61999980732799,9
-19.64046,0.4833329,-18.27215,-0.0550029881243645,0.2049023105321161,-0.077168687496183,7.089926,58.14722,0.4180628,0.05580983,0.4848027,-0.02686343,8.63999980688095,9
-19.58954,0.6833328,-18.23687,-0.0761902787155861,0.1813806837682035,-0.084232685809594,10.63574,57.65922,0.582539,0.08363374,0.4797121,-0.04025652,8.65999980643392,9
-19.39356,0.2833333,-18.11868,-0.1058800878758727,0.1970619537507981,-0.0970982790716465,3.483173,59.06875,0.2691724,0.02759995,0.4926544,-0.01293863,8.67999980598688,9
-19.34369,0.4833332,-18.08363,-0.132189918048903,0.1986301508699935,-0.109103856338848,6.967539,58.57827,0.5089041,0.0551657,0.4880729,-0.02586125,8.69999980553985,9
-19.29384,0.683333,-18.0486,0.0411626537490299,-0.5075450887469071,-0.0068108956132117,10.45237,58.09855,0.7206654,0.08266848,0.4830328,-0.03875285,8.71999980509281,9
-19.0816,0.2833333,-17.91885,0.0594271061191626,-0.2972432193779666,0.009737932916737,3.428501,58.58497,0.259003,0.02719504,0.4889889,-0.01266601,8.73999980464578,9
-19.03276,0.4833333,-17.88403,0.0747399627567464,-0.076487134215307,0.0241002148396152,6.857707,58.09484,0.489176,0.05435466,0.4844365,-0.0253138,8.75999980419874,9
-18.98393,0.6833333,-17.84921,0.0988249494363611,0.1024522617462729,0.0430489322075011,10.28775,57.61477,0.6915888,0.08145652,0.4794431,-0.03793491,8.77999980375171,9
-18.93511,0.8833334,-17.81441,0.1135498495560618,0.0538402967570842,0.056098779141962,13.71834,57.14151,0.8669838,0.1084755,0.4740136,-0.05051777,8.79999980330467,9
-18.75596,0.2833332,-17.70836,0.1212825449564221,0.0444312392298637,0.0668486262505734,3.381009,56.85252,0.1565742,0.02659384,0.4757842,-0.01284197,8.81999980285764,9
-18.70791,0.4833333,-17.67403,0.1336878525075295,0.0209089178775176,0.0818159832949643,6.761845,56.35505,0.2839822,0.05315293,0.4712529,-0.02566702,8.8399998024106,9
-18.65988,0.6833335,-17.63972,0.1329998153187102,0.0099317484320911,0.0852821041409104,10.14269,55.86135,0.3826931,0.07965701,0.4663059,-0.03846571,8.85999980196357,9
-18.46486,0.2833332,-17.52258,0.1187012599023038,0.038157467369885,0.0800370772477041,3.32888,55.332,0.06218024,0.02597687,0.4641066,-0.01300609,8.87999980151653,9
-18.41756,0.4833333,-17.48887,0.1025306436151431,0.0522700101228351,0.0725404966125129,6.656796,54.82766,0.09508122,0.05192044,0.4595945,-0.02599578,8.8999998010695,9
-18.37027,0.6833334,-17.45516,0.281282449126838,-0.6413602155813859,0.1763537635739052,9.98391,54.32148,0.09853685,0.07781158,0.4546901,-0.03895954,8.91999980062246,9
-18.15938,0.2833332,-17.32731,0.3044175318971707,-0.4185135833726234,0.1940258512768373,3.27843,53.6623,359.9414,0.02529533,0.451191,-0.01336784,8.93999980017543,9
-18.11255,0.4833333,-17.29446,0.3219996271445708,-0.1852128530659842,0.2073684394006019,6.555194,53.14907,359.8533,0.05056155,0.446695,-0.02672053,8.95999979972839,9
-18.06574,0.6833333,-17.26161,0.3457653714683477,0.0062712031980324,0.2229369338520666,9.829761,52.62697,359.7345,0.07577477,0.441829,-0.04004741,8.97999979928136,9
-18.01894,0.8833334,-17.22877,0.3575976370305422,-0.0297955132708482,0.2276827857487209,13.10215,52.09234,359.5839,0.1009172,0.4365976,-0.05333695,8.99999979883432,9
-17.75816,0.2833333,-17.07013,0.3598564650900542,-0.0266593188801761,0.2258651123802817,3.222377,50.31343,359.792,0.02467854,0.4249731,-0.01359469,9.01999979838729,9
-17.71243,0.4833333,-17.03722,0.3640961725840128,-0.0376360360111498,0.2240684866182274,6.441795,49.78975,359.5543,0.04932973,0.4204848,-0.0271743,9.03999979794025,9
-17.66673,0.6833332,-17.00431,0.3511837449133725,-0.036067912244952,0.2086863279491684,9.657942,49.24886,359.2849,0.07393359,0.415659,-0.04072804,9.05999979749322,9
-17.62103,0.8833332,-16.97142,0.3207190074944339,0.0047031244716221,0.1824328715593814,12.87014,48.687,358.9818,0.09846909,0.4105002,-0.05424115,9.07999979704618,9
-17.43187,0.2833334,-16.85822,0.2843189583600374,0.031361011661331,0.152097843498753,3.372635,49.87461,359.7773,0.02586505,0.4214948,-0.01416859,9.09999979659915,9
-17.38419,0.4833335,-16.82346,0.2535927201143693,-0.0094104203948011,0.1244234210447352,6.742194,49.35057,359.5235,0.0516999,0.4169714,-0.0283207,9.11999979615211,9
-17.33653,0.6833334,-16.7887,0.3064265938669805,-0.0642944299637955,0.148193773888293,10.10835,48.80731,359.2362,0.07748181,0.4120817,-0.04244404,9.13999979570508,9
-17.12972,0.2833333,-16.66458,0.3437603778885609,-0.0799751669610631,0.1636610290051319,3.537254,51.79321,359.8161,0.02706363,0.4365844,-0.01492261,9.15999979525805,9
-17.07904,0.4833334,-16.62914,0.3778825724848058,-0.1097687856857662,0.1779367160578253,7.071826,51.27301,359.5996,0.05409346,0.4320283,-0.02982812,9.17999979481101,9
-17.02839,0.6833334,-16.59372,0.2469046602749021,0.5132960617626542,0.0986000292786233,10.60446,50.73468,359.348,0.08107051,0.4270551,-0.04470886,9.19999979436398,9
-16.805,0.2833333,-16.45827,0.2564396266561672,0.2449743232268868,0.0962244201089213,3.567595,53.33578,359.8802,0.02734798,0.4486296,-0.01490426,9.21999979391694,9
-16.75366,0.4833333,-16.423,0.2623903146236106,-0.0087114400189083,0.0931789813238328,7.133196,52.82291,359.7281,0.05466186,0.4440837,-0.02979243,9.23999979346991,9
-16.70233,0.6833334,-16.38774,0.0822698832870294,0.4181649491143997,-0.0171351472303538,10.69625,52.2959,359.542,0.08191376,0.439103,-0.04464694,9.25999979302287,9
-16.65102,0.8833334,-16.35249,0.0592167781552674,0.1937501022758075,-0.03979310446263,14.25642,51.75017,359.3197,0.1090769,0.4336928,-0.0594535,9.27999979257584,9
-16.4624,0.2833332,-16.23929,0.0284289826306132,-0.0160289923809271,-0.0662631525689843,3.590418,54.55413,0.03708965,0.02799188,0.4580598,-0.01406952,9.2999997921288,9
-16.41158,0.4833331,-16.20264,0.0025360274804206,-0.2655339288112347,-0.0893754279581564,7.180191,54.05808,0.04377174,0.05595186,0.4535289,-0.02811665,9.31999979168177,9
-16.36078,0.683333,-16.166,0.0123644668387044,-0.2890553153919919,-0.0881120750117396,10.76886,53.55802,0.01892897,0.08384782,0.4485486,-0.04213182,9.33999979123473,9
-16.15483,0.2833332,-16.04221,0.0134234855114634,-0.2733740330387031,-0.0910413773568006,3.568605,55.56221,0.07297973,0.02784461,0.4658512,-0.01394957,9.3599997907877,9
-16.10404,0.4833332,-16.00617,0.0187317771880284,-0.271805944119535,-0.0907658680239684,7.136518,55.07096,0.1152093,0.05565149,0.4613459,-0.02788252,9.37999979034066,9
-16.05326,0.6833331,-15.97015,-0.1351833215075473,0.3826213504267384,-0.1793495104794917,10.70365,54.57806,0.1267653,0.08339547,0.4563888,-0.04178405,9.39999978989363,9
-15.82908,0.2833335,-15.83377,-0.1371291274061423,0.1456613988118357,-0.1852170969916304,3.646974,56.23767,0.09752101,0.02846565,0.4710391,-0.01424684,9.41999978944659,9
-15.77695,0.4833333,-15.79721,-0.1334554663597416,-0.0766629062948244,-0.1867439021985308,7.293639,55.75031,0.1641447,0.05689404,0.4665188,-0.02847509,9.43999978899956,9
-15.72484,0.6833333,-15.76066,-0.3074626047739457,0.3815756356531645,-0.2894653158728477,10.93968,55.26275,0.1998546,0.08525537,0.4615214,-0.04267028,9.45999978855252,9
-15.67274,0.8833332,-15.72412,-0.3137236229693538,0.1885231822479977,-0.2964224470562993,14.58556,54.77092,0.2039123,0.1135255,0.4560522,-0.05682163,9.47999978810549,9
-15.48323,0.2833333,-15.61282,-0.3179391727596865,0.010106362022084,-0.299630203308288,3.619202,57.00076,0.1163818,0.02823577,0.4768982,-0.01417592,9.49999978765845,9
-15.43122,0.4833333,-15.57695,-0.3069125182663068,-0.208036085493936,-0.2915379649616056,7.238201,56.51716,0.2023501,0.05643447,0.4724085,-0.02833346,9.51999978721142,9
-15.37923,0.6833332,-15.5411,-0.3475464902876393,-0.20019544793267,-0.3146935813445708,10.85675,56.03469,0.2580852,0.08456758,0.4674428,-0.04245846,9.53999978676438,9
-15.17292,0.2833333,-15.41845,-0.3954241144868842,-0.1531519136248968,-0.3401372275984951,3.56018,59.01458,0.215312,0.02795924,0.492245,-0.01366533,9.55999978631735,9
-15.12145,0.4833333,-15.38348,-0.4375057802446491,-0.1202211048427479,-0.3606345121436796,7.120979,58.54166,0.401532,0.05588257,0.4878018,-0.02731328,9.57999978587031,9
-15.07,0.6833332,-15.34851,-0.4607877955181259,-0.1547192158723555,-0.3689236623466048,10.68213,58.07637,0.5596535,0.08374256,0.4828817,-0.04093043,9.59999978542328,9
-15.01857,0.883333,-15.31356,-0.4773778480849326,-0.2033308614013957,-0.3764159045265547,14.24307,57.61522,0.6898868,0.1115084,0.4774899,-0.0545039,9.61999978497624,9
-14.76124,0.2833333,-15.16004,-0.4845021927429851,-0.2127396444211355,-0.3780412048643793,3.491224,59.60483,0.2708657,0.02760739,0.496716,-0.0130897,9.63999978452921,9
-14.71096,0.4833333,-15.12535,-0.4699573559403873,-0.2362615206897855,-0.3670817702923408,6.983533,59.13871,0.5137097,0.05518035,0.4923182,-0.0261631,9.65999978408217,9
-14.66068,0.6833333,-15.09068,-0.6126086486781599,0.3930759093765886,-0.4440694536095186,10.4762,58.68376,0.7300659,0.08268996,0.4874565,-0.03920487,9.67999978363514,9
-14.61042,0.8833332,-15.05602,-0.5393488658100356,0.1310260483291175,-0.4017056575831628,13.96945,58.23682,0.9207069,0.1101131,0.4821356,-0.05220583,9.6999997831881,9
-14.43082,0.2833335,-14.95096,-0.4570200823373529,-0.1163881967883819,-0.3536301196757438,3.430614,59.0374,0.2584929,0.02715866,0.4924268,-0.01278623,9.71999978274107,9
-14.38167,0.4833335,-14.91651,-0.5611455264192262,0.3167600554588212,-0.4131488996114871,6.861794,58.57181,0.4896518,0.05428189,0.4880637,-0.02555363,9.73999978229403,9
-14.33254,0.6833335,-14.88206,-0.4917987688482963,0.0986174290033023,-0.3726879082483592,10.29375,58.11653,0.6945164,0.08134747,0.4832563,-0.03829429,9.759999781847,9
-14.1363,0.2833333,-14.76611,-0.4238128400791563,-0.104889674389581,-0.3303556487843551,3.381622,57.58099,0.1617808,0.02653822,0.4813616,-0.01297354,9.77999978139997,9
-14.08787,0.4833333,-14.73231,-0.3454506417891476,-0.3481223956638684,-0.2795751711361749,6.7631,57.10796,0.2957456,0.05304172,0.477019,-0.0259309,9.79999978095293,9
-14.03945,0.6833332,-14.69851,-0.2255497118961713,-0.3653718895978735,-0.2026639596268609,10.1446,56.63927,0.4025274,0.07949039,0.4722559,-0.03886165,9.8199997805059,9
-13.82737,0.2833335,-14.57156,-0.1124758553579852,-0.3434183311933798,-0.129718357583501,3.32912,55.91579,0.06167707,0.02591007,0.468611,-0.01314312,9.83999978005886,9
-13.77973,0.4833334,-14.53832,0.005781479506286,-0.3355778757949637,-0.0542016545307664,6.657284,55.43533,0.09548207,0.05178724,0.4642873,-0.02626962,9.85999977961183,9
-13.7321,0.6833335,-14.50509,-0.0450494130830154,0.3251213159281767,-0.0741932302612031,9.984647,54.95323,0.1012631,0.07761224,0.4595678,-0.03936986,9.87999977916479,9
-13.68449,0.8833333,-14.47187,0.0611486365286442,0.0944341907733238,-0.0090694884568254,13.31104,54.46616,0.0783929,0.1033634,0.4544569,-0.05243284,9.89999977871776,9
-13.50456,0.2833332,-14.36789,0.1697047236950037,-0.1216172768964776,0.0575362888322832,3.278207,54.14458,359.94,0.02523178,0.4549414,-0.01348373,9.91999977827072,9
-13.45746,0.4833332,-14.33544,0.0842088591662832,0.3428932084878141,0.0116084430931184,6.55481,53.65554,359.852,0.05043492,0.4506375,-0.02695222,9.93999977782369,9
-13.41036,0.6833333,-14.303,0.1646208991636495,0.1561129362628102,0.0568604655275848,9.829222,53.15783,359.7347,0.0755851,0.4459612,-0.0403942,9.95999977737665,9
-13.21517,0.2833334,-14.18766,0.2360872447729569,-0.0160316661935579,0.0960575115448527,3.228312,51.89007,359.8429,0.02473002,0.4373694,-0.01355631,9.97999977692962,9
-13.16903,0.4833333,-14.15525,0.3101458174037059,-0.2279018337380819,0.1356091260947973,6.45425,51.39439,359.6577,0.049433,0.433077,-0.02709765,9.99999977648258,9
-13.12291,0.6833334,-14.12284,0.4171490773433515,-0.2137887483297522,0.1961362309860899,9.677463,50.88466,359.4427,0.0740882,0.4284367,-0.04061301,10.0199997760355,9
-12.91115,0.2833334,-13.99585,0.5081758625131538,-0.1604728522470809,0.2469462850512211,3.281981,50.4955,359.782,0.02509019,0.4264069,-0.01393409,10.0399997755885,9
-12.8644,0.4833334,-13.96254,0.5950249591909671,-0.1212698621976485,0.2947633886706313,6.56102,49.99571,359.5351,0.05015194,0.4220988,-0.02785256,10.0599997751415,9
-12.81766,0.6833336,-13.92924,0.5042513028488376,0.5707918338595919,0.2420696870970466,9.836795,49.47794,359.2573,0.07516424,0.4174399,-0.04174365,10.0799997746944,9
-12.77094,0.8833337,-13.89595,0.5587311760752574,0.3714670888091745,0.2690295711958175,13.10951,48.93837,358.946,0.1001109,0.4124344,-0.05559698,10.0999997742474,9
-12.5864,0.2833335,-13.78981,0.6042588298072769,0.1867781027357885,0.291948602378655,3.533558,51.96504,359.798,0.02694324,0.4379368,-0.0150906,10.1199997738004,9
-12.53547,0.4833336,-13.75479,0.6527770121164416,-0.0376363443202498,0.3175866427907241,7.064293,51.4668,359.565,0.05385285,0.433567,-0.03016266,10.1399997733533,9
-12.48456,0.6833335,-13.71979,0.4690383003762743,0.6042459749064327,0.2103607364630146,10.59386,50.94955,359.2979,0.08071616,0.4287795,-0.04521355,10.1599997729063,9
-12.43368,0.8833336,-13.68479,0.4878603139421802,0.3547415072557986,0.2159487191161133,14.11984,50.40884,358.9945,0.1074934,0.4235798,-0.06021651,10.1799997724593,9
-12.19963,0.2833335,-13.55002,0.4918402098192231,0.1198729058239308,0.2141609183644153,3.566095,54.32706,359.8853,0.02722671,0.4563381,-0.0150947,10.1999997720122,9
-12.14777,0.4833334,-13.51558,0.4931522188027273,-0.1547213027738792,0.2117345632069902,7.130328,53.83866,359.7396,0.0544189,0.4519842,-0.03017481,10.2199997715652,9
-12.09591,0.6833333,-13.48114,0.5236434434492843,-0.2033326457435793,0.2285918140898424,10.69216,53.33673,359.5616,0.08154957,0.4471886,-0.04522114,10.2399997711182,9
-11.88901,0.2833334,-13.35825,0.53738515813221,-0.2127412318775979,0.2363693837534111,3.590264,55.7141,0.04200796,0.02786689,0.4670277,-0.01431359,10.2599997706711,9
-11.83752,0.4833333,-13.32256,0.546980554491002,-0.2362630046505683,0.242015831011555,7.179938,55.24193,0.05501099,0.05570184,0.4626838,-0.02860543,10.2799997702241,9
-11.78604,0.6833333,-13.28687,0.3884090640661064,0.3930744472823161,0.1546131195641162,10.76858,54.76637,0.03807736,0.08347324,0.4578821,-0.04286477,10.2999997697771,9
-11.56189,0.2833333,-13.15308,0.3719636702336171,0.1310249912444547,0.1427816032129811,3.568675,56.46786,0.07027507,0.02772287,0.4728263,-0.01419027,10.31999976933,9
-11.51052,0.4833333,-13.11787,0.3511819894916126,-0.1163885862910613,0.1293324441589316,7.136647,55.99973,0.1113132,0.05540874,0.4685057,-0.02836315,10.339999768883,9
-11.45916,0.6833331,-13.08268,0.1423022108747478,0.3167599963931065,0.0094497566861928,10.70383,55.53006,0.1231121,0.08303209,0.4637269,-0.04250426,10.359999768436,9
-11.40782,0.8833329,-13.04749,0.0915996154678975,0.0986177890602434,-0.0244760923181264,14.26998,55.05511,0.1049496,0.1105657,0.4584951,-0.05659967,10.3799997679889,9
-11.21655,0.2833335,-12.93657,0.0327179446573229,-0.1048887003279676,-0.0628886097199128,3.646796,56.96545,0.09403522,0.02835874,0.4766292,-0.01445332,10.3999997675419,9
-11.16393,0.4833333,-12.90072,-0.0215215868592864,-0.348120612192862,-0.0986381432052976,7.293235,56.50152,0.1586606,0.05668045,0.472295,-0.02888785,10.4199997670949,9
-11.11133,0.6833332,-12.86487,-0.0415467594828058,-0.3653695399497415,-0.1109091241666426,10.93904,56.03749,0.1939045,0.08493574,0.4674785,-0.04328871,10.4399997666478,9
-10.90351,0.2833332,-12.74345,-0.0711520576253192,-0.3434156580776882,-0.1269519563939063,3.619254,57.9442,0.1199015,0.02813336,0.4841129,-0.01438126,10.4599997662008,9
-10.85096,0.4833331,-12.70838,-0.0971738980015581,-0.3355749223349149,-0.1394198230761958,7.23829,57.48413,0.2108803,0.05622977,0.4798057,-0.02874389,10.4799997657537,9
-10.79841,0.683333,-12.67332,-0.2842270728274005,0.3251247061957505,-0.2405100385528094,10.85687,57.02573,0.2731866,0.08426073,0.4750156,-0.04307344,10.4999997653067,9
-10.57365,0.2833333,-12.54084,-0.2275268949333977,0.0944376412391405,-0.203169772983637,3.56038,59.76796,0.2133005,0.02786156,0.4979538,-0.01386493,10.5199997648597,9
-10.52171,0.4833332,-12.50657,-0.1740292514638426,-0.1216137970720361,-0.1665268226250216,7.1213,59.31797,0.3989299,0.05568746,0.4936907,-0.02771231,10.5399997644126,9
-10.4698,0.6833332,-12.4723,-0.3091195871627405,0.3428972460389735,-0.2367623972612555,10.6825,58.87578,0.5578795,0.08345016,0.4889453,-0.04152861,10.5599997639656,9
-10.41789,0.8833329,-12.43804,-0.4441809057395263,0.7964312418433945,-0.3071615525692301,14.24343,58.43808,0.6905077,0.1111195,0.4837228,-0.05530003,10.5799997635186,9
-10.22865,0.2833334,-12.32859,-0.4123149126079619,0.3340109204492314,-0.2895645689282418,3.498219,60.13134,0.2579981,0.02754353,0.5006981,-0.01334412,10.5999997630715,9
-10.17783,0.4833333,-12.29449,-0.3703296250241781,-0.139386477523027,-0.2671711529261653,6.997352,59.68711,0.4892503,0.05505293,0.4964755,-0.02667163,10.6199997626245,9
-10.12703,0.6833332,-12.26041,-0.4707957293178841,0.2812168877418066,-0.3204241754704675,10.49671,59.25352,0.6952475,0.08249947,0.4917839,-0.03996683,10.6399997621775,9
-10.07624,0.8833331,-12.22633,-0.3916203485705454,0.0505292315182129,-0.275655821104058,13.99649,58.82755,0.8766803,0.1098595,0.4866281,-0.05322037,10.6599997617304,9
-9.835382,0.2833333,-12.08665,-0.3082415482841405,-0.165522592985177,-0.2289234445540682,3.435601,59.82404,0.2650537,0.02713649,0.4983841,-0.01294446,10.6799997612834,9
-9.785757,0.4833334,-12.05272,-0.2082656493614942,-0.4213000740501744,-0.1733453671692721,6.871707,59.382,0.5041746,0.0542375,0.494198,-0.02586965,10.6999997608364,9
-9.736146,0.6833333,-12.0188,-0.114405297964069,-0.4510946070738362,-0.1168584618120931,10.30856,58.95095,0.7184802,0.0812809,0.4895613,-0.03876765,10.7199997603893,9
-9.522599,0.2833335,-11.89333,-0.0282869757441055,-0.4416860351399811,-0.0621214523494071,3.383245,58.22899,0.1617232,0.02647656,0.4863075,-0.01313073,10.7399997599423,9
-9.473769,0.4833334,-11.86005,0.0623290849036406,-0.44639031452953,-0.0023753739470908,6.766277,57.77881,0.2970042,0.05291854,0.482143,-0.02624476,10.7599997594953,9
-9.424953,0.6833333,-11.82677,-0.0164387441438425,0.2017641545149887,-0.037037488430057,10.14929,57.33324,0.4064582,0.07930581,0.4775538,-0.03933196,10.7799997590482,9
-9.376151,0.8833332,-11.79351,-0.0872566405331998,0.6984543215542333,-0.0669063416317605,13.5321,56.88922,0.4902259,0.1056152,0.4725442,-0.05238072,10.7999997586012,9
-9.195573,0.2833333,-11.69058,0.0476947696389808,0.1676288332166565,0.0118293906872963,3.329386,56.46613,0.06049978,0.02584384,0.472846,-0.01327755,10.8199997581542,9
-9.147607,0.4833333,-11.6578,-0.015745479900687,0.3466025200498819,-0.0222295304138544,6.657765,56.00879,0.09450377,0.05165483,0.4687046,-0.02653795,10.8399997577071,9
-9.099654,0.6833333,-11.62503,-0.0817107286998197,0.5427905491366988,-0.0576519983850882,9.985377,55.55002,0.101845,0.07741412,0.4641641,-0.03977201,10.8599997572601,9
-8.902884,0.2833334,-11.51188,0.0200345769696106,0.0636087673383443,-0.0036662473358131,3.278582,54.96223,359.9447,0.02515669,0.4612796,-0.01362867,10.879999756813,9
-8.855368,0.4833335,-11.48003,0.1244182314473043,-0.4260618067839104,0.0513576925739549,6.555645,54.49629,359.8627,0.05028494,0.4571567,-0.02724205,10.899999756366,9
-8.807863,0.6833335,-11.44818,0.075584299325806,-0.0212445025327428,0.0231349181231017,9.830631,54.02217,359.7527,0.07536029,0.4526563,-0.0408293,10.919999755919,9
-8.595807,0.2833334,-11.32391,0.2086022115704864,-0.2672302231780427,0.0938217051745979,3.228335,52.55311,359.8421,0.02464832,0.4425631,-0.01370538,10.9399997554719,9
-8.549293,0.4833333,-11.29204,0.3376465918769913,-0.4980923007231421,0.1612356652433906,6.454335,52.07998,359.6573,0.04926948,0.4384515,-0.02739565,10.9599997550249,9
-8.502792,0.6833333,-11.26017,0.2885006978154001,-0.0479039737813289,0.1293622261724802,9.677731,51.59299,359.4442,0.07384343,0.4339882,-0.04105964,10.9799997545779,9
-8.456302,0.8833332,-11.22831,0.2381875301680427,0.391795455685673,0.0967161709433899,12.89797,51.08874,359.2009,0.09834925,0.4291776,-0.05468339,10.9999997541308,9
-8.191302,0.2833334,-11.07309,0.3356536100687917,-0.0839710410726883,0.1414989842138432,3.337943,51.31224,359.7766,0.0254099,0.4328356,-0.0143663,11.0199997536838,9
-8.143252,0.4833334,-11.0399,0.2306069037229097,0.1500614280833382,0.072029193104333,6.673009,50.83458,359.5251,0.05079066,0.4286944,-0.02871608,11.0399997532368,9
-8.095216,0.6833334,-11.00672,0.1187545314241473,0.4013085643543942,-0.0005106570883199,10.0049,50.33844,359.2434,0.07612021,0.424185,-0.04303716,11.0599997527897,9
-8.047198,0.8833332,-10.97356,0.1681050106579062,-0.0228147970946889,0.0149525165701067,13.33425,49.81996,358.9287,0.1013844,0.4193116,-0.05732065,11.0799997523427,9
-7.854559,0.2833333,-10.86414,0.2133557385252098,-0.4574267183508597,0.029735916141794,3.526818,52.95762,359.8119,0.02681279,0.4457003,-0.01518903,11.0999997518957,9
-7.803289,0.4833332,-10.82988,0.1018358887855477,0.0024491511261107,-0.039617514635454,7.051126,52.48363,359.5941,0.05359265,0.4415163,-0.03036069,11.1199997514486,9
-7.752043,0.6833332,-10.79563,-0.0071252167016648,0.4518361016973431,-0.1062633625247126,10.57388,51.9919,359.3444,0.08032255,0.4369096,-0.04550729,11.1399997510016,9
-7.54351,0.2833333,-10.67578,0.111220923205626,-0.0142428964331169,-0.0472459032914311,3.564744,54.68506,359.8832,0.02716049,0.4591147,-0.01519063,11.1599997505546,9
-7.491436,0.4833333,-10.6417,0.2287229957327197,-0.4908108006630305,0.0131814380369608,7.12768,54.21887,359.7369,0.05428737,0.4549361,-0.03036537,11.1799997501075,9
-7.439376,0.6833334,-10.60762,0.1300086438090186,-0.0728906751091737,-0.0447331301125242,10.68827,53.73933,359.5598,0.08135295,0.4503137,-0.04550607,11.1999997496605,9
-7.214156,0.2833333,-10.47519,0.2158724642282736,-0.3057733173678232,0.0002804933339142,3.589922,56.05109,0.04148484,0.0278199,0.4696245,-0.0143981,11.2199997492135,9
-7.162462,0.4833334,-10.4398,0.2904304566560016,-0.5235323395253102,0.0400109297755211,7.179234,55.6012,0.05537985,0.05560795,0.465454,-0.02877422,11.2399997487664,9
-7.110783,0.6833335,-10.40442,0.1698653110040782,-0.0602412202909639,-0.0284023917214533,10.76753,55.14817,0.04078397,0.08333279,0.4608235,-0.04311761,11.2599997483194,9
-7.059119,0.8833333,-10.36905,0.0421919444150162,0.392560950766144,-0.0999309523475027,14.3546,54.6883,-0.003240935,0.1109668,0.4557381,-0.05741418,11.2799997478724,9
-7.007469,0.9766704,-10.33369,0.0699517725842877,-0.0701029628689819,-0.0893591029981877,17.94015,54.21758,359.9217,0.1384823,0.4502032,-0.07164996,11.2999997474253,9
-6.781241,0.2833333,-10.20682,0.0963207947939936,-0.543255692349749,-0.078679891691042,3.587017,57.17079,0.08567416,0.02784004,0.4782129,-0.01431866,11.3199997469783,9
-6.72932,0.4833333,-10.17184,-0.023824461566936,-0.1219199816358502,-0.1444253193251068,7.173598,56.72727,0.1434759,0.0556438,0.474066,-0.02862077,11.3399997465312,9
-6.677413,0.6833332,-10.13686,0.0317582086564263,-0.3513873999239231,-0.1149602778658778,10.7595,56.28347,0.1736056,0.08338422,0.469451,-0.04289058,11.3599997460842,9
-6.476773,0.2833334,-10.02268,0.0866494162279294,-0.5657313053525714,-0.0850728991118145,3.639835,57.91669,0.1026432,0.028221,0.4839043,-0.01459314,11.3799997456372,9
-6.423764,0.4833333,-9.987638,-0.0244177949817268,-0.0990249498640711,-0.1439251119853324,7.279322,57.47621,0.1774283,0.05640502,0.4797502,-0.02916733,11.3999997451901,9
-6.37077,0.6833334,-9.952601,-0.1294962208368657,0.3571923373991709,-0.1977312832202011,10.91822,57.03651,0.2244875,0.08452301,0.4751086,-0.04370769,11.4199997447431,9
-6.152996,0.2833333,-9.827708,0.007239199601233,-0.1020567134548484,-0.1169926464012247,3.604281,59.25061,0.1486118,0.02797784,0.4940454,-0.0144188,11.4399997442961,9
-6.100142,0.4833332,-9.793539,-0.0502006596516668,0.1484935073882091,-0.142543104029853,7.208544,58.8158,0.270067,0.05591933,0.4899223,-0.02881906,11.459999743849,9
-6.047303,0.6833332,-9.75938,-0.1119661530769207,0.4162582865364463,-0.1686753197608625,10.81256,58.38485,0.3648862,0.08379628,0.4853102,-0.04318633,11.479999743402,9
-5.994479,0.8833331,-9.725228,-0.1648527800064214,0.6489668651783562,-0.1882941847234098,14.41594,57.95431,0.4327677,0.1115782,0.4802144,-0.05750776,11.499999742955,9
-5.812712,0.2833333,-9.623775,-0.0469399298155721,-0.0594030901477602,-0.1179995783467804,3.544225,60.67053,0.227181,0.02769103,0.5047635,-0.01390828,11.5199997425079,9
-5.760618,0.4833334,-9.590234,-0.1699336495096024,0.1554638462930037,-0.1818998461462673,7.089002,60.24471,0.4283372,0.05534673,0.5006849,-0.02779896,11.5399997420609,9
-5.708539,0.6833335,-9.556703,-0.2902141349984637,0.3875452209909256,-0.2434018951516812,10.6341,59.82785,0.6046128,0.08294024,0.4961219,-0.0416586,11.5599997416139,9
-5.509646,0.2833333,-9.443813,-0.2340962492375213,-0.055743586055846,-0.2125063186337081,3.483023,61.09311,0.2714165,0.0273759,0.5079401,-0.01340664,11.5799997411668,9
-5.458618,0.4833333,-9.410487,-0.168196112985679,-0.5095212243680711,-0.1765621836502902,6.966945,60.67241,0.5176404,0.05471785,0.5038978,-0.02679671,11.5999997407198,9
-5.4076,0.6833332,-9.37717,-0.2534610758649114,-0.0688105312954816,-0.2203227148584146,10.45114,60.26344,0.740278,0.0819979,0.499384,-0.04015482,11.6199997402728,9
-5.356598,0.8833331,-9.343862,-0.1500595718671253,-0.278902836461382,-0.1615641202740096,13.9358,59.86344,0.9402089,0.1091927,0.4944031,-0.05347142,11.6399997398257,9
-5.105917,0.2833333,-9.201395,-0.0446852215464814,-0.4738714980043752,-0.1010011124874852,3.425429,60.41277,0.2494593,0.02692452,0.5028341,-0.01315662,11.6599997393787,9
-5.055973,0.4833332,-9.168291,-0.1138317210752499,0.0122100058889145,-0.1347115763537427,6.851199,59.99155,0.474228,0.05381408,0.4988245,-0.0262944,11.6799997389317,9
-5.006042,0.683333,-9.135197,-0.1791265800929036,0.4878024794530913,-0.1649051019497758,10.27753,59.58061,0.6754071,0.08064687,0.4943635,-0.03940457,11.6999997384846,9
-4.783003,0.2833334,-9.006599,0.0033203339411835,0.0479288662342138,-0.0579168471413824,3.370507,58.62849,0.1438842,0.02625756,0.4893549,-0.01330424,11.7199997380376,9
-4.733979,0.4833333,-8.974031,-0.0240214448603643,0.3178544169479722,-0.0676187029199795,6.740585,58.19893,0.2626765,0.05248101,0.485367,-0.02659103,11.7399997375906,9
-4.684969,0.6833333,-8.941472,-0.0641802323231419,0.6049942986771542,-0.0843393752237489,10.11049,57.77314,0.3568411,0.0786507,0.4809555,-0.03985076,11.7599997371435,9
-4.635973,0.8833332,-8.908922,-0.1053471495980655,0.8570778454775914,-0.10195968372454,13.48004,57.34822,0.4264254,0.1047437,0.4761245,-0.05307189,11.7799997366965,9
-4.446162,0.2833333,-8.802754,0.0151318167344101,0.1680829496092204,-0.0374166598386782,3.316741,56.783,0.02800672,0.02557522,0.4752883,-0.01354586,11.7999997362494,9
-4.397899,0.4833333,-8.770834,0.1414884621501739,-0.4300122853207522,0.0294514572194586,6.632607,56.34496,0.03065758,0.05112095,0.4713231,-0.02707622,11.8199997358024,9
-4.349648,0.6833334,-8.73892,0.0765217645857516,-0.034498514471334,-0.0047686235559849,9.947049,55.9038,0.007571963,0.07661249,0.4669603,-0.0405786,11.8399997353554,9
-4.143773,0.2833334,-8.622704,0.1857499411974423,-0.2902756353922736,0.0522912976548504,3.265982,55.27937,359.9206,0.02492379,0.4637387,-0.01383384,11.8599997349083,9
-4.096029,0.4833333,-8.591576,0.2928985925301868,-0.5314170062221759,0.1075229781354369,6.530303,54.83345,359.8156,0.0498197,0.4597922,-0.02765226,11.8799997344613,9
-4.048298,0.6833333,-8.560454,0.2316447310436271,-0.0919961051476627,0.0723167769321397,9.79243,54.37823,359.6839,0.07466395,0.4554693,-0.04144397,11.8999997340143,9
-4.000581,0.8833333,-8.529342,0.1708509975850487,0.3364479787848976,0.037171959643814,13.05244,53.9105,359.5241,0.09943914,0.4507739,-0.05519762,11.9199997335672,9
-3.743783,0.2833333,-8.383473,0.3454739683988774,-0.1510621305128177,0.126909811533463,3.210153,51.94112,359.7812,0.02434567,0.4377848,-0.0139822,11.9399997331202,9
-3.697218,0.4833333,-8.352126,0.3181702669472679,0.0707391639672413,0.1056007323139205,6.417546,51.48538,359.5365,0.04866458,0.4338498,-0.02794905,11.9599997326732,9
-3.650666,0.6833333,-8.320787,0.2765728128712592,0.3092671493558852,0.0764526576994413,9.621915,51.0126,359.2641,0.07293729,0.4295705,-0.0418894,11.9799997322261,9
-3.604125,0.8833332,-8.289458,0.2323360281718591,0.5122510673643091,0.0458655862961041,12.8227,50.51947,358.9621,0.09714375,0.4249509,-0.05578814,11.9999997317791,9
-3.418243,0.2833334,-8.186648,0.3356092641715831,-0.2263315216655061,0.0907255535050177,3.45125,52.46054,359.7814,0.02616967,0.4418302,-0.01501964,12.0199997313321,9
-3.367998,0.4833333,-8.153147,0.2871058464619338,-0.0421649652316119,0.0572048674366723,6.899765,52.00482,359.535,0.05230811,0.4378303,-0.03002147,12.039999730885,9
-3.317769,0.6833333,-8.119655,0.2370889176874584,0.1587279368639167,0.0242832558311985,10.34557,51.5303,359.2585,0.07839309,0.4334294,-0.04499396,12.059999730438,9
-3.116166,0.2833334,-8.007816,0.3551202801017856,-0.3162373291844531,0.0812586276925353,3.548942,54.47429,359.8316,0.02685954,0.4574949,-0.01547832,12.079999729991,9
-3.063917,0.4833333,-7.974425,0.2990445347673156,-0.0818910852587228,0.0466035026526761,7.096217,54.02379,359.6343,0.05368873,0.4534785,-0.03094473,12.0999997295439,9
-3.011683,0.6833333,-7.941044,0.2388341540111983,0.1691816222858376,0.0117423271229233,10.6408,53.55695,359.4069,0.08045791,0.4490236,-0.04637669,12.1199997290969,9
-2.793175,0.2833333,-7.817941,0.3623189134011292,-0.2556034797375615,0.0776951276915962,3.581414,56.04955,359.9252,0.02727802,0.4696418,-0.01525821,12.1399997286499,9
-2.740478,0.4833333,-7.784321,0.4841053405699095,-0.6913653866193312,0.1447484323225634,7.161391,55.60906,359.8227,0.05452305,0.4656309,-0.0304983,12.1599997282028,9
-2.687795,0.6833332,-7.750711,0.3776273714722264,-0.2331269485154918,0.0888767721925791,10.73944,55.15812,359.6912,0.08170622,0.4611623,-0.04570397,12.1799997277558,9
-2.635128,0.8833331,-7.71711,0.2693487099640355,0.2141347924944147,0.0332619817190469,14.31532,54.69286,359.5289,0.1088006,0.4562408,-0.06086029,12.1999997273088,9
-2.364646,0.2833334,-7.564131,0.4012055214258744,-0.2545574052555193,0.1106774297559898,3.56471,57.4426,0.06107452,0.02753227,0.4803024,-0.01447932,12.2199997268617,9
-2.312672,0.4833333,-7.52995,0.3192821974373144,-0.0139387430155822,0.0712916792293558,7.128657,57.01667,0.09609915,0.05503047,0.4763174,-0.02893698,12.2399997264147,9
-2.260713,0.6833333,-7.495779,0.2220085248042178,0.2434064926984449,0.024260421443226,10.69175,56.58924,0.104541,0.08246677,0.4718688,-0.04336222,12.2599997259676,9
-2.208768,0.8833332,-7.461617,0.1221257671147315,0.4652076626003694,-0.0237353350597384,14.25379,56.15685,0.085706,0.1098143,0.4669611,-0.05774113,12.2799997255206,9
-2.015494,0.2833334,-7.355361,0.1797788358312911,-0.2545574605751785,0.0118863011128675,3.627129,58.27652,0.08607445,0.02800788,0.486654,-0.01475395,12.2999997250736,9
-1.962308,0.4833333,-7.321,0.0728175258791044,-0.0515733443742691,-0.0385692915741513,7.25377,57.85469,0.1455333,0.05597929,0.4826607,-0.02948894,12.3199997246265,9
-1.909142,0.6833333,-7.28665,-0.0347907662331341,0.1681372252527135,-0.08902548972834,10.88027,57.4328,0.1782043,0.08388916,0.4781806,-0.04419396,12.3399997241795,9
-1.698516,0.2833334,-7.169577,0.0333121119572826,-0.2880104778924115,-0.0421553585118941,3.638988,58.86568,0.09933733,0.02807858,0.4911312,-0.01484783,12.3599997237325,9
-1.644931,0.4833333,-7.135464,-0.0833088183887681,-0.0348468952169571,-0.0936410398671823,7.277559,58.44643,0.1721635,0.05612027,0.4871453,-0.02967636,12.3799997232854,9
-1.591361,0.6833333,-7.101361,-0.2028115215600675,0.235043259887178,-0.1457447350462795,10.91552,58.02802,0.2186328,0.08409647,0.4826651,-0.04447047,12.3999997228384,9
-1.537808,0.8833332,-7.067267,-0.3120919072993167,0.4693893481337998,-0.1915259802003897,14.55283,57.60699,0.2381518,0.111979,0.4776953,-0.05921729,12.4199997223914,9
-1.27473,0.2833333,-6.921885,-0.1799495036034784,-0.237830977790482,-0.1012343244960343,3.582353,61.14614,0.2039534,0.02781635,0.5083396,-0.0143667,12.4399997219443,9
-1.221583,0.4833333,-6.88881,-0.2884589724999347,-0.0223020659064229,-0.1421971514265392,7.165023,60.7384,0.3826982,0.05559675,0.5043992,-0.02871503,12.4599997214973,9
-1.168451,0.6833333,-6.855745,-0.4000600669580769,0.2099534173609085,-0.1854090579598768,10.74781,60.33842,0.5372329,0.08331369,0.4999615,-0.04303087,12.4799997210503,9
-1.115333,0.8833332,-6.822686,-0.5015324413650655,0.406664819919029,-0.2240719242674957,14.33021,59.94315,0.6677914,0.1109361,0.495031,-0.057301,12.4999997206032,9
-0.9324587,0.2833333,-6.723578,-0.4372823946700865,-0.3381902984127818,-0.1762726544870636,3.515418,61.878,0.2532625,0.02744437,0.5138239,-0.01387495,12.5199997201562,9
-0.8803356,0.4833333,-6.690964,-0.516265093555196,-0.1602962856552835,-0.2029934374301518,7.031509,61.47627,0.4822378,0.05485428,0.5099269,-0.02773255,12.5399997197092,9
-0.828225,0.6833332,-6.658357,-0.5815909037922529,0.0343244046818109,-0.224015878046508,10.54772,61.08542,0.688338,0.08220115,0.5055446,-0.04155771,12.5599997192621,9
-0.6283888,0.2833333,-6.548184,-0.4684875934115384,-0.446912953599677,-0.1502670641523078,3.454674,61.85016,0.2798182,0.02711228,0.5136186,-0.01339724,12.5799997188151,9
-0.5774338,0.4833333,-6.515626,-0.5164864515615182,-0.2188392543957553,-0.1625989768884022,6.909796,61.45183,0.536248,0.05418925,0.5097552,-0.02677445,12.5999997183681,9
-0.5264931,0.6833332,-6.483077,-0.5544401519677016,0.0259611223877625,-0.170968937354476,10.3656,61.06595,0.7705745,0.08120821,0.5054224,-0.04012316,12.619999717921,9
-0.3109813,0.2833334,-6.361989,-0.5705705125299663,0.2352175246583959,-0.1690369143275605,3.405828,60.6158,0.2094922,0.02657766,0.504376,-0.013419,12.639999717474,9
-0.2608826,0.4833333,-6.32983,-0.5473732557753448,0.2231952811891653,-0.1425520004781537,6.811694,60.21211,0.3952962,0.05312094,0.5005359,-0.02682015,12.6599997170269,9
-0.2107982,0.6833333,-6.297681,-0.5271970001062107,0.2566484085358947,-0.1185775468360645,10.21779,59.81643,0.5583491,0.07960878,0.4962492,-0.04019352,12.6799997165799,9
-0.160728,0.8833333,-6.265541,-0.4981670833209568,0.2822609637466597,-0.0908330382924935,13.62393,59.42615,0.6992356,0.1060174,0.4915201,-0.0535272,12.6999997161329,9
0.1045463,0.2833333,-6.115067,-0.2697859708469754,-0.3935969501881534,0.0469919067798745,3.351526,58.22912,0.08948064,0.02592823,0.4863292,-0.01354668,12.7199997156858,9
0.1535494,0.4833333,-6.083128,-0.2918924489970598,-0.1467058392299772,0.0455321263509889,6.702217,57.81631,0.1550913,0.05182393,0.4825107,-0.02707454,12.7399997152388,9
0.2025385,0.6833332,-6.051198,-0.3195909761002542,0.1169119498304968,0.0376870240139286,10.05233,57.40425,0.19677,0.07766718,0.4782767,-0.04057512,12.7599997147918,9
0.2515137,0.8833331,-6.019278,-0.3411551771362959,0.3449856581817646,0.0295916415939059,13.4017,56.99007,0.2142038,0.1034355,0.4736311,-0.0540369,12.7799997143447,9
0.4385948,0.2833334,-5.914371,-0.2013718257406251,-0.3685071543569023,0.1032790375972467,3.29355,56.20687,359.9607,0.025188,0.4708789,-0.01383968,12.7999997138977,9
0.4868413,0.4833334,-5.883161,-0.2174660685756819,-0.1592508358062573,0.0940147045781225,6.585752,55.7845,359.897,0.05034736,0.4670833,-0.02766382,12.8199997134507,9
0.535076,0.6833333,-5.851957,-0.2285938992435423,0.0667321603239827,0.0845445658694874,9.876032,55.3553,359.8082,0.07545371,0.4628996,-0.04145981,12.8399997130036,9
0.7364427,0.2833333,-5.735973,-0.0630590566563324,-0.3831428921643616,0.1665135128096375,3.241369,54.11726,359.8754,0.02469229,0.4547472,-0.01383369,12.8599997125566,9
0.7836436,0.4833333,-5.704756,-0.078084925087928,-0.1237068871672943,0.1498819365215995,6.480777,53.68901,359.7264,0.04935725,0.4509678,-0.02765205,12.8799997121096,9
0.8308309,0.6833332,-5.673548,-0.0948241528255118,0.1524557954093677,0.1293418842161906,9.718013,53.24918,359.5517,0.07397477,0.446825,-0.04144387,12.8999997116625,9
0.8780078,0.8833331,-5.64235,-0.1020078157537156,0.3930743967541176,0.111068206094723,12.95256,52.79469,359.3499,0.0985236,0.4423226,-0.05519486,12.9199997112155,9
1.129538,0.2833334,-5.496091,0.1256686169383396,-0.3078735233137737,0.2176633977272257,3.266824,51.531,359.7695,0.02479655,0.434563,-0.01420144,12.9399997107685,9
1.176788,0.4833333,-5.463942,0.1073304699814015,-0.0860721927670379,0.1906972158988749,6.530906,51.09518,359.5138,0.04956549,0.4307746,-0.02838701,12.9599997103214,9
1.224025,0.6833333,-5.431801,0.0783839334276979,0.1524557086402636,0.1563863812602099,9.791975,50.64145,359.231,0.07428618,0.4266326,-0.04254505,12.9799997098744,9
1.271247,0.8833332,-5.399673,0.0502172275871188,0.3554395288156481,0.1211116368195823,13.05009,50.16646,358.9188,0.09894209,0.4221406,-0.05666283,12.9999997094274,9
1.451859,0.2833333,-5.297181,0.1630067960414587,-0.383143172421603,0.1649061639192215,3.5293,52.90641,359.7941,0.02676997,0.4453043,-0.01532533,13.0199997089803,9
1.503319,0.4833333,-5.263069,0.1267217709428423,-0.198976623044231,0.132410136480642,7.056025,52.47258,359.5612,0.05350685,0.4414444,-0.03063194,13.0399997085333,9
1.554751,0.6833333,-5.228973,0.0925161769490316,0.0019164971937077,0.1010360483838397,10.58184,52.02036,359.2985,0.0801983,0.4371615,-0.04591596,13.0599997080863,9
1.749151,0.2833334,-5.117302,0.2202309750888607,-0.4730484178579515,0.1620525928826004,3.56293,54.69373,359.8613,0.02705722,0.4591873,-0.01535571,13.0799997076392,9
1.801413,0.4833333,-5.083539,0.1769977350293654,-0.238702248766218,0.1337149460676694,7.123966,54.26716,359.6954,0.05408062,0.4553309,-0.03069564,13.0999997071922,9
1.85366,0.6833333,-5.049786,0.1335435947665435,0.0123705045150683,0.1053526632735422,10.68264,53.82637,359.501,0.08104326,0.4510317,-0.04600126,13.1199997067451,9
1.905892,0.8833333,-5.016042,0.101725195534533,0.2278993094187442,0.0834821922984838,14.23868,53.36747,359.2758,0.1079187,0.4462942,-0.06125765,13.1399997062981,9
2.150529,0.2833333,-4.873959,0.0984256296413699,0.2221494808661344,0.0837448169419352,3.587726,56.49554,0.02664738,0.02768572,0.473047,-0.01461083,13.1599997058511,9
2.202595,0.4833333,-4.839193,0.0834774128509856,0.2618751282803967,0.0773417735765367,7.174739,56.08621,0.02810086,0.05533942,0.469201,-0.02920062,13.179999705404,9
2.254646,0.6833332,-4.804437,0.0690785633256432,0.29376008194256,0.0710327135228694,10.76065,55.67333,0.003527496,0.08293033,0.4648928,-0.04375739,13.199999704957,9
2.474056,0.2833333,-4.675966,0.2513697207174488,-0.3758255690086861,0.1734374007968768,3.567839,57.30727,0.06824625,0.02760329,0.4792648,-0.014405,13.21999970451,9
2.525926,0.4833333,-4.641525,0.1774641549497317,-0.1226619714361255,0.1342508585457182,7.134923,56.90306,0.1113175,0.05517025,0.4754386,-0.02879186,13.2399997040629,9
2.577781,0.6833333,-4.607094,0.0903387972013662,0.1472282077124583,0.0867602376238672,10.7012,56.49801,0.1292245,0.08267511,0.4711491,-0.0431465,13.2599997036159,9
2.629622,0.8833332,-4.572672,0.0021802823294869,0.3815744358699082,0.0377621071670146,14.2665,56.0889,0.1213983,0.110091,0.466401,-0.05745497,13.2799997031689,9
2.8159,0.2833333,-4.467142,0.0752751321126057,-0.3256457271445069,0.0721081512449908,3.646403,57.91672,0.0969054,0.02824689,0.4839051,-0.01466468,13.2999997027218,9
2.869049,0.4833333,-4.432096,-0.0126201235513887,-0.1101168689248746,0.0206930760712187,7.29236,57.51693,0.1684854,0.05645673,0.480062,-0.02931029,13.3199997022748,9
2.922184,0.6833333,-4.397058,-0.1010011403703412,0.1221385436901018,-0.0308394405638949,10.93769,57.11809,0.2149056,0.08460064,0.4757302,-0.04392186,13.3399997018278,9
3.125538,0.2833334,-4.281811,-0.1775169285143816,0.3188500848522865,-0.0754898002723907,3.619078,58.9832,0.1237438,0.02801698,0.4920205,-0.01460582,13.3599997013807,9
3.178665,0.4833333,-4.247617,-0.2089194216452146,0.2942829766156676,-0.098030246349265,7.237872,58.58717,0.222628,0.05599736,0.4882013,-0.02919279,13.3799997009337,9
3.231778,0.6833333,-4.213433,-0.2499530384882105,0.3151912355360732,-0.123781115347096,10.8562,58.19389,0.2970386,0.08391292,0.4838922,-0.04374624,13.3999997004867,9
3.284874,0.8833332,-4.179256,-0.2877249793981393,0.3282590253806032,-0.1457469879080473,14.47378,57.80016,0.346547,0.1117333,0.479098,-0.05825343,13.4199997000396,9
3.538509,0.2833333,-4.03599,-0.1361261357968697,-0.3596953437400578,-0.0470245532157682,3.552714,60.74373,0.229424,0.02775591,0.5053126,-0.01394652,13.4399996995926,9
3.590743,0.4833333,-4.002391,-0.2179951884978246,-0.1249546098267503,-0.078986942816055,7.10586,60.35909,0.4353252,0.05547645,0.501538,-0.02787541,13.4599996991456,9
3.642962,0.6833333,-3.968801,-0.3031228288137884,0.1264611962634669,-0.1133891062939316,10.65924,59.9841,0.6189398,0.08313462,0.4972769,-0.04177305,13.4799996986985,9
3.695169,0.8833332,-3.935219,-0.3792860070023787,0.3422836183237308,-0.1437433115464661,14.21229,59.61606,0.7810374,0.1107004,0.4925341,-0.05562463,13.4999996982515,9
3.868046,0.2833333,-3.83263,-0.2976712653147384,-0.3702493620382336,-0.0828869274834196,3.485668,60.71152,0.2647149,0.02741076,0.5050719,-0.01337751,13.5199996978045,9
3.918933,0.4833333,-3.799024,-0.3571622991738934,-0.1616691232663804,-0.0987225827905597,6.972015,60.33143,0.5066959,0.05478764,0.5013356,-0.02673841,13.5399996973574,9
3.96981,0.6833333,-3.765427,-0.4084928746552307,0.062068790128298,-0.1120276432763218,10.45839,59.96318,0.7277006,0.08210279,0.4971306,-0.04006603,13.5599996969104,9
4.159559,0.2833333,-3.652375,-0.286670540496643,-0.379671222712839,-0.0270111789257385,3.42906,60.23676,0.2603774,0.02701987,0.5015035,-0.01304876,13.5799996964633,9
4.209351,0.4833332,-3.618902,-0.3232456454297949,-0.1149605231064308,-0.0306061693166861,6.858374,59.85718,0.4985979,0.0540049,0.4977967,-0.02607848,13.5999996960163,9
4.259128,0.6833332,-3.585439,-0.355264682362467,0.1637416150202305,-0.0333489625152669,10.28818,59.48905,0.7158391,0.08093286,0.4936393,-0.03908088,13.6199996955693,9
4.308891,0.8833331,-3.551986,-0.3714452239550478,0.4042898851265342,-0.028897378979118,13.7183,59.12996,0.9131457,0.1077793,0.4890355,-0.05204417,13.6399996951222,9
4.548494,0.2833333,-3.410392,-0.151178526564955,-0.2832226949127475,0.1087319827800743,3.377221,58.41739,0.1504105,0.02636092,0.487746,-0.01323473,13.6599996946752,9
4.597427,0.4833333,-3.377468,-0.1493267484081464,-0.0522638699894528,0.1224332714232265,6.753994,58.02933,0.2781214,0.0526877,0.4840648,-0.02645233,13.6799996942282,9
4.646347,0.6833332,-3.344553,-0.1489886302872269,0.1913471184988338,0.1329019491700582,10.13058,57.6459,0.3837065,0.0789604,0.4799602,-0.03964302,13.6999996937811,9
4.867618,0.2833333,-3.216205,0.0440151915607982,-0.2317495619730691,0.2544650040001039,3.319047,56.82539,0.03513858,0.0256175,0.4756117,-0.01351018,13.7199996933341,9
4.91586,0.4833332,-3.18418,0.0365402518025392,0.0492353367179053,0.2603097326026922,6.637288,56.4283,0.04729524,0.05120571,0.4719545,-0.02700495,13.7399996928871,9
4.96409,0.6833332,-3.152161,0.0186776126975143,0.3419847422275722,0.2569730588910934,9.954132,56.02895,0.03606328,0.07673883,0.4678995,-0.04047249,13.75999969244,9
5.012306,0.8833331,-3.120151,0.0017466150444187,0.5944954295504006,0.2506708689294492,13.26987,55.62455,0.0009750022,0.1021994,0.4634503,-0.05390203,13.779999691993,9
5.201158,0.2833333,-3.015013,0.1342839240173301,-0.0851167017462483,0.3332189752546834,3.266465,55.26961,359.9226,0.02493689,0.4636628,-0.01381804,13.799999691546,9
5.248871,0.4833333,-2.983827,0.1129036200814814,0.1521960185523235,0.3295919316941351,6.53134,54.86447,359.822,0.04984576,0.4600291,-0.02762071,13.8199996910989,9
5.296573,0.6833333,-2.952647,0.0907427104345703,0.400746396468369,0.3212116922253121,9.794142,54.45057,359.697,0.07470307,0.4560195,-0.04139679,13.8399996906519,9
5.344261,0.8833333,-2.921476,0.0788773218988359,0.608599145637704,0.3142978698022711,13.05499,54.02499,359.5464,0.09949146,0.4516378,-0.05513489,13.8599996902049,9
5.583787,0.2833333,-2.78723,0.1033334155118614,0.5907709508184114,0.3287603404218377,3.208872,50.91617,359.7658,0.02440201,0.4297329,-0.01388017,13.8799996897578,9
5.629919,0.4833333,-2.755254,0.1158937182976833,0.613885510343237,0.332327503716741,6.415048,50.49957,359.5079,0.04877742,0.4261105,-0.02774495,13.8999996893108,9
5.676037,0.6833333,-2.723287,0.1278105488905296,0.6249641639236811,0.3316597562113366,9.618289,50.06548,359.2245,0.07310668,0.4221508,-0.04158347,13.9199996888638,9
5.884457,0.2837535,-2.588348,0.3251496671212468,-0.0798549420931898,0.4245494087341321,3.450517,51.03874,359.7715,0.02631072,0.4306743,-0.01476964,13.9399996884167,9
5.933939,0.4837534,-2.553732,0.2835552517062654,0.13582310340658,0.3809321240844033,6.898395,50.62203,359.5174,0.0525901,0.4269825,-0.02952176,13.9599996879697,9
5.983406,0.6837534,-2.519128,0.2290015550461497,0.3662610294333057,0.3249048318902896,10.34372,50.1864,359.2357,0.07881692,0.4229004,-0.04424345,13.9799996875226,9
6.032849,0.8837534,-2.48454,0.1725469528859475,0.5594739389512511,0.2635343356511342,13.78742,49.7281,358.9235,0.1049759,0.4184315,-0.05892743,13.9999996870756,9
6.210241,0.2961771,-2.374393,0.2637824099134009,-0.1975273850616732,0.2142263054143227,3.548507,52.66121,359.8227,0.02706333,0.4433798,-0.01511912,14.0199996866286,9
6.26148,0.4961771,-2.339473,0.2135480183338085,-0.0320189410164203,0.0879438325993424,7.095425,52.2501,359.6192,0.05409704,0.4396701,-0.03022525,14.0399996861815,9
6.312705,0.6961771,-2.304563,0.1633982806448077,0.1502267171307296,-0.03476675924264,10.63975,51.82262,359.388,0.08107042,0.4355363,-0.04529768,14.0599996857345,9
6.507772,0.307311,-2.185781,0.1246694184177048,0.2971891692814024,-0.1470254686480524,3.58146,54.5329,359.9287,0.02749204,0.4579226,-0.01486865,14.0799996852875,9
6.559515,0.507311,-2.15071,0.135793523502377,0.2151993731016807,-0.3052085747207029,7.161575,54.13282,359.8322,0.05495068,0.4542156,-0.02972007,14.0999996848404,9
6.611243,0.7073109,-2.115649,0.1417927098241822,0.1804283315065213,-0.46009061856875,10.7399,53.72305,359.7094,0.08234712,0.450063,-0.04453807,14.1199996843934,9
6.662956,0.9073108,-2.080597,0.1541640580731584,0.1397700055927001,-0.6043776748136207,14.31623,53.30003,359.5585,0.1096544,0.4454694,-0.05930804,14.1399996839464,9
6.9108,0.3222944,-1.933453,0.3273748974161066,-0.6050280487233735,-0.7177601629613076,3.564721,55.92455,0.0629185,0.02772929,0.4686481,-0.01409917,14.1599996834993,9
6.961821,0.5222944,-1.897863,0.2872219145974082,-0.4241237284756804,-0.94489951762918,7.12866,55.53873,0.1022772,0.05542418,0.4649631,-0.02817724,14.1799996830523,9
7.012826,0.7222943,-1.862283,0.2483042389639713,-0.2233533589926167,-1.1621796013317744,10.69177,55.15202,0.1176216,0.08305692,0.4608264,-0.04222388,14.1999996826053,9
7.235081,0.3344955,-1.72538,0.385082601397416,-0.6973970454947991,-1.375894169132799,3.627482,56.22267,0.07777015,0.02823639,0.4709313,-0.01431495,14.2199996821582,9
7.287072,0.5344954,-1.689231,0.3204856264680913,-0.458343291424229,-1.683497924771506,7.254375,55.83943,0.1313728,0.05643612,0.4672316,-0.02861139,14.2399996817112,9
7.339044,0.7344954,-1.653095,0.2502376088284652,-0.1986016455641422,-1.9745444346672207,10.88106,55.45614,0.1608005,0.08457467,0.4630615,-0.04287741,14.2599996812642,9
7.391001,0.9344953,-1.616968,0.185560938740938,0.02973232401789,-2.2414605286810496,14.50683,55.06965,0.1656135,0.1126195,0.4584259,-0.05709621,14.2799996808171,9
7.571518,0.347493,-1.500649,0.137676871325846,0.0321220904905157,-2.476735034071041,3.638924,56.69799,0.09577941,0.02833919,0.474578,-0.0143411,14.2999996803701,9
7.623794,0.5474929,-1.464566,0.0899068826336595,-0.0499585496320067,-2.791046928059428,7.277357,56.31805,0.167547,0.05664124,0.4708867,-0.02866356,14.3199996799231,9
7.676055,0.7474929,-1.428494,0.0434927378755709,-0.0813619836326045,-3.06631005162528,10.91512,55.93924,0.2154836,0.08487721,0.4667186,-0.04295282,14.339999679476,9
7.7283,0.9474928,-1.392432,0.0098427301220791,-0.1152369371553788,-3.2954164314196035,14.55226,55.55848,0.2391761,0.1130194,0.4620781,-0.05719596,14.359999679029,9
7.963535,0.3478826,-1.253323,0.128589352138059,-0.8455697607057074,-3.4968280123074207,3.581473,59.67098,0.2165357,0.02804692,0.4972163,-0.01390841,14.379999678582,9
8.015681,0.5478826,-1.218695,0.0392302804977333,-0.6473865268316059,-3.762376666166666,7.163228,59.30392,0.4104218,0.05605767,0.4935663,-0.02779922,14.3999996781349,9
8.067812,0.7478826,-1.184077,-0.0403958439724299,-0.4265454635267449,-3.976621680166484,10.74508,58.94593,0.5828384,0.08400456,0.4894305,-0.04165859,14.4199996776879,9
8.283733,0.3379788,-1.064076,0.0525419793426351,-0.8757005342923566,-4.159101807863449,3.506377,64.84413,0.3381459,0.02740643,0.5358223,-0.0139133,14.4399996772408,9
8.336717,0.5379789,-1.032942,-0.0298044907403518,-0.6097597062920697,-4.404270503730786,7.013793,64.48912,0.6550088,0.05477827,0.5322308,-0.02780963,14.4599996767938,9
8.389687,0.7379788,-1.001815,-0.1074529024998973,-0.3206977123798417,-4.599288845726525,10.52172,64.15078,0.9522813,0.08208552,0.5281339,-0.04167715,14.4799996763468,9
8.442637,0.9379787,-0.9706888,-0.1698567412487577,-0.0606237647165939,-4.739038292094354,14.03033,63.82674,1.23086,0.1093012,0.5235353,-0.05551042,14.4999996758997,9
8.625373,0.331183,-0.9298635,-0.0075507128868022,-0.7326874798107652,-4.893021593833066,3.424285,69.04305,0.4715441,0.02694772,0.5663567,-0.01354335,14.5199996754527,9
8.678092,0.5311829,-0.9002703,0.0154446149975591,-0.4903627377223462,-5.072738986334351,6.848762,69.0661,0.9738207,0.05401351,0.5654308,-0.02687104,14.5399996750057,9
8.730844,0.7311828,-0.8706541,0.0444401145035708,-0.2263042113509818,-5.193083287189687,10.27711,69.11569,1.485405,0.0810781,0.5639547,-0.04016791,14.5599996745586,9
8.783583,0.9311827,-0.8410479,0.090136964506243,0.0073273348814469,-5.249360260010758,13.70459,69.19694,2.006798,0.1080678,0.5619595,-0.05342468,14.5799996741116,9
9.017915,0.3235134,-0.7813193,0.1167892634518938,0.015687018087096,-5.405720103251407,3.386651,73.29297,0.4106202,0.02584651,0.5965266,-0.01476368,14.5999996736646,9
9.072464,0.5235134,-0.7574651,0.1450331691418487,0.0728191890396565,-5.499431059941786,6.788629,73.40771,0.8416893,0.05184961,0.5962659,-0.02950756,14.6199996732175,9
9.126982,0.7235134,-0.7336426,0.1856837806200708,0.1254795419181081,-5.526512120667979,10.18906,73.54741,1.28115,0.07779076,0.5954586,-0.04423707,14.6399996727705,9
9.31541,0.3189852,-0.6976136,0.2496332585244012,0.1204240243264576,-5.482855764918142,3.389034,78.06351,0.2927202,0.02457824,0.6294149,-0.01663862,14.6599996723235,9
9.371973,0.5189852,-0.680793,0.2956154769560033,0.1004273597970741,-5.609883594104975,6.789704,78.04179,0.5959495,0.04927437,0.6282512,-0.03324919,14.6799996718764,9
9.428505,0.7189851,-0.6639656,0.3358921841555098,0.12653009563742,-5.671552237963114,10.1874,78.03924,0.8966709,0.07388444,0.6265411,-0.04984061,14.6999996714294,9
9.638009,0.3168468,-0.6601226,0.3817585998073518,0.1454460722167301,-5.664971772249986,3.398122,79.9045,0.1032388,0.02330725,0.6418459,-0.01834929,14.7199996709824,9
9.695887,0.5168469,-0.6488034,0.3961433284448041,0.1778884880219504,-5.83002086326521,6.806172,79.61701,0.1809878,0.04660911,0.639022,-0.03679257,14.7399996705353,9
9.753743,0.7168468,-0.6374759,0.3928791783725263,0.2537886416102381,-5.930502385366073,10.21392,79.33167,0.2402981,0.06985527,0.6356299,-0.0552113,14.7599996700883,9
9.811657,0.9168466,-0.6261178,0.383414311148389,0.3198389577599194,-5.96460481916979,13.60967,79.04604,0.2800501,0.09294182,0.63168,-0.07353213,14.7799996696413,9
9.869584,0.9833732,-0.6146863,0.3792129205776184,0.3227317550530035,-5.930829685749224,16.99828,78.75576,0.292338,0.1158423,0.6271713,-0.09181495,14.7999996691942,9
10.05955,0.315347,-0.6315498,0.3311190479051422,0.3116394955367153,-6.045838332952664,3.257259,80.2737,0.04787629,0.02199735,0.644346,-0.01800141,14.8199996687472,9
10.11543,0.515347,-0.6215991,0.2774229837028965,0.3408638267786452,-6.094400720723449,6.528798,80.25478,0.08087142,0.04399399,0.6434126,-0.03616084,14.8399996683002,9
10.17109,0.7153469,-0.6114269,0.2299650588783812,0.3570852304344502,-6.076204657131106,9.795432,80.30252,0.1383532,0.06603324,0.642374,-0.05413237,14.8599996678531,9
10.34661,0.3148562,-0.6248668,0.2005835893093568,0.3069844144041183,-5.991295178477524,3.315195,81.30595,359.9268,0.02152939,0.6512173,-0.01932965,14.8799996674061,9
10.4035,0.5148562,-0.6174421,0.1086077827312763,0.2587613062929494,-6.134275694196148,6.609896,81.42564,359.8694,0.04295573,0.6512326,-0.03846616,14.899999666959,9
10.46038,0.714856,-0.6098213,0.0131218304402942,0.2489442204455439,-6.208920541017314,9.898063,81.56979,359.8232,0.06431609,0.6508858,-0.05751709,14.919999666512,9
10.65903,0.3146365,-0.6260819,-0.0737530713346785,0.2242870234012697,-6.216937919492644,3.538121,88.06799,359.9673,0.02199612,0.6947601,-0.02166268,14.939999666065,9
10.72047,0.5146364,-0.6233265,-0.2245969923574282,0.2159569764623198,-6.402372757027075,7.050591,88.47993,0.01298053,0.04413123,0.6963398,-0.04281786,14.9599996656179,9
10.78179,0.7146363,-0.6201165,-0.3828711008397878,0.2485078724665863,-6.518685902982114,10.56364,88.9819,0.1164037,0.066377,0.697754,-0.06378995,14.9799996651709,9
10.84307,0.9146362,-0.6168701,-0.5365551767923975,0.2687089633528679,-6.569123028049843,14.0766,89.50733,0.2591064,0.08859523,0.6985561,-0.08467662,14.9999996647239,9
11.09063,0.3171771,-0.6833583,-0.5480072595123175,-0.426189195591415,-6.712749827245566,3.601548,97.20149,0.1531156,0.02178271,0.7497208,-0.02268875,15.0199996642768,9
11.15334,0.5171771,-0.6884329,-0.7053629544753921,-0.1934147261810058,-6.793503854342607,7.210037,97.71058,0.3422822,0.04361606,0.7514331,-0.04538859,15.0399996638298,9
11.21608,0.717177,-0.6935158,-0.857605799944519,0.0538328217205952,-6.804103171689276,10.81151,98.22725,0.5567219,0.06532092,0.7523383,-0.06805557,15.0599996633828,9
11.2788,0.9171769,-0.6985465,-0.992552902152644,0.2633583382842629,-6.749658732055642,14.40827,98.77168,0.808615,0.08694606,0.7525229,-0.09063653,15.0799996629357,9
11.45974,0.3210618,-0.7671794,-1.098034515988363,0.2159664794217027,-6.635620023800193,3.587354,104.1532,0.2416775,0.02090031,0.7884042,-0.02339519,15.0999996624887,9
11.5215,0.521062,-0.7781772,-1.2574427986048065,0.1030813444678646,-6.676959195782474,7.171666,104.6673,0.5132256,0.04175608,0.7898536,-0.04677661,15.1199996620417,9
11.58325,0.7210619,-0.7891718,-1.4084371028577165,0.0365481017077693,-6.648898170269201,10.75235,105.2032,0.8200712,0.06256436,0.7905097,-0.07010448,15.1399996615946,9
11.64501,0.9210618,-0.7998188,-1.5391882671841692,-0.036896494998839,-6.557998042293466,14.32338,105.8261,1.185241,0.08336163,0.7906778,-0.09325802,15.1599996611476,9
11.8785,0.3279719,-0.9138205,-1.691781177207444,-0.0942071687313236,-6.570280947472936,3.561009,113.0561,0.310272,0.01939379,0.8337039,-0.02442507,15.1799996607006,9
11.93786,0.5279719,-0.9329817,-1.8371097324321648,-0.1032884163247015,-6.510754870307652,7.118106,113.6328,0.6564781,0.0387611,0.8350987,-0.04882345,15.1999996602535,9
11.9972,0.7279719,-0.9521202,-1.9637359170134605,-0.1174243798537987,-6.386783574764742,10.67068,114.236,1.039563,0.05806566,0.8356599,-0.07318063,15.2199996598065,9
12.20381,0.3360988,-1.084461,-2.243996043124953,0.5329559006473776,-6.190461860796115,3.613246,120.1742,0.303738,0.01801793,0.8663091,-0.02600526,15.2399996593595,9
12.26108,0.5360988,-1.111383,-2.3573643544552976,0.2891215826821627,-6.130270703665605,7.222318,120.7492,0.6441602,0.03601143,0.8673614,-0.05197714,15.2599996589124,9
12.31834,0.7360989,-1.1383,-2.461704222768363,0.0708536017887878,-5.997410189445379,10.8267,121.3512,1.024591,0.05396229,0.8675247,-0.07788894,15.2799996584654,9
12.37558,0.9360988,-1.165193,-2.546134654157252,-0.1762261567909901,-5.8006259251445655,14.42684,121.9854,1.447131,0.07184126,0.8667982,-0.1037304,15.2999996580184,9
12.5206,0.3468294,-1.305958,-2.470076436966181,-0.9964582226797636,-5.71528367364307,3.575634,127.8126,0.3424255,0.01640452,0.8975938,-0.02670456,15.3199996575713,9
12.57366,0.5468293,-1.339308,-2.5273506238543586,-0.815699132396335,-5.52997097216187,7.146704,128.3887,0.721286,0.032787,0.898337,-0.05337505,15.3399996571243,9
12.62671,0.7468292,-1.37265,-2.5639771961088496,-0.6126262330188745,-5.283439474018316,10.71269,128.9939,1.140106,0.0491311,0.8981768,-0.07998478,15.3599996566772,9
12.67974,0.9468291,-1.405978,-2.568929054936591,-0.4395674900732185,-4.986376106958837,14.27322,129.6335,1.602286,0.06541397,0.8971138,-0.1065126,15.3799996562302,9
12.85192,0.3612177,-1.599036,-2.6754227554647763,0.2402654444649005,-4.621168412124706,3.509013,135.2603,0.4278623,0.01510349,0.924263,-0.02689253,15.3999996557832,9
12.90045,0.5612176,-1.637094,-2.612584395156899,-0.0639272147468283,-4.396694909545123,7.012614,135.8414,0.891918,0.03018719,0.9247229,-0.0537514,15.4199996553361,9
12.94897,0.7612176,-1.675143,-2.519446934076763,-0.3398338448299259,-4.132940185768787,10.51019,136.4562,1.396184,0.04523646,0.924282,-0.08055047,15.4399996548891,9
13.10239,0.3542369,-1.843848,-2.5562269726524054,0.0786171354170409,-3.8124355843055255,3.447047,138.7328,0.4440696,0.01422365,0.9353815,-0.02678211,15.4599996544421,9
13.14803,0.5542369,-1.883766,-2.457572503607961,-0.1502773913341555,-3.6077011672875976,6.888295,139.3129,0.9233398,0.02842583,0.9357327,-0.05353031,15.479999653995,9
13.19367,0.7542369,-1.923663,-2.339128597743761,-0.350069398906418,-3.3731685430622576,10.32363,139.9266,1.440032,0.04258073,0.9352021,-0.08022861,15.499999653548,9
13.35705,0.3456121,-2.109192,-2.1919504579827684,-0.5752837435993043,-3.120771228025905,3.401462,141.2524,0.3676872,0.012871,0.9429225,-0.02693432,15.519999653101,9
13.39938,0.5456121,-2.151282,-2.105861261781838,-0.5634258485690122,-2.9367296294706264,6.798055,141.8233,0.7680134,0.02571121,0.9432018,-0.05384025,15.5399996526539,9
13.44169,0.7456121,-2.193359,-2.0152242319337006,-0.4987411822206138,-2.720988883709297,10.18944,142.4228,1.206105,0.03852454,0.9426198,-0.08068934,15.5599996522069,9
13.48399,0.9456121,-2.235425,-1.912250447354536,-0.4347222579310131,-2.485528889580986,13.57499,143.0558,1.685988,0.05129937,0.9411777,-0.107457,15.5799996517599,9
13.52627,0.9891262,-2.277479,-1.789207430438104,-0.4248622550038623,-2.242645530693129,16.95403,143.7282,2.212555,0.06402422,0.9388776,-0.1341191,15.5999996513128,9
13.68332,0.3335975,-2.481605,-1.6175666057483031,-0.4206855192297255,-2.1369979867988964,3.353785,142.061,0.2254048,0.0113718,0.9452662,-0.0270347,15.6199996508658,9
13.72258,0.5335975,-2.525167,-1.4460595849429296,-0.3649278558450666,-2.0080352755605246,6.704021,142.6161,0.4821347,0.02271704,0.9455476,-0.05403968,15.6399996504188,9
13.76183,0.7335975,-2.568716,-1.267016449546574,-0.3111020976172461,-1.868596435060568,10.05061,143.1907,0.7738985,0.03403902,0.9449949,-0.08098926,15.6599996499717,9
13.90129,0.3250691,-2.747579,-1.072922176133286,-0.3127215036670393,-1.7321449057114982,3.303313,141.7074,0.07220484,0.01004837,0.9442855,-0.0270219,15.6799996495247,9
13.93818,0.5250691,-2.791874,-0.9579145184984146,-0.3249626452905974,-1.620241640718945,6.604824,142.2473,0.1756208,0.02008483,0.9446181,-0.05401286,15.6999996490777,9
13.97506,0.725069,-2.836153,-0.8466843399248098,-0.2873686229501658,-1.4996227765404422,9.903915,142.7971,0.3103431,0.03009184,0.9441448,-0.08095011,15.7199996486306,9
14.01193,0.925069,-2.88042,-0.7321399125748052,-0.2534887213233305,-1.3827420413726088,13.20062,143.3609,0.4791108,0.04007081,0.942867,-0.1078106,15.7399996481836,9
14.18793,0.3135944,-3.105806,-0.7841135525388534,0.4336596009664067,-1.146300106107895,3.250394,140.5767,359.9302,0.008992417,0.9410289,-0.02690477,15.7599996477365,9
14.22319,0.5135943,-3.150231,-0.7052553241967381,0.2382275653945569,-1.0927945079324557,6.500332,141.1021,359.8901,0.01797465,0.9414397,-0.05377942,15.7799996472895,9
14.25845,0.7135943,-3.194643,-0.638219926583421,0.0659619101919811,-1.0335145765113642,9.749534,141.629,359.8798,0.0269393,0.9410722,-0.08060172,15.7999996468425,9
14.41531,0.3043364,-3.394845,-0.5760293638562182,-0.1377743137315528,-0.980752165305918,3.200073,138.8906,359.8272,0.008392285,0.935986,-0.02667383,15.8199996463954,9
14.44994,0.5043364,-3.438734,-0.5050705913777023,-0.1204302883420055,-0.9680985360748028,6.400637,139.4058,359.683,0.01677541,0.9364938,-0.05331837,15.8399996459484,9
14.48457,0.7043363,-3.48261,-0.4469844773966258,-0.0576662810554899,-0.9438028128507838,9.601428,139.9164,359.5669,0.02514289,0.9362488,-0.07991232,15.8599996455014,9
14.51919,0.9043362,-3.526475,-0.3943740689371733,-0.0031302385978639,-0.9199089865248568,12.80188,140.4255,359.4787,0.03348661,0.9352522,-0.1064321,15.8799996450543,9
14.55379,0.9808711,-3.570328,-0.339895380509704,-0.0104698809279477,-0.908569735004182,16.00206,140.9363,359.4188,0.04180146,0.9335055,-0.1328588,15.8999996446073,9
14.7144,0.2922342,-3.779167,-0.2616877810693694,-0.0439742708696989,-0.9399327251929614,3.518275,141.5923,359.8524,0.008881231,0.9439214,-0.02941331,15.9199996441603,9
14.75077,0.4922342,-3.828774,-0.1971790806371203,-0.0353793033035741,-0.9539991889337128,7.03681,142.1062,359.736,0.01775127,0.9440807,-0.05879059,15.9399996437132,9
14.78712,0.692234,-3.878354,-0.1385929030601733,-0.0384082529095389,-0.9629315386515094,10.55695,142.6172,359.6497,0.02659912,0.9433271,-0.08811942,15.9599996432662,9
14.9269,0.2833334,-4.060495,-0.2041811644895972,0.6218842459187361,-0.8220929126350223,3.560046,143.462,359.9001,0.008909413,0.9491451,-0.02976989,15.9799996428192,9
14.96271,0.4833333,-4.111291,-0.165052488345708,0.3934316953774734,-0.8095620616879238,7.120171,143.9787,359.8315,0.01780407,0.9491912,-0.05950611,15.9999996423721,9
14.99851,0.6833333,-4.162072,-0.13330851644643,0.1818862649556657,-0.7908564232641542,10.67974,144.4957,359.795,0.02667896,0.9483004,-0.08917505,16.0199996419251,9
15.15146,0.2833333,-4.360662,-0.242421119397667,0.6631579872875655,-0.6033803143880636,3.591527,145.1233,0.03996338,0.009723553,0.9535682,-0.02979215,16.0399996414781,9
15.18811,0.4833332,-4.411509,-0.355570245521255,1.136177602768016,-0.4114426984127446,7.181782,145.6518,0.1134915,0.01943807,0.9535174,-0.05954732,16.059999641031,9
15.22474,0.6833333,-4.46234,-0.3191374227550447,0.6956424273916209,-0.4067115415087077,10.77016,146.1897,0.2213764,0.0291304,0.9525101,-0.08923415,16.079999640584,9
15.26137,0.8833331,-4.513158,-0.2889334543753037,0.2462042887108889,-0.3970627255236492,14.35636,146.7415,0.3654718,0.0387912,0.950548,-0.1188232,16.099999640137,9
15.45062,0.2833333,-4.759365,-0.2567405743205366,-0.080010915571117,-0.3949230621110882,3.569,146.5443,0.1134063,0.009910324,0.9572089,-0.02953787,16.1199996396899,9
15.48683,0.4833333,-4.810065,-0.2259032350307137,-0.1181869211257341,-0.3668277215074429,7.13565,147.0775,0.2601506,0.01980687,0.9571103,-0.05903712,16.1399996392429,9
15.52303,0.6833333,-4.86075,-0.2037676696289168,-0.1146261133193027,-0.3274584083249472,10.69975,147.6246,0.4419895,0.02968099,0.9560629,-0.08846954,16.1599996387959,9
15.55922,0.8833332,-4.911421,-0.1818723570772356,-0.1229072883437384,-0.2892151743114191,14.26093,148.1905,0.6613699,0.03952332,0.9540685,-0.1178059,16.1799996383488,9
15.69344,0.2833333,-5.086079,-0.2720697916389056,0.5339172743695988,-0.102052713100484,3.645255,147.952,0.1455771,0.00999999,0.9606481,-0.03021919,16.1999996379018,9
15.72959,0.4833333,-5.138499,-0.2407795716322063,0.3022818482688225,-0.0206713332626007,7.287971,148.4866,0.3254381,0.01998669,0.9604247,-0.06039855,16.2199996374547,9
15.76572,0.6833333,-5.190905,-0.2082865628176797,0.0879911845722819,0.0568663659971218,10.92781,149.0377,0.5416413,0.02995011,0.9592087,-0.09050702,16.2399996370077,9
15.80184,0.8833332,-5.24329,-0.1659871031209334,-0.1635344521265223,0.1181627530570734,14.56508,149.6104,0.7965908,0.03987823,0.9570012,-0.1205205,16.2599996365607,9
15.96129,0.2833333,-5.463244,-0.2723406663169037,0.4672847194027631,0.3682525416576174,3.608387,150.0117,0.1995435,0.009826752,0.9654576,-0.0299616,16.2799996361136,9
15.996,0.4833333,-5.515882,-0.1924325927827439,0.210361174832539,0.4699766960508915,7.213716,150.549,0.4332819,0.01964051,0.9651717,-0.05988404,16.2999996356666,9
16.0307,0.6833333,-5.568506,-0.1127385584201334,-0.0284410477981711,0.5644554585283625,10.81561,151.1062,0.7036358,0.02943148,0.9639066,-0.08973709,16.3199996352196,9
16.17048,0.2833333,-5.769065,-0.1707024290191938,0.4277606698119564,0.8261506916288957,3.543893,151.5511,0.26502,0.009838767,0.9688569,-0.02940524,16.3399996347725,9
16.20423,0.4833333,-5.821071,-0.0519667925294982,0.2371228931918724,0.9704038631442752,7.084131,152.0926,0.5640083,0.01966516,0.9685519,-0.05877291,16.3599996343255,9
16.23796,0.6833332,-5.873063,0.0903403509374456,0.0654628389524675,1.0773209977775489,10.62029,152.6575,0.8997502,0.02946932,0.9672963,-0.08807424,16.3799996338785,9
16.2717,0.8833332,-5.925042,0.2608145754603264,-0.1416906183085232,1.1378231173482083,14.1515,153.2509,1.275607,0.03923917,0.9650925,-0.117278,16.3999996334314,9
16.4532,0.2833334,-6.173471,0.4642613562044957,-0.29059121035957,1.1427146681630722,3.476793,151.4155,0.3016109,0.0100384,0.9685799,-0.02874758,16.4199996329844,9
16.48707,0.4833334,-6.224055,0.7798648980566902,-0.3537860921148849,1.1170541653553032,6.949623,151.9576,0.6366472,0.02006467,0.968326,-0.05745944,16.4399996325374,9
16.52094,0.6833333,-6.27463,1.1096885982188311,-0.3725992049652492,1.0452371688905666,10.41757,152.525,1.008417,0.03007127,0.9671553,-0.08610374,16.4599996320903,9
16.5548,0.8833333,-6.32519,1.4571930281475254,-0.4003927634045901,0.9211047893785552,13.88062,153.1224,1.420243,0.04004671,0.9650698,-0.1146584,16.4799996316433,9
16.68838,0.2833333,-6.496885,1.7019378346332843,0.2404437805018033,0.8974737506060624,3.417577,150.5855,0.267848,0.009830408,0.9667852,-0.0282493,16.4999996311963,9
16.72196,0.4833333,-6.546376,2.081371143515573,-0.0038339007593835,0.7338174024354824,6.831096,151.122,0.56824,0.019649,0.966608,-0.05646044,16.5199996307492,9
16.75553,0.6833333,-6.595852,2.4575187084921453,-0.2272034742491591,0.5181498082570464,10.24063,151.681,0.9036812,0.02944716,0.965547,-0.08461189,16.5399996303022,9
